acc,accuracy,average_response_time,avg_rt,background,canvas_backend,clock_backend,color_backend,compensation,condition,coordinates,correct,correct_Instructions1,correct_keyboard_response,correct_response,count_ISI,count_Instructions1,count_block1,count_block2,count_block3,count_errorFeedback,count_experiment,count_faster,count_finish,count_instructions2,count_instructions3,count_keyboard_response,count_logger,count_new_sketchpad,count_sequence,count_stimulus,datetime,deadline,description,disable_garbage_collection,experiment_file,experiment_path,font_bold,font_family,font_italic,font_size,font_underline,foreground,form_clicks,fullscreen,height,keyboard_backend,live_row,live_row_block1,logfile,mouse_backend,opensesame_codename,opensesame_version,repeat_cycle,response,response_Instructions1,response_finish,response_instructions2,response_instructions3,response_keyboard_response,response_time,response_time_Instructions1,response_time_finish,response_time_instructions2,response_time_instructions3,response_time_keyboard_response,round_decimals,sampler_backend,sound_buf_size,sound_channels,sound_freq,sound_sample_size,start,stimulus,subject_nr,subject_parity,time_ISI,time_Instructions1,time_block1,time_block2,time_block3,time_errorFeedback,time_experiment,time_faster,time_finish,time_instructions2,time_instructions3,time_keyboard_response,time_logger,time_new_sketchpad,time_sequence,time_stimulus,title,total_correct,total_response_time,total_responses,uniform_coordinates,width
100,100,1142,1142,black,legacy,legacy,legacy,0,incongruent,uniform,1,undefined,1,h,0,0,0,0,0,0,0,0,0,0,0,0,0,0,0,0,Fri Sep 18 21:35:23 2020,1500,The main experiment item,yes,FlankerTask.osexp,/Applications/OpenSesame.app/Contents/Resources/share/opensesame_resources,no,mono,no,18,no,white,no,no,768,legacy,0,0,/Applications/OpenSesame.app/Contents/Resources/share/opensesame_resources/th-subject-0.csv,legacy,Lentiform Loewenfeld,3.3.3,0,h,h,NA,NA,NA,h,1142,4131,NA,NA,NA,1142,2,legacy,1024,2,48000,-16,experiment,SSHSS,0,even,NA,4853,9009,NA,NA,NA,4666,NA,NA,NA,NA,9401,10545,9235,9134,9400,Flanker Task,1,1142,1,yes,1024
100,100,934.5,934.5,black,legacy,legacy,legacy,0,congruent,uniform,1,undefined,1,h,1,0,0,0,0,1,0,1,0,0,0,1,1,1,1,1,Fri Sep 18 21:35:23 2020,1500,The main experiment item,yes,FlankerTask.osexp,/Applications/OpenSesame.app/Contents/Resources/share/opensesame_resources,no,mono,no,18,no,white,no,no,768,legacy,1,1,/Applications/OpenSesame.app/Contents/Resources/share/opensesame_resources/th-subject-0.csv,legacy,Lentiform Loewenfeld,3.3.3,0,h,h,NA,NA,NA,h,727,4131,NA,NA,NA,727,2,legacy,1024,2,48000,-16,experiment,HHHHH,0,even,10612,4853,9009,NA,NA,NA,4666,NA,NA,NA,NA,12112,12848,11952,11870,12112,Flanker Task,2,1869,2,yes,1024
100,100,799,799,black,legacy,legacy,legacy,0,congruent,uniform,1,undefined,1,h,2,0,0,0,0,2,0,2,0,0,0,2,2,2,2,2,Fri Sep 18 21:35:23 2020,1500,The main experiment item,yes,FlankerTask.osexp,/Applications/OpenSesame.app/Contents/Resources/share/opensesame_resources,no,mono,no,18,no,white,no,no,768,legacy,2,2,/Applications/OpenSesame.app/Contents/Resources/share/opensesame_resources/th-subject-0.csv,legacy,Lentiform Loewenfeld,3.3.3,0,h,h,NA,NA,NA,h,528,4131,NA,NA,NA,528,2,legacy,1024,2,48000,-16,experiment,HHHHH,0,even,12906,4853,9009,NA,NA,NA,4666,NA,NA,NA,NA,14223,14753,14056,13992,14223,Flanker Task,3,2397,3,yes,1024
75,75,974.25,974.25,black,legacy,legacy,legacy,0,congruent,uniform,0,undefined,0,s,3,0,0,0,0,3,0,3,0,0,0,3,3,3,3,3,Fri Sep 18 21:35:23 2020,1500,The main experiment item,yes,FlankerTask.osexp,/Applications/OpenSesame.app/Contents/Resources/share/opensesame_resources,no,mono,no,18,no,white,no,no,768,legacy,3,3,/Applications/OpenSesame.app/Contents/Resources/share/opensesame_resources/th-subject-0.csv,legacy,Lentiform Loewenfeld,3.3.3,0,None,h,NA,NA,NA,None,1500,4131,NA,NA,NA,1500,2,legacy,1024,2,48000,-16,experiment,SSSSS,0,even,14813,4853,9009,NA,NA,NA,4666,NA,NA,NA,NA,16183,17683,15991,15889,16182,Flanker Task,3,3897,4,yes,1024
80,80,907,907,black,legacy,legacy,legacy,0,incongruent,uniform,1,undefined,1,h,4,0,0,0,0,4,0,4,0,0,0,4,4,4,4,4,Fri Sep 18 21:35:23 2020,1500,The main experiment item,yes,FlankerTask.osexp,/Applications/OpenSesame.app/Contents/Resources/share/opensesame_resources,no,mono,no,18,no,white,no,no,768,legacy,4,4,/Applications/OpenSesame.app/Contents/Resources/share/opensesame_resources/th-subject-0.csv,legacy,Lentiform Loewenfeld,3.3.3,0,h,h,NA,NA,NA,h,638,4131,NA,NA,NA,638,2,legacy,1024,2,48000,-16,experiment,SSHSS,0,even,18312,4853,9009,NA,NA,17757,4666,NA,NA,NA,NA,19632,20273,19468,19409,19631,Flanker Task,4,4535,5,yes,1024
83.33333333,83.33333333,836.8333333,836.8333333,black,legacy,legacy,legacy,0,incongruent,uniform,1,undefined,1,s,5,0,0,0,0,5,0,5,0,0,0,5,5,5,5,5,Fri Sep 18 21:35:23 2020,1500,The main experiment item,yes,FlankerTask.osexp,/Applications/OpenSesame.app/Contents/Resources/share/opensesame_resources,no,mono,no,18,no,white,no,no,768,legacy,5,5,/Applications/OpenSesame.app/Contents/Resources/share/opensesame_resources/th-subject-0.csv,legacy,Lentiform Loewenfeld,3.3.3,0,s,h,NA,NA,NA,s,486,4131,NA,NA,NA,486,2,legacy,1024,2,48000,-16,experiment,HHSHH,0,even,20348,4853,9009,NA,NA,17757,4666,NA,NA,NA,NA,21648,22136,21483,21427,21648,Flanker Task,5,5021,6,yes,1024
85.71428571,85.71428571,819.7142857,819.7142857,black,legacy,legacy,legacy,0,incongruent,uniform,1,undefined,1,s,6,0,0,0,0,6,0,6,0,0,0,6,6,6,6,6,Fri Sep 18 21:35:23 2020,1500,The main experiment item,yes,FlankerTask.osexp,/Applications/OpenSesame.app/Contents/Resources/share/opensesame_resources,no,mono,no,18,no,white,no,no,768,legacy,6,6,/Applications/OpenSesame.app/Contents/Resources/share/opensesame_resources/th-subject-0.csv,legacy,Lentiform Loewenfeld,3.3.3,0,s,h,NA,NA,NA,s,717,4131,NA,NA,NA,717,2,legacy,1024,2,48000,-16,experiment,HHSHH,0,even,22193,4853,9009,NA,NA,17757,4666,NA,NA,NA,NA,23490,24209,23331,23267,23490,Flanker Task,6,5738,7,yes,1024
75,75,762.5,762.5,black,legacy,legacy,legacy,0,incongruent,uniform,0,undefined,0,s,7,0,0,0,0,7,0,7,0,0,0,7,7,7,7,7,Fri Sep 18 21:35:23 2020,1500,The main experiment item,yes,FlankerTask.osexp,/Applications/OpenSesame.app/Contents/Resources/share/opensesame_resources,no,mono,no,18,no,white,no,no,768,legacy,7,7,/Applications/OpenSesame.app/Contents/Resources/share/opensesame_resources/th-subject-0.csv,legacy,Lentiform Loewenfeld,3.3.3,0,h,h,NA,NA,NA,h,362,4131,NA,NA,NA,362,2,legacy,1024,2,48000,-16,experiment,HHSHH,0,even,24294,4853,9009,NA,NA,17757,4666,NA,NA,NA,NA,25589,25953,25428,25370,25589,Flanker Task,6,6100,8,yes,1024
66.66666667,66.66666667,725.1111111,725.1111111,black,legacy,legacy,legacy,0,incongruent,uniform,0,undefined,0,h,8,0,0,0,0,8,0,8,0,0,0,8,8,8,8,8,Fri Sep 18 21:35:23 2020,1500,The main experiment item,yes,FlankerTask.osexp,/Applications/OpenSesame.app/Contents/Resources/share/opensesame_resources,no,mono,no,18,no,white,no,no,768,legacy,8,8,/Applications/OpenSesame.app/Contents/Resources/share/opensesame_resources/th-subject-0.csv,legacy,Lentiform Loewenfeld,3.3.3,0,s,h,NA,NA,NA,s,426,4131,NA,NA,NA,426,2,legacy,1024,2,48000,-16,experiment,SSHSS,0,even,26565,4853,9009,NA,NA,26009,4666,NA,NA,NA,NA,27888,28321,27704,27650,27888,Flanker Task,6,6526,9,yes,1024
70,70,763.7,763.7,black,legacy,legacy,legacy,0,congruent,uniform,1,undefined,1,s,9,0,0,0,0,9,0,9,0,0,0,9,9,9,9,9,Fri Sep 18 21:35:23 2020,1500,The main experiment item,yes,FlankerTask.osexp,/Applications/OpenSesame.app/Contents/Resources/share/opensesame_resources,no,mono,no,18,no,white,no,no,768,legacy,9,9,/Applications/OpenSesame.app/Contents/Resources/share/opensesame_resources/th-subject-0.csv,legacy,Lentiform Loewenfeld,3.3.3,0,s,h,NA,NA,NA,s,1111,4131,NA,NA,NA,1111,2,legacy,1024,2,48000,-16,experiment,SSSSS,0,even,28978,4853,9009,NA,NA,28421,4666,NA,NA,NA,NA,30273,31385,30115,30057,30272,Flanker Task,7,7637,10,yes,1024
72.72727273,72.72727273,745.9090909,745.9090909,black,legacy,legacy,legacy,0,incongruent,uniform,1,undefined,1,s,10,0,0,0,0,10,0,10,0,0,0,10,10,10,10,10,Fri Sep 18 21:35:23 2020,1500,The main experiment item,yes,FlankerTask.osexp,/Applications/OpenSesame.app/Contents/Resources/share/opensesame_resources,no,mono,no,18,no,white,no,no,768,legacy,10,10,/Applications/OpenSesame.app/Contents/Resources/share/opensesame_resources/th-subject-0.csv,legacy,Lentiform Loewenfeld,3.3.3,0,s,h,NA,NA,NA,s,568,4131,NA,NA,NA,568,2,legacy,1024,2,48000,-16,experiment,HHSHH,0,even,31442,4853,9009,NA,NA,28421,4666,NA,NA,NA,NA,32719,33288,32566,32512,32719,Flanker Task,8,8205,11,yes,1024
75,75,717.5,717.5,black,legacy,legacy,legacy,0,congruent,uniform,1,undefined,1,s,11,0,0,0,0,11,0,11,0,0,0,11,11,11,11,11,Fri Sep 18 21:35:23 2020,1500,The main experiment item,yes,FlankerTask.osexp,/Applications/OpenSesame.app/Contents/Resources/share/opensesame_resources,no,mono,no,18,no,white,no,no,768,legacy,11,11,/Applications/OpenSesame.app/Contents/Resources/share/opensesame_resources/th-subject-0.csv,legacy,Lentiform Loewenfeld,3.3.3,0,s,h,NA,NA,NA,s,405,4131,NA,NA,NA,405,2,legacy,1024,2,48000,-16,experiment,SSSSS,0,even,33358,4853,9009,NA,NA,28421,4666,NA,NA,NA,NA,34634,35040,34482,34427,34634,Flanker Task,9,8610,12,yes,1024
76.92307692,76.92307692,690.1538462,690.1538462,black,legacy,legacy,legacy,0,congruent,uniform,1,undefined,1,s,12,0,0,0,0,12,0,12,0,0,0,12,12,12,12,12,Fri Sep 18 21:35:23 2020,1500,The main experiment item,yes,FlankerTask.osexp,/Applications/OpenSesame.app/Contents/Resources/share/opensesame_resources,no,mono,no,18,no,white,no,no,768,legacy,12,12,/Applications/OpenSesame.app/Contents/Resources/share/opensesame_resources/th-subject-0.csv,legacy,Lentiform Loewenfeld,3.3.3,0,s,h,NA,NA,NA,s,362,4131,NA,NA,NA,362,2,legacy,1024,2,48000,-16,experiment,SSSSS,0,even,35105,4853,9009,NA,NA,28421,4666,NA,NA,NA,NA,36382,36745,36226,36172,36382,Flanker Task,10,8972,13,yes,1024
78.57142857,78.57142857,669.3571429,669.3571429,black,legacy,legacy,legacy,0,congruent,uniform,1,undefined,1,h,13,0,0,0,0,13,0,13,0,0,0,13,13,13,13,13,Fri Sep 18 21:35:23 2020,1500,The main experiment item,yes,FlankerTask.osexp,/Applications/OpenSesame.app/Contents/Resources/share/opensesame_resources,no,mono,no,18,no,white,no,no,768,legacy,13,13,/Applications/OpenSesame.app/Contents/Resources/share/opensesame_resources/th-subject-0.csv,legacy,Lentiform Loewenfeld,3.3.3,0,h,h,NA,NA,NA,h,399,4131,NA,NA,NA,399,2,legacy,1024,2,48000,-16,experiment,HHHHH,0,even,36811,4853,9009,NA,NA,28421,4666,NA,NA,NA,NA,38105,38505,37945,37888,38105,Flanker Task,11,9371,14,yes,1024
80,80,665.4666667,665.4666667,black,legacy,legacy,legacy,0,incongruent,uniform,1,undefined,1,h,14,0,0,0,0,14,0,14,0,0,0,14,14,14,14,14,Fri Sep 18 21:35:23 2020,1500,The main experiment item,yes,FlankerTask.osexp,/Applications/OpenSesame.app/Contents/Resources/share/opensesame_resources,no,mono,no,18,no,white,no,no,768,legacy,14,14,/Applications/OpenSesame.app/Contents/Resources/share/opensesame_resources/th-subject-0.csv,legacy,Lentiform Loewenfeld,3.3.3,0,h,h,NA,NA,NA,h,611,4131,NA,NA,NA,611,2,legacy,1024,2,48000,-16,experiment,SSHSS,0,even,38573,4853,9009,NA,NA,28421,4666,NA,NA,NA,NA,39853,40466,39694,39641,39853,Flanker Task,12,9982,15,yes,1024
81.25,81.25,658.4375,658.4375,black,legacy,legacy,legacy,0,congruent,uniform,1,undefined,1,h,15,0,0,0,0,15,0,15,0,0,0,15,15,15,15,15,Fri Sep 18 21:35:23 2020,1500,The main experiment item,yes,FlankerTask.osexp,/Applications/OpenSesame.app/Contents/Resources/share/opensesame_resources,no,mono,no,18,no,white,no,no,768,legacy,15,15,/Applications/OpenSesame.app/Contents/Resources/share/opensesame_resources/th-subject-0.csv,legacy,Lentiform Loewenfeld,3.3.3,0,h,h,NA,NA,NA,h,553,4131,NA,NA,NA,553,2,legacy,1024,2,48000,-16,experiment,HHHHH,0,even,40528,4853,9009,NA,NA,28421,4666,NA,NA,NA,NA,41823,42378,41665,41608,41823,Flanker Task,13,10535,16,yes,1024
82.35294118,82.35294118,650.3529412,650.3529412,black,legacy,legacy,legacy,0,incongruent,uniform,1,undefined,1,s,16,0,0,0,0,16,0,16,0,0,0,16,16,16,16,16,Fri Sep 18 21:35:23 2020,1500,The main experiment item,yes,FlankerTask.osexp,/Applications/OpenSesame.app/Contents/Resources/share/opensesame_resources,no,mono,no,18,no,white,no,no,768,legacy,16,16,/Applications/OpenSesame.app/Contents/Resources/share/opensesame_resources/th-subject-0.csv,legacy,Lentiform Loewenfeld,3.3.3,0,s,h,NA,NA,NA,s,521,4131,NA,NA,NA,521,2,legacy,1024,2,48000,-16,experiment,HHSHH,0,even,42441,4853,9009,NA,NA,28421,4666,NA,NA,NA,NA,43726,44248,43573,43518,43726,Flanker Task,14,11056,17,yes,1024
83.33333333,83.33333333,642.6111111,642.6111111,black,legacy,legacy,legacy,0,congruent,uniform,1,undefined,1,h,17,0,0,0,0,17,0,17,0,0,0,17,17,17,17,17,Fri Sep 18 21:35:23 2020,1500,The main experiment item,yes,FlankerTask.osexp,/Applications/OpenSesame.app/Contents/Resources/share/opensesame_resources,no,mono,no,18,no,white,no,no,768,legacy,17,17,/Applications/OpenSesame.app/Contents/Resources/share/opensesame_resources/th-subject-0.csv,legacy,Lentiform Loewenfeld,3.3.3,0,h,h,NA,NA,NA,h,511,4131,NA,NA,NA,511,2,legacy,1024,2,48000,-16,experiment,HHHHH,0,even,44302,4853,9009,NA,NA,28421,4666,NA,NA,NA,NA,45584,46097,45425,45372,45584,Flanker Task,15,11567,18,yes,1024
84.21052632,84.21052632,636.9473684,636.9473684,black,legacy,legacy,legacy,0,incongruent,uniform,1,undefined,1,h,18,0,0,0,0,18,0,18,0,0,0,18,18,18,18,18,Fri Sep 18 21:35:23 2020,1500,The main experiment item,yes,FlankerTask.osexp,/Applications/OpenSesame.app/Contents/Resources/share/opensesame_resources,no,mono,no,18,no,white,no,no,768,legacy,18,18,/Applications/OpenSesame.app/Contents/Resources/share/opensesame_resources/th-subject-0.csv,legacy,Lentiform Loewenfeld,3.3.3,0,h,h,NA,NA,NA,h,535,4131,NA,NA,NA,535,2,legacy,1024,2,48000,-16,experiment,SSHSS,0,even,46160,4853,9009,NA,NA,28421,4666,NA,NA,NA,NA,47441,47978,47286,47228,47441,Flanker Task,16,12102,19,yes,1024
85,85,628.5,628.5,black,legacy,legacy,legacy,0,congruent,uniform,1,undefined,1,s,19,0,0,0,0,19,0,19,0,0,0,19,19,19,19,19,Fri Sep 18 21:35:23 2020,1500,The main experiment item,yes,FlankerTask.osexp,/Applications/OpenSesame.app/Contents/Resources/share/opensesame_resources,no,mono,no,18,no,white,no,no,768,legacy,19,19,/Applications/OpenSesame.app/Contents/Resources/share/opensesame_resources/th-subject-0.csv,legacy,Lentiform Loewenfeld,3.3.3,0,s,h,NA,NA,NA,s,468,4131,NA,NA,NA,468,2,legacy,1024,2,48000,-16,experiment,SSSSS,0,even,48032,4853,9009,NA,NA,28421,4666,NA,NA,NA,NA,49396,49881,49207,49119,49395,Flanker Task,17,12570,20,yes,1024
80.95238095,80.95238095,614.6190476,614.6190476,black,legacy,legacy,legacy,0,incongruent,uniform,0,undefined,0,h,20,0,0,0,0,20,0,20,0,0,0,20,20,20,20,20,Fri Sep 18 21:35:23 2020,1500,The main experiment item,yes,FlankerTask.osexp,/Applications/OpenSesame.app/Contents/Resources/share/opensesame_resources,no,mono,no,18,no,white,no,no,768,legacy,20,20,/Applications/OpenSesame.app/Contents/Resources/share/opensesame_resources/th-subject-0.csv,legacy,Lentiform Loewenfeld,3.3.3,0,s,h,NA,NA,NA,s,337,4131,NA,NA,NA,337,2,legacy,1024,2,48000,-16,experiment,SSHSS,0,even,49995,4853,9009,NA,NA,28421,4666,NA,NA,NA,NA,51408,51760,51212,51124,51408,Flanker Task,17,12907,21,yes,1024
81.81818182,81.81818182,613.1363636,613.1363636,black,legacy,legacy,legacy,0,incongruent,uniform,1,undefined,1,h,21,0,0,0,0,21,0,21,0,0,0,21,21,21,21,21,Fri Sep 18 21:35:23 2020,1500,The main experiment item,yes,FlankerTask.osexp,/Applications/OpenSesame.app/Contents/Resources/share/opensesame_resources,no,mono,no,18,no,white,no,no,768,legacy,21,21,/Applications/OpenSesame.app/Contents/Resources/share/opensesame_resources/th-subject-0.csv,legacy,Lentiform Loewenfeld,3.3.3,0,h,h,NA,NA,NA,h,582,4131,NA,NA,NA,582,2,legacy,1024,2,48000,-16,experiment,SSHSS,0,even,52458,4853,9009,NA,NA,51881,4666,NA,NA,NA,NA,53834,54418,53652,53575,53834,Flanker Task,18,13489,22,yes,1024
82.60869565,82.60869565,615.9565217,615.9565217,black,legacy,legacy,legacy,0,incongruent,uniform,1,undefined,1,s,22,0,0,0,0,22,0,22,0,0,0,22,22,22,22,22,Fri Sep 18 21:35:23 2020,1500,The main experiment item,yes,FlankerTask.osexp,/Applications/OpenSesame.app/Contents/Resources/share/opensesame_resources,no,mono,no,18,no,white,no,no,768,legacy,22,22,/Applications/OpenSesame.app/Contents/Resources/share/opensesame_resources/th-subject-0.csv,legacy,Lentiform Loewenfeld,3.3.3,0,s,h,NA,NA,NA,s,678,4131,NA,NA,NA,678,2,legacy,1024,2,48000,-16,experiment,HHSHH,0,even,54483,4853,9009,NA,NA,51881,4666,NA,NA,NA,NA,55763,56443,55610,55556,55763,Flanker Task,19,14167,23,yes,1024
83.33333333,83.33333333,610.2916667,610.2916667,black,legacy,legacy,legacy,0,incongruent,uniform,1,undefined,1,s,23,0,0,0,0,23,0,23,0,0,0,23,23,23,23,23,Fri Sep 18 21:35:23 2020,1500,The main experiment item,yes,FlankerTask.osexp,/Applications/OpenSesame.app/Contents/Resources/share/opensesame_resources,no,mono,no,18,no,white,no,no,768,legacy,23,23,/Applications/OpenSesame.app/Contents/Resources/share/opensesame_resources/th-subject-0.csv,legacy,Lentiform Loewenfeld,3.3.3,0,s,h,NA,NA,NA,s,480,4131,NA,NA,NA,480,2,legacy,1024,2,48000,-16,experiment,HHSHH,0,even,56498,4853,9009,NA,NA,51881,4666,NA,NA,NA,NA,57775,58257,57621,57568,57774,Flanker Task,20,14647,24,yes,1024
84,84,604.08,604.08,black,legacy,legacy,legacy,0,incongruent,uniform,1,undefined,1,s,24,0,0,0,0,24,0,24,0,0,0,24,24,24,24,24,Fri Sep 18 21:35:23 2020,1500,The main experiment item,yes,FlankerTask.osexp,/Applications/OpenSesame.app/Contents/Resources/share/opensesame_resources,no,mono,no,18,no,white,no,no,768,legacy,24,24,/Applications/OpenSesame.app/Contents/Resources/share/opensesame_resources/th-subject-0.csv,legacy,Lentiform Loewenfeld,3.3.3,0,s,h,NA,NA,NA,s,455,4131,NA,NA,NA,455,2,legacy,1024,2,48000,-16,experiment,HHSHH,0,even,58327,4853,9009,NA,NA,51881,4666,NA,NA,NA,NA,59611,60068,59457,59398,59611,Flanker Task,21,15102,25,yes,1024
84.61538462,84.61538462,596.6923077,596.6923077,black,legacy,legacy,legacy,0,incongruent,uniform,1,undefined,1,s,25,0,0,0,0,25,0,25,0,0,0,25,25,25,25,25,Fri Sep 18 21:35:23 2020,1500,The main experiment item,yes,FlankerTask.osexp,/Applications/OpenSesame.app/Contents/Resources/share/opensesame_resources,no,mono,no,18,no,white,no,no,768,legacy,25,25,/Applications/OpenSesame.app/Contents/Resources/share/opensesame_resources/th-subject-0.csv,legacy,Lentiform Loewenfeld,3.3.3,0,s,h,NA,NA,NA,s,412,4131,NA,NA,NA,412,2,legacy,1024,2,48000,-16,experiment,HHSHH,0,even,60129,4853,9009,NA,NA,51881,4666,NA,NA,NA,NA,61420,61834,61266,61208,61420,Flanker Task,22,15514,26,yes,1024
85.18518519,85.18518519,591.7407407,591.7407407,black,legacy,legacy,legacy,0,congruent,uniform,1,undefined,1,h,26,0,0,0,0,26,0,26,0,0,0,26,26,26,26,26,Fri Sep 18 21:35:23 2020,1500,The main experiment item,yes,FlankerTask.osexp,/Applications/OpenSesame.app/Contents/Resources/share/opensesame_resources,no,mono,no,18,no,white,no,no,768,legacy,26,26,/Applications/OpenSesame.app/Contents/Resources/share/opensesame_resources/th-subject-0.csv,legacy,Lentiform Loewenfeld,3.3.3,0,h,h,NA,NA,NA,h,463,4131,NA,NA,NA,463,2,legacy,1024,2,48000,-16,experiment,HHHHH,0,even,61889,4853,9009,NA,NA,51881,4666,NA,NA,NA,NA,63161,63626,63009,62957,63161,Flanker Task,23,15977,27,yes,1024
85.71428571,85.71428571,584.6428571,584.6428571,black,legacy,legacy,legacy,0,congruent,uniform,1,undefined,1,s,27,0,0,0,0,27,0,27,0,0,0,27,27,27,27,27,Fri Sep 18 21:35:23 2020,1500,The main experiment item,yes,FlankerTask.osexp,/Applications/OpenSesame.app/Contents/Resources/share/opensesame_resources,no,mono,no,18,no,white,no,no,768,legacy,27,27,/Applications/OpenSesame.app/Contents/Resources/share/opensesame_resources/th-subject-0.csv,legacy,Lentiform Loewenfeld,3.3.3,0,s,h,NA,NA,NA,s,393,4131,NA,NA,NA,393,2,legacy,1024,2,48000,-16,experiment,SSSSS,0,even,63688,4853,9009,NA,NA,51881,4666,NA,NA,NA,NA,64968,65363,64815,64762,64967,Flanker Task,24,16370,28,yes,1024
86.20689655,86.20689655,581.7241379,581.7241379,black,legacy,legacy,legacy,0,incongruent,uniform,1,undefined,1,h,28,0,0,0,0,28,0,28,0,0,0,28,28,28,28,28,Fri Sep 18 21:35:23 2020,1500,The main experiment item,yes,FlankerTask.osexp,/Applications/OpenSesame.app/Contents/Resources/share/opensesame_resources,no,mono,no,18,no,white,no,no,768,legacy,28,28,/Applications/OpenSesame.app/Contents/Resources/share/opensesame_resources/th-subject-0.csv,legacy,Lentiform Loewenfeld,3.3.3,0,h,h,NA,NA,NA,h,500,4131,NA,NA,NA,500,2,legacy,1024,2,48000,-16,experiment,SSHSS,0,even,65426,4853,9009,NA,NA,51881,4666,NA,NA,NA,NA,66700,67202,66548,66495,66700,Flanker Task,25,16870,29,yes,1024
86.66666667,86.66666667,578.7333333,578.7333333,black,legacy,legacy,legacy,0,congruent,uniform,1,undefined,1,h,29,0,0,0,0,29,0,29,0,0,0,29,29,29,29,29,Fri Sep 18 21:35:23 2020,1500,The main experiment item,yes,FlankerTask.osexp,/Applications/OpenSesame.app/Contents/Resources/share/opensesame_resources,no,mono,no,18,no,white,no,no,768,legacy,29,29,/Applications/OpenSesame.app/Contents/Resources/share/opensesame_resources/th-subject-0.csv,legacy,Lentiform Loewenfeld,3.3.3,0,h,h,NA,NA,NA,h,492,4131,NA,NA,NA,492,2,legacy,1024,2,48000,-16,experiment,HHHHH,0,even,67287,4853,9009,NA,NA,51881,4666,NA,NA,NA,NA,68580,69074,68411,68357,68580,Flanker Task,26,17362,30,yes,1024
87.09677419,87.09677419,578.3225806,578.3225806,black,legacy,legacy,legacy,0,incongruent,uniform,1,undefined,1,s,30,0,0,0,0,30,0,30,0,0,0,30,30,30,30,30,Fri Sep 18 21:35:23 2020,1500,The main experiment item,yes,FlankerTask.osexp,/Applications/OpenSesame.app/Contents/Resources/share/opensesame_resources,no,mono,no,18,no,white,no,no,768,legacy,30,30,/Applications/OpenSesame.app/Contents/Resources/share/opensesame_resources/th-subject-0.csv,legacy,Lentiform Loewenfeld,3.3.3,0,s,h,NA,NA,NA,s,566,4131,NA,NA,NA,566,2,legacy,1024,2,48000,-16,experiment,HHSHH,0,even,69140,4853,9009,NA,NA,51881,4666,NA,NA,NA,NA,70434,71001,70277,70224,70434,Flanker Task,27,17928,31,yes,1024
87.5,87.5,576.8125,576.8125,black,legacy,legacy,legacy,0,incongruent,uniform,1,undefined,1,h,31,0,0,0,0,31,0,31,0,0,0,31,31,31,31,31,Fri Sep 18 21:35:23 2020,1500,The main experiment item,yes,FlankerTask.osexp,/Applications/OpenSesame.app/Contents/Resources/share/opensesame_resources,no,mono,no,18,no,white,no,no,768,legacy,31,31,/Applications/OpenSesame.app/Contents/Resources/share/opensesame_resources/th-subject-0.csv,legacy,Lentiform Loewenfeld,3.3.3,0,h,h,NA,NA,NA,h,530,4131,NA,NA,NA,530,2,legacy,1024,2,48000,-16,experiment,SSHSS,0,even,71068,4853,9009,NA,NA,51881,4666,NA,NA,NA,NA,72343,72874,72190,72138,72343,Flanker Task,28,18458,32,yes,1024
87.87878788,87.87878788,574.0909091,574.0909091,black,legacy,legacy,legacy,0,congruent,uniform,1,undefined,1,h,32,0,0,0,0,32,0,32,0,0,0,32,32,32,32,32,Fri Sep 18 21:35:23 2020,1500,The main experiment item,yes,FlankerTask.osexp,/Applications/OpenSesame.app/Contents/Resources/share/opensesame_resources,no,mono,no,18,no,white,no,no,768,legacy,32,32,/Applications/OpenSesame.app/Contents/Resources/share/opensesame_resources/th-subject-0.csv,legacy,Lentiform Loewenfeld,3.3.3,0,h,h,NA,NA,NA,h,487,4131,NA,NA,NA,487,2,legacy,1024,2,48000,-16,experiment,HHHHH,0,even,72936,4853,9009,NA,NA,51881,4666,NA,NA,NA,NA,74210,74699,74056,74003,74209,Flanker Task,29,18945,33,yes,1024
88.23529412,88.23529412,571.6470588,571.6470588,black,legacy,legacy,legacy,0,incongruent,uniform,1,undefined,1,h,33,0,0,0,0,33,0,33,0,0,0,33,33,33,33,33,Fri Sep 18 21:35:23 2020,1500,The main experiment item,yes,FlankerTask.osexp,/Applications/OpenSesame.app/Contents/Resources/share/opensesame_resources,no,mono,no,18,no,white,no,no,768,legacy,33,33,/Applications/OpenSesame.app/Contents/Resources/share/opensesame_resources/th-subject-0.csv,legacy,Lentiform Loewenfeld,3.3.3,0,h,h,NA,NA,NA,h,491,4131,NA,NA,NA,491,2,legacy,1024,2,48000,-16,experiment,SSHSS,0,even,74763,4853,9009,NA,NA,51881,4666,NA,NA,NA,NA,76038,76531,75885,75831,76038,Flanker Task,30,19436,34,yes,1024
88.57142857,88.57142857,572.3714286,572.3714286,black,legacy,legacy,legacy,0,incongruent,uniform,1,undefined,1,h,34,0,0,0,0,34,0,34,0,0,0,34,34,34,34,34,Fri Sep 18 21:35:23 2020,1500,The main experiment item,yes,FlankerTask.osexp,/Applications/OpenSesame.app/Contents/Resources/share/opensesame_resources,no,mono,no,18,no,white,no,no,768,legacy,34,34,/Applications/OpenSesame.app/Contents/Resources/share/opensesame_resources/th-subject-0.csv,legacy,Lentiform Loewenfeld,3.3.3,0,h,h,NA,NA,NA,h,597,4131,NA,NA,NA,597,2,legacy,1024,2,48000,-16,experiment,SSHSS,0,even,76593,4853,9009,NA,NA,51881,4666,NA,NA,NA,NA,77884,78483,77729,77668,77884,Flanker Task,31,20033,35,yes,1024
88.88888889,88.88888889,569.25,569.25,black,legacy,legacy,legacy,0,congruent,uniform,1,undefined,1,s,35,0,0,0,0,35,0,35,0,0,0,35,35,35,35,35,Fri Sep 18 21:35:23 2020,1500,The main experiment item,yes,FlankerTask.osexp,/Applications/OpenSesame.app/Contents/Resources/share/opensesame_resources,no,mono,no,18,no,white,no,no,768,legacy,35,35,/Applications/OpenSesame.app/Contents/Resources/share/opensesame_resources/th-subject-0.csv,legacy,Lentiform Loewenfeld,3.3.3,0,s,h,NA,NA,NA,s,460,4131,NA,NA,NA,460,2,legacy,1024,2,48000,-16,experiment,SSSSS,0,even,78539,4853,9009,NA,NA,51881,4666,NA,NA,NA,NA,79812,80274,79660,79607,79812,Flanker Task,32,20493,36,yes,1024
89.18918919,89.18918919,570.5405405,570.5405405,black,legacy,legacy,legacy,0,incongruent,uniform,1,undefined,1,s,36,0,0,0,0,36,0,36,0,0,0,36,36,36,36,36,Fri Sep 18 21:35:23 2020,1500,The main experiment item,yes,FlankerTask.osexp,/Applications/OpenSesame.app/Contents/Resources/share/opensesame_resources,no,mono,no,18,no,white,no,no,768,legacy,36,36,/Applications/OpenSesame.app/Contents/Resources/share/opensesame_resources/th-subject-0.csv,legacy,Lentiform Loewenfeld,3.3.3,0,s,h,NA,NA,NA,s,617,4131,NA,NA,NA,617,2,legacy,1024,2,48000,-16,experiment,HHSHH,0,even,80338,4853,9009,NA,NA,51881,4666,NA,NA,NA,NA,81631,82250,81478,81423,81631,Flanker Task,33,21110,37,yes,1024
89.47368421,89.47368421,569.5263158,569.5263158,black,legacy,legacy,legacy,0,congruent,uniform,1,undefined,1,h,37,0,0,0,0,37,0,37,0,0,0,37,37,37,37,37,Fri Sep 18 21:35:23 2020,1500,The main experiment item,yes,FlankerTask.osexp,/Applications/OpenSesame.app/Contents/Resources/share/opensesame_resources,no,mono,no,18,no,white,no,no,768,legacy,37,37,/Applications/OpenSesame.app/Contents/Resources/share/opensesame_resources/th-subject-0.csv,legacy,Lentiform Loewenfeld,3.3.3,0,h,h,NA,NA,NA,h,532,4131,NA,NA,NA,532,2,legacy,1024,2,48000,-16,experiment,HHHHH,0,even,82313,4853,9009,NA,NA,51881,4666,NA,NA,NA,NA,83596,84130,83444,83382,83596,Flanker Task,34,21642,38,yes,1024
89.74358974,89.74358974,568.1025641,568.1025641,black,legacy,legacy,legacy,0,incongruent,uniform,1,undefined,1,h,38,0,0,0,0,38,0,38,0,0,0,38,38,38,38,38,Fri Sep 18 21:35:23 2020,1500,The main experiment item,yes,FlankerTask.osexp,/Applications/OpenSesame.app/Contents/Resources/share/opensesame_resources,no,mono,no,18,no,white,no,no,768,legacy,38,38,/Applications/OpenSesame.app/Contents/Resources/share/opensesame_resources/th-subject-0.csv,legacy,Lentiform Loewenfeld,3.3.3,0,h,h,NA,NA,NA,h,514,4131,NA,NA,NA,514,2,legacy,1024,2,48000,-16,experiment,SSHSS,0,even,84192,4853,9009,NA,NA,51881,4666,NA,NA,NA,NA,85471,85987,85313,85261,85471,Flanker Task,35,22156,39,yes,1024
90,90,566.375,566.375,black,legacy,legacy,legacy,0,incongruent,uniform,1,undefined,1,h,39,0,0,0,0,39,0,39,0,0,0,39,39,39,39,39,Fri Sep 18 21:35:23 2020,1500,The main experiment item,yes,FlankerTask.osexp,/Applications/OpenSesame.app/Contents/Resources/share/opensesame_resources,no,mono,no,18,no,white,no,no,768,legacy,39,39,/Applications/OpenSesame.app/Contents/Resources/share/opensesame_resources/th-subject-0.csv,legacy,Lentiform Loewenfeld,3.3.3,0,h,h,NA,NA,NA,h,499,4131,NA,NA,NA,499,2,legacy,1024,2,48000,-16,experiment,SSHSS,0,even,86050,4853,9009,NA,NA,51881,4666,NA,NA,NA,NA,87326,87827,87172,87119,87325,Flanker Task,36,22655,40,yes,1024
90.24390244,90.24390244,564.804878,564.804878,black,legacy,legacy,legacy,0,congruent,uniform,1,undefined,1,s,40,0,0,0,0,40,0,40,0,0,0,40,40,40,40,40,Fri Sep 18 21:35:23 2020,1500,The main experiment item,yes,FlankerTask.osexp,/Applications/OpenSesame.app/Contents/Resources/share/opensesame_resources,no,mono,no,18,no,white,no,no,768,legacy,40,40,/Applications/OpenSesame.app/Contents/Resources/share/opensesame_resources/th-subject-0.csv,legacy,Lentiform Loewenfeld,3.3.3,0,s,h,NA,NA,NA,s,502,4131,NA,NA,NA,502,2,legacy,1024,2,48000,-16,experiment,SSSSS,0,even,87891,4853,9009,NA,NA,51881,4666,NA,NA,NA,NA,89163,89667,89011,88959,89163,Flanker Task,37,23157,41,yes,1024
90.47619048,90.47619048,561.0238095,561.0238095,black,legacy,legacy,legacy,0,congruent,uniform,1,undefined,1,s,41,0,0,0,0,41,0,41,0,0,0,41,41,41,41,41,Fri Sep 18 21:35:23 2020,1500,The main experiment item,yes,FlankerTask.osexp,/Applications/OpenSesame.app/Contents/Resources/share/opensesame_resources,no,mono,no,18,no,white,no,no,768,legacy,41,41,/Applications/OpenSesame.app/Contents/Resources/share/opensesame_resources/th-subject-0.csv,legacy,Lentiform Loewenfeld,3.3.3,0,s,h,NA,NA,NA,s,406,4131,NA,NA,NA,406,2,legacy,1024,2,48000,-16,experiment,SSSSS,0,even,89730,4853,9009,NA,NA,51881,4666,NA,NA,NA,NA,91003,91411,90851,90798,91003,Flanker Task,38,23563,42,yes,1024
90.69767442,90.69767442,559.0232558,559.0232558,black,legacy,legacy,legacy,0,congruent,uniform,1,undefined,1,h,42,0,0,0,0,42,0,42,0,0,0,42,42,42,42,42,Fri Sep 18 21:35:23 2020,1500,The main experiment item,yes,FlankerTask.osexp,/Applications/OpenSesame.app/Contents/Resources/share/opensesame_resources,no,mono,no,18,no,white,no,no,768,legacy,42,42,/Applications/OpenSesame.app/Contents/Resources/share/opensesame_resources/th-subject-0.csv,legacy,Lentiform Loewenfeld,3.3.3,0,h,h,NA,NA,NA,h,475,4131,NA,NA,NA,475,2,legacy,1024,2,48000,-16,experiment,HHHHH,0,even,91475,4853,9009,NA,NA,51881,4666,NA,NA,NA,NA,92757,93234,92601,92548,92757,Flanker Task,39,24038,43,yes,1024
88.63636364,88.63636364,554.2045455,554.2045455,black,legacy,legacy,legacy,0,congruent,uniform,0,undefined,0,s,43,0,0,0,0,43,0,43,0,0,0,43,43,43,43,43,Fri Sep 18 21:35:23 2020,1500,The main experiment item,yes,FlankerTask.osexp,/Applications/OpenSesame.app/Contents/Resources/share/opensesame_resources,no,mono,no,18,no,white,no,no,768,legacy,43,43,/Applications/OpenSesame.app/Contents/Resources/share/opensesame_resources/th-subject-0.csv,legacy,Lentiform Loewenfeld,3.3.3,0,h,h,NA,NA,NA,h,347,4131,NA,NA,NA,347,2,legacy,1024,2,48000,-16,experiment,SSSSS,0,even,93297,4853,9009,NA,NA,51881,4666,NA,NA,NA,NA,94574,94923,94420,94366,94574,Flanker Task,39,24385,44,yes,1024
88.88888889,88.88888889,554.3777778,554.3777778,black,legacy,legacy,legacy,0,congruent,uniform,1,undefined,1,h,44,0,0,0,0,44,0,44,0,0,0,44,44,44,44,44,Fri Sep 18 21:35:23 2020,1500,The main experiment item,yes,FlankerTask.osexp,/Applications/OpenSesame.app/Contents/Resources/share/opensesame_resources,no,mono,no,18,no,white,no,no,768,legacy,44,44,/Applications/OpenSesame.app/Contents/Resources/share/opensesame_resources/th-subject-0.csv,legacy,Lentiform Loewenfeld,3.3.3,0,h,h,NA,NA,NA,h,562,4131,NA,NA,NA,562,2,legacy,1024,2,48000,-16,experiment,HHHHH,0,even,95531,4853,9009,NA,NA,94977,4666,NA,NA,NA,NA,96816,97380,96663,96607,96816,Flanker Task,40,24947,45,yes,1024
89.13043478,89.13043478,552.6956522,552.6956522,black,legacy,legacy,legacy,0,incongruent,uniform,1,undefined,1,s,45,0,0,0,0,45,0,45,0,0,0,45,45,45,45,45,Fri Sep 18 21:35:23 2020,1500,The main experiment item,yes,FlankerTask.osexp,/Applications/OpenSesame.app/Contents/Resources/share/opensesame_resources,no,mono,no,18,no,white,no,no,768,legacy,45,45,/Applications/OpenSesame.app/Contents/Resources/share/opensesame_resources/th-subject-0.csv,legacy,Lentiform Loewenfeld,3.3.3,0,s,h,NA,NA,NA,s,477,4131,NA,NA,NA,477,2,legacy,1024,2,48000,-16,experiment,HHSHH,0,even,97443,4853,9009,NA,NA,94977,4666,NA,NA,NA,NA,98724,99203,98565,98511,98723,Flanker Task,41,25424,46,yes,1024
89.36170213,89.36170213,550.3404255,550.3404255,black,legacy,legacy,legacy,0,congruent,uniform,1,undefined,1,h,46,0,0,0,0,46,0,46,0,0,0,46,46,46,46,46,Fri Sep 18 21:35:23 2020,1500,The main experiment item,yes,FlankerTask.osexp,/Applications/OpenSesame.app/Contents/Resources/share/opensesame_resources,no,mono,no,18,no,white,no,no,768,legacy,46,46,/Applications/OpenSesame.app/Contents/Resources/share/opensesame_resources/th-subject-0.csv,legacy,Lentiform Loewenfeld,3.3.3,0,h,h,NA,NA,NA,h,442,4131,NA,NA,NA,442,2,legacy,1024,2,48000,-16,experiment,HHHHH,0,even,99272,4853,9009,NA,NA,94977,4666,NA,NA,NA,NA,100583,101027,100420,100354,100582,Flanker Task,42,25866,47,yes,1024
89.58333333,89.58333333,549.3541667,549.3541667,black,legacy,legacy,legacy,0,congruent,uniform,1,undefined,1,h,47,0,0,0,0,47,0,47,0,0,0,47,47,47,47,47,Fri Sep 18 21:35:23 2020,1500,The main experiment item,yes,FlankerTask.osexp,/Applications/OpenSesame.app/Contents/Resources/share/opensesame_resources,no,mono,no,18,no,white,no,no,768,legacy,47,47,/Applications/OpenSesame.app/Contents/Resources/share/opensesame_resources/th-subject-0.csv,legacy,Lentiform Loewenfeld,3.3.3,0,h,h,NA,NA,NA,h,503,4131,NA,NA,NA,503,2,legacy,1024,2,48000,-16,experiment,HHHHH,0,even,101101,4853,9009,NA,NA,94977,4666,NA,NA,NA,NA,102403,102908,102239,102179,102403,Flanker Task,43,26369,48,yes,1024
89.79591837,89.79591837,552.7142857,552.7142857,black,legacy,legacy,legacy,0,incongruent,uniform,1,undefined,1,h,48,0,0,0,0,48,0,48,0,0,0,48,48,48,48,48,Fri Sep 18 21:35:23 2020,1500,The main experiment item,yes,FlankerTask.osexp,/Applications/OpenSesame.app/Contents/Resources/share/opensesame_resources,no,mono,no,18,no,white,no,no,768,legacy,48,48,/Applications/OpenSesame.app/Contents/Resources/share/opensesame_resources/th-subject-0.csv,legacy,Lentiform Loewenfeld,3.3.3,0,h,h,NA,NA,NA,h,714,4131,NA,NA,NA,714,2,legacy,1024,2,48000,-16,experiment,SSHSS,0,even,102986,4853,9009,NA,NA,94977,4666,NA,NA,NA,NA,104272,104987,104117,104060,104272,Flanker Task,44,27083,49,yes,1024
90,90,548.88,548.88,black,legacy,legacy,legacy,0,incongruent,uniform,1,undefined,1,s,49,0,0,0,0,49,0,49,0,0,0,49,49,49,49,49,Fri Sep 18 21:35:23 2020,1500,The main experiment item,yes,FlankerTask.osexp,/Applications/OpenSesame.app/Contents/Resources/share/opensesame_resources,no,mono,no,18,no,white,no,no,768,legacy,49,49,/Applications/OpenSesame.app/Contents/Resources/share/opensesame_resources/th-subject-0.csv,legacy,Lentiform Loewenfeld,3.3.3,0,s,h,NA,NA,NA,s,361,4131,NA,NA,NA,361,2,legacy,1024,2,48000,-16,experiment,HHSHH,0,even,105040,4853,9009,NA,NA,94977,4666,NA,NA,NA,NA,106329,106692,106176,106118,106329,Flanker Task,45,27444,50,yes,1024
90.19607843,90.19607843,547.0196078,547.0196078,black,legacy,legacy,legacy,0,incongruent,uniform,1,undefined,1,s,50,0,0,0,0,50,0,50,0,0,0,50,50,50,50,50,Fri Sep 18 21:35:23 2020,1500,The main experiment item,yes,FlankerTask.osexp,/Applications/OpenSesame.app/Contents/Resources/share/opensesame_resources,no,mono,no,18,no,white,no,no,768,legacy,50,50,/Applications/OpenSesame.app/Contents/Resources/share/opensesame_resources/th-subject-0.csv,legacy,Lentiform Loewenfeld,3.3.3,0,s,h,NA,NA,NA,s,454,4131,NA,NA,NA,454,2,legacy,1024,2,48000,-16,experiment,HHSHH,0,even,106754,4853,9009,NA,NA,94977,4666,NA,NA,NA,NA,108028,108484,107875,107822,108028,Flanker Task,46,27898,51,yes,1024
90.38461538,90.38461538,544.4038462,544.4038462,black,legacy,legacy,legacy,0,congruent,uniform,1,undefined,1,h,51,0,0,0,0,51,0,51,0,0,0,51,51,51,51,51,Fri Sep 18 21:35:23 2020,1500,The main experiment item,yes,FlankerTask.osexp,/Applications/OpenSesame.app/Contents/Resources/share/opensesame_resources,no,mono,no,18,no,white,no,no,768,legacy,51,51,/Applications/OpenSesame.app/Contents/Resources/share/opensesame_resources/th-subject-0.csv,legacy,Lentiform Loewenfeld,3.3.3,0,h,h,NA,NA,NA,h,411,4131,NA,NA,NA,411,2,legacy,1024,2,48000,-16,experiment,HHHHH,0,even,108547,4853,9009,NA,NA,94977,4666,NA,NA,NA,NA,109856,110270,109691,109634,109856,Flanker Task,47,28309,52,yes,1024
88.67924528,88.67924528,542.9433962,542.9433962,black,legacy,legacy,legacy,0,incongruent,uniform,0,undefined,0,h,52,0,0,0,0,52,0,52,0,0,0,52,52,52,52,52,Fri Sep 18 21:35:23 2020,1500,The main experiment item,yes,FlankerTask.osexp,/Applications/OpenSesame.app/Contents/Resources/share/opensesame_resources,no,mono,no,18,no,white,no,no,768,legacy,52,52,/Applications/OpenSesame.app/Contents/Resources/share/opensesame_resources/th-subject-0.csv,legacy,Lentiform Loewenfeld,3.3.3,0,s,h,NA,NA,NA,s,467,4131,NA,NA,NA,467,2,legacy,1024,2,48000,-16,experiment,SSHSS,0,even,110335,4853,9009,NA,NA,94977,4666,NA,NA,NA,NA,111696,112172,111540,111477,111696,Flanker Task,47,28776,53,yes,1024
88.88888889,88.88888889,540.6851852,540.6851852,black,legacy,legacy,legacy,0,incongruent,uniform,1,undefined,1,s,53,0,0,0,0,53,0,53,0,0,0,53,53,53,53,53,Fri Sep 18 21:35:23 2020,1500,The main experiment item,yes,FlankerTask.osexp,/Applications/OpenSesame.app/Contents/Resources/share/opensesame_resources,no,mono,no,18,no,white,no,no,768,legacy,53,53,/Applications/OpenSesame.app/Contents/Resources/share/opensesame_resources/th-subject-0.csv,legacy,Lentiform Loewenfeld,3.3.3,0,s,h,NA,NA,NA,s,421,4131,NA,NA,NA,421,2,legacy,1024,2,48000,-16,experiment,HHSHH,0,even,112810,4853,9009,NA,NA,112253,4666,NA,NA,NA,NA,114407,114832,114248,114166,114407,Flanker Task,48,29197,54,yes,1024
89.09090909,89.09090909,537.6545455,537.6545455,black,legacy,legacy,legacy,0,congruent,uniform,1,undefined,1,s,54,0,0,0,0,54,0,54,0,0,0,54,54,54,54,54,Fri Sep 18 21:35:23 2020,1500,The main experiment item,yes,FlankerTask.osexp,/Applications/OpenSesame.app/Contents/Resources/share/opensesame_resources,no,mono,no,18,no,white,no,no,768,legacy,54,54,/Applications/OpenSesame.app/Contents/Resources/share/opensesame_resources/th-subject-0.csv,legacy,Lentiform Loewenfeld,3.3.3,0,s,h,NA,NA,NA,s,374,4131,NA,NA,NA,374,2,legacy,1024,2,48000,-16,experiment,SSSSS,0,even,114894,4853,9009,NA,NA,112253,4666,NA,NA,NA,NA,116301,116678,116109,116020,116301,Flanker Task,49,29571,55,yes,1024
89.28571429,89.28571429,537.25,537.25,black,legacy,legacy,legacy,0,incongruent,uniform,1,undefined,1,h,55,0,0,0,0,55,0,55,0,0,0,55,55,55,55,55,Fri Sep 18 21:35:23 2020,1500,The main experiment item,yes,FlankerTask.osexp,/Applications/OpenSesame.app/Contents/Resources/share/opensesame_resources,no,mono,no,18,no,white,no,no,768,legacy,55,55,/Applications/OpenSesame.app/Contents/Resources/share/opensesame_resources/th-subject-0.csv,legacy,Lentiform Loewenfeld,3.3.3,0,h,h,NA,NA,NA,h,515,4131,NA,NA,NA,515,2,legacy,1024,2,48000,-16,experiment,SSHSS,0,even,116767,4853,9009,NA,NA,112253,4666,NA,NA,NA,NA,118667,119189,118434,118284,118666,Flanker Task,50,30086,56,yes,1024
89.47368421,89.47368421,536.7894737,536.7894737,black,legacy,legacy,legacy,0,incongruent,uniform,1,undefined,1,h,56,0,0,0,0,56,0,56,0,0,0,56,56,56,56,56,Fri Sep 18 21:35:23 2020,1500,The main experiment item,yes,FlankerTask.osexp,/Applications/OpenSesame.app/Contents/Resources/share/opensesame_resources,no,mono,no,18,no,white,no,no,768,legacy,56,56,/Applications/OpenSesame.app/Contents/Resources/share/opensesame_resources/th-subject-0.csv,legacy,Lentiform Loewenfeld,3.3.3,0,h,h,NA,NA,NA,h,511,4131,NA,NA,NA,511,2,legacy,1024,2,48000,-16,experiment,SSHSS,0,even,119333,4853,9009,NA,NA,112253,4666,NA,NA,NA,NA,120868,121382,120686,120603,120867,Flanker Task,51,30597,57,yes,1024
89.65517241,89.65517241,533.637931,533.637931,black,legacy,legacy,legacy,0,congruent,uniform,1,undefined,1,h,57,0,0,0,0,57,0,57,0,0,0,57,57,57,57,57,Fri Sep 18 21:35:23 2020,1500,The main experiment item,yes,FlankerTask.osexp,/Applications/OpenSesame.app/Contents/Resources/share/opensesame_resources,no,mono,no,18,no,white,no,no,768,legacy,57,57,/Applications/OpenSesame.app/Contents/Resources/share/opensesame_resources/th-subject-0.csv,legacy,Lentiform Loewenfeld,3.3.3,0,h,h,NA,NA,NA,h,354,4131,NA,NA,NA,354,2,legacy,1024,2,48000,-16,experiment,HHHHH,0,even,121469,4853,9009,NA,NA,112253,4666,NA,NA,NA,NA,122848,123205,122655,122570,122848,Flanker Task,52,30951,58,yes,1024
89.83050847,89.83050847,532.5423729,532.5423729,black,legacy,legacy,legacy,0,congruent,uniform,1,undefined,1,s,58,0,0,0,0,58,0,58,0,0,0,58,58,58,58,58,Fri Sep 18 21:35:23 2020,1500,The main experiment item,yes,FlankerTask.osexp,/Applications/OpenSesame.app/Contents/Resources/share/opensesame_resources,no,mono,no,18,no,white,no,no,768,legacy,58,58,/Applications/OpenSesame.app/Contents/Resources/share/opensesame_resources/th-subject-0.csv,legacy,Lentiform Loewenfeld,3.3.3,0,s,h,NA,NA,NA,s,469,4131,NA,NA,NA,469,2,legacy,1024,2,48000,-16,experiment,SSSSS,0,even,123321,4853,9009,NA,NA,112253,4666,NA,NA,NA,NA,124701,125173,124519,124440,124701,Flanker Task,53,31420,59,yes,1024
88.33333333,88.33333333,531.5333333,531.5333333,black,legacy,legacy,legacy,0,incongruent,uniform,0,undefined,0,h,59,0,0,0,0,59,0,59,0,0,0,59,59,59,59,59,Fri Sep 18 21:35:23 2020,1500,The main experiment item,yes,FlankerTask.osexp,/Applications/OpenSesame.app/Contents/Resources/share/opensesame_resources,no,mono,no,18,no,white,no,no,768,legacy,59,59,/Applications/OpenSesame.app/Contents/Resources/share/opensesame_resources/th-subject-0.csv,legacy,Lentiform Loewenfeld,3.3.3,0,s,h,NA,NA,NA,s,472,4131,NA,NA,NA,472,2,legacy,1024,2,48000,-16,experiment,SSHSS,0,even,125298,4853,9009,NA,NA,112253,4666,NA,NA,NA,NA,126650,127124,126469,126390,126650,Flanker Task,53,31892,60,yes,1024
88.52459016,88.52459016,529.9508197,529.9508197,black,legacy,legacy,legacy,0,congruent,uniform,1,undefined,1,h,60,0,0,0,0,60,0,60,0,0,0,60,60,60,60,60,Fri Sep 18 21:35:23 2020,1500,The main experiment item,yes,FlankerTask.osexp,/Applications/OpenSesame.app/Contents/Resources/share/opensesame_resources,no,mono,no,18,no,white,no,no,768,legacy,60,60,/Applications/OpenSesame.app/Contents/Resources/share/opensesame_resources/th-subject-0.csv,legacy,Lentiform Loewenfeld,3.3.3,0,h,h,NA,NA,NA,h,435,4131,NA,NA,NA,435,2,legacy,1024,2,48000,-16,experiment,HHHHH,0,even,127819,4853,9009,NA,NA,127227,4666,NA,NA,NA,NA,129194,129634,129009,128923,129194,Flanker Task,54,32327,61,yes,1024
88.70967742,88.70967742,529.3870968,529.3870968,black,legacy,legacy,legacy,0,congruent,uniform,1,undefined,1,s,61,0,0,0,0,61,0,61,0,0,0,61,61,61,61,61,Fri Sep 18 21:35:23 2020,1500,The main experiment item,yes,FlankerTask.osexp,/Applications/OpenSesame.app/Contents/Resources/share/opensesame_resources,no,mono,no,18,no,white,no,no,768,legacy,61,61,/Applications/OpenSesame.app/Contents/Resources/share/opensesame_resources/th-subject-0.csv,legacy,Lentiform Loewenfeld,3.3.3,0,s,h,NA,NA,NA,s,495,4131,NA,NA,NA,495,2,legacy,1024,2,48000,-16,experiment,SSSSS,0,even,129717,4853,9009,NA,NA,127227,4666,NA,NA,NA,NA,131116,131613,130922,130818,131116,Flanker Task,55,32822,62,yes,1024
88.88888889,88.88888889,528.9206349,528.9206349,black,legacy,legacy,legacy,0,congruent,uniform,1,undefined,1,h,62,0,0,0,0,62,0,62,0,0,0,62,62,62,62,62,Fri Sep 18 21:35:23 2020,1500,The main experiment item,yes,FlankerTask.osexp,/Applications/OpenSesame.app/Contents/Resources/share/opensesame_resources,no,mono,no,18,no,white,no,no,768,legacy,62,62,/Applications/OpenSesame.app/Contents/Resources/share/opensesame_resources/th-subject-0.csv,legacy,Lentiform Loewenfeld,3.3.3,0,h,h,NA,NA,NA,h,500,4131,NA,NA,NA,500,2,legacy,1024,2,48000,-16,experiment,HHHHH,0,even,131708,4853,9009,NA,NA,127227,4666,NA,NA,NA,NA,133055,133557,132889,132798,133055,Flanker Task,56,33322,63,yes,1024
89.0625,89.0625,527.4375,527.4375,black,legacy,legacy,legacy,0,congruent,uniform,1,undefined,1,s,63,0,0,0,0,63,0,63,0,0,0,63,63,63,63,63,Fri Sep 18 21:35:23 2020,1500,The main experiment item,yes,FlankerTask.osexp,/Applications/OpenSesame.app/Contents/Resources/share/opensesame_resources,no,mono,no,18,no,white,no,no,768,legacy,63,63,/Applications/OpenSesame.app/Contents/Resources/share/opensesame_resources/th-subject-0.csv,legacy,Lentiform Loewenfeld,3.3.3,0,s,h,NA,NA,NA,s,434,4131,NA,NA,NA,434,2,legacy,1024,2,48000,-16,experiment,SSSSS,0,even,133617,4853,9009,NA,NA,127227,4666,NA,NA,NA,NA,134905,135341,134753,134699,134904,Flanker Task,57,33756,64,yes,1024
89.23076923,89.23076923,527.7846154,527.7846154,black,legacy,legacy,legacy,0,incongruent,uniform,1,undefined,1,s,64,0,0,0,0,64,0,64,0,0,0,64,64,64,64,64,Fri Sep 18 21:35:23 2020,1500,The main experiment item,yes,FlankerTask.osexp,/Applications/OpenSesame.app/Contents/Resources/share/opensesame_resources,no,mono,no,18,no,white,no,no,768,legacy,64,64,/Applications/OpenSesame.app/Contents/Resources/share/opensesame_resources/th-subject-0.csv,legacy,Lentiform Loewenfeld,3.3.3,0,s,h,NA,NA,NA,s,550,4131,NA,NA,NA,550,2,legacy,1024,2,48000,-16,experiment,HHSHH,0,even,135394,4853,9009,NA,NA,127227,4666,NA,NA,NA,NA,136660,137212,136509,136458,136660,Flanker Task,58,34306,65,yes,1024
89.39393939,89.39393939,525.2878788,525.2878788,black,legacy,legacy,legacy,0,congruent,uniform,1,undefined,1,s,65,0,0,0,0,65,0,65,0,0,0,65,65,65,65,65,Fri Sep 18 21:35:23 2020,1500,The main experiment item,yes,FlankerTask.osexp,/Applications/OpenSesame.app/Contents/Resources/share/opensesame_resources,no,mono,no,18,no,white,no,no,768,legacy,65,65,/Applications/OpenSesame.app/Contents/Resources/share/opensesame_resources/th-subject-0.csv,legacy,Lentiform Loewenfeld,3.3.3,0,s,h,NA,NA,NA,s,363,4131,NA,NA,NA,363,2,legacy,1024,2,48000,-16,experiment,SSSSS,0,even,137273,4853,9009,NA,NA,127227,4666,NA,NA,NA,NA,138536,138901,138386,138336,138536,Flanker Task,59,34669,66,yes,1024
89.55223881,89.55223881,523.4626866,523.4626866,black,legacy,legacy,legacy,0,congruent,uniform,1,undefined,1,s,66,0,0,0,0,66,0,66,0,0,0,66,66,66,66,66,Fri Sep 18 21:35:23 2020,1500,The main experiment item,yes,FlankerTask.osexp,/Applications/OpenSesame.app/Contents/Resources/share/opensesame_resources,no,mono,no,18,no,white,no,no,768,legacy,66,66,/Applications/OpenSesame.app/Contents/Resources/share/opensesame_resources/th-subject-0.csv,legacy,Lentiform Loewenfeld,3.3.3,0,s,h,NA,NA,NA,s,403,4131,NA,NA,NA,403,2,legacy,1024,2,48000,-16,experiment,SSSSS,0,even,138959,4853,9009,NA,NA,127227,4666,NA,NA,NA,NA,140224,140629,140074,140021,140223,Flanker Task,60,35072,67,yes,1024
89.70588235,89.70588235,520.6176471,520.6176471,black,legacy,legacy,legacy,0,incongruent,uniform,1,undefined,1,s,67,0,0,0,0,67,0,67,0,0,0,67,67,67,67,67,Fri Sep 18 21:35:23 2020,1500,The main experiment item,yes,FlankerTask.osexp,/Applications/OpenSesame.app/Contents/Resources/share/opensesame_resources,no,mono,no,18,no,white,no,no,768,legacy,67,67,/Applications/OpenSesame.app/Contents/Resources/share/opensesame_resources/th-subject-0.csv,legacy,Lentiform Loewenfeld,3.3.3,0,s,h,NA,NA,NA,s,330,4131,NA,NA,NA,330,2,legacy,1024,2,48000,-16,experiment,HHSHH,0,even,140693,4853,9009,NA,NA,127227,4666,NA,NA,NA,NA,141960,142292,141808,141757,141959,Flanker Task,61,35402,68,yes,1024
89.85507246,89.85507246,517.7826087,517.7826087,black,legacy,legacy,legacy,0,congruent,uniform,1,undefined,1,s,68,0,0,0,0,68,0,68,0,0,0,68,68,68,68,68,Fri Sep 18 21:35:23 2020,1500,The main experiment item,yes,FlankerTask.osexp,/Applications/OpenSesame.app/Contents/Resources/share/opensesame_resources,no,mono,no,18,no,white,no,no,768,legacy,68,68,/Applications/OpenSesame.app/Contents/Resources/share/opensesame_resources/th-subject-0.csv,legacy,Lentiform Loewenfeld,3.3.3,0,s,h,NA,NA,NA,s,325,4131,NA,NA,NA,325,2,legacy,1024,2,48000,-16,experiment,SSSSS,0,even,142351,4853,9009,NA,NA,127227,4666,NA,NA,NA,NA,143614,143941,143464,143414,143613,Flanker Task,62,35727,69,yes,1024
90,90,516.1285714,516.1285714,black,legacy,legacy,legacy,0,incongruent,uniform,1,undefined,1,s,69,0,0,0,0,69,0,69,0,0,0,69,69,69,69,69,Fri Sep 18 21:35:23 2020,1500,The main experiment item,yes,FlankerTask.osexp,/Applications/OpenSesame.app/Contents/Resources/share/opensesame_resources,no,mono,no,18,no,white,no,no,768,legacy,69,69,/Applications/OpenSesame.app/Contents/Resources/share/opensesame_resources/th-subject-0.csv,legacy,Lentiform Loewenfeld,3.3.3,0,s,h,NA,NA,NA,s,402,4131,NA,NA,NA,402,2,legacy,1024,2,48000,-16,experiment,HHSHH,0,even,144000,4853,9009,NA,NA,127227,4666,NA,NA,NA,NA,145273,145677,145122,145071,145273,Flanker Task,63,36129,70,yes,1024
90.14084507,90.14084507,514.6197183,514.6197183,black,legacy,legacy,legacy,0,congruent,uniform,1,undefined,1,s,70,0,0,0,0,70,0,70,0,0,0,70,70,70,70,70,Fri Sep 18 21:35:23 2020,1500,The main experiment item,yes,FlankerTask.osexp,/Applications/OpenSesame.app/Contents/Resources/share/opensesame_resources,no,mono,no,18,no,white,no,no,768,legacy,70,70,/Applications/OpenSesame.app/Contents/Resources/share/opensesame_resources/th-subject-0.csv,legacy,Lentiform Loewenfeld,3.3.3,0,s,h,NA,NA,NA,s,409,4131,NA,NA,NA,409,2,legacy,1024,2,48000,-16,experiment,SSSSS,0,even,145736,4853,9009,NA,NA,127227,4666,NA,NA,NA,NA,147010,147421,146861,146802,147010,Flanker Task,64,36538,71,yes,1024
90.27777778,90.27777778,514.7777778,514.7777778,black,legacy,legacy,legacy,0,congruent,uniform,1,undefined,1,h,71,0,0,0,0,71,0,71,0,0,0,71,71,71,71,71,Fri Sep 18 21:35:23 2020,1500,The main experiment item,yes,FlankerTask.osexp,/Applications/OpenSesame.app/Contents/Resources/share/opensesame_resources,no,mono,no,18,no,white,no,no,768,legacy,71,71,/Applications/OpenSesame.app/Contents/Resources/share/opensesame_resources/th-subject-0.csv,legacy,Lentiform Loewenfeld,3.3.3,0,h,h,NA,NA,NA,h,526,4131,NA,NA,NA,526,2,legacy,1024,2,48000,-16,experiment,HHHHH,0,even,147472,4853,9009,NA,NA,127227,4666,NA,NA,NA,NA,148748,149276,148598,148548,148748,Flanker Task,65,37064,72,yes,1024
90.4109589,90.4109589,512.7260274,512.7260274,black,legacy,legacy,legacy,0,congruent,uniform,1,undefined,1,s,72,0,0,0,0,72,0,72,0,0,0,72,72,72,72,72,Fri Sep 18 21:35:23 2020,1500,The main experiment item,yes,FlankerTask.osexp,/Applications/OpenSesame.app/Contents/Resources/share/opensesame_resources,no,mono,no,18,no,white,no,no,768,legacy,72,72,/Applications/OpenSesame.app/Contents/Resources/share/opensesame_resources/th-subject-0.csv,legacy,Lentiform Loewenfeld,3.3.3,0,s,h,NA,NA,NA,s,365,4131,NA,NA,NA,365,2,legacy,1024,2,48000,-16,experiment,SSSSS,0,even,149338,4853,9009,NA,NA,127227,4666,NA,NA,NA,NA,150606,150973,150456,150403,150605,Flanker Task,66,37429,73,yes,1024
90.54054054,90.54054054,513.8648649,513.8648649,black,legacy,legacy,legacy,0,congruent,uniform,1,undefined,1,h,73,0,0,0,0,73,0,73,0,0,0,73,73,73,73,73,Fri Sep 18 21:35:23 2020,1500,The main experiment item,yes,FlankerTask.osexp,/Applications/OpenSesame.app/Contents/Resources/share/opensesame_resources,no,mono,no,18,no,white,no,no,768,legacy,73,73,/Applications/OpenSesame.app/Contents/Resources/share/opensesame_resources/th-subject-0.csv,legacy,Lentiform Loewenfeld,3.3.3,0,h,h,NA,NA,NA,h,597,4131,NA,NA,NA,597,2,legacy,1024,2,48000,-16,experiment,HHHHH,0,even,151031,4853,9009,NA,NA,127227,4666,NA,NA,NA,NA,152302,152901,152149,152099,152302,Flanker Task,67,38026,74,yes,1024
90.66666667,90.66666667,513.24,513.24,black,legacy,legacy,legacy,0,congruent,uniform,1,undefined,1,s,74,0,0,0,0,74,0,74,0,0,0,74,74,74,74,74,Fri Sep 18 21:35:23 2020,1500,The main experiment item,yes,FlankerTask.osexp,/Applications/OpenSesame.app/Contents/Resources/share/opensesame_resources,no,mono,no,18,no,white,no,no,768,legacy,74,74,/Applications/OpenSesame.app/Contents/Resources/share/opensesame_resources/th-subject-0.csv,legacy,Lentiform Loewenfeld,3.3.3,0,s,h,NA,NA,NA,s,467,4131,NA,NA,NA,467,2,legacy,1024,2,48000,-16,experiment,SSSSS,0,even,152961,4853,9009,NA,NA,127227,4666,NA,NA,NA,NA,154240,154709,154091,154037,154239,Flanker Task,68,38493,75,yes,1024
90.78947368,90.78947368,510.6184211,510.6184211,black,legacy,legacy,legacy,0,incongruent,uniform,1,undefined,1,h,75,0,0,0,0,75,0,75,0,0,0,75,75,75,75,75,Fri Sep 18 21:35:23 2020,1500,The main experiment item,yes,FlankerTask.osexp,/Applications/OpenSesame.app/Contents/Resources/share/opensesame_resources,no,mono,no,18,no,white,no,no,768,legacy,75,75,/Applications/OpenSesame.app/Contents/Resources/share/opensesame_resources/th-subject-0.csv,legacy,Lentiform Loewenfeld,3.3.3,0,h,h,NA,NA,NA,h,314,4131,NA,NA,NA,314,2,legacy,1024,2,48000,-16,experiment,SSHSS,0,even,154768,4853,9009,NA,NA,127227,4666,NA,NA,NA,NA,156035,156351,155881,155832,156034,Flanker Task,69,38807,76,yes,1024
90.90909091,90.90909091,509.974026,509.974026,black,legacy,legacy,legacy,0,incongruent,uniform,1,undefined,1,h,76,0,0,0,0,76,0,76,0,0,0,76,76,76,76,76,Fri Sep 18 21:35:23 2020,1500,The main experiment item,yes,FlankerTask.osexp,/Applications/OpenSesame.app/Contents/Resources/share/opensesame_resources,no,mono,no,18,no,white,no,no,768,legacy,76,76,/Applications/OpenSesame.app/Contents/Resources/share/opensesame_resources/th-subject-0.csv,legacy,Lentiform Loewenfeld,3.3.3,0,h,h,NA,NA,NA,h,461,4131,NA,NA,NA,461,2,legacy,1024,2,48000,-16,experiment,SSHSS,0,even,156403,4853,9009,NA,NA,127227,4666,NA,NA,NA,NA,157669,158132,157517,157468,157669,Flanker Task,70,39268,77,yes,1024
89.74358974,89.74358974,508.8333333,508.8333333,black,legacy,legacy,legacy,0,incongruent,uniform,0,undefined,0,s,77,0,0,0,0,77,0,77,0,0,0,77,77,77,77,77,Fri Sep 18 21:35:23 2020,1500,The main experiment item,yes,FlankerTask.osexp,/Applications/OpenSesame.app/Contents/Resources/share/opensesame_resources,no,mono,no,18,no,white,no,no,768,legacy,77,77,/Applications/OpenSesame.app/Contents/Resources/share/opensesame_resources/th-subject-0.csv,legacy,Lentiform Loewenfeld,3.3.3,0,h,h,NA,NA,NA,h,421,4131,NA,NA,NA,421,2,legacy,1024,2,48000,-16,experiment,HHSHH,0,even,158191,4853,9009,NA,NA,127227,4666,NA,NA,NA,NA,159462,159885,159308,159255,159462,Flanker Task,70,39689,78,yes,1024
89.87341772,89.87341772,509.721519,509.721519,black,legacy,legacy,legacy,0,congruent,uniform,1,undefined,1,h,78,0,0,0,0,78,0,78,0,0,0,78,78,78,78,78,Fri Sep 18 21:35:23 2020,1500,The main experiment item,yes,FlankerTask.osexp,/Applications/OpenSesame.app/Contents/Resources/share/opensesame_resources,no,mono,no,18,no,white,no,no,768,legacy,78,78,/Applications/OpenSesame.app/Contents/Resources/share/opensesame_resources/th-subject-0.csv,legacy,Lentiform Loewenfeld,3.3.3,0,h,h,NA,NA,NA,h,579,4131,NA,NA,NA,579,2,legacy,1024,2,48000,-16,experiment,HHHHH,0,even,160495,4853,9009,NA,NA,159945,4666,NA,NA,NA,NA,161776,162358,161612,161559,161776,Flanker Task,71,40268,79,yes,1024
90,90,509.075,509.075,black,legacy,legacy,legacy,0,incongruent,uniform,1,undefined,1,s,79,0,0,0,0,79,0,79,0,0,0,79,79,79,79,79,Fri Sep 18 21:35:23 2020,1500,The main experiment item,yes,FlankerTask.osexp,/Applications/OpenSesame.app/Contents/Resources/share/opensesame_resources,no,mono,no,18,no,white,no,no,768,legacy,79,79,/Applications/OpenSesame.app/Contents/Resources/share/opensesame_resources/th-subject-0.csv,legacy,Lentiform Loewenfeld,3.3.3,0,s,h,NA,NA,NA,s,458,4131,NA,NA,NA,458,2,legacy,1024,2,48000,-16,experiment,HHSHH,0,even,162411,4853,9009,NA,NA,159945,4666,NA,NA,NA,NA,163704,164164,163551,163480,163704,Flanker Task,72,40726,80,yes,1024
90.12345679,90.12345679,511.5061728,511.5061728,black,legacy,legacy,legacy,0,incongruent,uniform,1,undefined,1,h,80,0,0,0,0,80,0,80,0,0,0,80,80,80,80,80,Fri Sep 18 21:35:23 2020,600,The main experiment item,yes,FlankerTask.osexp,/Applications/OpenSesame.app/Contents/Resources/share/opensesame_resources,no,mono,no,18,no,white,no,no,768,legacy,0,79,/Applications/OpenSesame.app/Contents/Resources/share/opensesame_resources/th-subject-0.csv,legacy,Lentiform Loewenfeld,3.3.3,0,h,h,NA,h,NA,h,706,4131,NA,1661,NA,706,2,legacy,1024,2,48000,-16,experiment,SSHSS,0,even,164227,4853,9009,166974,NA,159945,4666,NA,NA,165311,NA,167218,167925,167067,167014,167217,Flanker Task,73,41432,81,yes,1024
89.02439024,89.02439024,509.6097561,509.6097561,black,legacy,legacy,legacy,0,incongruent,uniform,0,undefined,0,s,81,0,0,0,0,81,0,81,0,0,0,81,81,81,81,81,Fri Sep 18 21:35:23 2020,600,The main experiment item,yes,FlankerTask.osexp,/Applications/OpenSesame.app/Contents/Resources/share/opensesame_resources,no,mono,no,18,no,white,no,no,768,legacy,1,79,/Applications/OpenSesame.app/Contents/Resources/share/opensesame_resources/th-subject-0.csv,legacy,Lentiform Loewenfeld,3.3.3,0,h,h,NA,h,NA,h,356,4131,NA,1661,NA,356,2,legacy,1024,2,48000,-16,experiment,HHSHH,0,even,168547,4853,9009,166974,NA,159945,4666,167996,NA,165311,NA,169815,170172,169662,169612,169814,Flanker Task,73,41788,82,yes,1024
89.15662651,89.15662651,508.4096386,508.4096386,black,legacy,legacy,legacy,0,congruent,uniform,1,undefined,1,h,82,0,0,0,0,82,0,82,0,0,0,82,82,82,82,82,Fri Sep 18 21:35:23 2020,600,The main experiment item,yes,FlankerTask.osexp,/Applications/OpenSesame.app/Contents/Resources/share/opensesame_resources,no,mono,no,18,no,white,no,no,768,legacy,2,79,/Applications/OpenSesame.app/Contents/Resources/share/opensesame_resources/th-subject-0.csv,legacy,Lentiform Loewenfeld,3.3.3,0,h,h,NA,h,NA,h,410,4131,NA,1661,NA,410,2,legacy,1024,2,48000,-16,experiment,HHHHH,0,even,170784,4853,9009,166974,NA,170233,4666,167996,NA,165311,NA,172050,172462,171898,171849,172050,Flanker Task,74,42198,83,yes,1024
89.28571429,89.28571429,506.5,506.5,black,legacy,legacy,legacy,0,incongruent,uniform,1,undefined,1,s,83,0,0,0,0,83,0,83,0,0,0,83,83,83,83,83,Fri Sep 18 21:35:23 2020,600,The main experiment item,yes,FlankerTask.osexp,/Applications/OpenSesame.app/Contents/Resources/share/opensesame_resources,no,mono,no,18,no,white,no,no,768,legacy,3,79,/Applications/OpenSesame.app/Contents/Resources/share/opensesame_resources/th-subject-0.csv,legacy,Lentiform Loewenfeld,3.3.3,0,s,h,NA,h,NA,s,348,4131,NA,1661,NA,348,2,legacy,1024,2,48000,-16,experiment,HHSHH,0,even,172512,4853,9009,166974,NA,170233,4666,167996,NA,165311,NA,173775,174125,173624,173575,173774,Flanker Task,75,42546,84,yes,1024
88.23529412,88.23529412,503.8941176,503.8941176,black,legacy,legacy,legacy,0,congruent,uniform,0,undefined,0,s,84,0,0,0,0,84,0,84,0,0,0,84,84,84,84,84,Fri Sep 18 21:35:23 2020,600,The main experiment item,yes,FlankerTask.osexp,/Applications/OpenSesame.app/Contents/Resources/share/opensesame_resources,no,mono,no,18,no,white,no,no,768,legacy,4,79,/Applications/OpenSesame.app/Contents/Resources/share/opensesame_resources/th-subject-0.csv,legacy,Lentiform Loewenfeld,3.3.3,0,h,h,NA,h,NA,h,285,4131,NA,1661,NA,285,2,legacy,1024,2,48000,-16,experiment,SSSSS,0,even,174183,4853,9009,166974,NA,170233,4666,167996,NA,165311,NA,175447,175734,175296,175247,175447,Flanker Task,75,42831,85,yes,1024
88.37209302,88.37209302,504.0232558,504.0232558,black,legacy,legacy,legacy,0,incongruent,uniform,1,undefined,1,s,85,0,0,0,0,85,0,85,0,0,0,85,85,85,85,85,Fri Sep 18 21:35:23 2020,600,The main experiment item,yes,FlankerTask.osexp,/Applications/OpenSesame.app/Contents/Resources/share/opensesame_resources,no,mono,no,18,no,white,no,no,768,legacy,5,79,/Applications/OpenSesame.app/Contents/Resources/share/opensesame_resources/th-subject-0.csv,legacy,Lentiform Loewenfeld,3.3.3,0,s,h,NA,h,NA,s,515,4131,NA,1661,NA,515,2,legacy,1024,2,48000,-16,experiment,HHSHH,0,even,176345,4853,9009,166974,NA,175794,4666,167996,NA,165311,NA,177624,178141,177475,177424,177624,Flanker Task,76,43346,86,yes,1024
88.50574713,88.50574713,502.4367816,502.4367816,black,legacy,legacy,legacy,0,congruent,uniform,1,undefined,1,s,86,0,0,0,0,86,0,86,0,0,0,86,86,86,86,86,Fri Sep 18 21:35:23 2020,600,The main experiment item,yes,FlankerTask.osexp,/Applications/OpenSesame.app/Contents/Resources/share/opensesame_resources,no,mono,no,18,no,white,no,no,768,legacy,6,79,/Applications/OpenSesame.app/Contents/Resources/share/opensesame_resources/th-subject-0.csv,legacy,Lentiform Loewenfeld,3.3.3,0,s,h,NA,h,NA,s,366,4131,NA,1661,NA,366,2,legacy,1024,2,48000,-16,experiment,SSSSS,0,even,178201,4853,9009,166974,NA,175794,4666,167996,NA,165311,NA,179470,179838,179318,179266,179469,Flanker Task,77,43712,87,yes,1024
88.63636364,88.63636364,501.7159091,501.7159091,black,legacy,legacy,legacy,0,incongruent,uniform,1,undefined,1,s,87,0,0,0,0,87,0,87,0,0,0,87,87,87,87,87,Fri Sep 18 21:35:23 2020,600,The main experiment item,yes,FlankerTask.osexp,/Applications/OpenSesame.app/Contents/Resources/share/opensesame_resources,no,mono,no,18,no,white,no,no,768,legacy,7,79,/Applications/OpenSesame.app/Contents/Resources/share/opensesame_resources/th-subject-0.csv,legacy,Lentiform Loewenfeld,3.3.3,0,s,h,NA,h,NA,s,439,4131,NA,1661,NA,439,2,legacy,1024,2,48000,-16,experiment,HHSHH,0,even,179896,4853,9009,166974,NA,175794,4666,167996,NA,165311,NA,181173,181614,181008,180960,181173,Flanker Task,78,44151,88,yes,1024
88.76404494,88.76404494,500.3820225,500.3820225,black,legacy,legacy,legacy,0,congruent,uniform,1,undefined,1,s,88,0,0,0,0,88,0,88,0,0,0,88,88,88,88,88,Fri Sep 18 21:35:23 2020,600,The main experiment item,yes,FlankerTask.osexp,/Applications/OpenSesame.app/Contents/Resources/share/opensesame_resources,no,mono,no,18,no,white,no,no,768,legacy,8,79,/Applications/OpenSesame.app/Contents/Resources/share/opensesame_resources/th-subject-0.csv,legacy,Lentiform Loewenfeld,3.3.3,0,s,h,NA,h,NA,s,383,4131,NA,1661,NA,383,2,legacy,1024,2,48000,-16,experiment,SSSSS,0,even,181677,4853,9009,166974,NA,175794,4666,167996,NA,165311,NA,182941,183326,182790,182741,182941,Flanker Task,79,44534,89,yes,1024
88.88888889,88.88888889,499.0666667,499.0666667,black,legacy,legacy,legacy,0,incongruent,uniform,1,undefined,1,h,89,0,0,0,0,89,0,89,0,0,0,89,89,89,89,89,Fri Sep 18 21:35:23 2020,600,The main experiment item,yes,FlankerTask.osexp,/Applications/OpenSesame.app/Contents/Resources/share/opensesame_resources,no,mono,no,18,no,white,no,no,768,legacy,9,79,/Applications/OpenSesame.app/Contents/Resources/share/opensesame_resources/th-subject-0.csv,legacy,Lentiform Loewenfeld,3.3.3,0,h,h,NA,h,NA,h,382,4131,NA,1661,NA,382,2,legacy,1024,2,48000,-16,experiment,SSHSS,0,even,183376,4853,9009,166974,NA,175794,4666,167996,NA,165311,NA,184645,185029,184494,184445,184645,Flanker Task,80,44916,90,yes,1024
89.01098901,89.01098901,497.6483516,497.6483516,black,legacy,legacy,legacy,0,incongruent,uniform,1,undefined,1,h,90,0,0,0,0,90,0,90,0,0,0,90,90,90,90,90,Fri Sep 18 21:35:23 2020,600,The main experiment item,yes,FlankerTask.osexp,/Applications/OpenSesame.app/Contents/Resources/share/opensesame_resources,no,mono,no,18,no,white,no,no,768,legacy,10,79,/Applications/OpenSesame.app/Contents/Resources/share/opensesame_resources/th-subject-0.csv,legacy,Lentiform Loewenfeld,3.3.3,0,h,h,NA,h,NA,h,370,4131,NA,1661,NA,370,2,legacy,1024,2,48000,-16,experiment,SSHSS,0,even,185094,4853,9009,166974,NA,175794,4666,167996,NA,165311,NA,186362,186735,186209,186157,186362,Flanker Task,81,45286,91,yes,1024
89.13043478,89.13043478,496.9347826,496.9347826,black,legacy,legacy,legacy,0,incongruent,uniform,1,undefined,1,h,91,0,0,0,0,91,0,91,0,0,0,91,91,91,91,91,Fri Sep 18 21:35:23 2020,600,The main experiment item,yes,FlankerTask.osexp,/Applications/OpenSesame.app/Contents/Resources/share/opensesame_resources,no,mono,no,18,no,white,no,no,768,legacy,11,79,/Applications/OpenSesame.app/Contents/Resources/share/opensesame_resources/th-subject-0.csv,legacy,Lentiform Loewenfeld,3.3.3,0,h,h,NA,h,NA,h,432,4131,NA,1661,NA,432,2,legacy,1024,2,48000,-16,experiment,SSHSS,0,even,186794,4853,9009,166974,NA,175794,4666,167996,NA,165311,NA,188068,188502,187911,187860,188067,Flanker Task,82,45718,92,yes,1024
89.24731183,89.24731183,496.5698925,496.5698925,black,legacy,legacy,legacy,0,incongruent,uniform,1,undefined,1,s,92,0,0,0,0,92,0,92,0,0,0,92,92,92,92,92,Fri Sep 18 21:35:23 2020,600,The main experiment item,yes,FlankerTask.osexp,/Applications/OpenSesame.app/Contents/Resources/share/opensesame_resources,no,mono,no,18,no,white,no,no,768,legacy,12,79,/Applications/OpenSesame.app/Contents/Resources/share/opensesame_resources/th-subject-0.csv,legacy,Lentiform Loewenfeld,3.3.3,0,s,h,NA,h,NA,s,463,4131,NA,1661,NA,463,2,legacy,1024,2,48000,-16,experiment,HHSHH,0,even,188562,4853,9009,166974,NA,175794,4666,167996,NA,165311,NA,189828,190293,189678,189627,189827,Flanker Task,83,46181,93,yes,1024
89.36170213,89.36170213,496.4255319,496.4255319,black,legacy,legacy,legacy,0,congruent,uniform,1,undefined,1,s,93,0,0,0,0,93,0,93,0,0,0,93,93,93,93,93,Fri Sep 18 21:35:23 2020,600,The main experiment item,yes,FlankerTask.osexp,/Applications/OpenSesame.app/Contents/Resources/share/opensesame_resources,no,mono,no,18,no,white,no,no,768,legacy,13,79,/Applications/OpenSesame.app/Contents/Resources/share/opensesame_resources/th-subject-0.csv,legacy,Lentiform Loewenfeld,3.3.3,0,s,h,NA,h,NA,s,483,4131,NA,1661,NA,483,2,legacy,1024,2,48000,-16,experiment,SSSSS,0,even,190354,4853,9009,166974,NA,175794,4666,167996,NA,165311,NA,191616,192101,191466,191417,191616,Flanker Task,84,46664,94,yes,1024
89.47368421,89.47368421,496.5894737,496.5894737,black,legacy,legacy,legacy,0,congruent,uniform,1,undefined,1,h,94,0,0,0,0,94,0,94,0,0,0,94,94,94,94,94,Fri Sep 18 21:35:23 2020,600,The main experiment item,yes,FlankerTask.osexp,/Applications/OpenSesame.app/Contents/Resources/share/opensesame_resources,no,mono,no,18,no,white,no,no,768,legacy,14,79,/Applications/OpenSesame.app/Contents/Resources/share/opensesame_resources/th-subject-0.csv,legacy,Lentiform Loewenfeld,3.3.3,0,h,h,NA,h,NA,h,512,4131,NA,1661,NA,512,2,legacy,1024,2,48000,-16,experiment,HHHHH,0,even,192163,4853,9009,166974,NA,175794,4666,167996,NA,165311,NA,193428,193942,193277,193228,193428,Flanker Task,85,47176,95,yes,1024
89.58333333,89.58333333,497.0208333,497.0208333,black,legacy,legacy,legacy,0,incongruent,uniform,1,undefined,1,h,95,0,0,0,0,95,0,95,0,0,0,95,95,95,95,95,Fri Sep 18 21:35:23 2020,600,The main experiment item,yes,FlankerTask.osexp,/Applications/OpenSesame.app/Contents/Resources/share/opensesame_resources,no,mono,no,18,no,white,no,no,768,legacy,15,79,/Applications/OpenSesame.app/Contents/Resources/share/opensesame_resources/th-subject-0.csv,legacy,Lentiform Loewenfeld,3.3.3,0,h,h,NA,h,NA,h,538,4131,NA,1661,NA,538,2,legacy,1024,2,48000,-16,experiment,SSHSS,0,even,193994,4853,9009,166974,NA,175794,4666,167996,NA,165311,NA,195266,195807,195114,195061,195266,Flanker Task,86,47714,96,yes,1024
89.69072165,89.69072165,496.7113402,496.7113402,black,legacy,legacy,legacy,0,congruent,uniform,1,undefined,1,h,96,0,0,0,0,96,0,96,0,0,0,96,96,96,96,96,Fri Sep 18 21:35:23 2020,600,The main experiment item,yes,FlankerTask.osexp,/Applications/OpenSesame.app/Contents/Resources/share/opensesame_resources,no,mono,no,18,no,white,no,no,768,legacy,16,79,/Applications/OpenSesame.app/Contents/Resources/share/opensesame_resources/th-subject-0.csv,legacy,Lentiform Loewenfeld,3.3.3,0,h,h,NA,h,NA,h,467,4131,NA,1661,NA,467,2,legacy,1024,2,48000,-16,experiment,HHHHH,0,even,195866,4853,9009,166974,NA,175794,4666,167996,NA,165311,NA,197129,197598,196979,196930,197129,Flanker Task,87,48181,97,yes,1024
89.79591837,89.79591837,496.1428571,496.1428571,black,legacy,legacy,legacy,0,incongruent,uniform,1,undefined,1,s,97,0,0,0,0,97,0,97,0,0,0,97,97,97,97,97,Fri Sep 18 21:35:23 2020,600,The main experiment item,yes,FlankerTask.osexp,/Applications/OpenSesame.app/Contents/Resources/share/opensesame_resources,no,mono,no,18,no,white,no,no,768,legacy,17,79,/Applications/OpenSesame.app/Contents/Resources/share/opensesame_resources/th-subject-0.csv,legacy,Lentiform Loewenfeld,3.3.3,0,s,h,NA,h,NA,s,441,4131,NA,1661,NA,441,2,legacy,1024,2,48000,-16,experiment,HHSHH,0,even,197661,4853,9009,166974,NA,175794,4666,167996,NA,165311,NA,198932,199374,198777,198724,198932,Flanker Task,88,48622,98,yes,1024
88.88888889,88.88888889,494.2828283,494.2828283,black,legacy,legacy,legacy,0,congruent,uniform,0,undefined,0,s,98,0,0,0,0,98,0,98,0,0,0,98,98,98,98,98,Fri Sep 18 21:35:23 2020,600,The main experiment item,yes,FlankerTask.osexp,/Applications/OpenSesame.app/Contents/Resources/share/opensesame_resources,no,mono,no,18,no,white,no,no,768,legacy,18,79,/Applications/OpenSesame.app/Contents/Resources/share/opensesame_resources/th-subject-0.csv,legacy,Lentiform Loewenfeld,3.3.3,0,h,h,NA,h,NA,h,312,4131,NA,1661,NA,312,2,legacy,1024,2,48000,-16,experiment,SSSSS,0,even,199437,4853,9009,166974,NA,175794,4666,167996,NA,165311,NA,200700,201014,200550,200501,200700,Flanker Task,88,48934,99,yes,1024
89,89,494.56,494.56,black,legacy,legacy,legacy,0,incongruent,uniform,1,undefined,1,s,99,0,0,0,0,99,0,99,0,0,0,99,99,99,99,99,Fri Sep 18 21:35:23 2020,600,The main experiment item,yes,FlankerTask.osexp,/Applications/OpenSesame.app/Contents/Resources/share/opensesame_resources,no,mono,no,18,no,white,no,no,768,legacy,19,79,/Applications/OpenSesame.app/Contents/Resources/share/opensesame_resources/th-subject-0.csv,legacy,Lentiform Loewenfeld,3.3.3,0,s,h,NA,h,NA,s,522,4131,NA,1661,NA,522,2,legacy,1024,2,48000,-16,experiment,HHSHH,0,even,201635,4853,9009,166974,NA,201085,4666,167996,NA,165311,NA,202899,203423,202749,202698,202899,Flanker Task,89,49456,100,yes,1024
89.10891089,89.10891089,494.1188119,494.1188119,black,legacy,legacy,legacy,0,incongruent,uniform,1,undefined,1,h,100,0,0,0,0,100,0,100,0,0,0,100,100,100,100,100,Fri Sep 18 21:35:23 2020,600,The main experiment item,yes,FlankerTask.osexp,/Applications/OpenSesame.app/Contents/Resources/share/opensesame_resources,no,mono,no,18,no,white,no,no,768,legacy,20,79,/Applications/OpenSesame.app/Contents/Resources/share/opensesame_resources/th-subject-0.csv,legacy,Lentiform Loewenfeld,3.3.3,0,h,h,NA,h,NA,h,450,4131,NA,1661,NA,450,2,legacy,1024,2,48000,-16,experiment,SSHSS,0,even,203482,4853,9009,166974,NA,201085,4666,167996,NA,165311,NA,204746,205198,204596,204546,204746,Flanker Task,90,49906,101,yes,1024
89.21568627,89.21568627,493.9803922,493.9803922,black,legacy,legacy,legacy,0,incongruent,uniform,1,undefined,1,s,101,0,0,0,0,101,0,101,0,0,0,101,101,101,101,101,Fri Sep 18 21:35:23 2020,600,The main experiment item,yes,FlankerTask.osexp,/Applications/OpenSesame.app/Contents/Resources/share/opensesame_resources,no,mono,no,18,no,white,no,no,768,legacy,21,79,/Applications/OpenSesame.app/Contents/Resources/share/opensesame_resources/th-subject-0.csv,legacy,Lentiform Loewenfeld,3.3.3,0,s,h,NA,h,NA,s,480,4131,NA,1661,NA,480,2,legacy,1024,2,48000,-16,experiment,HHSHH,0,even,205257,4853,9009,166974,NA,201085,4666,167996,NA,165311,NA,206520,207002,206370,206321,206519,Flanker Task,91,50386,102,yes,1024
89.32038835,89.32038835,494.2524272,494.2524272,black,legacy,legacy,legacy,0,incongruent,uniform,1,undefined,1,s,102,0,0,0,0,102,0,102,0,0,0,102,102,102,102,102,Fri Sep 18 21:35:23 2020,600,The main experiment item,yes,FlankerTask.osexp,/Applications/OpenSesame.app/Contents/Resources/share/opensesame_resources,no,mono,no,18,no,white,no,no,768,legacy,22,79,/Applications/OpenSesame.app/Contents/Resources/share/opensesame_resources/th-subject-0.csv,legacy,Lentiform Loewenfeld,3.3.3,0,s,h,NA,h,NA,s,522,4131,NA,1661,NA,522,2,legacy,1024,2,48000,-16,experiment,HHSHH,0,even,207067,4853,9009,166974,NA,201085,4666,167996,NA,165311,NA,208331,208855,208179,208130,208331,Flanker Task,92,50908,103,yes,1024
89.42307692,89.42307692,494.5576923,494.5576923,black,legacy,legacy,legacy,0,incongruent,uniform,1,undefined,1,h,103,0,0,0,0,103,0,103,0,0,0,103,103,103,103,103,Fri Sep 18 21:35:23 2020,600,The main experiment item,yes,FlankerTask.osexp,/Applications/OpenSesame.app/Contents/Resources/share/opensesame_resources,no,mono,no,18,no,white,no,no,768,legacy,23,79,/Applications/OpenSesame.app/Contents/Resources/share/opensesame_resources/th-subject-0.csv,legacy,Lentiform Loewenfeld,3.3.3,0,h,h,NA,h,NA,h,526,4131,NA,1661,NA,526,2,legacy,1024,2,48000,-16,experiment,SSHSS,0,even,208913,4853,9009,166974,NA,201085,4666,167996,NA,165311,NA,210175,210703,210024,209976,210175,Flanker Task,93,51434,104,yes,1024
89.52380952,89.52380952,494.2857143,494.2857143,black,legacy,legacy,legacy,0,congruent,uniform,1,undefined,1,h,104,0,0,0,0,104,0,104,0,0,0,104,104,104,104,104,Fri Sep 18 21:35:23 2020,600,The main experiment item,yes,FlankerTask.osexp,/Applications/OpenSesame.app/Contents/Resources/share/opensesame_resources,no,mono,no,18,no,white,no,no,768,legacy,24,79,/Applications/OpenSesame.app/Contents/Resources/share/opensesame_resources/th-subject-0.csv,legacy,Lentiform Loewenfeld,3.3.3,0,h,h,NA,h,NA,h,466,4131,NA,1661,NA,466,2,legacy,1024,2,48000,-16,experiment,HHHHH,0,even,210763,4853,9009,166974,NA,201085,4666,167996,NA,165311,NA,212027,212495,211878,211828,212027,Flanker Task,94,51900,105,yes,1024
89.62264151,89.62264151,493.7924528,493.7924528,black,legacy,legacy,legacy,0,incongruent,uniform,1,undefined,1,h,105,0,0,0,0,105,0,105,0,0,0,105,105,105,105,105,Fri Sep 18 21:35:23 2020,600,The main experiment item,yes,FlankerTask.osexp,/Applications/OpenSesame.app/Contents/Resources/share/opensesame_resources,no,mono,no,18,no,white,no,no,768,legacy,25,79,/Applications/OpenSesame.app/Contents/Resources/share/opensesame_resources/th-subject-0.csv,legacy,Lentiform Loewenfeld,3.3.3,0,h,h,NA,h,NA,h,442,4131,NA,1661,NA,442,2,legacy,1024,2,48000,-16,experiment,SSHSS,0,even,212556,4853,9009,166974,NA,201085,4666,167996,NA,165311,NA,213818,214263,213668,213619,213818,Flanker Task,95,52342,106,yes,1024
89.71962617,89.71962617,495.9906542,495.9906542,black,legacy,legacy,legacy,0,incongruent,uniform,1,undefined,1,h,106,0,0,0,0,106,0,106,0,0,0,106,106,106,106,106,Fri Sep 18 21:35:23 2020,600,The main experiment item,yes,FlankerTask.osexp,/Applications/OpenSesame.app/Contents/Resources/share/opensesame_resources,no,mono,no,18,no,white,no,no,768,legacy,26,79,/Applications/OpenSesame.app/Contents/Resources/share/opensesame_resources/th-subject-0.csv,legacy,Lentiform Loewenfeld,3.3.3,0,h,h,NA,h,NA,h,729,4131,NA,1661,NA,729,2,legacy,1024,2,48000,-16,experiment,SSHSS,0,even,214323,4853,9009,166974,NA,201085,4666,167996,NA,165311,NA,215588,216319,215439,215389,215588,Flanker Task,96,53071,107,yes,1024
89.81481481,89.81481481,495.0648148,495.0648148,black,legacy,legacy,legacy,0,incongruent,uniform,1,undefined,1,h,107,0,0,0,0,107,0,107,0,0,0,107,107,107,107,107,Fri Sep 18 21:35:23 2020,600,The main experiment item,yes,FlankerTask.osexp,/Applications/OpenSesame.app/Contents/Resources/share/opensesame_resources,no,mono,no,18,no,white,no,no,768,legacy,27,79,/Applications/OpenSesame.app/Contents/Resources/share/opensesame_resources/th-subject-0.csv,legacy,Lentiform Loewenfeld,3.3.3,0,h,h,NA,h,NA,h,396,4131,NA,1661,NA,396,2,legacy,1024,2,48000,-16,experiment,SSHSS,0,even,217037,4853,9009,166974,NA,201085,4666,216485,NA,165311,NA,218321,218719,218156,218103,218321,Flanker Task,97,53467,108,yes,1024
89.90825688,89.90825688,493.8990826,493.8990826,black,legacy,legacy,legacy,0,congruent,uniform,1,undefined,1,h,108,0,0,0,0,108,0,108,0,0,0,108,108,108,108,108,Fri Sep 18 21:35:23 2020,600,The main experiment item,yes,FlankerTask.osexp,/Applications/OpenSesame.app/Contents/Resources/share/opensesame_resources,no,mono,no,18,no,white,no,no,768,legacy,28,79,/Applications/OpenSesame.app/Contents/Resources/share/opensesame_resources/th-subject-0.csv,legacy,Lentiform Loewenfeld,3.3.3,0,h,h,NA,h,NA,h,368,4131,NA,1661,NA,368,2,legacy,1024,2,48000,-16,experiment,HHHHH,0,even,218782,4853,9009,166974,NA,201085,4666,216485,NA,165311,NA,220053,220423,219901,219851,220053,Flanker Task,98,53835,109,yes,1024
90,90,492.3454545,492.3454545,black,legacy,legacy,legacy,0,incongruent,uniform,1,undefined,1,h,109,0,0,0,0,109,0,109,0,0,0,109,109,109,109,109,Fri Sep 18 21:35:23 2020,600,The main experiment item,yes,FlankerTask.osexp,/Applications/OpenSesame.app/Contents/Resources/share/opensesame_resources,no,mono,no,18,no,white,no,no,768,legacy,29,79,/Applications/OpenSesame.app/Contents/Resources/share/opensesame_resources/th-subject-0.csv,legacy,Lentiform Loewenfeld,3.3.3,0,h,h,NA,h,NA,h,323,4131,NA,1661,NA,323,2,legacy,1024,2,48000,-16,experiment,SSHSS,0,even,220482,4853,9009,166974,NA,201085,4666,216485,NA,165311,NA,221769,222095,221613,221561,221769,Flanker Task,99,54158,110,yes,1024
90.09009009,90.09009009,491.3783784,491.3783784,black,legacy,legacy,legacy,0,incongruent,uniform,1,undefined,1,h,110,0,0,0,0,110,0,110,0,0,0,110,110,110,110,110,Fri Sep 18 21:35:23 2020,600,The main experiment item,yes,FlankerTask.osexp,/Applications/OpenSesame.app/Contents/Resources/share/opensesame_resources,no,mono,no,18,no,white,no,no,768,legacy,30,79,/Applications/OpenSesame.app/Contents/Resources/share/opensesame_resources/th-subject-0.csv,legacy,Lentiform Loewenfeld,3.3.3,0,h,h,NA,h,NA,h,385,4131,NA,1661,NA,385,2,legacy,1024,2,48000,-16,experiment,SSHSS,0,even,222155,4853,9009,166974,NA,201085,4666,216485,NA,165311,NA,223444,223831,223295,223228,223444,Flanker Task,100,54543,111,yes,1024
89.28571429,89.28571429,489.9642857,489.9642857,black,legacy,legacy,legacy,0,incongruent,uniform,0,undefined,0,s,111,0,0,0,0,111,0,111,0,0,0,111,111,111,111,111,Fri Sep 18 21:35:23 2020,600,The main experiment item,yes,FlankerTask.osexp,/Applications/OpenSesame.app/Contents/Resources/share/opensesame_resources,no,mono,no,18,no,white,no,no,768,legacy,31,79,/Applications/OpenSesame.app/Contents/Resources/share/opensesame_resources/th-subject-0.csv,legacy,Lentiform Loewenfeld,3.3.3,0,h,h,NA,h,NA,h,333,4131,NA,1661,NA,333,2,legacy,1024,2,48000,-16,experiment,HHSHH,0,even,223891,4853,9009,166974,NA,201085,4666,216485,NA,165311,NA,225152,225488,225002,224954,225151,Flanker Task,100,54876,112,yes,1024
89.38053097,89.38053097,489.2920354,489.2920354,black,legacy,legacy,legacy,0,congruent,uniform,1,undefined,1,h,112,0,0,0,0,112,0,112,0,0,0,112,112,112,112,112,Fri Sep 18 21:35:23 2020,600,The main experiment item,yes,FlankerTask.osexp,/Applications/OpenSesame.app/Contents/Resources/share/opensesame_resources,no,mono,no,18,no,white,no,no,768,legacy,32,79,/Applications/OpenSesame.app/Contents/Resources/share/opensesame_resources/th-subject-0.csv,legacy,Lentiform Loewenfeld,3.3.3,0,h,h,NA,h,NA,h,414,4131,NA,1661,NA,414,2,legacy,1024,2,48000,-16,experiment,HHHHH,0,even,226098,4853,9009,166974,NA,225538,4666,216485,NA,165311,NA,227367,227783,227211,227162,227366,Flanker Task,101,55290,113,yes,1024
89.47368421,89.47368421,488.1052632,488.1052632,black,legacy,legacy,legacy,0,congruent,uniform,1,undefined,1,h,113,0,0,0,0,113,0,113,0,0,0,113,113,113,113,113,Fri Sep 18 21:35:23 2020,600,The main experiment item,yes,FlankerTask.osexp,/Applications/OpenSesame.app/Contents/Resources/share/opensesame_resources,no,mono,no,18,no,white,no,no,768,legacy,33,79,/Applications/OpenSesame.app/Contents/Resources/share/opensesame_resources/th-subject-0.csv,legacy,Lentiform Loewenfeld,3.3.3,0,h,h,NA,h,NA,h,354,4131,NA,1661,NA,354,2,legacy,1024,2,48000,-16,experiment,HHHHH,0,even,227833,4853,9009,166974,NA,225538,4666,216485,NA,165311,NA,229116,229472,228948,228898,229116,Flanker Task,102,55644,114,yes,1024
89.56521739,89.56521739,487.226087,487.226087,black,legacy,legacy,legacy,0,congruent,uniform,1,undefined,1,h,114,0,0,0,0,114,0,114,0,0,0,114,114,114,114,114,Fri Sep 18 21:35:23 2020,600,The main experiment item,yes,FlankerTask.osexp,/Applications/OpenSesame.app/Contents/Resources/share/opensesame_resources,no,mono,no,18,no,white,no,no,768,legacy,34,79,/Applications/OpenSesame.app/Contents/Resources/share/opensesame_resources/th-subject-0.csv,legacy,Lentiform Loewenfeld,3.3.3,0,h,h,NA,h,NA,h,387,4131,NA,1661,NA,387,2,legacy,1024,2,48000,-16,experiment,HHHHH,0,even,229527,4853,9009,166974,NA,225538,4666,216485,NA,165311,NA,230801,231190,230652,230602,230801,Flanker Task,103,56031,115,yes,1024
89.65517241,89.65517241,485.7413793,485.7413793,black,legacy,legacy,legacy,0,congruent,uniform,1,undefined,1,h,115,0,0,0,0,115,0,115,0,0,0,115,115,115,115,115,Fri Sep 18 21:35:23 2020,600,The main experiment item,yes,FlankerTask.osexp,/Applications/OpenSesame.app/Contents/Resources/share/opensesame_resources,no,mono,no,18,no,white,no,no,768,legacy,35,79,/Applications/OpenSesame.app/Contents/Resources/share/opensesame_resources/th-subject-0.csv,legacy,Lentiform Loewenfeld,3.3.3,0,h,h,NA,h,NA,h,315,4131,NA,1661,NA,315,2,legacy,1024,2,48000,-16,experiment,HHHHH,0,even,231249,4853,9009,166974,NA,225538,4666,216485,NA,165311,NA,232514,232832,232362,232312,232514,Flanker Task,104,56346,116,yes,1024
89.74358974,89.74358974,484.3760684,484.3760684,black,legacy,legacy,legacy,0,incongruent,uniform,1,undefined,1,h,116,0,0,0,0,116,0,116,0,0,0,116,116,116,116,116,Fri Sep 18 21:35:23 2020,600,The main experiment item,yes,FlankerTask.osexp,/Applications/OpenSesame.app/Contents/Resources/share/opensesame_resources,no,mono,no,18,no,white,no,no,768,legacy,36,79,/Applications/OpenSesame.app/Contents/Resources/share/opensesame_resources/th-subject-0.csv,legacy,Lentiform Loewenfeld,3.3.3,0,h,h,NA,h,NA,h,326,4131,NA,1661,NA,326,2,legacy,1024,2,48000,-16,experiment,SSHSS,0,even,232891,4853,9009,166974,NA,225538,4666,216485,NA,165311,NA,234152,234480,234003,233954,234152,Flanker Task,105,56672,117,yes,1024
89.83050847,89.83050847,483.2118644,483.2118644,black,legacy,legacy,legacy,0,congruent,uniform,1,undefined,1,h,117,0,0,0,0,117,0,117,0,0,0,117,117,117,117,117,Fri Sep 18 21:35:23 2020,600,The main experiment item,yes,FlankerTask.osexp,/Applications/OpenSesame.app/Contents/Resources/share/opensesame_resources,no,mono,no,18,no,white,no,no,768,legacy,37,79,/Applications/OpenSesame.app/Contents/Resources/share/opensesame_resources/th-subject-0.csv,legacy,Lentiform Loewenfeld,3.3.3,0,h,h,NA,h,NA,h,347,4131,NA,1661,NA,347,2,legacy,1024,2,48000,-16,experiment,HHHHH,0,even,234533,4853,9009,166974,NA,225538,4666,216485,NA,165311,NA,235810,236159,235660,235612,235810,Flanker Task,106,57019,118,yes,1024
89.91596639,89.91596639,482.4621849,482.4621849,black,legacy,legacy,legacy,0,congruent,uniform,1,undefined,1,h,118,0,0,0,0,118,0,118,0,0,0,118,118,118,118,118,Fri Sep 18 21:35:23 2020,600,The main experiment item,yes,FlankerTask.osexp,/Applications/OpenSesame.app/Contents/Resources/share/opensesame_resources,no,mono,no,18,no,white,no,no,768,legacy,38,79,/Applications/OpenSesame.app/Contents/Resources/share/opensesame_resources/th-subject-0.csv,legacy,Lentiform Loewenfeld,3.3.3,0,h,h,NA,h,NA,h,394,4131,NA,1661,NA,394,2,legacy,1024,2,48000,-16,experiment,HHHHH,0,even,236211,4853,9009,166974,NA,225538,4666,216485,NA,165311,NA,237515,237916,237333,237275,237514,Flanker Task,107,57413,119,yes,1024
90,90,482.2916667,482.2916667,black,legacy,legacy,legacy,0,congruent,uniform,1,undefined,1,s,119,0,0,0,0,119,0,119,0,0,0,119,119,119,119,119,Fri Sep 18 21:35:23 2020,600,The main experiment item,yes,FlankerTask.osexp,/Applications/OpenSesame.app/Contents/Resources/share/opensesame_resources,no,mono,no,18,no,white,no,no,768,legacy,39,79,/Applications/OpenSesame.app/Contents/Resources/share/opensesame_resources/th-subject-0.csv,legacy,Lentiform Loewenfeld,3.3.3,0,s,h,NA,h,NA,s,462,4131,NA,1661,NA,462,2,legacy,1024,2,48000,-16,experiment,SSSSS,0,even,237977,4853,9009,166974,NA,225538,4666,216485,NA,165311,NA,239256,239720,239100,239043,239255,Flanker Task,108,57875,120,yes,1024
90.08264463,90.08264463,481.3553719,481.3553719,black,legacy,legacy,legacy,0,congruent,uniform,1,undefined,1,h,120,0,0,0,0,120,0,120,0,0,0,120,120,120,120,120,Fri Sep 18 21:35:23 2020,600,The main experiment item,yes,FlankerTask.osexp,/Applications/OpenSesame.app/Contents/Resources/share/opensesame_resources,no,mono,no,18,no,white,no,no,768,legacy,40,79,/Applications/OpenSesame.app/Contents/Resources/share/opensesame_resources/th-subject-0.csv,legacy,Lentiform Loewenfeld,3.3.3,0,h,h,NA,h,NA,h,369,4131,NA,1661,NA,369,2,legacy,1024,2,48000,-16,experiment,HHHHH,0,even,239779,4853,9009,166974,NA,225538,4666,216485,NA,165311,NA,241053,241424,240903,240841,241053,Flanker Task,109,58244,121,yes,1024
89.3442623,89.3442623,480.3770492,480.3770492,black,legacy,legacy,legacy,0,congruent,uniform,0,undefined,0,s,121,0,0,0,0,121,0,121,0,0,0,121,121,121,121,121,Fri Sep 18 21:35:23 2020,600,The main experiment item,yes,FlankerTask.osexp,/Applications/OpenSesame.app/Contents/Resources/share/opensesame_resources,no,mono,no,18,no,white,no,no,768,legacy,41,79,/Applications/OpenSesame.app/Contents/Resources/share/opensesame_resources/th-subject-0.csv,legacy,Lentiform Loewenfeld,3.3.3,0,h,h,NA,h,NA,h,362,4131,NA,1661,NA,362,2,legacy,1024,2,48000,-16,experiment,SSSSS,0,even,241484,4853,9009,166974,NA,225538,4666,216485,NA,165311,NA,242811,243176,242634,242561,242811,Flanker Task,109,58606,122,yes,1024
89.43089431,89.43089431,480.9430894,480.9430894,black,legacy,legacy,legacy,0,incongruent,uniform,1,undefined,1,h,122,0,0,0,0,122,0,122,0,0,0,122,122,122,122,122,Fri Sep 18 21:35:23 2020,600,The main experiment item,yes,FlankerTask.osexp,/Applications/OpenSesame.app/Contents/Resources/share/opensesame_resources,no,mono,no,18,no,white,no,no,768,legacy,42,79,/Applications/OpenSesame.app/Contents/Resources/share/opensesame_resources/th-subject-0.csv,legacy,Lentiform Loewenfeld,3.3.3,0,h,h,NA,h,NA,h,550,4131,NA,1661,NA,550,2,legacy,1024,2,48000,-16,experiment,SSHSS,0,even,243828,4853,9009,166974,NA,243259,4666,216485,NA,165311,NA,245096,245648,244942,244893,245096,Flanker Task,110,59156,123,yes,1024
88.70967742,88.70967742,481.233871,481.233871,black,legacy,legacy,legacy,0,congruent,uniform,0,undefined,0,h,123,0,0,0,0,123,0,123,0,0,0,123,123,123,123,123,Fri Sep 18 21:35:23 2020,600,The main experiment item,yes,FlankerTask.osexp,/Applications/OpenSesame.app/Contents/Resources/share/opensesame_resources,no,mono,no,18,no,white,no,no,768,legacy,43,79,/Applications/OpenSesame.app/Contents/Resources/share/opensesame_resources/th-subject-0.csv,legacy,Lentiform Loewenfeld,3.3.3,0,s,h,NA,h,NA,s,517,4131,NA,1661,NA,517,2,legacy,1024,2,48000,-16,experiment,HHHHH,0,even,245698,4853,9009,166974,NA,243259,4666,216485,NA,165311,NA,246977,247496,246827,246766,246977,Flanker Task,110,59673,124,yes,1024
88.8,88.8,480.344,480.344,black,legacy,legacy,legacy,0,incongruent,uniform,1,undefined,1,s,124,0,0,0,0,124,0,124,0,0,0,124,124,124,124,124,Fri Sep 18 21:35:23 2020,600,The main experiment item,yes,FlankerTask.osexp,/Applications/OpenSesame.app/Contents/Resources/share/opensesame_resources,no,mono,no,18,no,white,no,no,768,legacy,44,79,/Applications/OpenSesame.app/Contents/Resources/share/opensesame_resources/th-subject-0.csv,legacy,Lentiform Loewenfeld,3.3.3,0,s,h,NA,h,NA,s,370,4131,NA,1661,NA,370,2,legacy,1024,2,48000,-16,experiment,HHSHH,0,even,248108,4853,9009,166974,NA,247555,4666,216485,NA,165311,NA,249372,249744,249221,249171,249372,Flanker Task,111,60043,125,yes,1024
88.88888889,88.88888889,479.7936508,479.7936508,black,legacy,legacy,legacy,0,congruent,uniform,1,undefined,1,s,125,0,0,0,0,125,0,125,0,0,0,125,125,125,125,125,Fri Sep 18 21:35:23 2020,600,The main experiment item,yes,FlankerTask.osexp,/Applications/OpenSesame.app/Contents/Resources/share/opensesame_resources,no,mono,no,18,no,white,no,no,768,legacy,45,79,/Applications/OpenSesame.app/Contents/Resources/share/opensesame_resources/th-subject-0.csv,legacy,Lentiform Loewenfeld,3.3.3,0,s,h,NA,h,NA,s,411,4131,NA,1661,NA,411,2,legacy,1024,2,48000,-16,experiment,SSSSS,0,even,249803,4853,9009,166974,NA,247555,4666,216485,NA,165311,NA,251083,251496,250929,250880,251083,Flanker Task,112,60454,126,yes,1024
88.97637795,88.97637795,478.7480315,478.7480315,black,legacy,legacy,legacy,0,congruent,uniform,1,undefined,1,s,126,0,0,0,0,126,0,126,0,0,0,126,126,126,126,126,Fri Sep 18 21:35:23 2020,600,The main experiment item,yes,FlankerTask.osexp,/Applications/OpenSesame.app/Contents/Resources/share/opensesame_resources,no,mono,no,18,no,white,no,no,768,legacy,46,79,/Applications/OpenSesame.app/Contents/Resources/share/opensesame_resources/th-subject-0.csv,legacy,Lentiform Loewenfeld,3.3.3,0,s,h,NA,h,NA,s,347,4131,NA,1661,NA,347,2,legacy,1024,2,48000,-16,experiment,SSSSS,0,even,251557,4853,9009,166974,NA,247555,4666,216485,NA,165311,NA,252826,253175,252674,252620,252825,Flanker Task,113,60801,127,yes,1024
88.28125,88.28125,477.4140625,477.4140625,black,legacy,legacy,legacy,0,congruent,uniform,0,undefined,0,h,127,0,0,0,0,127,0,127,0,0,0,127,127,127,127,127,Fri Sep 18 21:35:23 2020,600,The main experiment item,yes,FlankerTask.osexp,/Applications/OpenSesame.app/Contents/Resources/share/opensesame_resources,no,mono,no,18,no,white,no,no,768,legacy,47,79,/Applications/OpenSesame.app/Contents/Resources/share/opensesame_resources/th-subject-0.csv,legacy,Lentiform Loewenfeld,3.3.3,0,s,h,NA,h,NA,s,308,4131,NA,1661,NA,308,2,legacy,1024,2,48000,-16,experiment,HHHHH,0,even,253235,4853,9009,166974,NA,247555,4666,216485,NA,165311,NA,254498,254808,254348,254298,254498,Flanker Task,113,61109,128,yes,1024
88.37209302,88.37209302,479.2093023,479.2093023,black,legacy,legacy,legacy,0,incongruent,uniform,1,undefined,1,s,128,0,0,0,0,128,0,128,0,0,0,128,128,128,128,128,Fri Sep 18 21:35:23 2020,600,The main experiment item,yes,FlankerTask.osexp,/Applications/OpenSesame.app/Contents/Resources/share/opensesame_resources,no,mono,no,18,no,white,no,no,768,legacy,48,79,/Applications/OpenSesame.app/Contents/Resources/share/opensesame_resources/th-subject-0.csv,legacy,Lentiform Loewenfeld,3.3.3,0,s,h,NA,h,NA,s,709,4131,NA,1661,NA,709,2,legacy,1024,2,48000,-16,experiment,HHSHH,0,even,255416,4853,9009,166974,NA,254867,4666,216485,NA,165311,NA,256681,257393,256530,256481,256681,Flanker Task,114,61818,129,yes,1024
88.46153846,88.46153846,479.2153846,479.2153846,black,legacy,legacy,legacy,0,incongruent,uniform,1,undefined,1,h,129,0,0,0,0,129,0,129,0,0,0,129,129,129,129,129,Fri Sep 18 21:35:23 2020,600,The main experiment item,yes,FlankerTask.osexp,/Applications/OpenSesame.app/Contents/Resources/share/opensesame_resources,no,mono,no,18,no,white,no,no,768,legacy,49,79,/Applications/OpenSesame.app/Contents/Resources/share/opensesame_resources/th-subject-0.csv,legacy,Lentiform Loewenfeld,3.3.3,0,h,h,NA,h,NA,h,480,4131,NA,1661,NA,480,2,legacy,1024,2,48000,-16,experiment,SSHSS,0,even,257997,4853,9009,166974,NA,254867,4666,257445,NA,165311,NA,259278,259761,259129,259072,259278,Flanker Task,115,62298,130,yes,1024
88.54961832,88.54961832,479.7328244,479.7328244,black,legacy,legacy,legacy,0,incongruent,uniform,1,undefined,1,s,130,0,0,0,0,130,0,130,0,0,0,130,130,130,130,130,Fri Sep 18 21:35:23 2020,600,The main experiment item,yes,FlankerTask.osexp,/Applications/OpenSesame.app/Contents/Resources/share/opensesame_resources,no,mono,no,18,no,white,no,no,768,legacy,50,79,/Applications/OpenSesame.app/Contents/Resources/share/opensesame_resources/th-subject-0.csv,legacy,Lentiform Loewenfeld,3.3.3,0,s,h,NA,h,NA,s,547,4131,NA,1661,NA,547,2,legacy,1024,2,48000,-16,experiment,HHSHH,0,even,259827,4853,9009,166974,NA,254867,4666,257445,NA,165311,NA,261164,261713,260971,260904,261163,Flanker Task,116,62845,131,yes,1024
87.87878788,87.87878788,479.9393939,479.9393939,black,legacy,legacy,legacy,0,incongruent,uniform,0,undefined,0,s,131,0,0,0,0,131,0,131,0,0,0,131,131,131,131,131,Fri Sep 18 21:35:23 2020,600,The main experiment item,yes,FlankerTask.osexp,/Applications/OpenSesame.app/Contents/Resources/share/opensesame_resources,no,mono,no,18,no,white,no,no,768,legacy,51,79,/Applications/OpenSesame.app/Contents/Resources/share/opensesame_resources/th-subject-0.csv,legacy,Lentiform Loewenfeld,3.3.3,0,h,h,NA,h,NA,h,507,4131,NA,1661,NA,507,2,legacy,1024,2,48000,-16,experiment,HHSHH,0,even,261775,4853,9009,166974,NA,254867,4666,257445,NA,165311,NA,263036,263545,262887,262837,263036,Flanker Task,116,63352,132,yes,1024
87.96992481,87.96992481,479.1278195,479.1278195,black,legacy,legacy,legacy,0,incongruent,uniform,1,undefined,1,s,132,0,0,0,0,132,0,132,0,0,0,132,132,132,132,132,Fri Sep 18 21:35:23 2020,600,The main experiment item,yes,FlankerTask.osexp,/Applications/OpenSesame.app/Contents/Resources/share/opensesame_resources,no,mono,no,18,no,white,no,no,768,legacy,52,79,/Applications/OpenSesame.app/Contents/Resources/share/opensesame_resources/th-subject-0.csv,legacy,Lentiform Loewenfeld,3.3.3,0,s,h,NA,h,NA,s,372,4131,NA,1661,NA,372,2,legacy,1024,2,48000,-16,experiment,HHSHH,0,even,264185,4853,9009,166974,NA,263605,4666,257445,NA,165311,NA,265508,265883,265342,265266,265508,Flanker Task,117,63724,133,yes,1024
88.05970149,88.05970149,478.1044776,478.1044776,black,legacy,legacy,legacy,0,congruent,uniform,1,undefined,1,s,133,0,0,0,0,133,0,133,0,0,0,133,133,133,133,133,Fri Sep 18 21:35:23 2020,600,The main experiment item,yes,FlankerTask.osexp,/Applications/OpenSesame.app/Contents/Resources/share/opensesame_resources,no,mono,no,18,no,white,no,no,768,legacy,53,79,/Applications/OpenSesame.app/Contents/Resources/share/opensesame_resources/th-subject-0.csv,legacy,Lentiform Loewenfeld,3.3.3,0,s,h,NA,h,NA,s,342,4131,NA,1661,NA,342,2,legacy,1024,2,48000,-16,experiment,SSSSS,0,even,265962,4853,9009,166974,NA,263605,4666,257445,NA,165311,NA,267281,267626,267111,267045,267281,Flanker Task,118,64066,134,yes,1024
88.14814815,88.14814815,477.5407407,477.5407407,black,legacy,legacy,legacy,0,congruent,uniform,1,undefined,1,s,134,0,0,0,0,134,0,134,0,0,0,134,134,134,134,134,Fri Sep 18 21:35:23 2020,600,The main experiment item,yes,FlankerTask.osexp,/Applications/OpenSesame.app/Contents/Resources/share/opensesame_resources,no,mono,no,18,no,white,no,no,768,legacy,54,79,/Applications/OpenSesame.app/Contents/Resources/share/opensesame_resources/th-subject-0.csv,legacy,Lentiform Loewenfeld,3.3.3,0,s,h,NA,h,NA,s,402,4131,NA,1661,NA,402,2,legacy,1024,2,48000,-16,experiment,SSSSS,0,even,267704,4853,9009,166974,NA,263605,4666,257445,NA,165311,NA,268973,269378,268820,268770,268973,Flanker Task,119,64468,135,yes,1024
88.23529412,88.23529412,478.9485294,478.9485294,black,legacy,legacy,legacy,0,incongruent,uniform,1,undefined,1,h,135,0,0,0,0,135,0,135,0,0,0,135,135,135,135,135,Fri Sep 18 21:35:23 2020,600,The main experiment item,yes,FlankerTask.osexp,/Applications/OpenSesame.app/Contents/Resources/share/opensesame_resources,no,mono,no,18,no,white,no,no,768,legacy,55,79,/Applications/OpenSesame.app/Contents/Resources/share/opensesame_resources/th-subject-0.csv,legacy,Lentiform Loewenfeld,3.3.3,0,h,h,NA,h,NA,h,669,4131,NA,1661,NA,669,2,legacy,1024,2,48000,-16,experiment,SSHSS,0,even,269436,4853,9009,166974,NA,263605,4666,257445,NA,165311,NA,270698,271369,270548,270499,270698,Flanker Task,120,65137,136,yes,1024
88.32116788,88.32116788,479.1167883,479.1167883,black,legacy,legacy,legacy,0,incongruent,uniform,1,undefined,1,s,136,0,0,0,0,136,0,136,0,0,0,136,136,136,136,136,Fri Sep 18 21:35:23 2020,600,The main experiment item,yes,FlankerTask.osexp,/Applications/OpenSesame.app/Contents/Resources/share/opensesame_resources,no,mono,no,18,no,white,no,no,768,legacy,56,79,/Applications/OpenSesame.app/Contents/Resources/share/opensesame_resources/th-subject-0.csv,legacy,Lentiform Loewenfeld,3.3.3,0,s,h,NA,h,NA,s,502,4131,NA,1661,NA,502,2,legacy,1024,2,48000,-16,experiment,HHSHH,0,even,271984,4853,9009,166974,NA,263605,4666,271432,NA,165311,NA,273257,273761,273099,273046,273256,Flanker Task,121,65639,137,yes,1024
88.4057971,88.4057971,478.2826087,478.2826087,black,legacy,legacy,legacy,0,congruent,uniform,1,undefined,1,h,137,0,0,0,0,137,0,137,0,0,0,137,137,137,137,137,Fri Sep 18 21:35:23 2020,600,The main experiment item,yes,FlankerTask.osexp,/Applications/OpenSesame.app/Contents/Resources/share/opensesame_resources,no,mono,no,18,no,white,no,no,768,legacy,57,79,/Applications/OpenSesame.app/Contents/Resources/share/opensesame_resources/th-subject-0.csv,legacy,Lentiform Loewenfeld,3.3.3,0,h,h,NA,h,NA,h,364,4131,NA,1661,NA,364,2,legacy,1024,2,48000,-16,experiment,HHHHH,0,even,273816,4853,9009,166974,NA,263605,4666,271432,NA,165311,NA,275083,275449,274932,274879,275083,Flanker Task,122,66003,138,yes,1024
88.48920863,88.48920863,477.4964029,477.4964029,black,legacy,legacy,legacy,0,congruent,uniform,1,undefined,1,s,138,0,0,0,0,138,0,138,0,0,0,138,138,138,138,138,Fri Sep 18 21:35:23 2020,600,The main experiment item,yes,FlankerTask.osexp,/Applications/OpenSesame.app/Contents/Resources/share/opensesame_resources,no,mono,no,18,no,white,no,no,768,legacy,58,79,/Applications/OpenSesame.app/Contents/Resources/share/opensesame_resources/th-subject-0.csv,legacy,Lentiform Loewenfeld,3.3.3,0,s,h,NA,h,NA,s,369,4131,NA,1661,NA,369,2,legacy,1024,2,48000,-16,experiment,SSSSS,0,even,275508,4853,9009,166974,NA,263605,4666,271432,NA,165311,NA,276770,277143,276620,276571,276770,Flanker Task,123,66372,139,yes,1024
88.57142857,88.57142857,476.6,476.6,black,legacy,legacy,legacy,0,congruent,uniform,1,undefined,1,s,139,0,0,0,0,139,0,139,0,0,0,139,139,139,139,139,Fri Sep 18 21:35:23 2020,600,The main experiment item,yes,FlankerTask.osexp,/Applications/OpenSesame.app/Contents/Resources/share/opensesame_resources,no,mono,no,18,no,white,no,no,768,legacy,59,79,/Applications/OpenSesame.app/Contents/Resources/share/opensesame_resources/th-subject-0.csv,legacy,Lentiform Loewenfeld,3.3.3,0,s,h,NA,h,NA,s,352,4131,NA,1661,NA,352,2,legacy,1024,2,48000,-16,experiment,SSSSS,0,even,277205,4853,9009,166974,NA,263605,4666,271432,NA,165311,NA,278543,278898,278387,278294,278543,Flanker Task,124,66724,140,yes,1024
88.65248227,88.65248227,477.0567376,477.0567376,black,legacy,legacy,legacy,0,congruent,uniform,1,undefined,1,h,140,0,0,0,0,140,0,140,0,0,0,140,140,140,140,140,Fri Sep 18 21:35:23 2020,600,The main experiment item,yes,FlankerTask.osexp,/Applications/OpenSesame.app/Contents/Resources/share/opensesame_resources,no,mono,no,18,no,white,no,no,768,legacy,60,79,/Applications/OpenSesame.app/Contents/Resources/share/opensesame_resources/th-subject-0.csv,legacy,Lentiform Loewenfeld,3.3.3,0,h,h,NA,h,NA,h,541,4131,NA,1661,NA,541,2,legacy,1024,2,48000,-16,experiment,HHHHH,0,even,278958,4853,9009,166974,NA,263605,4666,271432,NA,165311,NA,280218,280761,280069,280020,280218,Flanker Task,125,67265,141,yes,1024
88.73239437,88.73239437,476.2112676,476.2112676,black,legacy,legacy,legacy,0,congruent,uniform,1,undefined,1,s,141,0,0,0,0,141,0,141,0,0,0,141,141,141,141,141,Fri Sep 18 21:35:23 2020,600,The main experiment item,yes,FlankerTask.osexp,/Applications/OpenSesame.app/Contents/Resources/share/opensesame_resources,no,mono,no,18,no,white,no,no,768,legacy,61,79,/Applications/OpenSesame.app/Contents/Resources/share/opensesame_resources/th-subject-0.csv,legacy,Lentiform Loewenfeld,3.3.3,0,s,h,NA,h,NA,s,357,4131,NA,1661,NA,357,2,legacy,1024,2,48000,-16,experiment,SSSSS,0,even,280821,4853,9009,166974,NA,263605,4666,271432,NA,165311,NA,282082,282441,281933,281884,282082,Flanker Task,126,67622,142,yes,1024
88.81118881,88.81118881,475.1188811,475.1188811,black,legacy,legacy,legacy,0,congruent,uniform,1,undefined,1,s,142,0,0,0,0,142,0,142,0,0,0,142,142,142,142,142,Fri Sep 18 21:35:23 2020,600,The main experiment item,yes,FlankerTask.osexp,/Applications/OpenSesame.app/Contents/Resources/share/opensesame_resources,no,mono,no,18,no,white,no,no,768,legacy,62,79,/Applications/OpenSesame.app/Contents/Resources/share/opensesame_resources/th-subject-0.csv,legacy,Lentiform Loewenfeld,3.3.3,0,s,h,NA,h,NA,s,320,4131,NA,1661,NA,320,2,legacy,1024,2,48000,-16,experiment,SSSSS,0,even,282500,4853,9009,166974,NA,263605,4666,271432,NA,165311,NA,283774,284096,283625,283577,283774,Flanker Task,127,67942,143,yes,1024
88.88888889,88.88888889,474.2430556,474.2430556,black,legacy,legacy,legacy,0,congruent,uniform,1,undefined,1,h,143,0,0,0,0,143,0,143,0,0,0,143,143,143,143,143,Fri Sep 18 21:35:23 2020,600,The main experiment item,yes,FlankerTask.osexp,/Applications/OpenSesame.app/Contents/Resources/share/opensesame_resources,no,mono,no,18,no,white,no,no,768,legacy,63,79,/Applications/OpenSesame.app/Contents/Resources/share/opensesame_resources/th-subject-0.csv,legacy,Lentiform Loewenfeld,3.3.3,0,h,h,NA,h,NA,h,349,4131,NA,1661,NA,349,2,legacy,1024,2,48000,-16,experiment,HHHHH,0,even,284156,4853,9009,166974,NA,263605,4666,271432,NA,165311,NA,285418,285769,285268,285218,285418,Flanker Task,128,68291,144,yes,1024
