"acc","accuracy","average_response_time","avg_rt","background","canvas_backend","clock_backend","color_backend","compensation","condition","coordinates","correct","correct_instructions1","correct_keyboard_response","correct_response","count_ISI","count_block1","count_block2","count_block3","count_errorFeedback","count_experiment","count_faster","count_finish","count_fixation","count_instructions1","count_instructions2","count_instructions3","count_keyboard_response","count_new_logger","count_sequence","count_stimulus","datetime","deadline","description","disable_garbage_collection","experiment_file","experiment_path","font_bold","font_family","font_italic","font_size","font_underline","foreground","form_clicks","fullscreen","height","keyboard_backend","live_row","live_row_block1","logfile","mouse_backend","opensesame_codename","opensesame_version","repeat_cycle","response","response_finish","response_instructions1","response_instructions2","response_instructions3","response_keyboard_response","response_time","response_time_finish","response_time_instructions1","response_time_instructions2","response_time_instructions3","response_time_keyboard_response","round_decimals","sampler_backend","sound_buf_size","sound_channels","sound_freq","sound_sample_size","start","stimulus","subject_nr","subject_parity","time_ISI","time_block1","time_block2","time_block3","time_errorFeedback","time_experiment","time_faster","time_finish","time_fixation","time_instructions1","time_instructions2","time_instructions3","time_keyboard_response","time_new_logger","time_sequence","time_stimulus","title","total_correct","total_response_time","total_responses","uniform_coordinates","width"
"100","100","804","804","black","legacy","legacy","legacy","0","congruent","uniform","1","undefined","1","s","0","0","0","0","0","0","0","0","0","0","0","0","0","0","0","0","Mon Sep 21 18:47:09 2020","1500","The main experiment item","yes","Flankertask.osexp","/Users/annielenoir/Desktop","no","mono","no","18","no","white","no","no","768","legacy","0","0","/Users/annielenoir/Desktop/AL-subject-4.csv","legacy","Lentiform Loewenfeld","3.3.3","0","s","NA","h","NA","NA","s","804","NA","35110","NA","NA","804","2","legacy","1024","2","48000","-16","experiment","SSSSS","4","even","NA","37024","NA","NA","NA","1744","NA","NA","37194","1906","NA","NA","37429","38234","37058","37429","Flanker task","1","804","1","yes","1024"
"100","100","804","804","black","legacy","legacy","legacy","0","incongruent","uniform","1","undefined","1","s","1","0","0","0","1","0","1","0","1","0","0","0","1","1","1","1","Mon Sep 21 18:47:09 2020","1500","The main experiment item","yes","Flankertask.osexp","/Users/annielenoir/Desktop","no","mono","no","18","no","white","no","no","768","legacy","1","1","/Users/annielenoir/Desktop/AL-subject-4.csv","legacy","Lentiform Loewenfeld","3.3.3","0","s","NA","h","NA","NA","s","804","NA","35110","NA","NA","804","2","legacy","1024","2","48000","-16","experiment","HHSHH","4","even","38383","37024","NA","NA","NA","1744","NA","NA","39567","1906","NA","NA","39803","40609","39433","39802","Flanker task","2","1608","2","yes","1024"
"100","100","715.6666666666666","715.6666666666666","black","legacy","legacy","legacy","0","congruent","uniform","1","undefined","1","h","2","0","0","0","2","0","2","0","2","0","0","0","2","2","2","2","Mon Sep 21 18:47:09 2020","1500","The main experiment item","yes","Flankertask.osexp","/Users/annielenoir/Desktop","no","mono","no","18","no","white","no","no","768","legacy","2","2","/Users/annielenoir/Desktop/AL-subject-4.csv","legacy","Lentiform Loewenfeld","3.3.3","0","h","NA","h","NA","NA","h","539","NA","35110","NA","NA","539","2","legacy","1024","2","48000","-16","experiment","HHHHH","4","even","40761","37024","NA","NA","NA","1744","NA","NA","41938","1906","NA","NA","42174","42714","41803","42174","Flanker task","3","2147","3","yes","1024"
"100","100","643.5","643.5","black","legacy","legacy","legacy","0","congruent","uniform","1","undefined","1","h","3","0","0","0","3","0","3","0","3","0","0","0","3","3","3","3","Mon Sep 21 18:47:09 2020","1500","The main experiment item","yes","Flankertask.osexp","/Users/annielenoir/Desktop","no","mono","no","18","no","white","no","no","768","legacy","3","3","/Users/annielenoir/Desktop/AL-subject-4.csv","legacy","Lentiform Loewenfeld","3.3.3","0","h","NA","h","NA","NA","h","427","NA","35110","NA","NA","427","2","legacy","1024","2","48000","-16","experiment","HHHHH","4","even","42857","37024","NA","NA","NA","1744","NA","NA","44058","1906","NA","NA","44305","44733","43916","44305","Flanker task","4","2574","4","yes","1024"
"80","80","604.8","604.8","black","legacy","legacy","legacy","0","incongruent","uniform","0","undefined","0","h","4","0","0","0","4","0","4","0","4","0","0","0","4","4","4","4","Mon Sep 21 18:47:09 2020","1500","The main experiment item","yes","Flankertask.osexp","/Users/annielenoir/Desktop","no","mono","no","18","no","white","no","no","768","legacy","4","4","/Users/annielenoir/Desktop/AL-subject-4.csv","legacy","Lentiform Loewenfeld","3.3.3","0","s","NA","h","NA","NA","s","450","NA","35110","NA","NA","450","2","legacy","1024","2","48000","-16","experiment","SSHSS","4","even","44884","37024","NA","NA","NA","1744","NA","NA","46087","1906","NA","NA","46334","46785","45944","46334","Flanker task","4","3024","5","yes","1024"
"83.33333333333333","83.33333333333333","623.1666666666666","623.1666666666666","black","legacy","legacy","legacy","0","incongruent","uniform","1","undefined","1","s","5","0","0","0","5","0","5","0","5","0","0","0","5","5","5","5","Mon Sep 21 18:47:09 2020","1500","The main experiment item","yes","Flankertask.osexp","/Users/annielenoir/Desktop","no","mono","no","18","no","white","no","no","768","legacy","5","5","/Users/annielenoir/Desktop/AL-subject-4.csv","legacy","Lentiform Loewenfeld","3.3.3","0","s","NA","h","NA","NA","s","715","NA","35110","NA","NA","715","2","legacy","1024","2","48000","-16","experiment","HHSHH","4","even","47577","37024","NA","NA","46930","1744","NA","NA","48774","1906","NA","NA","49021","49737","48632","49021","Flanker task","5","3739","6","yes","1024"
"85.71428571428571","85.71428571428571","607.1428571428571","607.1428571428571","black","legacy","legacy","legacy","0","incongruent","uniform","1","undefined","1","h","6","0","0","0","6","0","6","0","6","0","0","0","6","6","6","6","Mon Sep 21 18:47:09 2020","1500","The main experiment item","yes","Flankertask.osexp","/Users/annielenoir/Desktop","no","mono","no","18","no","white","no","no","768","legacy","6","6","/Users/annielenoir/Desktop/AL-subject-4.csv","legacy","Lentiform Loewenfeld","3.3.3","0","h","NA","h","NA","NA","h","511","NA","35110","NA","NA","511","2","legacy","1024","2","48000","-16","experiment","SSHSS","4","even","49882","37024","NA","NA","46930","1744","NA","NA","51080","1906","NA","NA","51328","51841","50938","51328","Flanker task","6","4250","7","yes","1024"
"87.5","87.5","587.875","587.875","black","legacy","legacy","legacy","0","congruent","uniform","1","undefined","1","h","7","0","0","0","7","0","7","0","7","0","0","0","7","7","7","7","Mon Sep 21 18:47:09 2020","1500","The main experiment item","yes","Flankertask.osexp","/Users/annielenoir/Desktop","no","mono","no","18","no","white","no","no","768","legacy","7","7","/Users/annielenoir/Desktop/AL-subject-4.csv","legacy","Lentiform Loewenfeld","3.3.3","0","h","NA","h","NA","NA","h","453","NA","35110","NA","NA","453","2","legacy","1024","2","48000","-16","experiment","HHHHH","4","even","51987","37024","NA","NA","46930","1744","NA","NA","53189","1906","NA","NA","53436","53891","53045","53436","Flanker task","7","4703","8","yes","1024"
"88.88888888888889","88.88888888888889","569.8888888888889","569.8888888888889","black","legacy","legacy","legacy","0","congruent","uniform","1","undefined","1","h","8","0","0","0","8","0","8","0","8","0","0","0","8","8","8","8","Mon Sep 21 18:47:09 2020","1500","The main experiment item","yes","Flankertask.osexp","/Users/annielenoir/Desktop","no","mono","no","18","no","white","no","no","768","legacy","8","8","/Users/annielenoir/Desktop/AL-subject-4.csv","legacy","Lentiform Loewenfeld","3.3.3","0","h","NA","h","NA","NA","h","426","NA","35110","NA","NA","426","2","legacy","1024","2","48000","-16","experiment","HHHHH","4","even","54035","37024","NA","NA","46930","1744","NA","NA","55233","1906","NA","NA","55480","55907","55090","55480","Flanker task","8","5129","9","yes","1024"
"80","80","560.5","560.5","black","legacy","legacy","legacy","0","incongruent","uniform","0","undefined","0","h","9","0","0","0","9","0","9","0","9","0","0","0","9","9","9","9","Mon Sep 21 18:47:09 2020","1500","The main experiment item","yes","Flankertask.osexp","/Users/annielenoir/Desktop","no","mono","no","18","no","white","no","no","768","legacy","9","9","/Users/annielenoir/Desktop/AL-subject-4.csv","legacy","Lentiform Loewenfeld","3.3.3","0","s","NA","h","NA","NA","s","476","NA","35110","NA","NA","476","2","legacy","1024","2","48000","-16","experiment","SSHSS","4","even","56054","37024","NA","NA","46930","1744","NA","NA","57255","1906","NA","NA","57502","57979","57111","57502","Flanker task","8","5605","10","yes","1024"
"81.81818181818181","81.81818181818181","569","569","black","legacy","legacy","legacy","0","congruent","uniform","1","undefined","1","s","10","0","0","0","10","0","10","0","10","0","0","0","10","10","10","10","Mon Sep 21 18:47:09 2020","1500","The main experiment item","yes","Flankertask.osexp","/Users/annielenoir/Desktop","no","mono","no","18","no","white","no","no","768","legacy","10","10","/Users/annielenoir/Desktop/AL-subject-4.csv","legacy","Lentiform Loewenfeld","3.3.3","0","s","NA","h","NA","NA","s","654","NA","35110","NA","NA","654","2","legacy","1024","2","48000","-16","experiment","SSSSS","4","even","58772","37024","NA","NA","58126","1744","NA","NA","59973","1906","NA","NA","60220","60876","59828","60220","Flanker task","9","6259","11","yes","1024"
"83.33333333333333","83.33333333333333","562.4166666666666","562.4166666666666","black","legacy","legacy","legacy","0","congruent","uniform","1","undefined","1","h","11","0","0","0","11","0","11","0","11","0","0","0","11","11","11","11","Mon Sep 21 18:47:09 2020","1500","The main experiment item","yes","Flankertask.osexp","/Users/annielenoir/Desktop","no","mono","no","18","no","white","no","no","768","legacy","11","11","/Users/annielenoir/Desktop/AL-subject-4.csv","legacy","Lentiform Loewenfeld","3.3.3","0","h","NA","h","NA","NA","h","490","NA","35110","NA","NA","490","2","legacy","1024","2","48000","-16","experiment","HHHHH","4","even","61020","37024","NA","NA","58126","1744","NA","NA","62218","1906","NA","NA","62465","62956","62074","62465","Flanker task","10","6749","12","yes","1024"
"84.61538461538461","84.61538461538461","574.3846153846154","574.3846153846154","black","legacy","legacy","legacy","0","incongruent","uniform","1","undefined","1","s","12","0","0","0","12","0","12","0","12","0","0","0","12","12","12","12","Mon Sep 21 18:47:09 2020","1500","The main experiment item","yes","Flankertask.osexp","/Users/annielenoir/Desktop","no","mono","no","18","no","white","no","no","768","legacy","12","12","/Users/annielenoir/Desktop/AL-subject-4.csv","legacy","Lentiform Loewenfeld","3.3.3","0","s","NA","h","NA","NA","s","718","NA","35110","NA","NA","718","2","legacy","1024","2","48000","-16","experiment","HHSHH","4","even","63101","37024","NA","NA","58126","1744","NA","NA","64298","1906","NA","NA","64545","65264","64156","64545","Flanker task","11","7467","13","yes","1024"
"85.71428571428571","85.71428571428571","577.4285714285714","577.4285714285714","black","legacy","legacy","legacy","0","congruent","uniform","1","undefined","1","h","13","0","0","0","13","0","13","0","13","0","0","0","13","13","13","13","Mon Sep 21 18:47:09 2020","1500","The main experiment item","yes","Flankertask.osexp","/Users/annielenoir/Desktop","no","mono","no","18","no","white","no","no","768","legacy","13","13","/Users/annielenoir/Desktop/AL-subject-4.csv","legacy","Lentiform Loewenfeld","3.3.3","0","h","NA","h","NA","NA","h","617","NA","35110","NA","NA","617","2","legacy","1024","2","48000","-16","experiment","HHHHH","4","even","65407","37024","NA","NA","58126","1744","NA","NA","66606","1906","NA","NA","66855","67473","66462","66854","Flanker task","12","8084","14","yes","1024"
"86.66666666666667","86.66666666666667","578","578","black","legacy","legacy","legacy","0","incongruent","uniform","1","undefined","1","h","14","0","0","0","14","0","14","0","14","0","0","0","14","14","14","14","Mon Sep 21 18:47:09 2020","1500","The main experiment item","yes","Flankertask.osexp","/Users/annielenoir/Desktop","no","mono","no","18","no","white","no","no","768","legacy","14","14","/Users/annielenoir/Desktop/AL-subject-4.csv","legacy","Lentiform Loewenfeld","3.3.3","0","h","NA","h","NA","NA","h","586","NA","35110","NA","NA","586","2","legacy","1024","2","48000","-16","experiment","SSHSS","4","even","67625","37024","NA","NA","58126","1744","NA","NA","68827","1906","NA","NA","69073","69660","68681","69073","Flanker task","13","8670","15","yes","1024"
"87.5","87.5","573.1875","573.1875","black","legacy","legacy","legacy","0","congruent","uniform","1","undefined","1","s","15","0","0","0","15","0","15","0","15","0","0","0","15","15","15","15","Mon Sep 21 18:47:09 2020","1500","The main experiment item","yes","Flankertask.osexp","/Users/annielenoir/Desktop","no","mono","no","18","no","white","no","no","768","legacy","15","15","/Users/annielenoir/Desktop/AL-subject-4.csv","legacy","Lentiform Loewenfeld","3.3.3","0","s","NA","h","NA","NA","s","501","NA","35110","NA","NA","501","2","legacy","1024","2","48000","-16","experiment","SSSSS","4","even","69804","37024","NA","NA","58126","1744","NA","NA","71013","1906","NA","NA","71259","71761","70873","71259","Flanker task","14","9171","16","yes","1024"
"88.23529411764706","88.23529411764706","572.0588235294117","572.0588235294117","black","legacy","legacy","legacy","0","incongruent","uniform","1","undefined","1","h","16","0","0","0","16","0","16","0","16","0","0","0","16","16","16","16","Mon Sep 21 18:47:09 2020","1500","The main experiment item","yes","Flankertask.osexp","/Users/annielenoir/Desktop","no","mono","no","18","no","white","no","no","768","legacy","16","16","/Users/annielenoir/Desktop/AL-subject-4.csv","legacy","Lentiform Loewenfeld","3.3.3","0","h","NA","h","NA","NA","h","554","NA","35110","NA","NA","554","2","legacy","1024","2","48000","-16","experiment","SSHSS","4","even","71910","37024","NA","NA","58126","1744","NA","NA","73109","1906","NA","NA","73356","73911","72966","73356","Flanker task","15","9725","17","yes","1024"
"88.88888888888889","88.88888888888889","569.3888888888889","569.3888888888889","black","legacy","legacy","legacy","0","incongruent","uniform","1","undefined","1","s","17","0","0","0","17","0","17","0","17","0","0","0","17","17","17","17","Mon Sep 21 18:47:09 2020","1500","The main experiment item","yes","Flankertask.osexp","/Users/annielenoir/Desktop","no","mono","no","18","no","white","no","no","768","legacy","17","17","/Users/annielenoir/Desktop/AL-subject-4.csv","legacy","Lentiform Loewenfeld","3.3.3","0","s","NA","h","NA","NA","s","524","NA","35110","NA","NA","524","2","legacy","1024","2","48000","-16","experiment","HHSHH","4","even","74055","37024","NA","NA","58126","1744","NA","NA","75253","1906","NA","NA","75500","76025","75110","75500","Flanker task","16","10249","18","yes","1024"
"89.47368421052632","89.47368421052632","566.1052631578947","566.1052631578947","black","legacy","legacy","legacy","0","incongruent","uniform","1","undefined","1","h","18","0","0","0","18","0","18","0","18","0","0","0","18","18","18","18","Mon Sep 21 18:47:09 2020","1500","The main experiment item","yes","Flankertask.osexp","/Users/annielenoir/Desktop","no","mono","no","18","no","white","no","no","768","legacy","18","18","/Users/annielenoir/Desktop/AL-subject-4.csv","legacy","Lentiform Loewenfeld","3.3.3","0","h","NA","h","NA","NA","h","507","NA","35110","NA","NA","507","2","legacy","1024","2","48000","-16","experiment","SSHSS","4","even","76170","37024","NA","NA","58126","1744","NA","NA","77368","1906","NA","NA","77614","78122","77226","77614","Flanker task","17","10756","19","yes","1024"
"90","90","559.9","559.9","black","legacy","legacy","legacy","0","incongruent","uniform","1","undefined","1","h","19","0","0","0","19","0","19","0","19","0","0","0","19","19","19","19","Mon Sep 21 18:47:09 2020","1500","The main experiment item","yes","Flankertask.osexp","/Users/annielenoir/Desktop","no","mono","no","18","no","white","no","no","768","legacy","19","19","/Users/annielenoir/Desktop/AL-subject-4.csv","legacy","Lentiform Loewenfeld","3.3.3","0","h","NA","h","NA","NA","h","442","NA","35110","NA","NA","442","2","legacy","1024","2","48000","-16","experiment","SSHSS","4","even","78267","37024","NA","NA","58126","1744","NA","NA","79468","1906","NA","NA","79715","80158","79325","79715","Flanker task","18","11198","20","yes","1024"
"90.47619047619048","90.47619047619048","559.3809523809524","559.3809523809524","black","legacy","legacy","legacy","0","incongruent","uniform","1","undefined","1","s","20","0","0","0","20","0","20","0","20","0","0","0","20","20","20","20","Mon Sep 21 18:47:09 2020","1500","The main experiment item","yes","Flankertask.osexp","/Users/annielenoir/Desktop","no","mono","no","18","no","white","no","no","768","legacy","20","20","/Users/annielenoir/Desktop/AL-subject-4.csv","legacy","Lentiform Loewenfeld","3.3.3","0","s","NA","h","NA","NA","s","549","NA","35110","NA","NA","549","2","legacy","1024","2","48000","-16","experiment","HHSHH","4","even","80301","37024","NA","NA","58126","1744","NA","NA","81502","1906","NA","NA","81748","82298","81359","81748","Flanker task","19","11747","21","yes","1024"
"90.9090909090909","90.9090909090909","557.5454545454545","557.5454545454545","black","legacy","legacy","legacy","0","incongruent","uniform","1","undefined","1","s","21","0","0","0","21","0","21","0","21","0","0","0","21","21","21","21","Mon Sep 21 18:47:09 2020","1500","The main experiment item","yes","Flankertask.osexp","/Users/annielenoir/Desktop","no","mono","no","18","no","white","no","no","768","legacy","21","21","/Users/annielenoir/Desktop/AL-subject-4.csv","legacy","Lentiform Loewenfeld","3.3.3","0","s","NA","h","NA","NA","s","519","NA","35110","NA","NA","519","2","legacy","1024","2","48000","-16","experiment","HHSHH","4","even","82441","37024","NA","NA","58126","1744","NA","NA","83641","1906","NA","NA","83888","84408","83498","83888","Flanker task","20","12266","22","yes","1024"
"91.30434782608695","91.30434782608695","553.0869565217391","553.0869565217391","black","legacy","legacy","legacy","0","incongruent","uniform","1","undefined","1","s","22","0","0","0","22","0","22","0","22","0","0","0","22","22","22","22","Mon Sep 21 18:47:09 2020","1500","The main experiment item","yes","Flankertask.osexp","/Users/annielenoir/Desktop","no","mono","no","18","no","white","no","no","768","legacy","22","22","/Users/annielenoir/Desktop/AL-subject-4.csv","legacy","Lentiform Loewenfeld","3.3.3","0","s","NA","h","NA","NA","s","455","NA","35110","NA","NA","455","2","legacy","1024","2","48000","-16","experiment","HHSHH","4","even","84552","37024","NA","NA","58126","1744","NA","NA","85755","1906","NA","NA","86002","86458","85612","86002","Flanker task","21","12721","23","yes","1024"
"91.66666666666667","91.66666666666667","549.5","549.5","black","legacy","legacy","legacy","0","congruent","uniform","1","undefined","1","s","23","0","0","0","23","0","23","0","23","0","0","0","23","23","23","23","Mon Sep 21 18:47:09 2020","1500","The main experiment item","yes","Flankertask.osexp","/Users/annielenoir/Desktop","no","mono","no","18","no","white","no","no","768","legacy","23","23","/Users/annielenoir/Desktop/AL-subject-4.csv","legacy","Lentiform Loewenfeld","3.3.3","0","s","NA","h","NA","NA","s","467","NA","35110","NA","NA","467","2","legacy","1024","2","48000","-16","experiment","SSSSS","4","even","86600","37024","NA","NA","58126","1744","NA","NA","87798","1906","NA","NA","88045","88514","87655","88044","Flanker task","22","13188","24","yes","1024"
"92","92","544.44","544.44","black","legacy","legacy","legacy","0","congruent","uniform","1","undefined","1","h","24","0","0","0","24","0","24","0","24","0","0","0","24","24","24","24","Mon Sep 21 18:47:09 2020","1500","The main experiment item","yes","Flankertask.osexp","/Users/annielenoir/Desktop","no","mono","no","18","no","white","no","no","768","legacy","24","24","/Users/annielenoir/Desktop/AL-subject-4.csv","legacy","Lentiform Loewenfeld","3.3.3","0","h","NA","h","NA","NA","h","423","NA","35110","NA","NA","423","2","legacy","1024","2","48000","-16","experiment","HHHHH","4","even","88658","37024","NA","NA","58126","1744","NA","NA","89859","1906","NA","NA","90106","90531","89716","90106","Flanker task","23","13611","25","yes","1024"
"92.3076923076923","92.3076923076923","540.6153846153846","540.6153846153846","black","legacy","legacy","legacy","0","incongruent","uniform","1","undefined","1","h","25","0","0","0","25","0","25","0","25","0","0","0","25","25","25","25","Mon Sep 21 18:47:09 2020","1500","The main experiment item","yes","Flankertask.osexp","/Users/annielenoir/Desktop","no","mono","no","18","no","white","no","no","768","legacy","25","25","/Users/annielenoir/Desktop/AL-subject-4.csv","legacy","Lentiform Loewenfeld","3.3.3","0","h","NA","h","NA","NA","h","445","NA","35110","NA","NA","445","2","legacy","1024","2","48000","-16","experiment","SSHSS","4","even","90677","37024","NA","NA","58126","1744","NA","NA","91876","1906","NA","NA","92121","92568","91733","92121","Flanker task","24","14056","26","yes","1024"
"92.5925925925926","92.5925925925926","539.3703703703703","539.3703703703703","black","legacy","legacy","legacy","0","congruent","uniform","1","undefined","1","s","26","0","0","0","26","0","26","0","26","0","0","0","26","26","26","26","Mon Sep 21 18:47:09 2020","1500","The main experiment item","yes","Flankertask.osexp","/Users/annielenoir/Desktop","no","mono","no","18","no","white","no","no","768","legacy","26","26","/Users/annielenoir/Desktop/AL-subject-4.csv","legacy","Lentiform Loewenfeld","3.3.3","0","s","NA","h","NA","NA","s","507","NA","35110","NA","NA","507","2","legacy","1024","2","48000","-16","experiment","SSSSS","4","even","92713","37024","NA","NA","58126","1744","NA","NA","93913","1906","NA","NA","94160","94669","93769","94159","Flanker task","25","14563","27","yes","1024"
"92.85714285714286","92.85714285714286","539.2857142857143","539.2857142857143","black","legacy","legacy","legacy","0","incongruent","uniform","1","undefined","1","h","27","0","0","0","27","0","27","0","27","0","0","0","27","27","27","27","Mon Sep 21 18:47:09 2020","1500","The main experiment item","yes","Flankertask.osexp","/Users/annielenoir/Desktop","no","mono","no","18","no","white","no","no","768","legacy","27","27","/Users/annielenoir/Desktop/AL-subject-4.csv","legacy","Lentiform Loewenfeld","3.3.3","0","h","NA","h","NA","NA","h","537","NA","35110","NA","NA","537","2","legacy","1024","2","48000","-16","experiment","SSHSS","4","even","94812","37024","NA","NA","58126","1744","NA","NA","96010","1906","NA","NA","96257","96796","95869","96257","Flanker task","26","15100","28","yes","1024"
"93.10344827586206","93.10344827586206","540.4137931034483","540.4137931034483","black","legacy","legacy","legacy","0","congruent","uniform","1","undefined","1","s","28","0","0","0","28","0","28","0","28","0","0","0","28","28","28","28","Mon Sep 21 18:47:09 2020","1500","The main experiment item","yes","Flankertask.osexp","/Users/annielenoir/Desktop","no","mono","no","18","no","white","no","no","768","legacy","28","28","/Users/annielenoir/Desktop/AL-subject-4.csv","legacy","Lentiform Loewenfeld","3.3.3","0","s","NA","h","NA","NA","s","572","NA","35110","NA","NA","572","2","legacy","1024","2","48000","-16","experiment","SSSSS","4","even","96948","37024","NA","NA","58126","1744","NA","NA","98144","1906","NA","NA","98392","98965","98001","98392","Flanker task","27","15672","29","yes","1024"
"93.33333333333333","93.33333333333333","542.3","542.3","black","legacy","legacy","legacy","0","incongruent","uniform","1","undefined","1","s","29","0","0","0","29","0","29","0","29","0","0","0","29","29","29","29","Mon Sep 21 18:47:09 2020","1500","The main experiment item","yes","Flankertask.osexp","/Users/annielenoir/Desktop","no","mono","no","18","no","white","no","no","768","legacy","29","29","/Users/annielenoir/Desktop/AL-subject-4.csv","legacy","Lentiform Loewenfeld","3.3.3","0","s","NA","h","NA","NA","s","597","NA","35110","NA","NA","597","2","legacy","1024","2","48000","-16","experiment","HHSHH","4","even","99110","37024","NA","NA","58126","1744","NA","NA","100309","1906","NA","NA","100557","101155","100164","100556","Flanker task","28","16269","30","yes","1024"
"93.54838709677419","93.54838709677419","539.516129032258","539.516129032258","black","legacy","legacy","legacy","0","congruent","uniform","1","undefined","1","h","30","0","0","0","30","0","30","0","30","0","0","0","30","30","30","30","Mon Sep 21 18:47:09 2020","1500","The main experiment item","yes","Flankertask.osexp","/Users/annielenoir/Desktop","no","mono","no","18","no","white","no","no","768","legacy","30","30","/Users/annielenoir/Desktop/AL-subject-4.csv","legacy","Lentiform Loewenfeld","3.3.3","0","h","NA","h","NA","NA","h","456","NA","35110","NA","NA","456","2","legacy","1024","2","48000","-16","experiment","HHHHH","4","even","101306","37024","NA","NA","58126","1744","NA","NA","102514","1906","NA","NA","102761","103219","102373","102761","Flanker task","29","16725","31","yes","1024"
"93.75","93.75","537.9375","537.9375","black","legacy","legacy","legacy","0","incongruent","uniform","1","undefined","1","h","31","0","0","0","31","0","31","0","31","0","0","0","31","31","31","31","Mon Sep 21 18:47:09 2020","1500","The main experiment item","yes","Flankertask.osexp","/Users/annielenoir/Desktop","no","mono","no","18","no","white","no","no","768","legacy","31","31","/Users/annielenoir/Desktop/AL-subject-4.csv","legacy","Lentiform Loewenfeld","3.3.3","0","h","NA","h","NA","NA","h","489","NA","35110","NA","NA","489","2","legacy","1024","2","48000","-16","experiment","SSHSS","4","even","103366","37024","NA","NA","58126","1744","NA","NA","104568","1906","NA","NA","104817","105307","104426","104816","Flanker task","30","17214","32","yes","1024"
"93.93939393939394","93.93939393939394","534.9090909090909","534.9090909090909","black","legacy","legacy","legacy","0","congruent","uniform","1","undefined","1","h","32","0","0","0","32","0","32","0","32","0","0","0","32","32","32","32","Mon Sep 21 18:47:09 2020","1500","The main experiment item","yes","Flankertask.osexp","/Users/annielenoir/Desktop","no","mono","no","18","no","white","no","no","768","legacy","32","32","/Users/annielenoir/Desktop/AL-subject-4.csv","legacy","Lentiform Loewenfeld","3.3.3","0","h","NA","h","NA","NA","h","438","NA","35110","NA","NA","438","2","legacy","1024","2","48000","-16","experiment","HHHHH","4","even","105455","37024","NA","NA","58126","1744","NA","NA","106651","1906","NA","NA","106898","107337","106509","106898","Flanker task","31","17652","33","yes","1024"
"94.11764705882354","94.11764705882354","534.8529411764706","534.8529411764706","black","legacy","legacy","legacy","0","congruent","uniform","1","undefined","1","s","33","0","0","0","33","0","33","0","33","0","0","0","33","33","33","33","Mon Sep 21 18:47:09 2020","1500","The main experiment item","yes","Flankertask.osexp","/Users/annielenoir/Desktop","no","mono","no","18","no","white","no","no","768","legacy","33","33","/Users/annielenoir/Desktop/AL-subject-4.csv","legacy","Lentiform Loewenfeld","3.3.3","0","s","NA","h","NA","NA","s","533","NA","35110","NA","NA","533","2","legacy","1024","2","48000","-16","experiment","SSSSS","4","even","107486","37024","NA","NA","58126","1744","NA","NA","108684","1906","NA","NA","108932","109466","108541","108931","Flanker task","32","18185","34","yes","1024"
"94.28571428571429","94.28571428571429","534.6857142857143","534.6857142857143","black","legacy","legacy","legacy","0","incongruent","uniform","1","undefined","1","h","34","0","0","0","34","0","34","0","34","0","0","0","34","34","34","34","Mon Sep 21 18:47:09 2020","1500","The main experiment item","yes","Flankertask.osexp","/Users/annielenoir/Desktop","no","mono","no","18","no","white","no","no","768","legacy","34","34","/Users/annielenoir/Desktop/AL-subject-4.csv","legacy","Lentiform Loewenfeld","3.3.3","0","h","NA","h","NA","NA","h","529","NA","35110","NA","NA","529","2","legacy","1024","2","48000","-16","experiment","SSHSS","4","even","109610","37024","NA","NA","58126","1744","NA","NA","110810","1906","NA","NA","111055","111585","110668","111055","Flanker task","33","18714","35","yes","1024"
"94.44444444444444","94.44444444444444","533.3055555555555","533.3055555555555","black","legacy","legacy","legacy","0","congruent","uniform","1","undefined","1","s","35","0","0","0","35","0","35","0","35","0","0","0","35","35","35","35","Mon Sep 21 18:47:09 2020","1500","The main experiment item","yes","Flankertask.osexp","/Users/annielenoir/Desktop","no","mono","no","18","no","white","no","no","768","legacy","35","35","/Users/annielenoir/Desktop/AL-subject-4.csv","legacy","Lentiform Loewenfeld","3.3.3","0","s","NA","h","NA","NA","s","485","NA","35110","NA","NA","485","2","legacy","1024","2","48000","-16","experiment","SSSSS","4","even","111730","37024","NA","NA","58126","1744","NA","NA","112929","1906","NA","NA","113175","113661","112786","113175","Flanker task","34","19199","36","yes","1024"
"94.5945945945946","94.5945945945946","533.918918918919","533.918918918919","black","legacy","legacy","legacy","0","congruent","uniform","1","undefined","1","s","36","0","0","0","36","0","36","0","36","0","0","0","36","36","36","36","Mon Sep 21 18:47:09 2020","1500","The main experiment item","yes","Flankertask.osexp","/Users/annielenoir/Desktop","no","mono","no","18","no","white","no","no","768","legacy","36","36","/Users/annielenoir/Desktop/AL-subject-4.csv","legacy","Lentiform Loewenfeld","3.3.3","0","s","NA","h","NA","NA","s","556","NA","35110","NA","NA","556","2","legacy","1024","2","48000","-16","experiment","SSSSS","4","even","113805","37024","NA","NA","58126","1744","NA","NA","115002","1906","NA","NA","115249","115806","114859","115249","Flanker task","35","19755","37","yes","1024"
"94.73684210526316","94.73684210526316","533.7631578947369","533.7631578947369","black","legacy","legacy","legacy","0","congruent","uniform","1","undefined","1","h","37","0","0","0","37","0","37","0","37","0","0","0","37","37","37","37","Mon Sep 21 18:47:09 2020","1500","The main experiment item","yes","Flankertask.osexp","/Users/annielenoir/Desktop","no","mono","no","18","no","white","no","no","768","legacy","37","37","/Users/annielenoir/Desktop/AL-subject-4.csv","legacy","Lentiform Loewenfeld","3.3.3","0","h","NA","h","NA","NA","h","528","NA","35110","NA","NA","528","2","legacy","1024","2","48000","-16","experiment","HHHHH","4","even","115952","37024","NA","NA","58126","1744","NA","NA","117149","1906","NA","NA","117395","117924","117006","117395","Flanker task","36","20283","38","yes","1024"
"94.87179487179488","94.87179487179488","532.0769230769231","532.0769230769231","black","legacy","legacy","legacy","0","incongruent","uniform","1","undefined","1","s","38","0","0","0","38","0","38","0","38","0","0","0","38","38","38","38","Mon Sep 21 18:47:09 2020","1500","The main experiment item","yes","Flankertask.osexp","/Users/annielenoir/Desktop","no","mono","no","18","no","white","no","no","768","legacy","38","38","/Users/annielenoir/Desktop/AL-subject-4.csv","legacy","Lentiform Loewenfeld","3.3.3","0","s","NA","h","NA","NA","s","468","NA","35110","NA","NA","468","2","legacy","1024","2","48000","-16","experiment","HHSHH","4","even","118070","37024","NA","NA","58126","1744","NA","NA","119274","1906","NA","NA","119521","119991","119129","119521","Flanker task","37","20751","39","yes","1024"
"95","95","531.325","531.325","black","legacy","legacy","legacy","0","incongruent","uniform","1","undefined","1","s","39","0","0","0","39","0","39","0","39","0","0","0","39","39","39","39","Mon Sep 21 18:47:09 2020","1500","The main experiment item","yes","Flankertask.osexp","/Users/annielenoir/Desktop","no","mono","no","18","no","white","no","no","768","legacy","39","39","/Users/annielenoir/Desktop/AL-subject-4.csv","legacy","Lentiform Loewenfeld","3.3.3","0","s","NA","h","NA","NA","s","502","NA","35110","NA","NA","502","2","legacy","1024","2","48000","-16","experiment","HHSHH","4","even","120134","37024","NA","NA","58126","1744","NA","NA","121333","1906","NA","NA","121579","122082","121191","121579","Flanker task","38","21253","40","yes","1024"
"95.1219512195122","95.1219512195122","531","531","black","legacy","legacy","legacy","0","incongruent","uniform","1","undefined","1","s","40","0","0","0","40","0","40","0","40","0","0","0","40","40","40","40","Mon Sep 21 18:47:09 2020","1500","The main experiment item","yes","Flankertask.osexp","/Users/annielenoir/Desktop","no","mono","no","18","no","white","no","no","768","legacy","40","40","/Users/annielenoir/Desktop/AL-subject-4.csv","legacy","Lentiform Loewenfeld","3.3.3","0","s","NA","h","NA","NA","s","518","NA","35110","NA","NA","518","2","legacy","1024","2","48000","-16","experiment","HHSHH","4","even","122229","37024","NA","NA","58126","1744","NA","NA","123427","1906","NA","NA","123673","124193","123283","123673","Flanker task","39","21771","41","yes","1024"
"95.23809523809524","95.23809523809524","529.3809523809524","529.3809523809524","black","legacy","legacy","legacy","0","incongruent","uniform","1","undefined","1","s","41","0","0","0","41","0","41","0","41","0","0","0","41","41","41","41","Mon Sep 21 18:47:09 2020","1500","The main experiment item","yes","Flankertask.osexp","/Users/annielenoir/Desktop","no","mono","no","18","no","white","no","no","768","legacy","41","41","/Users/annielenoir/Desktop/AL-subject-4.csv","legacy","Lentiform Loewenfeld","3.3.3","0","s","NA","h","NA","NA","s","463","NA","35110","NA","NA","463","2","legacy","1024","2","48000","-16","experiment","HHSHH","4","even","124338","37024","NA","NA","58126","1744","NA","NA","125548","1906","NA","NA","125798","126263","125390","125798","Flanker task","40","22234","42","yes","1024"
"95.34883720930233","95.34883720930233","528.5581395348837","528.5581395348837","black","legacy","legacy","legacy","0","incongruent","uniform","1","undefined","1","s","42","0","0","0","42","0","42","0","42","0","0","0","42","42","42","42","Mon Sep 21 18:47:09 2020","1500","The main experiment item","yes","Flankertask.osexp","/Users/annielenoir/Desktop","no","mono","no","18","no","white","no","no","768","legacy","42","42","/Users/annielenoir/Desktop/AL-subject-4.csv","legacy","Lentiform Loewenfeld","3.3.3","0","s","NA","h","NA","NA","s","494","NA","35110","NA","NA","494","2","legacy","1024","2","48000","-16","experiment","HHSHH","4","even","126415","37024","NA","NA","58126","1744","NA","NA","127611","1906","NA","NA","127861","128357","127469","127861","Flanker task","41","22728","43","yes","1024"
"95.45454545454545","95.45454545454545","526.8863636363636","526.8863636363636","black","legacy","legacy","legacy","0","incongruent","uniform","1","undefined","1","s","43","0","0","0","43","0","43","0","43","0","0","0","43","43","43","43","Mon Sep 21 18:47:09 2020","1500","The main experiment item","yes","Flankertask.osexp","/Users/annielenoir/Desktop","no","mono","no","18","no","white","no","no","768","legacy","43","43","/Users/annielenoir/Desktop/AL-subject-4.csv","legacy","Lentiform Loewenfeld","3.3.3","0","s","NA","h","NA","NA","s","455","NA","35110","NA","NA","455","2","legacy","1024","2","48000","-16","experiment","HHSHH","4","even","128501","37024","NA","NA","58126","1744","NA","NA","129701","1906","NA","NA","129945","130401","129558","129945","Flanker task","42","23183","44","yes","1024"
"93.33333333333333","93.33333333333333","524.7111111111111","524.7111111111111","black","legacy","legacy","legacy","0","incongruent","uniform","0","undefined","0","h","44","0","0","0","44","0","44","0","44","0","0","0","44","44","44","44","Mon Sep 21 18:47:09 2020","1500","The main experiment item","yes","Flankertask.osexp","/Users/annielenoir/Desktop","no","mono","no","18","no","white","no","no","768","legacy","44","44","/Users/annielenoir/Desktop/AL-subject-4.csv","legacy","Lentiform Loewenfeld","3.3.3","0","s","NA","h","NA","NA","s","429","NA","35110","NA","NA","429","2","legacy","1024","2","48000","-16","experiment","SSHSS","4","even","130547","37024","NA","NA","58126","1744","NA","NA","131751","1906","NA","NA","131998","132428","131606","131998","Flanker task","42","23612","45","yes","1024"
"93.47826086956522","93.47826086956522","526.195652173913","526.195652173913","black","legacy","legacy","legacy","0","congruent","uniform","1","undefined","1","h","45","0","0","0","45","0","45","0","45","0","0","0","45","45","45","45","Mon Sep 21 18:47:09 2020","1500","The main experiment item","yes","Flankertask.osexp","/Users/annielenoir/Desktop","no","mono","no","18","no","white","no","no","768","legacy","45","45","/Users/annielenoir/Desktop/AL-subject-4.csv","legacy","Lentiform Loewenfeld","3.3.3","0","h","NA","h","NA","NA","h","593","NA","35110","NA","NA","593","2","legacy","1024","2","48000","-16","experiment","HHHHH","4","even","133223","37024","NA","NA","132576","1744","NA","NA","134419","1906","NA","NA","134665","135260","134277","134665","Flanker task","43","24205","46","yes","1024"
"93.61702127659575","93.61702127659575","525.6808510638298","525.6808510638298","black","legacy","legacy","legacy","0","congruent","uniform","1","undefined","1","s","46","0","0","0","46","0","46","0","46","0","0","0","46","46","46","46","Mon Sep 21 18:47:09 2020","1500","The main experiment item","yes","Flankertask.osexp","/Users/annielenoir/Desktop","no","mono","no","18","no","white","no","no","768","legacy","46","46","/Users/annielenoir/Desktop/AL-subject-4.csv","legacy","Lentiform Loewenfeld","3.3.3","0","s","NA","h","NA","NA","s","502","NA","35110","NA","NA","502","2","legacy","1024","2","48000","-16","experiment","SSSSS","4","even","135406","37024","NA","NA","132576","1744","NA","NA","136604","1906","NA","NA","136850","137353","136461","136850","Flanker task","44","24707","47","yes","1024"
"93.75","93.75","523.6458333333334","523.6458333333334","black","legacy","legacy","legacy","0","congruent","uniform","1","undefined","1","h","47","0","0","0","47","0","47","0","47","0","0","0","47","47","47","47","Mon Sep 21 18:47:09 2020","1500","The main experiment item","yes","Flankertask.osexp","/Users/annielenoir/Desktop","no","mono","no","18","no","white","no","no","768","legacy","47","47","/Users/annielenoir/Desktop/AL-subject-4.csv","legacy","Lentiform Loewenfeld","3.3.3","0","h","NA","h","NA","NA","h","428","NA","35110","NA","NA","428","2","legacy","1024","2","48000","-16","experiment","HHHHH","4","even","137499","37024","NA","NA","132576","1744","NA","NA","138697","1906","NA","NA","138947","139376","138555","138946","Flanker task","45","25135","48","yes","1024"
"93.87755102040816","93.87755102040816","524.9795918367347","524.9795918367347","black","legacy","legacy","legacy","0","incongruent","uniform","1","undefined","1","h","48","0","0","0","48","0","48","0","48","0","0","0","48","48","48","48","Mon Sep 21 18:47:09 2020","1500","The main experiment item","yes","Flankertask.osexp","/Users/annielenoir/Desktop","no","mono","no","18","no","white","no","no","768","legacy","48","48","/Users/annielenoir/Desktop/AL-subject-4.csv","legacy","Lentiform Loewenfeld","3.3.3","0","h","NA","h","NA","NA","h","589","NA","35110","NA","NA","589","2","legacy","1024","2","48000","-16","experiment","SSHSS","4","even","139521","37024","NA","NA","132576","1744","NA","NA","140721","1906","NA","NA","140972","141562","140578","140972","Flanker task","46","25724","49","yes","1024"
"94","94","523.92","523.92","black","legacy","legacy","legacy","0","congruent","uniform","1","undefined","1","h","49","0","0","0","49","0","49","0","49","0","0","0","49","49","49","49","Mon Sep 21 18:47:09 2020","1500","The main experiment item","yes","Flankertask.osexp","/Users/annielenoir/Desktop","no","mono","no","18","no","white","no","no","768","legacy","49","49","/Users/annielenoir/Desktop/AL-subject-4.csv","legacy","Lentiform Loewenfeld","3.3.3","0","h","NA","h","NA","NA","h","472","NA","35110","NA","NA","472","2","legacy","1024","2","48000","-16","experiment","HHHHH","4","even","141708","37024","NA","NA","132576","1744","NA","NA","142908","1906","NA","NA","143151","143624","142764","143151","Flanker task","47","26196","50","yes","1024"
"94.11764705882354","94.11764705882354","524.1960784313726","524.1960784313726","black","legacy","legacy","legacy","0","incongruent","uniform","1","undefined","1","h","50","0","0","0","50","0","50","0","50","0","0","0","50","50","50","50","Mon Sep 21 18:47:09 2020","1500","The main experiment item","yes","Flankertask.osexp","/Users/annielenoir/Desktop","no","mono","no","18","no","white","no","no","768","legacy","50","50","/Users/annielenoir/Desktop/AL-subject-4.csv","legacy","Lentiform Loewenfeld","3.3.3","0","h","NA","h","NA","NA","h","538","NA","35110","NA","NA","538","2","legacy","1024","2","48000","-16","experiment","SSHSS","4","even","143770","37024","NA","NA","132576","1744","NA","NA","144967","1906","NA","NA","145213","145752","144824","145213","Flanker task","48","26734","51","yes","1024"
"94.23076923076923","94.23076923076923","525.5961538461538","525.5961538461538","black","legacy","legacy","legacy","0","congruent","uniform","1","undefined","1","s","51","0","0","0","51","0","51","0","51","0","0","0","51","51","51","51","Mon Sep 21 18:47:09 2020","1500","The main experiment item","yes","Flankertask.osexp","/Users/annielenoir/Desktop","no","mono","no","18","no","white","no","no","768","legacy","51","51","/Users/annielenoir/Desktop/AL-subject-4.csv","legacy","Lentiform Loewenfeld","3.3.3","0","s","NA","h","NA","NA","s","597","NA","35110","NA","NA","597","2","legacy","1024","2","48000","-16","experiment","SSSSS","4","even","145899","37024","NA","NA","132576","1744","NA","NA","147096","1906","NA","NA","147342","147940","146952","147342","Flanker task","49","27331","52","yes","1024"
"94.33962264150944","94.33962264150944","524.9245283018868","524.9245283018868","black","legacy","legacy","legacy","0","congruent","uniform","1","undefined","1","h","52","0","0","0","52","0","52","0","52","0","0","0","52","52","52","52","Mon Sep 21 18:47:09 2020","1500","The main experiment item","yes","Flankertask.osexp","/Users/annielenoir/Desktop","no","mono","no","18","no","white","no","no","768","legacy","52","52","/Users/annielenoir/Desktop/AL-subject-4.csv","legacy","Lentiform Loewenfeld","3.3.3","0","h","NA","h","NA","NA","h","490","NA","35110","NA","NA","490","2","legacy","1024","2","48000","-16","experiment","HHHHH","4","even","148089","37024","NA","NA","132576","1744","NA","NA","149286","1906","NA","NA","149533","150024","149143","149533","Flanker task","50","27821","53","yes","1024"
"94.44444444444444","94.44444444444444","523.6296296296297","523.6296296296297","black","legacy","legacy","legacy","0","congruent","uniform","1","undefined","1","s","53","0","0","0","53","0","53","0","53","0","0","0","53","53","53","53","Mon Sep 21 18:47:09 2020","1500","The main experiment item","yes","Flankertask.osexp","/Users/annielenoir/Desktop","no","mono","no","18","no","white","no","no","768","legacy","53","53","/Users/annielenoir/Desktop/AL-subject-4.csv","legacy","Lentiform Loewenfeld","3.3.3","0","s","NA","h","NA","NA","s","455","NA","35110","NA","NA","455","2","legacy","1024","2","48000","-16","experiment","SSSSS","4","even","150173","37024","NA","NA","132576","1744","NA","NA","151373","1906","NA","NA","151619","152075","151228","151619","Flanker task","51","28276","54","yes","1024"
"94.54545454545455","94.54545454545455","525","525","black","legacy","legacy","legacy","0","congruent","uniform","1","undefined","1","s","54","0","0","0","54","0","54","0","54","0","0","0","54","54","54","54","Mon Sep 21 18:47:09 2020","1500","The main experiment item","yes","Flankertask.osexp","/Users/annielenoir/Desktop","no","mono","no","18","no","white","no","no","768","legacy","54","54","/Users/annielenoir/Desktop/AL-subject-4.csv","legacy","Lentiform Loewenfeld","3.3.3","0","s","NA","h","NA","NA","s","599","NA","35110","NA","NA","599","2","legacy","1024","2","48000","-16","experiment","SSSSS","4","even","152217","37024","NA","NA","132576","1744","NA","NA","153414","1906","NA","NA","153660","154260","153271","153659","Flanker task","52","28875","55","yes","1024"
"94.64285714285714","94.64285714285714","524.6428571428571","524.6428571428571","black","legacy","legacy","legacy","0","congruent","uniform","1","undefined","1","s","55","0","0","0","55","0","55","0","55","0","0","0","55","55","55","55","Mon Sep 21 18:47:09 2020","1500","The main experiment item","yes","Flankertask.osexp","/Users/annielenoir/Desktop","no","mono","no","18","no","white","no","no","768","legacy","55","55","/Users/annielenoir/Desktop/AL-subject-4.csv","legacy","Lentiform Loewenfeld","3.3.3","0","s","NA","h","NA","NA","s","505","NA","35110","NA","NA","505","2","legacy","1024","2","48000","-16","experiment","SSSSS","4","even","154406","37024","NA","NA","132576","1744","NA","NA","155633","1906","NA","NA","155881","156388","155460","155881","Flanker task","53","29380","56","yes","1024"
"94.73684210526316","94.73684210526316","524.0526315789474","524.0526315789474","black","legacy","legacy","legacy","0","congruent","uniform","1","undefined","1","h","56","0","0","0","56","0","56","0","56","0","0","0","56","56","56","56","Mon Sep 21 18:47:09 2020","1500","The main experiment item","yes","Flankertask.osexp","/Users/annielenoir/Desktop","no","mono","no","18","no","white","no","no","768","legacy","56","56","/Users/annielenoir/Desktop/AL-subject-4.csv","legacy","Lentiform Loewenfeld","3.3.3","0","h","NA","h","NA","NA","h","491","NA","35110","NA","NA","491","2","legacy","1024","2","48000","-16","experiment","HHHHH","4","even","156525","37024","NA","NA","132576","1744","NA","NA","157723","1906","NA","NA","157970","158463","157580","157970","Flanker task","54","29871","57","yes","1024"
"94.82758620689656","94.82758620689656","522.5344827586207","522.5344827586207","black","legacy","legacy","legacy","0","congruent","uniform","1","undefined","1","s","57","0","0","0","57","0","57","0","57","0","0","0","57","57","57","57","Mon Sep 21 18:47:09 2020","1500","The main experiment item","yes","Flankertask.osexp","/Users/annielenoir/Desktop","no","mono","no","18","no","white","no","no","768","legacy","57","57","/Users/annielenoir/Desktop/AL-subject-4.csv","legacy","Lentiform Loewenfeld","3.3.3","0","s","NA","h","NA","NA","s","436","NA","35110","NA","NA","436","2","legacy","1024","2","48000","-16","experiment","SSSSS","4","even","158607","37024","NA","NA","132576","1744","NA","NA","159808","1906","NA","NA","160054","160492","159664","160054","Flanker task","55","30307","58","yes","1024"
"94.91525423728814","94.91525423728814","521.7796610169491","521.7796610169491","black","legacy","legacy","legacy","0","congruent","uniform","1","undefined","1","h","58","0","0","0","58","0","58","0","58","0","0","0","58","58","58","58","Mon Sep 21 18:47:09 2020","1500","The main experiment item","yes","Flankertask.osexp","/Users/annielenoir/Desktop","no","mono","no","18","no","white","no","no","768","legacy","58","58","/Users/annielenoir/Desktop/AL-subject-4.csv","legacy","Lentiform Loewenfeld","3.3.3","0","h","NA","h","NA","NA","h","478","NA","35110","NA","NA","478","2","legacy","1024","2","48000","-16","experiment","HHHHH","4","even","160638","37024","NA","NA","132576","1744","NA","NA","161841","1906","NA","NA","162087","162567","161697","162087","Flanker task","56","30785","59","yes","1024"
"95","95","520.8","520.8","black","legacy","legacy","legacy","0","incongruent","uniform","1","undefined","1","h","59","0","0","0","59","0","59","0","59","0","0","0","59","59","59","59","Mon Sep 21 18:47:09 2020","1500","The main experiment item","yes","Flankertask.osexp","/Users/annielenoir/Desktop","no","mono","no","18","no","white","no","no","768","legacy","59","59","/Users/annielenoir/Desktop/AL-subject-4.csv","legacy","Lentiform Loewenfeld","3.3.3","0","h","NA","h","NA","NA","h","463","NA","35110","NA","NA","463","2","legacy","1024","2","48000","-16","experiment","SSHSS","4","even","162711","37024","NA","NA","132576","1744","NA","NA","163913","1906","NA","NA","164160","164625","163769","164160","Flanker task","57","31248","60","yes","1024"
"95.08196721311475","95.08196721311475","519.344262295082","519.344262295082","black","legacy","legacy","legacy","0","incongruent","uniform","1","undefined","1","h","60","0","0","0","60","0","60","0","60","0","0","0","60","60","60","60","Mon Sep 21 18:47:09 2020","1500","The main experiment item","yes","Flankertask.osexp","/Users/annielenoir/Desktop","no","mono","no","18","no","white","no","no","768","legacy","60","60","/Users/annielenoir/Desktop/AL-subject-4.csv","legacy","Lentiform Loewenfeld","3.3.3","0","h","NA","h","NA","NA","h","432","NA","35110","NA","NA","432","2","legacy","1024","2","48000","-16","experiment","SSHSS","4","even","164770","37024","NA","NA","132576","1744","NA","NA","165971","1906","NA","NA","166217","166651","165827","166217","Flanker task","58","31680","61","yes","1024"
"93.54838709677419","93.54838709677419","518.0645161290323","518.0645161290323","black","legacy","legacy","legacy","0","incongruent","uniform","0","undefined","0","s","61","0","0","0","61","0","61","0","61","0","0","0","61","61","61","61","Mon Sep 21 18:47:09 2020","1500","The main experiment item","yes","Flankertask.osexp","/Users/annielenoir/Desktop","no","mono","no","18","no","white","no","no","768","legacy","61","61","/Users/annielenoir/Desktop/AL-subject-4.csv","legacy","Lentiform Loewenfeld","3.3.3","0","h","NA","h","NA","NA","h","440","NA","35110","NA","NA","440","2","legacy","1024","2","48000","-16","experiment","HHSHH","4","even","166796","37024","NA","NA","132576","1744","NA","NA","167995","1906","NA","NA","168241","168683","167851","168241","Flanker task","58","32120","62","yes","1024"
"93.65079365079364","93.65079365079364","528.9206349206349","528.9206349206349","black","legacy","legacy","legacy","0","incongruent","uniform","1","undefined","1","s","62","0","0","0","62","0","62","0","62","0","0","0","62","62","62","62","Mon Sep 21 18:47:09 2020","1500","The main experiment item","yes","Flankertask.osexp","/Users/annielenoir/Desktop","no","mono","no","18","no","white","no","no","768","legacy","62","62","/Users/annielenoir/Desktop/AL-subject-4.csv","legacy","Lentiform Loewenfeld","3.3.3","0","s","NA","h","NA","NA","s","1202","NA","35110","NA","NA","1202","2","legacy","1024","2","48000","-16","experiment","HHSHH","4","even","169475","37024","NA","NA","168829","1744","NA","NA","170673","1906","NA","NA","170922","172125","170531","170922","Flanker task","59","33322","63","yes","1024"
"92.1875","92.1875","932.03125","932.03125","black","legacy","legacy","legacy","0","congruent","uniform","0","undefined","0","s","63","0","0","0","63","0","63","0","63","0","0","0","63","63","63","63","Mon Sep 21 18:47:09 2020","1500","The main experiment item","yes","Flankertask.osexp","/Users/annielenoir/Desktop","no","mono","no","18","no","white","no","no","768","legacy","63","63","/Users/annielenoir/Desktop/AL-subject-4.csv","legacy","Lentiform Loewenfeld","3.3.3","0","h","NA","h","NA","NA","h","26328","NA","35110","NA","NA","26328","2","legacy","1024","2","48000","-16","experiment","SSSSS","4","even","172273","37024","NA","NA","168829","1744","NA","NA","173471","1906","NA","NA","178314","204643","173326","173718","Flanker task","59","59650","64","yes","1024"
"92.3076923076923","92.3076923076923","928.8615384615384","928.8615384615384","black","legacy","legacy","legacy","0","congruent","uniform","1","undefined","1","s","64","0","0","0","64","0","64","0","64","0","0","0","64","64","64","64","Mon Sep 21 18:47:09 2020","1500","The main experiment item","yes","Flankertask.osexp","/Users/annielenoir/Desktop","no","mono","no","18","no","white","no","no","768","legacy","64","64","/Users/annielenoir/Desktop/AL-subject-4.csv","legacy","Lentiform Loewenfeld","3.3.3","0","s","NA","h","NA","NA","s","726","NA","35110","NA","NA","726","2","legacy","1024","2","48000","-16","experiment","SSSSS","4","even","206086","37024","NA","NA","204794","1744","205440","NA","207282","1906","NA","NA","207529","208256","207140","207529","Flanker task","60","60376","65","yes","1024"
"92.42424242424242","92.42424242424242","921.3787878787879","921.3787878787879","black","legacy","legacy","legacy","0","congruent","uniform","1","undefined","1","s","65","0","0","0","65","0","65","0","65","0","0","0","65","65","65","65","Mon Sep 21 18:47:09 2020","1500","The main experiment item","yes","Flankertask.osexp","/Users/annielenoir/Desktop","no","mono","no","18","no","white","no","no","768","legacy","65","65","/Users/annielenoir/Desktop/AL-subject-4.csv","legacy","Lentiform Loewenfeld","3.3.3","0","s","NA","h","NA","NA","s","435","NA","35110","NA","NA","435","2","legacy","1024","2","48000","-16","experiment","SSSSS","4","even","208400","37024","NA","NA","204794","1744","205440","NA","209599","1906","NA","NA","209845","210282","209456","209845","Flanker task","61","60811","66","yes","1024"
"92.53731343283582","92.53731343283582","915.7313432835821","915.7313432835821","black","legacy","legacy","legacy","0","incongruent","uniform","1","undefined","1","h","66","0","0","0","66","0","66","0","66","0","0","0","66","66","66","66","Mon Sep 21 18:47:09 2020","1500","The main experiment item","yes","Flankertask.osexp","/Users/annielenoir/Desktop","no","mono","no","18","no","white","no","no","768","legacy","66","66","/Users/annielenoir/Desktop/AL-subject-4.csv","legacy","Lentiform Loewenfeld","3.3.3","0","h","NA","h","NA","NA","h","543","NA","35110","NA","NA","543","2","legacy","1024","2","48000","-16","experiment","SSHSS","4","even","210427","37024","NA","NA","204794","1744","205440","NA","211625","1906","NA","NA","211875","212420","211483","211875","Flanker task","62","61354","67","yes","1024"
"92.6470588235294","92.6470588235294","909.3088235294117","909.3088235294117","black","legacy","legacy","legacy","0","incongruent","uniform","1","undefined","1","s","67","0","0","0","67","0","67","0","67","0","0","0","67","67","67","67","Mon Sep 21 18:47:09 2020","1500","The main experiment item","yes","Flankertask.osexp","/Users/annielenoir/Desktop","no","mono","no","18","no","white","no","no","768","legacy","67","67","/Users/annielenoir/Desktop/AL-subject-4.csv","legacy","Lentiform Loewenfeld","3.3.3","0","s","NA","h","NA","NA","s","479","NA","35110","NA","NA","479","2","legacy","1024","2","48000","-16","experiment","HHSHH","4","even","212566","37024","NA","NA","204794","1744","205440","NA","213766","1906","NA","NA","214012","214493","213623","214012","Flanker task","63","61833","68","yes","1024"
"92.7536231884058","92.7536231884058","902.9710144927536","902.9710144927536","black","legacy","legacy","legacy","0","incongruent","uniform","1","undefined","1","s","68","0","0","0","68","0","68","0","68","0","0","0","68","68","68","68","Mon Sep 21 18:47:09 2020","1500","The main experiment item","yes","Flankertask.osexp","/Users/annielenoir/Desktop","no","mono","no","18","no","white","no","no","768","legacy","68","68","/Users/annielenoir/Desktop/AL-subject-4.csv","legacy","Lentiform Loewenfeld","3.3.3","0","s","NA","h","NA","NA","s","472","NA","35110","NA","NA","472","2","legacy","1024","2","48000","-16","experiment","HHSHH","4","even","214639","37024","NA","NA","204794","1744","205440","NA","215838","1906","NA","NA","216084","216558","215696","216084","Flanker task","64","62305","69","yes","1024"
"92.85714285714286","92.85714285714286","897.3714285714286","897.3714285714286","black","legacy","legacy","legacy","0","incongruent","uniform","1","undefined","1","h","69","0","0","0","69","0","69","0","69","0","0","0","69","69","69","69","Mon Sep 21 18:47:09 2020","1500","The main experiment item","yes","Flankertask.osexp","/Users/annielenoir/Desktop","no","mono","no","18","no","white","no","no","768","legacy","69","69","/Users/annielenoir/Desktop/AL-subject-4.csv","legacy","Lentiform Loewenfeld","3.3.3","0","h","NA","h","NA","NA","h","511","NA","35110","NA","NA","511","2","legacy","1024","2","48000","-16","experiment","SSHSS","4","even","216707","37024","NA","NA","204794","1744","205440","NA","217909","1906","NA","NA","218155","218668","217764","218155","Flanker task","65","62816","70","yes","1024"
"92.95774647887323","92.95774647887323","891.9718309859155","891.9718309859155","black","legacy","legacy","legacy","0","congruent","uniform","1","undefined","1","h","70","0","0","0","70","0","70","0","70","0","0","0","70","70","70","70","Mon Sep 21 18:47:09 2020","1500","The main experiment item","yes","Flankertask.osexp","/Users/annielenoir/Desktop","no","mono","no","18","no","white","no","no","768","legacy","70","70","/Users/annielenoir/Desktop/AL-subject-4.csv","legacy","Lentiform Loewenfeld","3.3.3","0","h","NA","h","NA","NA","h","514","NA","35110","NA","NA","514","2","legacy","1024","2","48000","-16","experiment","HHHHH","4","even","218812","37024","NA","NA","204794","1744","205440","NA","220011","1906","NA","NA","220258","220774","219869","220258","Flanker task","66","63330","71","yes","1024"
"93.05555555555556","93.05555555555556","885.0972222222222","885.0972222222222","black","legacy","legacy","legacy","0","congruent","uniform","1","undefined","1","h","71","0","0","0","71","0","71","0","71","0","0","0","71","71","71","71","Mon Sep 21 18:47:09 2020","1500","The main experiment item","yes","Flankertask.osexp","/Users/annielenoir/Desktop","no","mono","no","18","no","white","no","no","768","legacy","71","71","/Users/annielenoir/Desktop/AL-subject-4.csv","legacy","Lentiform Loewenfeld","3.3.3","0","h","NA","h","NA","NA","h","397","NA","35110","NA","NA","397","2","legacy","1024","2","48000","-16","experiment","HHHHH","4","even","220921","37024","NA","NA","204794","1744","205440","NA","222118","1906","NA","NA","222367","222766","221977","222367","Flanker task","67","63727","72","yes","1024"
"93.15068493150685","93.15068493150685","878.5342465753424","878.5342465753424","black","legacy","legacy","legacy","0","congruent","uniform","1","undefined","1","h","72","0","0","0","72","0","72","0","72","0","0","0","72","72","72","72","Mon Sep 21 18:47:09 2020","1500","The main experiment item","yes","Flankertask.osexp","/Users/annielenoir/Desktop","no","mono","no","18","no","white","no","no","768","legacy","72","72","/Users/annielenoir/Desktop/AL-subject-4.csv","legacy","Lentiform Loewenfeld","3.3.3","0","h","NA","h","NA","NA","h","406","NA","35110","NA","NA","406","2","legacy","1024","2","48000","-16","experiment","HHHHH","4","even","222912","37024","NA","NA","204794","1744","205440","NA","224110","1906","NA","NA","224359","224766","223968","224358","Flanker task","68","64133","73","yes","1024"
"93.24324324324324","93.24324324324324","875.027027027027","875.027027027027","black","legacy","legacy","legacy","0","incongruent","uniform","1","undefined","1","h","73","0","0","0","73","0","73","0","73","0","0","0","73","73","73","73","Mon Sep 21 18:47:09 2020","1500","The main experiment item","yes","Flankertask.osexp","/Users/annielenoir/Desktop","no","mono","no","18","no","white","no","no","768","legacy","73","73","/Users/annielenoir/Desktop/AL-subject-4.csv","legacy","Lentiform Loewenfeld","3.3.3","0","h","NA","h","NA","NA","h","619","NA","35110","NA","NA","619","2","legacy","1024","2","48000","-16","experiment","SSHSS","4","even","224913","37024","NA","NA","204794","1744","205440","NA","226112","1906","NA","NA","226359","226980","225970","226359","Flanker task","69","64752","74","yes","1024"
"93.33333333333333","93.33333333333333","871.76","871.76","black","legacy","legacy","legacy","0","incongruent","uniform","1","undefined","1","h","74","0","0","0","74","0","74","0","74","0","0","0","74","74","74","74","Mon Sep 21 18:47:09 2020","1500","The main experiment item","yes","Flankertask.osexp","/Users/annielenoir/Desktop","no","mono","no","18","no","white","no","no","768","legacy","74","74","/Users/annielenoir/Desktop/AL-subject-4.csv","legacy","Lentiform Loewenfeld","3.3.3","0","h","NA","h","NA","NA","h","630","NA","35110","NA","NA","630","2","legacy","1024","2","48000","-16","experiment","SSHSS","4","even","227126","37024","NA","NA","204794","1744","205440","NA","228326","1906","NA","NA","228567","229198","228183","228567","Flanker task","70","65382","75","yes","1024"
"93.42105263157895","93.42105263157895","867.1578947368421","867.1578947368421","black","legacy","legacy","legacy","0","congruent","uniform","1","undefined","1","s","75","0","0","0","75","0","75","0","75","0","0","0","75","75","75","75","Mon Sep 21 18:47:09 2020","1500","The main experiment item","yes","Flankertask.osexp","/Users/annielenoir/Desktop","no","mono","no","18","no","white","no","no","768","legacy","75","75","/Users/annielenoir/Desktop/AL-subject-4.csv","legacy","Lentiform Loewenfeld","3.3.3","0","s","NA","h","NA","NA","s","522","NA","35110","NA","NA","522","2","legacy","1024","2","48000","-16","experiment","SSSSS","4","even","229344","37024","NA","NA","204794","1744","205440","NA","230541","1906","NA","NA","230787","231310","230398","230787","Flanker task","71","65904","76","yes","1024"
"93.50649350649351","93.50649350649351","865.4545454545455","865.4545454545455","black","legacy","legacy","legacy","0","incongruent","uniform","1","undefined","1","s","76","0","0","0","76","0","76","0","76","0","0","0","76","76","76","76","Mon Sep 21 18:47:09 2020","1500","The main experiment item","yes","Flankertask.osexp","/Users/annielenoir/Desktop","no","mono","no","18","no","white","no","no","768","legacy","76","76","/Users/annielenoir/Desktop/AL-subject-4.csv","legacy","Lentiform Loewenfeld","3.3.3","0","s","NA","h","NA","NA","s","736","NA","35110","NA","NA","736","2","legacy","1024","2","48000","-16","experiment","HHSHH","4","even","231458","37024","NA","NA","204794","1744","205440","NA","232651","1906","NA","NA","232899","233636","232510","232899","Flanker task","72","66640","77","yes","1024"
"93.58974358974359","93.58974358974359","862.5641025641025","862.5641025641025","black","legacy","legacy","legacy","0","incongruent","uniform","1","undefined","1","s","77","0","0","0","77","0","77","0","77","0","0","0","77","77","77","77","Mon Sep 21 18:47:09 2020","1500","The main experiment item","yes","Flankertask.osexp","/Users/annielenoir/Desktop","no","mono","no","18","no","white","no","no","768","legacy","77","77","/Users/annielenoir/Desktop/AL-subject-4.csv","legacy","Lentiform Loewenfeld","3.3.3","0","s","NA","h","NA","NA","s","640","NA","35110","NA","NA","640","2","legacy","1024","2","48000","-16","experiment","HHSHH","4","even","233782","37024","NA","NA","204794","1744","205440","NA","234984","1906","NA","NA","235230","235871","234840","235230","Flanker task","73","67280","78","yes","1024"
"93.67088607594937","93.67088607594937","858.9620253164557","858.9620253164557","black","legacy","legacy","legacy","0","congruent","uniform","1","undefined","1","h","78","0","0","0","78","0","78","0","78","0","0","0","78","78","78","78","Mon Sep 21 18:47:09 2020","1500","The main experiment item","yes","Flankertask.osexp","/Users/annielenoir/Desktop","no","mono","no","18","no","white","no","no","768","legacy","78","78","/Users/annielenoir/Desktop/AL-subject-4.csv","legacy","Lentiform Loewenfeld","3.3.3","0","h","NA","h","NA","NA","h","578","NA","35110","NA","NA","578","2","legacy","1024","2","48000","-16","experiment","HHHHH","4","even","236013","37024","NA","NA","204794","1744","205440","NA","237209","1906","NA","NA","237455","238034","237067","237455","Flanker task","74","67858","79","yes","1024"
"93.75","93.75","856.4875","856.4875","black","legacy","legacy","legacy","0","congruent","uniform","1","undefined","1","s","79","0","0","0","79","0","79","0","79","0","0","0","79","79","79","79","Mon Sep 21 18:47:09 2020","1500","The main experiment item","yes","Flankertask.osexp","/Users/annielenoir/Desktop","no","mono","no","18","no","white","no","no","768","legacy","79","79","/Users/annielenoir/Desktop/AL-subject-4.csv","legacy","Lentiform Loewenfeld","3.3.3","0","s","NA","h","NA","NA","s","661","NA","35110","NA","NA","661","2","legacy","1024","2","48000","-16","experiment","SSSSS","4","even","238179","37024","NA","NA","204794","1744","205440","NA","239377","1906","NA","NA","239627","240289","239234","239627","Flanker task","75","68519","80","yes","1024"
"93.82716049382717","93.82716049382717","851.641975308642","851.641975308642","black","legacy","legacy","legacy","0","congruent","uniform","1","undefined","1","s","80","0","0","0","80","0","80","0","80","0","0","0","80","80","80","80","Mon Sep 21 18:47:09 2020","600","The main experiment item","yes","Flankertask.osexp","/Users/annielenoir/Desktop","no","mono","no","18","no","white","no","no","768","legacy","0","79","/Users/annielenoir/Desktop/AL-subject-4.csv","legacy","Lentiform Loewenfeld","3.3.3","0","s","NA","h","h","NA","s","464","NA","35110","14222","NA","464","2","legacy","1024","2","48000","-16","experiment","SSSSS","4","even","240436","37024","255842","NA","204794","1744","205440","NA","256006","1906","241618","NA","256252","256718","255868","256251","Flanker task","76","68983","81","yes","1024"
"93.90243902439025","93.90243902439025","845.9512195121952","845.9512195121952","black","legacy","legacy","legacy","0","congruent","uniform","1","undefined","1","h","81","0","0","0","81","0","81","0","81","0","0","0","81","81","81","81","Mon Sep 21 18:47:09 2020","600","The main experiment item","yes","Flankertask.osexp","/Users/annielenoir/Desktop","no","mono","no","18","no","white","no","no","768","legacy","1","79","/Users/annielenoir/Desktop/AL-subject-4.csv","legacy","Lentiform Loewenfeld","3.3.3","0","h","NA","h","h","NA","h","385","NA","35110","14222","NA","385","2","legacy","1024","2","48000","-16","experiment","HHHHH","4","even","256863","37024","255842","NA","204794","1744","205440","NA","258071","1906","241618","NA","258317","258704","257931","258317","Flanker task","77","69368","82","yes","1024"
"92.7710843373494","92.7710843373494","841.8915662650602","841.8915662650602","black","legacy","legacy","legacy","0","incongruent","uniform","0","undefined","0","h","82","0","0","0","82","0","82","0","82","0","0","0","82","82","82","82","Mon Sep 21 18:47:09 2020","600","The main experiment item","yes","Flankertask.osexp","/Users/annielenoir/Desktop","no","mono","no","18","no","white","no","no","768","legacy","2","79","/Users/annielenoir/Desktop/AL-subject-4.csv","legacy","Lentiform Loewenfeld","3.3.3","0","s","NA","h","h","NA","s","509","NA","35110","14222","NA","509","2","legacy","1024","2","48000","-16","experiment","SSHSS","4","even","258848","37024","255842","NA","204794","1744","205440","NA","260047","1906","241618","NA","260293","260804","259904","260293","Flanker task","77","69877","83","yes","1024"
"92.85714285714286","92.85714285714286","836.6309523809524","836.6309523809524","black","legacy","legacy","legacy","0","incongruent","uniform","1","undefined","1","h","83","0","0","0","83","0","83","0","83","0","0","0","83","83","83","83","Mon Sep 21 18:47:09 2020","600","The main experiment item","yes","Flankertask.osexp","/Users/annielenoir/Desktop","no","mono","no","18","no","white","no","no","768","legacy","3","79","/Users/annielenoir/Desktop/AL-subject-4.csv","legacy","Lentiform Loewenfeld","3.3.3","0","h","NA","h","h","NA","h","400","NA","35110","14222","NA","400","2","legacy","1024","2","48000","-16","experiment","SSHSS","4","even","261600","37024","255842","NA","260954","1744","205440","NA","262798","1906","241618","NA","263047","263449","262654","263047","Flanker task","78","70277","84","yes","1024"
"92.94117647058823","92.94117647058823","831.9058823529411","831.9058823529411","black","legacy","legacy","legacy","0","incongruent","uniform","1","undefined","1","s","84","0","0","0","84","0","84","0","84","0","0","0","84","84","84","84","Mon Sep 21 18:47:09 2020","600","The main experiment item","yes","Flankertask.osexp","/Users/annielenoir/Desktop","no","mono","no","18","no","white","no","no","768","legacy","4","79","/Users/annielenoir/Desktop/AL-subject-4.csv","legacy","Lentiform Loewenfeld","3.3.3","0","s","NA","h","h","NA","s","435","NA","35110","14222","NA","435","2","legacy","1024","2","48000","-16","experiment","HHSHH","4","even","263594","37024","255842","NA","260954","1744","205440","NA","264794","1906","241618","NA","265044","265481","264650","265044","Flanker task","79","70712","85","yes","1024"
"93.02325581395348","93.02325581395348","826.953488372093","826.953488372093","black","legacy","legacy","legacy","0","congruent","uniform","1","undefined","1","h","85","0","0","0","85","0","85","0","85","0","0","0","85","85","85","85","Mon Sep 21 18:47:09 2020","600","The main experiment item","yes","Flankertask.osexp","/Users/annielenoir/Desktop","no","mono","no","18","no","white","no","no","768","legacy","5","79","/Users/annielenoir/Desktop/AL-subject-4.csv","legacy","Lentiform Loewenfeld","3.3.3","0","h","NA","h","h","NA","h","406","NA","35110","14222","NA","406","2","legacy","1024","2","48000","-16","experiment","HHHHH","4","even","265628","37024","255842","NA","260954","1744","205440","NA","266826","1906","241618","NA","267076","267484","266682","267076","Flanker task","80","71118","86","yes","1024"
"93.10344827586206","93.10344827586206","822.2988505747127","822.2988505747127","black","legacy","legacy","legacy","0","congruent","uniform","1","undefined","1","s","86","0","0","0","86","0","86","0","86","0","0","0","86","86","86","86","Mon Sep 21 18:47:09 2020","600","The main experiment item","yes","Flankertask.osexp","/Users/annielenoir/Desktop","no","mono","no","18","no","white","no","no","768","legacy","6","79","/Users/annielenoir/Desktop/AL-subject-4.csv","legacy","Lentiform Loewenfeld","3.3.3","0","s","NA","h","h","NA","s","422","NA","35110","14222","NA","422","2","legacy","1024","2","48000","-16","experiment","SSSSS","4","even","267631","37024","255842","NA","260954","1744","205440","NA","268831","1906","241618","NA","269080","269503","268688","269080","Flanker task","81","71540","87","yes","1024"
"93.18181818181819","93.18181818181819","819.5113636363636","819.5113636363636","black","legacy","legacy","legacy","0","incongruent","uniform","1","undefined","1","s","87","0","0","0","87","0","87","0","87","0","0","0","87","87","87","87","Mon Sep 21 18:47:09 2020","600","The main experiment item","yes","Flankertask.osexp","/Users/annielenoir/Desktop","no","mono","no","18","no","white","no","no","768","legacy","7","79","/Users/annielenoir/Desktop/AL-subject-4.csv","legacy","Lentiform Loewenfeld","3.3.3","0","s","NA","h","h","NA","s","577","NA","35110","14222","NA","577","2","legacy","1024","2","48000","-16","experiment","HHSHH","4","even","269649","37024","255842","NA","260954","1744","205440","NA","270852","1906","241618","NA","271101","271680","270709","271101","Flanker task","82","72117","88","yes","1024"
"92.13483146067416","92.13483146067416","815.1011235955057","815.1011235955057","black","legacy","legacy","legacy","0","incongruent","uniform","0","undefined","0","h","88","0","0","0","88","0","88","0","88","0","0","0","88","88","88","88","Mon Sep 21 18:47:09 2020","600","The main experiment item","yes","Flankertask.osexp","/Users/annielenoir/Desktop","no","mono","no","18","no","white","no","no","768","legacy","8","79","/Users/annielenoir/Desktop/AL-subject-4.csv","legacy","Lentiform Loewenfeld","3.3.3","0","s","NA","h","h","NA","s","427","NA","35110","14222","NA","427","2","legacy","1024","2","48000","-16","experiment","SSHSS","4","even","271825","37024","255842","NA","260954","1744","205440","NA","273023","1906","241618","NA","273267","273696","272881","273267","Flanker task","82","72544","89","yes","1024"
"92.22222222222223","92.22222222222223","811.9","811.9","black","legacy","legacy","legacy","0","incongruent","uniform","1","undefined","1","h","89","0","0","0","89","0","89","0","89","0","0","0","89","89","89","89","Mon Sep 21 18:47:09 2020","600","The main experiment item","yes","Flankertask.osexp","/Users/annielenoir/Desktop","no","mono","no","18","no","white","no","no","768","legacy","9","79","/Users/annielenoir/Desktop/AL-subject-4.csv","legacy","Lentiform Loewenfeld","3.3.3","0","h","NA","h","h","NA","h","527","NA","35110","14222","NA","527","2","legacy","1024","2","48000","-16","experiment","SSHSS","4","even","274488","37024","255842","NA","273841","1744","205440","NA","275700","1906","241618","NA","275948","276476","275545","275948","Flanker task","83","73071","90","yes","1024"
"92.3076923076923","92.3076923076923","808.4395604395604","808.4395604395604","black","legacy","legacy","legacy","0","incongruent","uniform","1","undefined","1","s","90","0","0","0","90","0","90","0","90","0","0","0","90","90","90","90","Mon Sep 21 18:47:09 2020","600","The main experiment item","yes","Flankertask.osexp","/Users/annielenoir/Desktop","no","mono","no","18","no","white","no","no","768","legacy","10","79","/Users/annielenoir/Desktop/AL-subject-4.csv","legacy","Lentiform Loewenfeld","3.3.3","0","s","NA","h","h","NA","s","497","NA","35110","14222","NA","497","2","legacy","1024","2","48000","-16","experiment","HHSHH","4","even","276622","37024","255842","NA","273841","1744","205440","NA","277820","1906","241618","NA","278067","278566","277677","278067","Flanker task","84","73568","91","yes","1024"
"92.3913043478261","92.3913043478261","804.3478260869565","804.3478260869565","black","legacy","legacy","legacy","0","congruent","uniform","1","undefined","1","h","91","0","0","0","91","0","91","0","91","0","0","0","91","91","91","91","Mon Sep 21 18:47:09 2020","600","The main experiment item","yes","Flankertask.osexp","/Users/annielenoir/Desktop","no","mono","no","18","no","white","no","no","768","legacy","11","79","/Users/annielenoir/Desktop/AL-subject-4.csv","legacy","Lentiform Loewenfeld","3.3.3","0","h","NA","h","h","NA","h","432","NA","35110","14222","NA","432","2","legacy","1024","2","48000","-16","experiment","HHHHH","4","even","278711","37024","255842","NA","273841","1744","205440","NA","279911","1906","241618","NA","280158","280591","279766","280157","Flanker task","85","74000","92","yes","1024"
"92.47311827956989","92.47311827956989","800.6021505376344","800.6021505376344","black","legacy","legacy","legacy","0","incongruent","uniform","1","undefined","1","s","92","0","0","0","92","0","92","0","92","0","0","0","92","92","92","92","Mon Sep 21 18:47:09 2020","600","The main experiment item","yes","Flankertask.osexp","/Users/annielenoir/Desktop","no","mono","no","18","no","white","no","no","768","legacy","12","79","/Users/annielenoir/Desktop/AL-subject-4.csv","legacy","Lentiform Loewenfeld","3.3.3","0","s","NA","h","h","NA","s","456","NA","35110","14222","NA","456","2","legacy","1024","2","48000","-16","experiment","HHSHH","4","even","280739","37024","255842","NA","273841","1744","205440","NA","281944","1906","241618","NA","282191","282648","281797","282191","Flanker task","86","74456","93","yes","1024"
"92.55319148936171","92.55319148936171","796.6382978723404","796.6382978723404","black","legacy","legacy","legacy","0","congruent","uniform","1","undefined","1","s","93","0","0","0","93","0","93","0","93","0","0","0","93","93","93","93","Mon Sep 21 18:47:09 2020","600","The main experiment item","yes","Flankertask.osexp","/Users/annielenoir/Desktop","no","mono","no","18","no","white","no","no","768","legacy","13","79","/Users/annielenoir/Desktop/AL-subject-4.csv","legacy","Lentiform Loewenfeld","3.3.3","0","s","NA","h","h","NA","s","428","NA","35110","14222","NA","428","2","legacy","1024","2","48000","-16","experiment","SSSSS","4","even","282794","37024","255842","NA","273841","1744","205440","NA","283994","1906","241618","NA","284241","284670","283851","284240","Flanker task","87","74884","94","yes","1024"
"92.63157894736842","92.63157894736842","792.7473684210527","792.7473684210527","black","legacy","legacy","legacy","0","congruent","uniform","1","undefined","1","h","94","0","0","0","94","0","94","0","94","0","0","0","94","94","94","94","Mon Sep 21 18:47:09 2020","600","The main experiment item","yes","Flankertask.osexp","/Users/annielenoir/Desktop","no","mono","no","18","no","white","no","no","768","legacy","14","79","/Users/annielenoir/Desktop/AL-subject-4.csv","legacy","Lentiform Loewenfeld","3.3.3","0","h","NA","h","h","NA","h","427","NA","35110","14222","NA","427","2","legacy","1024","2","48000","-16","experiment","HHHHH","4","even","284814","37024","255842","NA","273841","1744","205440","NA","286015","1906","241618","NA","286262","286690","285873","286262","Flanker task","88","75311","95","yes","1024"
"92.70833333333333","92.70833333333333","788.8645833333334","788.8645833333334","black","legacy","legacy","legacy","0","congruent","uniform","1","undefined","1","h","95","0","0","0","95","0","95","0","95","0","0","0","95","95","95","95","Mon Sep 21 18:47:09 2020","600","The main experiment item","yes","Flankertask.osexp","/Users/annielenoir/Desktop","no","mono","no","18","no","white","no","no","768","legacy","15","79","/Users/annielenoir/Desktop/AL-subject-4.csv","legacy","Lentiform Loewenfeld","3.3.3","0","h","NA","h","h","NA","h","420","NA","35110","14222","NA","420","2","legacy","1024","2","48000","-16","experiment","HHHHH","4","even","286837","37024","255842","NA","273841","1744","205440","NA","288035","1906","241618","NA","288284","288705","287893","288284","Flanker task","89","75731","96","yes","1024"
"92.78350515463917","92.78350515463917","784.7010309278351","784.7010309278351","black","legacy","legacy","legacy","0","congruent","uniform","1","undefined","1","h","96","0","0","0","96","0","96","0","96","0","0","0","96","96","96","96","Mon Sep 21 18:47:09 2020","600","The main experiment item","yes","Flankertask.osexp","/Users/annielenoir/Desktop","no","mono","no","18","no","white","no","no","768","legacy","16","79","/Users/annielenoir/Desktop/AL-subject-4.csv","legacy","Lentiform Loewenfeld","3.3.3","0","h","NA","h","h","NA","h","385","NA","35110","14222","NA","385","2","legacy","1024","2","48000","-16","experiment","HHHHH","4","even","288849","37024","255842","NA","273841","1744","205440","NA","290045","1906","241618","NA","290292","290678","289905","290292","Flanker task","90","76116","97","yes","1024"
"92.85714285714286","92.85714285714286","780.8367346938776","780.8367346938776","black","legacy","legacy","legacy","0","congruent","uniform","1","undefined","1","s","97","0","0","0","97","0","97","0","97","0","0","0","97","97","97","97","Mon Sep 21 18:47:09 2020","600","The main experiment item","yes","Flankertask.osexp","/Users/annielenoir/Desktop","no","mono","no","18","no","white","no","no","768","legacy","17","79","/Users/annielenoir/Desktop/AL-subject-4.csv","legacy","Lentiform Loewenfeld","3.3.3","0","s","NA","h","h","NA","s","406","NA","35110","14222","NA","406","2","legacy","1024","2","48000","-16","experiment","SSSSS","4","even","290823","37024","255842","NA","273841","1744","205440","NA","292021","1906","241618","NA","292268","292675","291879","292268","Flanker task","91","76522","98","yes","1024"
"92.92929292929293","92.92929292929293","777.1313131313132","777.1313131313132","black","legacy","legacy","legacy","0","congruent","uniform","1","undefined","1","h","98","0","0","0","98","0","98","0","98","0","0","0","98","98","98","98","Mon Sep 21 18:47:09 2020","600","The main experiment item","yes","Flankertask.osexp","/Users/annielenoir/Desktop","no","mono","no","18","no","white","no","no","768","legacy","18","79","/Users/annielenoir/Desktop/AL-subject-4.csv","legacy","Lentiform Loewenfeld","3.3.3","0","h","NA","h","h","NA","h","414","NA","35110","14222","NA","414","2","legacy","1024","2","48000","-16","experiment","HHHHH","4","even","292820","37024","255842","NA","273841","1744","205440","NA","294019","1906","241618","NA","294266","294682","293877","294265","Flanker task","92","76936","99","yes","1024"
"93","93","774.58","774.58","black","legacy","legacy","legacy","0","incongruent","uniform","1","undefined","1","s","99","0","0","0","99","0","99","0","99","0","0","0","99","99","99","99","Mon Sep 21 18:47:09 2020","600","The main experiment item","yes","Flankertask.osexp","/Users/annielenoir/Desktop","no","mono","no","18","no","white","no","no","768","legacy","19","79","/Users/annielenoir/Desktop/AL-subject-4.csv","legacy","Lentiform Loewenfeld","3.3.3","0","s","NA","h","h","NA","s","522","NA","35110","14222","NA","522","2","legacy","1024","2","48000","-16","experiment","HHSHH","4","even","294828","37024","255842","NA","273841","1744","205440","NA","296027","1906","241618","NA","296273","296796","295885","296273","Flanker task","93","77458","100","yes","1024"
"93.06930693069307","93.06930693069307","771.6831683168317","771.6831683168317","black","legacy","legacy","legacy","0","incongruent","uniform","1","undefined","1","s","100","0","0","0","100","0","100","0","100","0","0","0","100","100","100","100","Mon Sep 21 18:47:09 2020","600","The main experiment item","yes","Flankertask.osexp","/Users/annielenoir/Desktop","no","mono","no","18","no","white","no","no","768","legacy","20","79","/Users/annielenoir/Desktop/AL-subject-4.csv","legacy","Lentiform Loewenfeld","3.3.3","0","s","NA","h","h","NA","s","482","NA","35110","14222","NA","482","2","legacy","1024","2","48000","-16","experiment","HHSHH","4","even","296942","37024","255842","NA","273841","1744","205440","NA","298137","1906","241618","NA","298385","298869","297996","298384","Flanker task","94","77940","101","yes","1024"
"93.13725490196079","93.13725490196079","768.5392156862745","768.5392156862745","black","legacy","legacy","legacy","0","incongruent","uniform","1","undefined","1","h","101","0","0","0","101","0","101","0","101","0","0","0","101","101","101","101","Mon Sep 21 18:47:09 2020","600","The main experiment item","yes","Flankertask.osexp","/Users/annielenoir/Desktop","no","mono","no","18","no","white","no","no","768","legacy","21","79","/Users/annielenoir/Desktop/AL-subject-4.csv","legacy","Lentiform Loewenfeld","3.3.3","0","h","NA","h","h","NA","h","451","NA","35110","14222","NA","451","2","legacy","1024","2","48000","-16","experiment","SSHSS","4","even","299013","37024","255842","NA","273841","1744","205440","NA","300210","1906","241618","NA","300456","300909","300067","300456","Flanker task","95","78391","102","yes","1024"
"93.20388349514563","93.20388349514563","765.747572815534","765.747572815534","black","legacy","legacy","legacy","0","congruent","uniform","1","undefined","1","h","102","0","0","0","102","0","102","0","102","0","0","0","102","102","102","102","Mon Sep 21 18:47:09 2020","600","The main experiment item","yes","Flankertask.osexp","/Users/annielenoir/Desktop","no","mono","no","18","no","white","no","no","768","legacy","22","79","/Users/annielenoir/Desktop/AL-subject-4.csv","legacy","Lentiform Loewenfeld","3.3.3","0","h","NA","h","h","NA","h","481","NA","35110","14222","NA","481","2","legacy","1024","2","48000","-16","experiment","HHHHH","4","even","301052","37024","255842","NA","273841","1744","205440","NA","302252","1906","241618","NA","302498","302981","302110","302498","Flanker task","96","78872","103","yes","1024"
"93.26923076923077","93.26923076923077","761.9519230769231","761.9519230769231","black","legacy","legacy","legacy","0","congruent","uniform","1","undefined","1","h","103","0","0","0","103","0","103","0","103","0","0","0","103","103","103","103","Mon Sep 21 18:47:09 2020","600","The main experiment item","yes","Flankertask.osexp","/Users/annielenoir/Desktop","no","mono","no","18","no","white","no","no","768","legacy","23","79","/Users/annielenoir/Desktop/AL-subject-4.csv","legacy","Lentiform Loewenfeld","3.3.3","0","h","NA","h","h","NA","h","371","NA","35110","14222","NA","371","2","legacy","1024","2","48000","-16","experiment","HHHHH","4","even","303125","37024","255842","NA","273841","1744","205440","NA","304325","1906","241618","NA","304572","304945","304182","304572","Flanker task","97","79243","104","yes","1024"
"93.33333333333333","93.33333333333333","759.1333333333333","759.1333333333333","black","legacy","legacy","legacy","0","congruent","uniform","1","undefined","1","s","104","0","0","0","104","0","104","0","104","0","0","0","104","104","104","104","Mon Sep 21 18:47:09 2020","600","The main experiment item","yes","Flankertask.osexp","/Users/annielenoir/Desktop","no","mono","no","18","no","white","no","no","768","legacy","24","79","/Users/annielenoir/Desktop/AL-subject-4.csv","legacy","Lentiform Loewenfeld","3.3.3","0","s","NA","h","h","NA","s","466","NA","35110","14222","NA","466","2","legacy","1024","2","48000","-16","experiment","SSSSS","4","even","305090","37024","255842","NA","273841","1744","205440","NA","306292","1906","241618","NA","306539","307007","306148","306539","Flanker task","98","79709","105","yes","1024"
"93.39622641509433","93.39622641509433","756.3301886792453","756.3301886792453","black","legacy","legacy","legacy","0","incongruent","uniform","1","undefined","1","h","105","0","0","0","105","0","105","0","105","0","0","0","105","105","105","105","Mon Sep 21 18:47:09 2020","600","The main experiment item","yes","Flankertask.osexp","/Users/annielenoir/Desktop","no","mono","no","18","no","white","no","no","768","legacy","25","79","/Users/annielenoir/Desktop/AL-subject-4.csv","legacy","Lentiform Loewenfeld","3.3.3","0","h","NA","h","h","NA","h","462","NA","35110","14222","NA","462","2","legacy","1024","2","48000","-16","experiment","SSHSS","4","even","307157","37024","255842","NA","273841","1744","205440","NA","308359","1906","241618","NA","308606","309070","308215","308606","Flanker task","99","80171","106","yes","1024"
"93.45794392523365","93.45794392523365","753.7289719626168","753.7289719626168","black","legacy","legacy","legacy","0","incongruent","uniform","1","undefined","1","s","106","0","0","0","106","0","106","0","106","0","0","0","106","106","106","106","Mon Sep 21 18:47:09 2020","600","The main experiment item","yes","Flankertask.osexp","/Users/annielenoir/Desktop","no","mono","no","18","no","white","no","no","768","legacy","26","79","/Users/annielenoir/Desktop/AL-subject-4.csv","legacy","Lentiform Loewenfeld","3.3.3","0","s","NA","h","h","NA","s","478","NA","35110","14222","NA","478","2","legacy","1024","2","48000","-16","experiment","HHSHH","4","even","309216","37024","255842","NA","273841","1744","205440","NA","310416","1906","241618","NA","310664","311144","310272","310663","Flanker task","100","80649","107","yes","1024"
"93.51851851851852","93.51851851851852","750.6111111111111","750.6111111111111","black","legacy","legacy","legacy","0","incongruent","uniform","1","undefined","1","s","107","0","0","0","107","0","107","0","107","0","0","0","107","107","107","107","Mon Sep 21 18:47:09 2020","600","The main experiment item","yes","Flankertask.osexp","/Users/annielenoir/Desktop","no","mono","no","18","no","white","no","no","768","legacy","27","79","/Users/annielenoir/Desktop/AL-subject-4.csv","legacy","Lentiform Loewenfeld","3.3.3","0","s","NA","h","h","NA","s","417","NA","35110","14222","NA","417","2","legacy","1024","2","48000","-16","experiment","HHSHH","4","even","311290","37024","255842","NA","273841","1744","205440","NA","312490","1906","241618","NA","312737","313156","312346","312737","Flanker task","101","81066","108","yes","1024"
"93.57798165137615","93.57798165137615","749.6238532110092","749.6238532110092","black","legacy","legacy","legacy","0","incongruent","uniform","1","undefined","1","h","108","0","0","0","108","0","108","0","108","0","0","0","108","108","108","108","Mon Sep 21 18:47:09 2020","600","The main experiment item","yes","Flankertask.osexp","/Users/annielenoir/Desktop","no","mono","no","18","no","white","no","no","768","legacy","28","79","/Users/annielenoir/Desktop/AL-subject-4.csv","legacy","Lentiform Loewenfeld","3.3.3","0","h","NA","h","h","NA","h","643","NA","35110","14222","NA","643","2","legacy","1024","2","48000","-16","experiment","SSHSS","4","even","313300","37024","255842","NA","273841","1744","205440","NA","314500","1906","241618","NA","314747","315392","314356","314747","Flanker task","102","81709","109","yes","1024"
"93.63636363636364","93.63636363636364","747.9181818181818","747.9181818181818","black","legacy","legacy","legacy","0","incongruent","uniform","1","undefined","1","s","109","0","0","0","109","0","109","0","109","0","0","0","109","109","109","109","Mon Sep 21 18:47:09 2020","600","The main experiment item","yes","Flankertask.osexp","/Users/annielenoir/Desktop","no","mono","no","18","no","white","no","no","768","legacy","29","79","/Users/annielenoir/Desktop/AL-subject-4.csv","legacy","Lentiform Loewenfeld","3.3.3","0","s","NA","h","h","NA","s","562","NA","35110","14222","NA","562","2","legacy","1024","2","48000","-16","experiment","HHSHH","4","even","316184","37024","255842","NA","273841","1744","315538","NA","317386","1906","241618","NA","317633","318196","317243","317633","Flanker task","103","82271","110","yes","1024"
"92.7927927927928","92.7927927927928","745.1531531531532","745.1531531531532","black","legacy","legacy","legacy","0","incongruent","uniform","0","undefined","0","s","110","0","0","0","110","0","110","0","110","0","0","0","110","110","110","110","Mon Sep 21 18:47:09 2020","600","The main experiment item","yes","Flankertask.osexp","/Users/annielenoir/Desktop","no","mono","no","18","no","white","no","no","768","legacy","30","79","/Users/annielenoir/Desktop/AL-subject-4.csv","legacy","Lentiform Loewenfeld","3.3.3","0","h","NA","h","h","NA","h","441","NA","35110","14222","NA","441","2","legacy","1024","2","48000","-16","experiment","HHSHH","4","even","318341","37024","255842","NA","273841","1744","315538","NA","319540","1906","241618","NA","319787","320229","319398","319787","Flanker task","103","82712","111","yes","1024"
"92.85714285714286","92.85714285714286","742.6071428571429","742.6071428571429","black","legacy","legacy","legacy","0","incongruent","uniform","1","undefined","1","h","111","0","0","0","111","0","111","0","111","0","0","0","111","111","111","111","Mon Sep 21 18:47:09 2020","600","The main experiment item","yes","Flankertask.osexp","/Users/annielenoir/Desktop","no","mono","no","18","no","white","no","no","768","legacy","31","79","/Users/annielenoir/Desktop/AL-subject-4.csv","legacy","Lentiform Loewenfeld","3.3.3","0","h","NA","h","h","NA","h","460","NA","35110","14222","NA","460","2","legacy","1024","2","48000","-16","experiment","SSHSS","4","even","321023","37024","255842","NA","320377","1744","315538","NA","322223","1906","241618","NA","322470","322931","322080","322470","Flanker task","104","83172","112","yes","1024"
"92.92035398230088","92.92035398230088","740.1327433628319","740.1327433628319","black","legacy","legacy","legacy","0","incongruent","uniform","1","undefined","1","s","112","0","0","0","112","0","112","0","112","0","0","0","112","112","112","112","Mon Sep 21 18:47:09 2020","600","The main experiment item","yes","Flankertask.osexp","/Users/annielenoir/Desktop","no","mono","no","18","no","white","no","no","768","legacy","32","79","/Users/annielenoir/Desktop/AL-subject-4.csv","legacy","Lentiform Loewenfeld","3.3.3","0","s","NA","h","h","NA","s","463","NA","35110","14222","NA","463","2","legacy","1024","2","48000","-16","experiment","HHSHH","4","even","323077","37024","255842","NA","320377","1744","315538","NA","324275","1906","241618","NA","324522","324986","324132","324522","Flanker task","105","83635","113","yes","1024"
"92.98245614035088","92.98245614035088","737.3771929824561","737.3771929824561","black","legacy","legacy","legacy","0","congruent","uniform","1","undefined","1","h","113","0","0","0","113","0","113","0","113","0","0","0","113","113","113","113","Mon Sep 21 18:47:09 2020","600","The main experiment item","yes","Flankertask.osexp","/Users/annielenoir/Desktop","no","mono","no","18","no","white","no","no","768","legacy","33","79","/Users/annielenoir/Desktop/AL-subject-4.csv","legacy","Lentiform Loewenfeld","3.3.3","0","h","NA","h","h","NA","h","426","NA","35110","14222","NA","426","2","legacy","1024","2","48000","-16","experiment","HHHHH","4","even","325127","37024","255842","NA","320377","1744","315538","NA","326331","1906","241618","NA","326578","327006","326187","326578","Flanker task","106","84061","114","yes","1024"
"93.04347826086956","93.04347826086956","734.8521739130434","734.8521739130434","black","legacy","legacy","legacy","0","congruent","uniform","1","undefined","1","s","114","0","0","0","114","0","114","0","114","0","0","0","114","114","114","114","Mon Sep 21 18:47:09 2020","600","The main experiment item","yes","Flankertask.osexp","/Users/annielenoir/Desktop","no","mono","no","18","no","white","no","no","768","legacy","34","79","/Users/annielenoir/Desktop/AL-subject-4.csv","legacy","Lentiform Loewenfeld","3.3.3","0","s","NA","h","h","NA","s","447","NA","35110","14222","NA","447","2","legacy","1024","2","48000","-16","experiment","SSSSS","4","even","327155","37024","255842","NA","320377","1744","315538","NA","328356","1906","241618","NA","328604","329055","328212","328604","Flanker task","107","84508","115","yes","1024"
"93.10344827586206","93.10344827586206","731.8362068965517","731.8362068965517","black","legacy","legacy","legacy","0","congruent","uniform","1","undefined","1","s","115","0","0","0","115","0","115","0","115","0","0","0","115","115","115","115","Mon Sep 21 18:47:09 2020","600","The main experiment item","yes","Flankertask.osexp","/Users/annielenoir/Desktop","no","mono","no","18","no","white","no","no","768","legacy","35","79","/Users/annielenoir/Desktop/AL-subject-4.csv","legacy","Lentiform Loewenfeld","3.3.3","0","s","NA","h","h","NA","s","385","NA","35110","14222","NA","385","2","legacy","1024","2","48000","-16","experiment","SSSSS","4","even","329197","37024","255842","NA","320377","1744","315538","NA","330398","1906","241618","NA","330645","331032","330256","330645","Flanker task","108","84893","116","yes","1024"
"93.16239316239316","93.16239316239316","728.991452991453","728.991452991453","black","legacy","legacy","legacy","0","incongruent","uniform","1","undefined","1","h","116","0","0","0","116","0","116","0","116","0","0","0","116","116","116","116","Mon Sep 21 18:47:09 2020","600","The main experiment item","yes","Flankertask.osexp","/Users/annielenoir/Desktop","no","mono","no","18","no","white","no","no","768","legacy","36","79","/Users/annielenoir/Desktop/AL-subject-4.csv","legacy","Lentiform Loewenfeld","3.3.3","0","h","NA","h","h","NA","h","399","NA","35110","14222","NA","399","2","legacy","1024","2","48000","-16","experiment","SSHSS","4","even","331179","37024","255842","NA","320377","1744","315538","NA","332380","1906","241618","NA","332627","333028","332236","332627","Flanker task","109","85292","117","yes","1024"
"93.22033898305085","93.22033898305085","726.5","726.5","black","legacy","legacy","legacy","0","incongruent","uniform","1","undefined","1","s","117","0","0","0","117","0","117","0","117","0","0","0","117","117","117","117","Mon Sep 21 18:47:09 2020","600","The main experiment item","yes","Flankertask.osexp","/Users/annielenoir/Desktop","no","mono","no","18","no","white","no","no","768","legacy","37","79","/Users/annielenoir/Desktop/AL-subject-4.csv","legacy","Lentiform Loewenfeld","3.3.3","0","s","NA","h","h","NA","s","435","NA","35110","14222","NA","435","2","legacy","1024","2","48000","-16","experiment","HHSHH","4","even","333177","37024","255842","NA","320377","1744","315538","NA","334375","1906","241618","NA","334622","335059","334232","334622","Flanker task","110","85727","118","yes","1024"
"93.27731092436974","93.27731092436974","724.2436974789916","724.2436974789916","black","legacy","legacy","legacy","0","incongruent","uniform","1","undefined","1","h","118","0","0","0","118","0","118","0","118","0","0","0","118","118","118","118","Mon Sep 21 18:47:09 2020","600","The main experiment item","yes","Flankertask.osexp","/Users/annielenoir/Desktop","no","mono","no","18","no","white","no","no","768","legacy","38","79","/Users/annielenoir/Desktop/AL-subject-4.csv","legacy","Lentiform Loewenfeld","3.3.3","0","h","NA","h","h","NA","h","458","NA","35110","14222","NA","458","2","legacy","1024","2","48000","-16","experiment","SSHSS","4","even","335207","37024","255842","NA","320377","1744","315538","NA","336409","1906","241618","NA","336656","337116","336266","336656","Flanker task","111","86185","119","yes","1024"
"93.33333333333333","93.33333333333333","722.0166666666667","722.0166666666667","black","legacy","legacy","legacy","0","incongruent","uniform","1","undefined","1","h","119","0","0","0","119","0","119","0","119","0","0","0","119","119","119","119","Mon Sep 21 18:47:09 2020","600","The main experiment item","yes","Flankertask.osexp","/Users/annielenoir/Desktop","no","mono","no","18","no","white","no","no","768","legacy","39","79","/Users/annielenoir/Desktop/AL-subject-4.csv","legacy","Lentiform Loewenfeld","3.3.3","0","h","NA","h","h","NA","h","457","NA","35110","14222","NA","457","2","legacy","1024","2","48000","-16","experiment","SSHSS","4","even","337271","37024","255842","NA","320377","1744","315538","NA","338474","1906","241618","NA","338720","339179","338328","338720","Flanker task","112","86642","120","yes","1024"
"93.38842975206612","93.38842975206612","719.5702479338843","719.5702479338843","black","legacy","legacy","legacy","0","incongruent","uniform","1","undefined","1","h","120","0","0","0","120","0","120","0","120","0","0","0","120","120","120","120","Mon Sep 21 18:47:09 2020","600","The main experiment item","yes","Flankertask.osexp","/Users/annielenoir/Desktop","no","mono","no","18","no","white","no","no","768","legacy","40","79","/Users/annielenoir/Desktop/AL-subject-4.csv","legacy","Lentiform Loewenfeld","3.3.3","0","h","NA","h","h","NA","h","426","NA","35110","14222","NA","426","2","legacy","1024","2","48000","-16","experiment","SSHSS","4","even","339323","37024","255842","NA","320377","1744","315538","NA","340528","1906","241618","NA","340777","341205","340381","340777","Flanker task","113","87068","121","yes","1024"
"93.44262295081967","93.44262295081967","717.2786885245902","717.2786885245902","black","legacy","legacy","legacy","0","incongruent","uniform","1","undefined","1","s","121","0","0","0","121","0","121","0","121","0","0","0","121","121","121","121","Mon Sep 21 18:47:09 2020","600","The main experiment item","yes","Flankertask.osexp","/Users/annielenoir/Desktop","no","mono","no","18","no","white","no","no","768","legacy","41","79","/Users/annielenoir/Desktop/AL-subject-4.csv","legacy","Lentiform Loewenfeld","3.3.3","0","s","NA","h","h","NA","s","440","NA","35110","14222","NA","440","2","legacy","1024","2","48000","-16","experiment","HHSHH","4","even","341352","37024","255842","NA","320377","1744","315538","NA","342550","1906","241618","NA","342798","343240","342406","342798","Flanker task","114","87508","122","yes","1024"
