"acc","accuracy","average_response_time","avg_rt","background","canvas_backend","clock_backend","color_backend","compensation","condition","coordinates","correct","correct_InstructionsOne","correct_Keyboard_Response","correct_response","count_BlockOne","count_BlockThree","count_BlockTwo","count_Error_Feedback","count_Faster","count_Finish","count_Fixation","count_ISI","count_InstructionsOne","count_InstructionsThree","count_InstructionsTwo","count_Keyboard_Response","count_Logger","count_Sequence","count_Stimulus","count_experiment","datetime","deadline","description","disable_garbage_collection","experiment_file","experiment_path","font_bold","font_family","font_italic","font_size","font_underline","foreground","form_clicks","fullscreen","height","keyboard_backend","live_row","live_row_BlockOne","logfile","mouse_backend","opensesame_codename","opensesame_version","repeat_cycle","response","response_Finish","response_InstructionsOne","response_InstructionsThree","response_InstructionsTwo","response_Keyboard_Response","response_time","response_time_Finish","response_time_InstructionsOne","response_time_InstructionsThree","response_time_InstructionsTwo","response_time_Keyboard_Response","round_decimals","sampler_backend","sound_buf_size","sound_channels","sound_freq","sound_sample_size","start","stimulus","subject_nr","subject_parity","time_BlockOne","time_BlockThree","time_BlockTwo","time_Error_Feedback","time_Faster","time_Finish","time_Fixation","time_ISI","time_InstructionsOne","time_InstructionsThree","time_InstructionsTwo","time_Keyboard_Response","time_Logger","time_Sequence","time_Stimulus","time_experiment","title","total_correct","total_response_time","total_responses","uniform_coordinates","width"
"100","100","636","636","black","legacy","legacy","legacy","0","Congruent","uniform","1","undefined","1","h","0","0","0","0","0","0","0","0","0","0","0","0","0","0","0","0","Wed Sep 21 12:40:21 2022","1500","The main experiment item","yes","FlankerTask.osexp","C:\Users\Austin\Documents","no","mono","no","18","no","white","no","yes","768","legacy","0","0","C:/Users/Austin/Documents/AH-subject-3.csv","legacy","Lentiform Loewenfeld","3.3.12","0","h","NA","s","NA","NA","h","636","NA","97809","NA","NA","636","2","legacy","1024","2","48000","-16","experiment","HHHHH","3","odd","102950","NA","NA","NA","NA","NA","103115","NA","5139","NA","NA","103224","103861","103110","103223","5129","Flanker Task","1","636","1","yes","1024"
"100","100","562.5","562.5","black","legacy","legacy","legacy","0","Incongruent","uniform","1","undefined","1","s","0","0","0","1","1","0","1","1","0","0","0","1","1","1","1","0","Wed Sep 21 12:40:21 2022","1500","The main experiment item","yes","FlankerTask.osexp","C:\Users\Austin\Documents","no","mono","no","18","no","white","no","yes","768","legacy","1","1","C:/Users/Austin/Documents/AH-subject-3.csv","legacy","Lentiform Loewenfeld","3.3.12","0","s","NA","s","NA","NA","s","489","NA","97809","NA","NA","489","2","legacy","1024","2","48000","-16","experiment","HHSHH","3","odd","102950","NA","NA","NA","NA","NA","105100","103882","5139","NA","NA","105208","105699","105092","105207","5129","Flanker Task","2","1125","2","yes","1024"
"100","100","525","525","black","legacy","legacy","legacy","0","Congruent","uniform","1","undefined","1","s","0","0","0","2","2","0","2","2","0","0","0","2","2","2","2","0","Wed Sep 21 12:40:21 2022","1500","The main experiment item","yes","FlankerTask.osexp","C:\Users\Austin\Documents","no","mono","no","18","no","white","no","yes","768","legacy","2","2","C:/Users/Austin/Documents/AH-subject-3.csv","legacy","Lentiform Loewenfeld","3.3.12","0","s","NA","s","NA","NA","s","450","NA","97809","NA","NA","450","2","legacy","1024","2","48000","-16","experiment","SSSSS","3","odd","102950","NA","NA","NA","NA","NA","106920","105710","5139","NA","NA","107028","107480","106913","107027","5129","Flanker Task","3","1575","3","yes","1024"
"100","100","533.75","533.75","black","legacy","legacy","legacy","0","Congruent","uniform","1","undefined","1","s","0","0","0","3","3","0","3","3","0","0","0","3","3","3","3","0","Wed Sep 21 12:40:21 2022","1500","The main experiment item","yes","FlankerTask.osexp","C:\Users\Austin\Documents","no","mono","no","18","no","white","no","yes","768","legacy","3","3","C:/Users/Austin/Documents/AH-subject-3.csv","legacy","Lentiform Loewenfeld","3.3.12","0","s","NA","s","NA","NA","s","560","NA","97809","NA","NA","560","2","legacy","1024","2","48000","-16","experiment","SSSSS","3","odd","102950","NA","NA","NA","NA","NA","108701","107490","5139","NA","NA","108809","109370","108693","108808","5129","Flanker Task","4","2135","4","yes","1024"
"100","100","506.6","506.6","black","legacy","legacy","legacy","0","Congruent","uniform","1","undefined","1","s","0","0","0","4","4","0","4","4","0","0","0","4","4","4","4","0","Wed Sep 21 12:40:21 2022","1500","The main experiment item","yes","FlankerTask.osexp","C:\Users\Austin\Documents","no","mono","no","18","no","white","no","yes","768","legacy","4","4","C:/Users/Austin/Documents/AH-subject-3.csv","legacy","Lentiform Loewenfeld","3.3.12","0","s","NA","s","NA","NA","s","398","NA","97809","NA","NA","398","2","legacy","1024","2","48000","-16","experiment","SSSSS","3","odd","102950","NA","NA","NA","NA","NA","110592","109381","5139","NA","NA","110701","111100","110585","110701","5129","Flanker Task","5","2533","5","yes","1024"
"83.33333333333333","83.33333333333333","493.1666666666667","493.1666666666667","black","legacy","legacy","legacy","0","Incongruent","uniform","0","undefined","0","h","0","0","0","5","5","0","5","5","0","0","0","5","5","5","5","0","Wed Sep 21 12:40:21 2022","1500","The main experiment item","yes","FlankerTask.osexp","C:\Users\Austin\Documents","no","mono","no","18","no","white","no","yes","768","legacy","5","5","C:/Users/Austin/Documents/AH-subject-3.csv","legacy","Lentiform Loewenfeld","3.3.12","0","s","NA","s","NA","NA","s","426","NA","97809","NA","NA","426","2","legacy","1024","2","48000","-16","experiment","SSHSS","3","odd","102950","NA","NA","NA","NA","NA","112325","111116","5139","NA","NA","112433","112860","112318","112433","5129","Flanker Task","5","2959","6","yes","1024"
"85.71428571428571","85.71428571428571","494.2857142857143","494.2857142857143","black","legacy","legacy","legacy","0","Incongruent","uniform","1","undefined","1","h","0","0","0","6","6","0","6","6","0","0","0","6","6","6","6","0","Wed Sep 21 12:40:21 2022","1500","The main experiment item","yes","FlankerTask.osexp","C:\Users\Austin\Documents","no","mono","no","18","no","white","no","yes","768","legacy","6","6","C:/Users/Austin/Documents/AH-subject-3.csv","legacy","Lentiform Loewenfeld","3.3.12","0","h","NA","s","NA","NA","h","501","NA","97809","NA","NA","501","2","legacy","1024","2","48000","-16","experiment","SSHSS","3","odd","102950","NA","NA","112872","NA","NA","114582","113379","5139","NA","NA","114690","115192","114574","114689","5129","Flanker Task","6","3460","7","yes","1024"
"87.5","87.5","499.875","499.875","black","legacy","legacy","legacy","0","Incongruent","uniform","1","undefined","1","s","0","0","0","7","7","0","7","7","0","0","0","7","7","7","7","0","Wed Sep 21 12:40:21 2022","1500","The main experiment item","yes","FlankerTask.osexp","C:\Users\Austin\Documents","no","mono","no","18","no","white","no","yes","768","legacy","7","7","C:/Users/Austin/Documents/AH-subject-3.csv","legacy","Lentiform Loewenfeld","3.3.12","0","s","NA","s","NA","NA","s","539","NA","97809","NA","NA","539","2","legacy","1024","2","48000","-16","experiment","HHSHH","3","odd","102950","NA","NA","112872","NA","NA","116415","115204","5139","NA","NA","116524","117065","116407","116524","5129","Flanker Task","7","3999","8","yes","1024"
"88.88888888888889","88.88888888888889","493.44444444444446","493.44444444444446","black","legacy","legacy","legacy","0","Congruent","uniform","1","undefined","1","s","0","0","0","8","8","0","8","8","0","0","0","8","8","8","8","0","Wed Sep 21 12:40:21 2022","1500","The main experiment item","yes","FlankerTask.osexp","C:\Users\Austin\Documents","no","mono","no","18","no","white","no","yes","768","legacy","8","8","C:/Users/Austin/Documents/AH-subject-3.csv","legacy","Lentiform Loewenfeld","3.3.12","0","s","NA","s","NA","NA","s","442","NA","97809","NA","NA","442","2","legacy","1024","2","48000","-16","experiment","SSSSS","3","odd","102950","NA","NA","112872","NA","NA","118286","117077","5139","NA","NA","118395","118839","118279","118395","5129","Flanker Task","8","4441","9","yes","1024"
"90","90","479.5","479.5","black","legacy","legacy","legacy","0","Congruent","uniform","1","undefined","1","s","0","0","0","9","9","0","9","9","0","0","0","9","9","9","9","0","Wed Sep 21 12:40:21 2022","1500","The main experiment item","yes","FlankerTask.osexp","C:\Users\Austin\Documents","no","mono","no","18","no","white","no","yes","768","legacy","9","9","C:/Users/Austin/Documents/AH-subject-3.csv","legacy","Lentiform Loewenfeld","3.3.12","0","s","NA","s","NA","NA","s","354","NA","97809","NA","NA","354","2","legacy","1024","2","48000","-16","experiment","SSSSS","3","odd","102950","NA","NA","112872","NA","NA","120054","118850","5139","NA","NA","120162","120517","120046","120162","5129","Flanker Task","9","4795","10","yes","1024"
"90.9090909090909","90.9090909090909","481.45454545454544","481.45454545454544","black","legacy","legacy","legacy","0","Incongruent","uniform","1","undefined","1","s","0","0","0","10","10","0","10","10","0","0","0","10","10","10","10","0","Wed Sep 21 12:40:21 2022","1500","The main experiment item","yes","FlankerTask.osexp","C:\Users\Austin\Documents","no","mono","no","18","no","white","no","yes","768","legacy","10","10","C:/Users/Austin/Documents/AH-subject-3.csv","legacy","Lentiform Loewenfeld","3.3.12","0","s","NA","s","NA","NA","s","501","NA","97809","NA","NA","501","2","legacy","1024","2","48000","-16","experiment","HHSHH","3","odd","102950","NA","NA","112872","NA","NA","121738","120530","5139","NA","NA","121846","122348","121729","121846","5129","Flanker Task","10","5296","11","yes","1024"
"91.66666666666667","91.66666666666667","480.75","480.75","black","legacy","legacy","legacy","0","Incongruent","uniform","1","undefined","1","s","0","0","0","11","11","0","11","11","0","0","0","11","11","11","11","0","Wed Sep 21 12:40:21 2022","1500","The main experiment item","yes","FlankerTask.osexp","C:\Users\Austin\Documents","no","mono","no","18","no","white","no","yes","768","legacy","11","11","C:/Users/Austin/Documents/AH-subject-3.csv","legacy","Lentiform Loewenfeld","3.3.12","0","s","NA","s","NA","NA","s","473","NA","97809","NA","NA","473","2","legacy","1024","2","48000","-16","experiment","HHSHH","3","odd","102950","NA","NA","112872","NA","NA","123573","122360","5139","NA","NA","123681","124156","123566","123681","5129","Flanker Task","11","5769","12","yes","1024"
"92.3076923076923","92.3076923076923","474.53846153846155","474.53846153846155","black","legacy","legacy","legacy","0","Incongruent","uniform","1","undefined","1","s","0","0","0","12","12","0","12","12","0","0","0","12","12","12","12","0","Wed Sep 21 12:40:21 2022","1500","The main experiment item","yes","FlankerTask.osexp","C:\Users\Austin\Documents","no","mono","no","18","no","white","no","yes","768","legacy","12","12","C:/Users/Austin/Documents/AH-subject-3.csv","legacy","Lentiform Loewenfeld","3.3.12","0","s","NA","s","NA","NA","s","400","NA","97809","NA","NA","400","2","legacy","1024","2","48000","-16","experiment","HHSHH","3","odd","102950","NA","NA","112872","NA","NA","125379","124166","5139","NA","NA","125487","125889","125372","125487","5129","Flanker Task","12","6169","13","yes","1024"
"92.85714285714286","92.85714285714286","513.5","513.5","black","legacy","legacy","legacy","0","Incongruent","uniform","1","undefined","1","h","0","0","0","13","13","0","13","13","0","0","0","13","13","13","13","0","Wed Sep 21 12:40:21 2022","1500","The main experiment item","yes","FlankerTask.osexp","C:\Users\Austin\Documents","no","mono","no","18","no","white","no","yes","768","legacy","13","13","C:/Users/Austin/Documents/AH-subject-3.csv","legacy","Lentiform Loewenfeld","3.3.12","0","h","NA","s","NA","NA","h","1020","NA","97809","NA","NA","1020","2","legacy","1024","2","48000","-16","experiment","SSHSS","3","odd","102950","NA","NA","112872","NA","NA","127118","125900","5139","NA","NA","127225","128247","127111","127225","5129","Flanker Task","13","7189","14","yes","1024"
"93.33333333333333","93.33333333333333","512.4","512.4","black","legacy","legacy","legacy","0","Incongruent","uniform","1","undefined","1","s","0","0","0","14","14","0","14","14","0","0","0","14","14","14","14","0","Wed Sep 21 12:40:21 2022","1500","The main experiment item","yes","FlankerTask.osexp","C:\Users\Austin\Documents","no","mono","no","18","no","white","no","yes","768","legacy","14","14","C:/Users/Austin/Documents/AH-subject-3.csv","legacy","Lentiform Loewenfeld","3.3.12","0","s","NA","s","NA","NA","s","497","NA","97809","NA","NA","497","2","legacy","1024","2","48000","-16","experiment","HHSHH","3","odd","102950","NA","NA","112872","NA","NA","129474","128258","5139","NA","NA","129582","130080","129467","129582","5129","Flanker Task","14","7686","15","yes","1024"
"93.75","93.75","510.6875","510.6875","black","legacy","legacy","legacy","0","Congruent","uniform","1","undefined","1","h","0","0","0","15","15","0","15","15","0","0","0","15","15","15","15","0","Wed Sep 21 12:40:21 2022","1500","The main experiment item","yes","FlankerTask.osexp","C:\Users\Austin\Documents","no","mono","no","18","no","white","no","yes","768","legacy","15","15","C:/Users/Austin/Documents/AH-subject-3.csv","legacy","Lentiform Loewenfeld","3.3.12","0","h","NA","s","NA","NA","h","485","NA","97809","NA","NA","485","2","legacy","1024","2","48000","-16","experiment","HHHHH","3","odd","102950","NA","NA","112872","NA","NA","131308","130092","5139","NA","NA","131418","131905","131300","131417","5129","Flanker Task","15","8171","16","yes","1024"
"94.11764705882354","94.11764705882354","519.7058823529412","519.7058823529412","black","legacy","legacy","legacy","0","Congruent","uniform","1","undefined","1","s","0","0","0","16","16","0","16","16","0","0","0","16","16","16","16","0","Wed Sep 21 12:40:21 2022","1500","The main experiment item","yes","FlankerTask.osexp","C:\Users\Austin\Documents","no","mono","no","18","no","white","no","yes","768","legacy","16","16","C:/Users/Austin/Documents/AH-subject-3.csv","legacy","Lentiform Loewenfeld","3.3.12","0","s","NA","s","NA","NA","s","664","NA","97809","NA","NA","664","2","legacy","1024","2","48000","-16","experiment","SSSSS","3","odd","102950","NA","NA","112872","NA","NA","133132","131916","5139","NA","NA","133241","133907","133124","133240","5129","Flanker Task","16","8835","17","yes","1024"
"94.44444444444444","94.44444444444444","526.0555555555555","526.0555555555555","black","legacy","legacy","legacy","0","Congruent","uniform","1","undefined","1","h","0","0","0","17","17","0","17","17","0","0","0","17","17","17","17","0","Wed Sep 21 12:40:21 2022","1500","The main experiment item","yes","FlankerTask.osexp","C:\Users\Austin\Documents","no","mono","no","18","no","white","no","yes","768","legacy","17","17","C:/Users/Austin/Documents/AH-subject-3.csv","legacy","Lentiform Loewenfeld","3.3.12","0","h","NA","s","NA","NA","h","634","NA","97809","NA","NA","634","2","legacy","1024","2","48000","-16","experiment","HHHHH","3","odd","102950","NA","NA","112872","NA","NA","135126","133918","5139","NA","NA","135234","135869","135118","135234","5129","Flanker Task","17","9469","18","yes","1024"
"94.73684210526316","94.73684210526316","551.9473684210526","551.9473684210526","black","legacy","legacy","legacy","0","Incongruent","uniform","1","undefined","1","h","0","0","0","18","18","0","18","18","0","0","0","18","18","18","18","0","Wed Sep 21 12:40:21 2022","1500","The main experiment item","yes","FlankerTask.osexp","C:\Users\Austin\Documents","no","mono","no","18","no","white","no","yes","768","legacy","18","18","C:/Users/Austin/Documents/AH-subject-3.csv","legacy","Lentiform Loewenfeld","3.3.12","0","h","NA","s","NA","NA","h","1018","NA","97809","NA","NA","1018","2","legacy","1024","2","48000","-16","experiment","SSHSS","3","odd","102950","NA","NA","112872","NA","NA","137093","135881","5139","NA","NA","137200","138220","137086","137200","5129","Flanker Task","18","10487","19","yes","1024"
"95","95","551.3","551.3","black","legacy","legacy","legacy","0","Congruent","uniform","1","undefined","1","h","0","0","0","19","19","0","19","19","0","0","0","19","19","19","19","0","Wed Sep 21 12:40:21 2022","1500","The main experiment item","yes","FlankerTask.osexp","C:\Users\Austin\Documents","no","mono","no","18","no","white","no","yes","768","legacy","19","19","C:/Users/Austin/Documents/AH-subject-3.csv","legacy","Lentiform Loewenfeld","3.3.12","0","h","NA","s","NA","NA","h","539","NA","97809","NA","NA","539","2","legacy","1024","2","48000","-16","experiment","HHHHH","3","odd","102950","NA","NA","112872","NA","NA","139441","138231","5139","NA","NA","139548","140089","139434","139548","5129","Flanker Task","19","11026","20","yes","1024"
"95.23809523809524","95.23809523809524","547.6666666666666","547.6666666666666","black","legacy","legacy","legacy","0","Congruent","uniform","1","undefined","1","h","0","0","0","20","20","0","20","20","0","0","0","20","20","20","20","0","Wed Sep 21 12:40:21 2022","1500","The main experiment item","yes","FlankerTask.osexp","C:\Users\Austin\Documents","no","mono","no","18","no","white","no","yes","768","legacy","20","20","C:/Users/Austin/Documents/AH-subject-3.csv","legacy","Lentiform Loewenfeld","3.3.12","0","h","NA","s","NA","NA","h","475","NA","97809","NA","NA","475","2","legacy","1024","2","48000","-16","experiment","HHHHH","3","odd","102950","NA","NA","112872","NA","NA","141304","140100","5139","NA","NA","141411","141887","141297","141411","5129","Flanker Task","20","11501","21","yes","1024"
"90.9090909090909","90.9090909090909","539.2727272727273","539.2727272727273","black","legacy","legacy","legacy","0","Incongruent","uniform","0","undefined","0","h","0","0","0","21","21","0","21","21","0","0","0","21","21","21","21","0","Wed Sep 21 12:40:21 2022","1500","The main experiment item","yes","FlankerTask.osexp","C:\Users\Austin\Documents","no","mono","no","18","no","white","no","yes","768","legacy","21","21","C:/Users/Austin/Documents/AH-subject-3.csv","legacy","Lentiform Loewenfeld","3.3.12","0","s","NA","s","NA","NA","s","363","NA","97809","NA","NA","363","2","legacy","1024","2","48000","-16","experiment","SSHSS","3","odd","102950","NA","NA","112872","NA","NA","143107","141898","5139","NA","NA","143215","143579","143099","143215","5129","Flanker Task","20","11864","22","yes","1024"
"91.30434782608695","91.30434782608695","538.7826086956521","538.7826086956521","black","legacy","legacy","legacy","0","Congruent","uniform","1","undefined","1","s","0","0","0","22","22","0","22","22","0","0","0","22","22","22","22","0","Wed Sep 21 12:40:21 2022","1500","The main experiment item","yes","FlankerTask.osexp","C:\Users\Austin\Documents","no","mono","no","18","no","white","no","yes","768","legacy","22","22","C:/Users/Austin/Documents/AH-subject-3.csv","legacy","Lentiform Loewenfeld","3.3.12","0","s","NA","s","NA","NA","s","528","NA","97809","NA","NA","528","2","legacy","1024","2","48000","-16","experiment","SSSSS","3","odd","102950","NA","NA","143590","NA","NA","145298","144098","5139","NA","NA","145407","145937","145290","145406","5129","Flanker Task","21","12392","23","yes","1024"
"91.66666666666667","91.66666666666667","557.625","557.625","black","legacy","legacy","legacy","0","Incongruent","uniform","1","undefined","1","s","0","0","0","23","23","0","23","23","0","0","0","23","23","23","23","0","Wed Sep 21 12:40:21 2022","1500","The main experiment item","yes","FlankerTask.osexp","C:\Users\Austin\Documents","no","mono","no","18","no","white","no","yes","768","legacy","23","23","C:/Users/Austin/Documents/AH-subject-3.csv","legacy","Lentiform Loewenfeld","3.3.12","0","s","NA","s","NA","NA","s","991","NA","97809","NA","NA","991","2","legacy","1024","2","48000","-16","experiment","HHSHH","3","odd","102950","NA","NA","143590","NA","NA","147156","145948","5139","NA","NA","147264","148256","147149","147264","5129","Flanker Task","22","13383","24","yes","1024"
"92","92","555.48","555.48","black","legacy","legacy","legacy","0","Incongruent","uniform","1","undefined","1","s","0","0","0","24","24","0","24","24","0","0","0","24","24","24","24","0","Wed Sep 21 12:40:21 2022","1500","The main experiment item","yes","FlankerTask.osexp","C:\Users\Austin\Documents","no","mono","no","18","no","white","no","yes","768","legacy","24","24","C:/Users/Austin/Documents/AH-subject-3.csv","legacy","Lentiform Loewenfeld","3.3.12","0","s","NA","s","NA","NA","s","504","NA","97809","NA","NA","504","2","legacy","1024","2","48000","-16","experiment","HHSHH","3","odd","102950","NA","NA","143590","NA","NA","149479","148267","5139","NA","NA","149584","150089","149471","149584","5129","Flanker Task","23","13887","25","yes","1024"
"92.3076923076923","92.3076923076923","555.5769230769231","555.5769230769231","black","legacy","legacy","legacy","0","Congruent","uniform","1","undefined","1","h","0","0","0","25","25","0","25","25","0","0","0","25","25","25","25","0","Wed Sep 21 12:40:21 2022","1500","The main experiment item","yes","FlankerTask.osexp","C:\Users\Austin\Documents","no","mono","no","18","no","white","no","yes","768","legacy","25","25","C:/Users/Austin/Documents/AH-subject-3.csv","legacy","Lentiform Loewenfeld","3.3.12","0","h","NA","s","NA","NA","h","558","NA","97809","NA","NA","558","2","legacy","1024","2","48000","-16","experiment","HHHHH","3","odd","102950","NA","NA","143590","NA","NA","151311","150100","5139","NA","NA","151419","151979","151304","151419","5129","Flanker Task","24","14445","26","yes","1024"
"88.88888888888889","88.88888888888889","551.1851851851852","551.1851851851852","black","legacy","legacy","legacy","0","Incongruent","uniform","0","undefined","0","h","0","0","0","26","26","0","26","26","0","0","0","26","26","26","26","0","Wed Sep 21 12:40:21 2022","1500","The main experiment item","yes","FlankerTask.osexp","C:\Users\Austin\Documents","no","mono","no","18","no","white","no","yes","768","legacy","26","26","C:/Users/Austin/Documents/AH-subject-3.csv","legacy","Lentiform Loewenfeld","3.3.12","0","s","NA","s","NA","NA","s","437","NA","97809","NA","NA","437","2","legacy","1024","2","48000","-16","experiment","SSHSS","3","odd","102950","NA","NA","143590","NA","NA","153208","151990","5139","NA","NA","153316","153755","153200","153316","5129","Flanker Task","24","14882","27","yes","1024"
"89.28571428571429","89.28571428571429","549.5","549.5","black","legacy","legacy","legacy","0","Congruent","uniform","1","undefined","1","h","0","0","0","27","27","0","27","27","0","0","0","27","27","27","27","0","Wed Sep 21 12:40:21 2022","1500","The main experiment item","yes","FlankerTask.osexp","C:\Users\Austin\Documents","no","mono","no","18","no","white","no","yes","768","legacy","27","27","C:/Users/Austin/Documents/AH-subject-3.csv","legacy","Lentiform Loewenfeld","3.3.12","0","h","NA","s","NA","NA","h","504","NA","97809","NA","NA","504","2","legacy","1024","2","48000","-16","experiment","HHHHH","3","odd","102950","NA","NA","153767","NA","NA","155474","154275","5139","NA","NA","155583","156088","155467","155583","5129","Flanker Task","25","15386","28","yes","1024"
"89.65517241379311","89.65517241379311","551.5172413793103","551.5172413793103","black","legacy","legacy","legacy","0","Incongruent","uniform","1","undefined","1","h","0","0","0","28","28","0","28","28","0","0","0","28","28","28","28","0","Wed Sep 21 12:40:21 2022","1500","The main experiment item","yes","FlankerTask.osexp","C:\Users\Austin\Documents","no","mono","no","18","no","white","no","yes","768","legacy","28","28","C:/Users/Austin/Documents/AH-subject-3.csv","legacy","Lentiform Loewenfeld","3.3.12","0","h","NA","s","NA","NA","h","608","NA","97809","NA","NA","608","2","legacy","1024","2","48000","-16","experiment","SSHSS","3","odd","102950","NA","NA","153767","NA","NA","157319","156099","5139","NA","NA","157426","158036","157312","157425","5129","Flanker Task","26","15994","29","yes","1024"
"90","90","551","551","black","legacy","legacy","legacy","0","Incongruent","uniform","1","undefined","1","h","0","0","0","29","29","0","29","29","0","0","0","29","29","29","29","0","Wed Sep 21 12:40:21 2022","1500","The main experiment item","yes","FlankerTask.osexp","C:\Users\Austin\Documents","no","mono","no","18","no","white","no","yes","768","legacy","29","29","C:/Users/Austin/Documents/AH-subject-3.csv","legacy","Lentiform Loewenfeld","3.3.12","0","h","NA","s","NA","NA","h","536","NA","97809","NA","NA","536","2","legacy","1024","2","48000","-16","experiment","SSHSS","3","odd","102950","NA","NA","153767","NA","NA","159255","158047","5139","NA","NA","159363","159901","159247","159362","5129","Flanker Task","27","16530","30","yes","1024"
"87.09677419354838","87.09677419354838","545","545","black","legacy","legacy","legacy","0","Incongruent","uniform","0","undefined","0","h","0","0","0","30","30","0","30","30","0","0","0","30","30","30","30","0","Wed Sep 21 12:40:21 2022","1500","The main experiment item","yes","FlankerTask.osexp","C:\Users\Austin\Documents","no","mono","no","18","no","white","no","yes","768","legacy","30","30","C:/Users/Austin/Documents/AH-subject-3.csv","legacy","Lentiform Loewenfeld","3.3.12","0","s","NA","s","NA","NA","s","365","NA","97809","NA","NA","365","2","legacy","1024","2","48000","-16","experiment","SSHSS","3","odd","102950","NA","NA","153767","NA","NA","161131","159912","5139","NA","NA","161238","161605","161124","161238","5129","Flanker Task","27","16895","31","yes","1024"
"87.5","87.5","543.75","543.75","black","legacy","legacy","legacy","0","Incongruent","uniform","1","undefined","1","h","0","0","0","31","31","0","31","31","0","0","0","31","31","31","31","0","Wed Sep 21 12:40:21 2022","1500","The main experiment item","yes","FlankerTask.osexp","C:\Users\Austin\Documents","no","mono","no","18","no","white","no","yes","768","legacy","31","31","C:/Users/Austin/Documents/AH-subject-3.csv","legacy","Lentiform Loewenfeld","3.3.12","0","h","NA","s","NA","NA","h","505","NA","97809","NA","NA","505","2","legacy","1024","2","48000","-16","experiment","SSHSS","3","odd","102950","NA","NA","161616","NA","NA","163324","162123","5139","NA","NA","163433","163940","163317","163432","5129","Flanker Task","28","17400","32","yes","1024"
"87.87878787878788","87.87878787878788","556.1212121212121","556.1212121212121","black","legacy","legacy","legacy","0","Incongruent","uniform","1","undefined","1","s","0","0","0","32","32","0","32","32","0","0","0","32","32","32","32","0","Wed Sep 21 12:40:21 2022","1500","The main experiment item","yes","FlankerTask.osexp","C:\Users\Austin\Documents","no","mono","no","18","no","white","no","yes","768","legacy","32","32","C:/Users/Austin/Documents/AH-subject-3.csv","legacy","Lentiform Loewenfeld","3.3.12","0","s","NA","s","NA","NA","s","952","NA","97809","NA","NA","952","2","legacy","1024","2","48000","-16","experiment","HHSHH","3","odd","102950","NA","NA","161616","NA","NA","165163","163951","5139","NA","NA","165271","166224","165156","165270","5129","Flanker Task","29","18352","33","yes","1024"
"88.23529411764706","88.23529411764706","554.9705882352941","554.9705882352941","black","legacy","legacy","legacy","0","Congruent","uniform","1","undefined","1","h","0","0","0","33","33","0","33","33","0","0","0","33","33","33","33","0","Wed Sep 21 12:40:21 2022","1500","The main experiment item","yes","FlankerTask.osexp","C:\Users\Austin\Documents","no","mono","no","18","no","white","no","yes","768","legacy","33","33","C:/Users/Austin/Documents/AH-subject-3.csv","legacy","Lentiform Loewenfeld","3.3.12","0","h","NA","s","NA","NA","h","517","NA","97809","NA","NA","517","2","legacy","1024","2","48000","-16","experiment","HHHHH","3","odd","102950","NA","NA","161616","NA","NA","167448","166237","5139","NA","NA","167557","168076","167441","167556","5129","Flanker Task","30","18869","34","yes","1024"
"88.57142857142857","88.57142857142857","551.8","551.8","black","legacy","legacy","legacy","0","Incongruent","uniform","1","undefined","1","h","0","0","0","34","34","0","34","34","0","0","0","34","34","34","34","0","Wed Sep 21 12:40:21 2022","1500","The main experiment item","yes","FlankerTask.osexp","C:\Users\Austin\Documents","no","mono","no","18","no","white","no","yes","768","legacy","34","34","C:/Users/Austin/Documents/AH-subject-3.csv","legacy","Lentiform Loewenfeld","3.3.12","0","h","NA","s","NA","NA","h","444","NA","97809","NA","NA","444","2","legacy","1024","2","48000","-16","experiment","SSHSS","3","odd","102950","NA","NA","161616","NA","NA","169303","168088","5139","NA","NA","169411","169857","169296","169410","5129","Flanker Task","31","19313","35","yes","1024"
"88.88888888888889","88.88888888888889","554.1388888888889","554.1388888888889","black","legacy","legacy","legacy","0","Congruent","uniform","1","undefined","1","h","0","0","0","35","35","0","35","35","0","0","0","35","35","35","35","0","Wed Sep 21 12:40:21 2022","1500","The main experiment item","yes","FlankerTask.osexp","C:\Users\Austin\Documents","no","mono","no","18","no","white","no","yes","768","legacy","35","35","C:/Users/Austin/Documents/AH-subject-3.csv","legacy","Lentiform Loewenfeld","3.3.12","0","h","NA","s","NA","NA","h","636","NA","97809","NA","NA","636","2","legacy","1024","2","48000","-16","experiment","HHHHH","3","odd","102950","NA","NA","161616","NA","NA","171081","169869","5139","NA","NA","171189","171826","171074","171188","5129","Flanker Task","32","19949","36","yes","1024"
"89.1891891891892","89.1891891891892","563","563","black","legacy","legacy","legacy","0","Incongruent","uniform","1","undefined","1","h","0","0","0","36","36","0","36","36","0","0","0","36","36","36","36","0","Wed Sep 21 12:40:21 2022","1500","The main experiment item","yes","FlankerTask.osexp","C:\Users\Austin\Documents","no","mono","no","18","no","white","no","yes","768","legacy","36","36","C:/Users/Austin/Documents/AH-subject-3.csv","legacy","Lentiform Loewenfeld","3.3.12","0","h","NA","s","NA","NA","h","882","NA","97809","NA","NA","882","2","legacy","1024","2","48000","-16","experiment","SSHSS","3","odd","102950","NA","NA","161616","NA","NA","173045","171838","5139","NA","NA","173154","174037","173038","173154","5129","Flanker Task","33","20831","37","yes","1024"
"89.47368421052632","89.47368421052632","561.7368421052631","561.7368421052631","black","legacy","legacy","legacy","0","Congruent","uniform","1","undefined","1","h","0","0","0","37","37","0","37","37","0","0","0","37","37","37","37","0","Wed Sep 21 12:40:21 2022","1500","The main experiment item","yes","FlankerTask.osexp","C:\Users\Austin\Documents","no","mono","no","18","no","white","no","yes","768","legacy","37","37","C:/Users/Austin/Documents/AH-subject-3.csv","legacy","Lentiform Loewenfeld","3.3.12","0","h","NA","s","NA","NA","h","515","NA","97809","NA","NA","515","2","legacy","1024","2","48000","-16","experiment","HHHHH","3","odd","102950","NA","NA","161616","NA","NA","175257","174049","5139","NA","NA","175365","175882","175250","175365","5129","Flanker Task","34","21346","38","yes","1024"
"89.74358974358974","89.74358974358974","564.3076923076923","564.3076923076923","black","legacy","legacy","legacy","0","Congruent","uniform","1","undefined","1","h","0","0","0","38","38","0","38","38","0","0","0","38","38","38","38","0","Wed Sep 21 12:40:21 2022","1500","The main experiment item","yes","FlankerTask.osexp","C:\Users\Austin\Documents","no","mono","no","18","no","white","no","yes","768","legacy","38","38","C:/Users/Austin/Documents/AH-subject-3.csv","legacy","Lentiform Loewenfeld","3.3.12","0","h","NA","s","NA","NA","h","662","NA","97809","NA","NA","662","2","legacy","1024","2","48000","-16","experiment","HHHHH","3","odd","102950","NA","NA","161616","NA","NA","177110","175894","5139","NA","NA","177217","177881","177103","177217","5129","Flanker Task","35","22008","39","yes","1024"
"90","90","560.55","560.55","black","legacy","legacy","legacy","0","Congruent","uniform","1","undefined","1","s","0","0","0","39","39","0","39","39","0","0","0","39","39","39","39","0","Wed Sep 21 12:40:21 2022","1500","The main experiment item","yes","FlankerTask.osexp","C:\Users\Austin\Documents","no","mono","no","18","no","white","no","yes","768","legacy","39","39","C:/Users/Austin/Documents/AH-subject-3.csv","legacy","Lentiform Loewenfeld","3.3.12","0","s","NA","s","NA","NA","s","414","NA","97809","NA","NA","414","2","legacy","1024","2","48000","-16","experiment","SSSSS","3","odd","102950","NA","NA","161616","NA","NA","179098","177891","5139","NA","NA","179206","179622","179091","179205","5129","Flanker Task","36","22422","40","yes","1024"
"90.2439024390244","90.2439024390244","559.9756097560976","559.9756097560976","black","legacy","legacy","legacy","0","Congruent","uniform","1","undefined","1","s","0","0","0","40","40","0","40","40","0","0","0","40","40","40","40","0","Wed Sep 21 12:40:21 2022","1500","The main experiment item","yes","FlankerTask.osexp","C:\Users\Austin\Documents","no","mono","no","18","no","white","no","yes","768","legacy","40","40","C:/Users/Austin/Documents/AH-subject-3.csv","legacy","Lentiform Loewenfeld","3.3.12","0","s","NA","s","NA","NA","s","537","NA","97809","NA","NA","537","2","legacy","1024","2","48000","-16","experiment","SSSSS","3","odd","102950","NA","NA","161616","NA","NA","180844","179632","5139","NA","NA","180952","181491","180836","180951","5129","Flanker Task","37","22959","41","yes","1024"
"90.47619047619048","90.47619047619048","560.4047619047619","560.4047619047619","black","legacy","legacy","legacy","0","Incongruent","uniform","1","undefined","1","s","0","0","0","41","41","0","41","41","0","0","0","41","41","41","41","0","Wed Sep 21 12:40:21 2022","1500","The main experiment item","yes","FlankerTask.osexp","C:\Users\Austin\Documents","no","mono","no","18","no","white","no","yes","768","legacy","41","41","C:/Users/Austin/Documents/AH-subject-3.csv","legacy","Lentiform Loewenfeld","3.3.12","0","s","NA","s","NA","NA","s","578","NA","97809","NA","NA","578","2","legacy","1024","2","48000","-16","experiment","HHSHH","3","odd","102950","NA","NA","161616","NA","NA","182709","181502","5139","NA","NA","182817","183397","182702","182817","5129","Flanker Task","38","23537","42","yes","1024"
"90.69767441860465","90.69767441860465","559.8139534883721","559.8139534883721","black","legacy","legacy","legacy","0","Incongruent","uniform","1","undefined","1","s","0","0","0","42","42","0","42","42","0","0","0","42","42","42","42","0","Wed Sep 21 12:40:21 2022","1500","The main experiment item","yes","FlankerTask.osexp","C:\Users\Austin\Documents","no","mono","no","18","no","white","no","yes","768","legacy","42","42","C:/Users/Austin/Documents/AH-subject-3.csv","legacy","Lentiform Loewenfeld","3.3.12","0","s","NA","s","NA","NA","s","535","NA","97809","NA","NA","535","2","legacy","1024","2","48000","-16","experiment","HHSHH","3","odd","102950","NA","NA","161616","NA","NA","184619","183410","5139","NA","NA","184727","185264","184613","184727","5129","Flanker Task","39","24072","43","yes","1024"
"90.9090909090909","90.9090909090909","556.5227272727273","556.5227272727273","black","legacy","legacy","legacy","0","Incongruent","uniform","1","undefined","1","s","0","0","0","43","43","0","43","43","0","0","0","43","43","43","43","0","Wed Sep 21 12:40:21 2022","1500","The main experiment item","yes","FlankerTask.osexp","C:\Users\Austin\Documents","no","mono","no","18","no","white","no","yes","768","legacy","43","43","C:/Users/Austin/Documents/AH-subject-3.csv","legacy","Lentiform Loewenfeld","3.3.12","0","s","NA","s","NA","NA","s","415","NA","97809","NA","NA","415","2","legacy","1024","2","48000","-16","experiment","HHSHH","3","odd","102950","NA","NA","161616","NA","NA","186487","185275","5139","NA","NA","186595","187011","186480","186594","5129","Flanker Task","40","24487","44","yes","1024"
"91.11111111111111","91.11111111111111","553.4","553.4","black","legacy","legacy","legacy","0","Congruent","uniform","1","undefined","1","s","0","0","0","44","44","0","44","44","0","0","0","44","44","44","44","0","Wed Sep 21 12:40:21 2022","1500","The main experiment item","yes","FlankerTask.osexp","C:\Users\Austin\Documents","no","mono","no","18","no","white","no","yes","768","legacy","44","44","C:/Users/Austin/Documents/AH-subject-3.csv","legacy","Lentiform Loewenfeld","3.3.12","0","s","NA","s","NA","NA","s","416","NA","97809","NA","NA","416","2","legacy","1024","2","48000","-16","experiment","SSSSS","3","odd","102950","NA","NA","161616","NA","NA","188228","187022","5139","NA","NA","188337","188755","188221","188337","5129","Flanker Task","41","24903","45","yes","1024"
"91.30434782608695","91.30434782608695","554.1086956521739","554.1086956521739","black","legacy","legacy","legacy","0","Incongruent","uniform","1","undefined","1","s","0","0","0","45","45","0","45","45","0","0","0","45","45","45","45","0","Wed Sep 21 12:40:21 2022","1500","The main experiment item","yes","FlankerTask.osexp","C:\Users\Austin\Documents","no","mono","no","18","no","white","no","yes","768","legacy","45","45","C:/Users/Austin/Documents/AH-subject-3.csv","legacy","Lentiform Loewenfeld","3.3.12","0","s","NA","s","NA","NA","s","586","NA","97809","NA","NA","586","2","legacy","1024","2","48000","-16","experiment","HHSHH","3","odd","102950","NA","NA","161616","NA","NA","189976","188767","5139","NA","NA","190084","190672","189969","190083","5129","Flanker Task","42","25489","46","yes","1024"
"91.48936170212765","91.48936170212765","551.9787234042553","551.9787234042553","black","legacy","legacy","legacy","0","Congruent","uniform","1","undefined","1","s","0","0","0","46","46","0","46","46","0","0","0","46","46","46","46","0","Wed Sep 21 12:40:21 2022","1500","The main experiment item","yes","FlankerTask.osexp","C:\Users\Austin\Documents","no","mono","no","18","no","white","no","yes","768","legacy","46","46","C:/Users/Austin/Documents/AH-subject-3.csv","legacy","Lentiform Loewenfeld","3.3.12","0","s","NA","s","NA","NA","s","454","NA","97809","NA","NA","454","2","legacy","1024","2","48000","-16","experiment","SSSSS","3","odd","102950","NA","NA","161616","NA","NA","191893","190684","5139","NA","NA","191999","192455","191886","191998","5129","Flanker Task","43","25943","47","yes","1024"
"91.66666666666667","91.66666666666667","550.4583333333334","550.4583333333334","black","legacy","legacy","legacy","0","Congruent","uniform","1","undefined","1","s","0","0","0","47","47","0","47","47","0","0","0","47","47","47","47","0","Wed Sep 21 12:40:21 2022","1500","The main experiment item","yes","FlankerTask.osexp","C:\Users\Austin\Documents","no","mono","no","18","no","white","no","yes","768","legacy","47","47","C:/Users/Austin/Documents/AH-subject-3.csv","legacy","Lentiform Loewenfeld","3.3.12","0","s","NA","s","NA","NA","s","479","NA","97809","NA","NA","479","2","legacy","1024","2","48000","-16","experiment","SSSSS","3","odd","102950","NA","NA","161616","NA","NA","193686","192466","5139","NA","NA","193794","194275","193678","193794","5129","Flanker Task","44","26422","48","yes","1024"
"91.83673469387755","91.83673469387755","547.8979591836735","547.8979591836735","black","legacy","legacy","legacy","0","Congruent","uniform","1","undefined","1","s","0","0","0","48","48","0","48","48","0","0","0","48","48","48","48","0","Wed Sep 21 12:40:21 2022","1500","The main experiment item","yes","FlankerTask.osexp","C:\Users\Austin\Documents","no","mono","no","18","no","white","no","yes","768","legacy","48","48","C:/Users/Austin/Documents/AH-subject-3.csv","legacy","Lentiform Loewenfeld","3.3.12","0","s","NA","s","NA","NA","s","425","NA","97809","NA","NA","425","2","legacy","1024","2","48000","-16","experiment","SSSSS","3","odd","102950","NA","NA","161616","NA","NA","195498","194287","5139","NA","NA","195606","196033","195490","195606","5129","Flanker Task","45","26847","49","yes","1024"
"90","90","544.58","544.58","black","legacy","legacy","legacy","0","Incongruent","uniform","0","undefined","0","h","0","0","0","49","49","0","49","49","0","0","0","49","49","49","49","0","Wed Sep 21 12:40:21 2022","1500","The main experiment item","yes","FlankerTask.osexp","C:\Users\Austin\Documents","no","mono","no","18","no","white","no","yes","768","legacy","49","49","C:/Users/Austin/Documents/AH-subject-3.csv","legacy","Lentiform Loewenfeld","3.3.12","0","s","NA","s","NA","NA","s","382","NA","97809","NA","NA","382","2","legacy","1024","2","48000","-16","experiment","SSHSS","3","odd","102950","NA","NA","161616","NA","NA","197251","196043","5139","NA","NA","197359","197743","197243","197359","5129","Flanker Task","45","27229","50","yes","1024"
"90.19607843137256","90.19607843137256","544.2549019607843","544.2549019607843","black","legacy","legacy","legacy","0","Congruent","uniform","1","undefined","1","s","0","0","0","50","50","0","50","50","0","0","0","50","50","50","50","0","Wed Sep 21 12:40:21 2022","1500","The main experiment item","yes","FlankerTask.osexp","C:\Users\Austin\Documents","no","mono","no","18","no","white","no","yes","768","legacy","50","50","C:/Users/Austin/Documents/AH-subject-3.csv","legacy","Lentiform Loewenfeld","3.3.12","0","s","NA","s","NA","NA","s","528","NA","97809","NA","NA","528","2","legacy","1024","2","48000","-16","experiment","SSSSS","3","odd","102950","NA","NA","197754","NA","NA","199463","198262","5139","NA","NA","199570","200100","199455","199570","5129","Flanker Task","46","27757","51","yes","1024"
"90.38461538461539","90.38461538461539","551.6730769230769","551.6730769230769","black","legacy","legacy","legacy","0","Congruent","uniform","1","undefined","1","h","0","0","0","51","51","0","51","51","0","0","0","51","51","51","51","0","Wed Sep 21 12:40:21 2022","1500","The main experiment item","yes","FlankerTask.osexp","C:\Users\Austin\Documents","no","mono","no","18","no","white","no","yes","768","legacy","51","51","C:/Users/Austin/Documents/AH-subject-3.csv","legacy","Lentiform Loewenfeld","3.3.12","0","h","NA","s","NA","NA","h","930","NA","97809","NA","NA","930","2","legacy","1024","2","48000","-16","experiment","HHHHH","3","odd","102950","NA","NA","197754","NA","NA","201319","200112","5139","NA","NA","201427","202359","201312","201426","5129","Flanker Task","47","28687","52","yes","1024"
"90.56603773584905","90.56603773584905","549.622641509434","549.622641509434","black","legacy","legacy","legacy","0","Incongruent","uniform","1","undefined","1","s","0","0","0","52","52","0","52","52","0","0","0","52","52","52","52","0","Wed Sep 21 12:40:21 2022","1500","The main experiment item","yes","FlankerTask.osexp","C:\Users\Austin\Documents","no","mono","no","18","no","white","no","yes","768","legacy","52","52","C:/Users/Austin/Documents/AH-subject-3.csv","legacy","Lentiform Loewenfeld","3.3.12","0","s","NA","s","NA","NA","s","443","NA","97809","NA","NA","443","2","legacy","1024","2","48000","-16","experiment","HHSHH","3","odd","102950","NA","NA","197754","NA","NA","203582","202372","5139","NA","NA","203689","204134","203574","203689","5129","Flanker Task","48","29130","53","yes","1024"
"90.74074074074075","90.74074074074075","546.3703703703703","546.3703703703703","black","legacy","legacy","legacy","0","Congruent","uniform","1","undefined","1","s","0","0","0","53","53","0","53","53","0","0","0","53","53","53","53","0","Wed Sep 21 12:40:21 2022","1500","The main experiment item","yes","FlankerTask.osexp","C:\Users\Austin\Documents","no","mono","no","18","no","white","no","yes","768","legacy","53","53","C:/Users/Austin/Documents/AH-subject-3.csv","legacy","Lentiform Loewenfeld","3.3.12","0","s","NA","s","NA","NA","s","374","NA","97809","NA","NA","374","2","legacy","1024","2","48000","-16","experiment","SSSSS","3","odd","102950","NA","NA","197754","NA","NA","205347","204146","5139","NA","NA","205456","205832","205340","205455","5129","Flanker Task","49","29504","54","yes","1024"
"90.9090909090909","90.9090909090909","543.1636363636363","543.1636363636363","black","legacy","legacy","legacy","0","Congruent","uniform","1","undefined","1","s","0","0","0","54","54","0","54","54","0","0","0","54","54","54","54","0","Wed Sep 21 12:40:21 2022","1500","The main experiment item","yes","FlankerTask.osexp","C:\Users\Austin\Documents","no","mono","no","18","no","white","no","yes","768","legacy","54","54","C:/Users/Austin/Documents/AH-subject-3.csv","legacy","Lentiform Loewenfeld","3.3.12","0","s","NA","s","NA","NA","s","370","NA","97809","NA","NA","370","2","legacy","1024","2","48000","-16","experiment","SSSSS","3","odd","102950","NA","NA","197754","NA","NA","207051","205844","5139","NA","NA","207158","207530","207044","207158","5129","Flanker Task","50","29874","55","yes","1024"
"91.07142857142857","91.07142857142857","547.7678571428571","547.7678571428571","black","legacy","legacy","legacy","0","Congruent","uniform","1","undefined","1","s","0","0","0","55","55","0","55","55","0","0","0","55","55","55","55","0","Wed Sep 21 12:40:21 2022","1500","The main experiment item","yes","FlankerTask.osexp","C:\Users\Austin\Documents","no","mono","no","18","no","white","no","yes","768","legacy","55","55","C:/Users/Austin/Documents/AH-subject-3.csv","legacy","Lentiform Loewenfeld","3.3.12","0","s","NA","s","NA","NA","s","801","NA","97809","NA","NA","801","2","legacy","1024","2","48000","-16","experiment","SSSSS","3","odd","102950","NA","NA","197754","NA","NA","208746","207542","5139","NA","NA","208855","209658","208739","208855","5129","Flanker Task","51","30675","56","yes","1024"
"91.2280701754386","91.2280701754386","555.0350877192982","555.0350877192982","black","legacy","legacy","legacy","0","Congruent","uniform","1","undefined","1","s","0","0","0","56","56","0","56","56","0","0","0","56","56","56","56","0","Wed Sep 21 12:40:21 2022","1500","The main experiment item","yes","FlankerTask.osexp","C:\Users\Austin\Documents","no","mono","no","18","no","white","no","yes","768","legacy","56","56","C:/Users/Austin/Documents/AH-subject-3.csv","legacy","Lentiform Loewenfeld","3.3.12","0","s","NA","s","NA","NA","s","962","NA","97809","NA","NA","962","2","legacy","1024","2","48000","-16","experiment","SSSSS","3","odd","102950","NA","NA","197754","NA","NA","210876","209669","5139","NA","NA","210983","211947","210869","210983","5129","Flanker Task","52","31637","57","yes","1024"
"91.37931034482759","91.37931034482759","554.8275862068965","554.8275862068965","black","legacy","legacy","legacy","0","Incongruent","uniform","1","undefined","1","h","0","0","0","57","57","0","57","57","0","0","0","57","57","57","57","0","Wed Sep 21 12:40:21 2022","1500","The main experiment item","yes","FlankerTask.osexp","C:\Users\Austin\Documents","no","mono","no","18","no","white","no","yes","768","legacy","57","57","C:/Users/Austin/Documents/AH-subject-3.csv","legacy","Lentiform Loewenfeld","3.3.12","0","h","NA","s","NA","NA","h","543","NA","97809","NA","NA","543","2","legacy","1024","2","48000","-16","experiment","SSHSS","3","odd","102950","NA","NA","197754","NA","NA","213179","211959","5139","NA","NA","213285","213830","213171","213285","5129","Flanker Task","53","32180","58","yes","1024"
"91.52542372881356","91.52542372881356","555.1186440677966","555.1186440677966","black","legacy","legacy","legacy","0","Incongruent","uniform","1","undefined","1","h","0","0","0","58","58","0","58","58","0","0","0","58","58","58","58","0","Wed Sep 21 12:40:21 2022","1500","The main experiment item","yes","FlankerTask.osexp","C:\Users\Austin\Documents","no","mono","no","18","no","white","no","yes","768","legacy","58","58","C:/Users/Austin/Documents/AH-subject-3.csv","legacy","Lentiform Loewenfeld","3.3.12","0","h","NA","s","NA","NA","h","572","NA","97809","NA","NA","572","2","legacy","1024","2","48000","-16","experiment","SSHSS","3","odd","102950","NA","NA","197754","NA","NA","215049","213841","5139","NA","NA","215154","215728","215040","215154","5129","Flanker Task","54","32752","59","yes","1024"
"91.66666666666667","91.66666666666667","557.4","557.4","black","legacy","legacy","legacy","0","Incongruent","uniform","1","undefined","1","h","0","0","0","59","59","0","59","59","0","0","0","59","59","59","59","0","Wed Sep 21 12:40:21 2022","1500","The main experiment item","yes","FlankerTask.osexp","C:\Users\Austin\Documents","no","mono","no","18","no","white","no","yes","768","legacy","59","59","C:/Users/Austin/Documents/AH-subject-3.csv","legacy","Lentiform Loewenfeld","3.3.12","0","h","NA","s","NA","NA","h","692","NA","97809","NA","NA","692","2","legacy","1024","2","48000","-16","experiment","SSHSS","3","odd","102950","NA","NA","197754","NA","NA","216948","215739","5139","NA","NA","217057","217752","216941","217056","5129","Flanker Task","55","33444","60","yes","1024"
"91.80327868852459","91.80327868852459","558.7049180327868","558.7049180327868","black","legacy","legacy","legacy","0","Congruent","uniform","1","undefined","1","h","0","0","0","60","60","0","60","60","0","0","0","60","60","60","60","0","Wed Sep 21 12:40:21 2022","1500","The main experiment item","yes","FlankerTask.osexp","C:\Users\Austin\Documents","no","mono","no","18","no","white","no","yes","768","legacy","60","60","C:/Users/Austin/Documents/AH-subject-3.csv","legacy","Lentiform Loewenfeld","3.3.12","0","h","NA","s","NA","NA","h","637","NA","97809","NA","NA","637","2","legacy","1024","2","48000","-16","experiment","HHHHH","3","odd","102950","NA","NA","197754","NA","NA","218969","217763","5139","NA","NA","219078","219717","218962","219077","5129","Flanker Task","56","34081","61","yes","1024"
"91.93548387096774","91.93548387096774","557.1612903225806","557.1612903225806","black","legacy","legacy","legacy","0","Congruent","uniform","1","undefined","1","s","0","0","0","61","61","0","61","61","0","0","0","61","61","61","61","0","Wed Sep 21 12:40:21 2022","1500","The main experiment item","yes","FlankerTask.osexp","C:\Users\Austin\Documents","no","mono","no","18","no","white","no","yes","768","legacy","61","61","C:/Users/Austin/Documents/AH-subject-3.csv","legacy","Lentiform Loewenfeld","3.3.12","0","s","NA","s","NA","NA","s","463","NA","97809","NA","NA","463","2","legacy","1024","2","48000","-16","experiment","SSSSS","3","odd","102950","NA","NA","197754","NA","NA","220938","219727","5139","NA","NA","221045","221510","220931","221045","5129","Flanker Task","57","34544","62","yes","1024"
"92.06349206349206","92.06349206349206","557.047619047619","557.047619047619","black","legacy","legacy","legacy","0","Congruent","uniform","1","undefined","1","h","0","0","0","62","62","0","62","62","0","0","0","62","62","62","62","0","Wed Sep 21 12:40:21 2022","1500","The main experiment item","yes","FlankerTask.osexp","C:\Users\Austin\Documents","no","mono","no","18","no","white","no","yes","768","legacy","62","62","C:/Users/Austin/Documents/AH-subject-3.csv","legacy","Lentiform Loewenfeld","3.3.12","0","h","NA","s","NA","NA","h","550","NA","97809","NA","NA","550","2","legacy","1024","2","48000","-16","experiment","HHHHH","3","odd","102950","NA","NA","197754","NA","NA","222728","221521","5139","NA","NA","222835","223387","222721","222835","5129","Flanker Task","58","35094","63","yes","1024"
"92.1875","92.1875","557.0625","557.0625","black","legacy","legacy","legacy","0","Congruent","uniform","1","undefined","1","h","0","0","0","63","63","0","63","63","0","0","0","63","63","63","63","0","Wed Sep 21 12:40:21 2022","1500","The main experiment item","yes","FlankerTask.osexp","C:\Users\Austin\Documents","no","mono","no","18","no","white","no","yes","768","legacy","63","63","C:/Users/Austin/Documents/AH-subject-3.csv","legacy","Lentiform Loewenfeld","3.3.12","0","h","NA","s","NA","NA","h","558","NA","97809","NA","NA","558","2","legacy","1024","2","48000","-16","experiment","HHHHH","3","odd","102950","NA","NA","197754","NA","NA","224609","223398","5139","NA","NA","224717","225277","224602","224717","5129","Flanker Task","59","35652","64","yes","1024"
"92.3076923076923","92.3076923076923","557.0153846153846","557.0153846153846","black","legacy","legacy","legacy","0","Incongruent","uniform","1","undefined","1","h","0","0","0","64","64","0","64","64","0","0","0","64","64","64","64","0","Wed Sep 21 12:40:21 2022","1500","The main experiment item","yes","FlankerTask.osexp","C:\Users\Austin\Documents","no","mono","no","18","no","white","no","yes","768","legacy","64","64","C:/Users/Austin/Documents/AH-subject-3.csv","legacy","Lentiform Loewenfeld","3.3.12","0","h","NA","s","NA","NA","h","554","NA","97809","NA","NA","554","2","legacy","1024","2","48000","-16","experiment","SSHSS","3","odd","102950","NA","NA","197754","NA","NA","226499","225288","5139","NA","NA","226607","227163","226492","226607","5129","Flanker Task","60","36206","65","yes","1024"
"92.42424242424242","92.42424242424242","557.6060606060606","557.6060606060606","black","legacy","legacy","legacy","0","Incongruent","uniform","1","undefined","1","h","0","0","0","65","65","0","65","65","0","0","0","65","65","65","65","0","Wed Sep 21 12:40:21 2022","1500","The main experiment item","yes","FlankerTask.osexp","C:\Users\Austin\Documents","no","mono","no","18","no","white","no","yes","768","legacy","65","65","C:/Users/Austin/Documents/AH-subject-3.csv","legacy","Lentiform Loewenfeld","3.3.12","0","h","NA","s","NA","NA","h","596","NA","97809","NA","NA","596","2","legacy","1024","2","48000","-16","experiment","SSHSS","3","odd","102950","NA","NA","197754","NA","NA","228386","227175","5139","NA","NA","228494","229092","228379","228493","5129","Flanker Task","61","36802","66","yes","1024"
"92.53731343283582","92.53731343283582","556.4328358208955","556.4328358208955","black","legacy","legacy","legacy","0","Incongruent","uniform","1","undefined","1","s","0","0","0","66","66","0","66","66","0","0","0","66","66","66","66","0","Wed Sep 21 12:40:21 2022","1500","The main experiment item","yes","FlankerTask.osexp","C:\Users\Austin\Documents","no","mono","no","18","no","white","no","yes","768","legacy","66","66","C:/Users/Austin/Documents/AH-subject-3.csv","legacy","Lentiform Loewenfeld","3.3.12","0","s","NA","s","NA","NA","s","479","NA","97809","NA","NA","479","2","legacy","1024","2","48000","-16","experiment","HHSHH","3","odd","102950","NA","NA","197754","NA","NA","230313","229103","5139","NA","NA","230420","230901","230306","230420","5129","Flanker Task","62","37281","67","yes","1024"
"92.6470588235294","92.6470588235294","554.5","554.5","black","legacy","legacy","legacy","0","Congruent","uniform","1","undefined","1","h","0","0","0","67","67","0","67","67","0","0","0","67","67","67","67","0","Wed Sep 21 12:40:21 2022","1500","The main experiment item","yes","FlankerTask.osexp","C:\Users\Austin\Documents","no","mono","no","18","no","white","no","yes","768","legacy","67","67","C:/Users/Austin/Documents/AH-subject-3.csv","legacy","Lentiform Loewenfeld","3.3.12","0","h","NA","s","NA","NA","h","425","NA","97809","NA","NA","425","2","legacy","1024","2","48000","-16","experiment","HHHHH","3","odd","102950","NA","NA","197754","NA","NA","232123","230912","5139","NA","NA","232231","232658","232115","232231","5129","Flanker Task","63","37706","68","yes","1024"
"92.7536231884058","92.7536231884058","552.6086956521739","552.6086956521739","black","legacy","legacy","legacy","0","Congruent","uniform","1","undefined","1","h","0","0","0","68","68","0","68","68","0","0","0","68","68","68","68","0","Wed Sep 21 12:40:21 2022","1500","The main experiment item","yes","FlankerTask.osexp","C:\Users\Austin\Documents","no","mono","no","18","no","white","no","yes","768","legacy","68","68","C:/Users/Austin/Documents/AH-subject-3.csv","legacy","Lentiform Loewenfeld","3.3.12","0","h","NA","s","NA","NA","h","424","NA","97809","NA","NA","424","2","legacy","1024","2","48000","-16","experiment","HHHHH","3","odd","102950","NA","NA","197754","NA","NA","233877","232670","5139","NA","NA","233982","234408","233870","233982","5129","Flanker Task","64","38130","69","yes","1024"
"92.85714285714286","92.85714285714286","554.2","554.2","black","legacy","legacy","legacy","0","Incongruent","uniform","1","undefined","1","s","0","0","0","69","69","0","69","69","0","0","0","69","69","69","69","0","Wed Sep 21 12:40:21 2022","1500","The main experiment item","yes","FlankerTask.osexp","C:\Users\Austin\Documents","no","mono","no","18","no","white","no","yes","768","legacy","69","69","C:/Users/Austin/Documents/AH-subject-3.csv","legacy","Lentiform Loewenfeld","3.3.12","0","s","NA","s","NA","NA","s","664","NA","97809","NA","NA","664","2","legacy","1024","2","48000","-16","experiment","HHSHH","3","odd","102950","NA","NA","197754","NA","NA","235637","234419","5139","NA","NA","235745","236411","235629","235744","5129","Flanker Task","65","38794","70","yes","1024"
"92.95774647887323","92.95774647887323","556.4225352112676","556.4225352112676","black","legacy","legacy","legacy","0","Incongruent","uniform","1","undefined","1","s","0","0","0","70","70","0","70","70","0","0","0","70","70","70","70","0","Wed Sep 21 12:40:21 2022","1500","The main experiment item","yes","FlankerTask.osexp","C:\Users\Austin\Documents","no","mono","no","18","no","white","no","yes","768","legacy","70","70","C:/Users/Austin/Documents/AH-subject-3.csv","legacy","Lentiform Loewenfeld","3.3.12","0","s","NA","s","NA","NA","s","712","NA","97809","NA","NA","712","2","legacy","1024","2","48000","-16","experiment","HHSHH","3","odd","102950","NA","NA","197754","NA","NA","237630","236423","5139","NA","NA","237738","238454","237623","237738","5129","Flanker Task","66","39506","71","yes","1024"
"93.05555555555556","93.05555555555556","556.2361111111111","556.2361111111111","black","legacy","legacy","legacy","0","Incongruent","uniform","1","undefined","1","s","0","0","0","71","71","0","71","71","0","0","0","71","71","71","71","0","Wed Sep 21 12:40:21 2022","1500","The main experiment item","yes","FlankerTask.osexp","C:\Users\Austin\Documents","no","mono","no","18","no","white","no","yes","768","legacy","71","71","C:/Users/Austin/Documents/AH-subject-3.csv","legacy","Lentiform Loewenfeld","3.3.12","0","s","NA","s","NA","NA","s","543","NA","97809","NA","NA","543","2","legacy","1024","2","48000","-16","experiment","HHSHH","3","odd","102950","NA","NA","197754","NA","NA","239680","238465","5139","NA","NA","239788","240334","239672","239787","5129","Flanker Task","67","40049","72","yes","1024"
"93.15068493150685","93.15068493150685","560.2876712328767","560.2876712328767","black","legacy","legacy","legacy","0","Congruent","uniform","1","undefined","1","h","0","0","0","72","72","0","72","72","0","0","0","72","72","72","72","0","Wed Sep 21 12:40:21 2022","1500","The main experiment item","yes","FlankerTask.osexp","C:\Users\Austin\Documents","no","mono","no","18","no","white","no","yes","768","legacy","72","72","C:/Users/Austin/Documents/AH-subject-3.csv","legacy","Lentiform Loewenfeld","3.3.12","0","h","NA","s","NA","NA","h","852","NA","97809","NA","NA","852","2","legacy","1024","2","48000","-16","experiment","HHHHH","3","odd","102950","NA","NA","197754","NA","NA","241559","240346","5139","NA","NA","241665","242519","241551","241664","5129","Flanker Task","68","40901","73","yes","1024"
"93.24324324324324","93.24324324324324","567.2297297297297","567.2297297297297","black","legacy","legacy","legacy","0","Congruent","uniform","1","undefined","1","h","0","0","0","73","73","0","73","73","0","0","0","73","73","73","73","0","Wed Sep 21 12:40:21 2022","1500","The main experiment item","yes","FlankerTask.osexp","C:\Users\Austin\Documents","no","mono","no","18","no","white","no","yes","768","legacy","73","73","C:/Users/Austin/Documents/AH-subject-3.csv","legacy","Lentiform Loewenfeld","3.3.12","0","h","NA","s","NA","NA","h","1074","NA","97809","NA","NA","1074","2","legacy","1024","2","48000","-16","experiment","HHHHH","3","odd","102950","NA","NA","197754","NA","NA","243742","242530","5139","NA","NA","243850","244926","243734","243850","5129","Flanker Task","69","41975","74","yes","1024"
"93.33333333333333","93.33333333333333","565.76","565.76","black","legacy","legacy","legacy","0","Congruent","uniform","1","undefined","1","s","0","0","0","74","74","0","74","74","0","0","0","74","74","74","74","0","Wed Sep 21 12:40:21 2022","1500","The main experiment item","yes","FlankerTask.osexp","C:\Users\Austin\Documents","no","mono","no","18","no","white","no","yes","768","legacy","74","74","C:/Users/Austin/Documents/AH-subject-3.csv","legacy","Lentiform Loewenfeld","3.3.12","0","s","NA","s","NA","NA","s","457","NA","97809","NA","NA","457","2","legacy","1024","2","48000","-16","experiment","SSSSS","3","odd","102950","NA","NA","197754","NA","NA","246144","244938","5139","NA","NA","246252","246711","246136","246251","5129","Flanker Task","70","42432","75","yes","1024"
"93.42105263157895","93.42105263157895","563.8026315789474","563.8026315789474","black","legacy","legacy","legacy","0","Incongruent","uniform","1","undefined","1","s","0","0","0","75","75","0","75","75","0","0","0","75","75","75","75","0","Wed Sep 21 12:40:21 2022","1500","The main experiment item","yes","FlankerTask.osexp","C:\Users\Austin\Documents","no","mono","no","18","no","white","no","yes","768","legacy","75","75","C:/Users/Austin/Documents/AH-subject-3.csv","legacy","Lentiform Loewenfeld","3.3.12","0","s","NA","s","NA","NA","s","417","NA","97809","NA","NA","417","2","legacy","1024","2","48000","-16","experiment","HHSHH","3","odd","102950","NA","NA","197754","NA","NA","247930","246722","5139","NA","NA","248038","248458","247922","248037","5129","Flanker Task","71","42849","76","yes","1024"
"93.50649350649351","93.50649350649351","563.1558441558442","563.1558441558442","black","legacy","legacy","legacy","0","Incongruent","uniform","1","undefined","1","h","0","0","0","76","76","0","76","76","0","0","0","76","76","76","76","0","Wed Sep 21 12:40:21 2022","1500","The main experiment item","yes","FlankerTask.osexp","C:\Users\Austin\Documents","no","mono","no","18","no","white","no","yes","768","legacy","76","76","C:/Users/Austin/Documents/AH-subject-3.csv","legacy","Lentiform Loewenfeld","3.3.12","0","h","NA","s","NA","NA","h","514","NA","97809","NA","NA","514","2","legacy","1024","2","48000","-16","experiment","SSHSS","3","odd","102950","NA","NA","197754","NA","NA","249683","248469","5139","NA","NA","249791","250308","249675","249791","5129","Flanker Task","72","43363","77","yes","1024"
"93.58974358974359","93.58974358974359","562.2820512820513","562.2820512820513","black","legacy","legacy","legacy","0","Incongruent","uniform","1","undefined","1","h","0","0","0","77","77","0","77","77","0","0","0","77","77","77","77","0","Wed Sep 21 12:40:21 2022","1500","The main experiment item","yes","FlankerTask.osexp","C:\Users\Austin\Documents","no","mono","no","18","no","white","no","yes","768","legacy","77","77","C:/Users/Austin/Documents/AH-subject-3.csv","legacy","Lentiform Loewenfeld","3.3.12","0","h","NA","s","NA","NA","h","495","NA","97809","NA","NA","495","2","legacy","1024","2","48000","-16","experiment","SSHSS","3","odd","102950","NA","NA","197754","NA","NA","251530","250318","5139","NA","NA","251637","252134","251523","251637","5129","Flanker Task","73","43858","78","yes","1024"
"93.67088607594937","93.67088607594937","560.5569620253165","560.5569620253165","black","legacy","legacy","legacy","0","Congruent","uniform","1","undefined","1","h","0","0","0","78","78","0","78","78","0","0","0","78","78","78","78","0","Wed Sep 21 12:40:21 2022","1500","The main experiment item","yes","FlankerTask.osexp","C:\Users\Austin\Documents","no","mono","no","18","no","white","no","yes","768","legacy","78","78","C:/Users/Austin/Documents/AH-subject-3.csv","legacy","Lentiform Loewenfeld","3.3.12","0","h","NA","s","NA","NA","h","426","NA","97809","NA","NA","426","2","legacy","1024","2","48000","-16","experiment","HHHHH","3","odd","102950","NA","NA","197754","NA","NA","253348","252145","5139","NA","NA","253457","253886","253341","253457","5129","Flanker Task","74","44284","79","yes","1024"
"93.75","93.75","559.3","559.3","black","legacy","legacy","legacy","0","Incongruent","uniform","1","undefined","1","s","0","0","0","79","79","0","79","79","0","0","0","79","79","79","79","0","Wed Sep 21 12:40:21 2022","1500","The main experiment item","yes","FlankerTask.osexp","C:\Users\Austin\Documents","no","mono","no","18","no","white","no","yes","768","legacy","79","79","C:/Users/Austin/Documents/AH-subject-3.csv","legacy","Lentiform Loewenfeld","3.3.12","0","s","NA","s","NA","NA","s","460","NA","97809","NA","NA","460","2","legacy","1024","2","48000","-16","experiment","HHSHH","3","odd","102950","NA","NA","197754","NA","NA","255109","253897","5139","NA","NA","255215","255677","255102","255215","5129","Flanker Task","75","44744","80","yes","1024"
"92.5925925925926","92.5925925925926","558.8765432098766","558.8765432098766","black","legacy","legacy","legacy","0","Incongruent","uniform","0","undefined","0","s","0","0","0","80","80","0","80","80","0","0","0","80","80","80","80","0","Wed Sep 21 12:40:21 2022","600","The main experiment item","yes","FlankerTask.osexp","C:\Users\Austin\Documents","no","mono","no","18","no","white","no","yes","768","legacy","0","79","C:/Users/Austin/Documents/AH-subject-3.csv","legacy","Lentiform Loewenfeld","3.3.12","0","h","NA","s","NA","s","h","525","NA","97809","NA","36833","525","2","legacy","1024","2","48000","-16","experiment","HHSHH","3","odd","102950","NA","293624","197754","NA","NA","293741","255689","5139","NA","256789","293847","294373","293737","293847","5129","Flanker Task","75","45269","81","yes","1024"
"92.6829268292683","92.6829268292683","557.2439024390244","557.2439024390244","black","legacy","legacy","legacy","0","Congruent","uniform","1","undefined","1","s","0","0","0","81","81","0","81","81","0","0","0","81","81","81","81","0","Wed Sep 21 12:40:21 2022","600","The main experiment item","yes","FlankerTask.osexp","C:\Users\Austin\Documents","no","mono","no","18","no","white","no","yes","768","legacy","1","79","C:/Users/Austin/Documents/AH-subject-3.csv","legacy","Lentiform Loewenfeld","3.3.12","0","s","NA","s","NA","s","s","425","NA","97809","NA","36833","425","2","legacy","1024","2","48000","-16","experiment","SSSSS","3","odd","102950","NA","293624","294382","NA","NA","296089","294889","5139","NA","256789","296197","296625","296082","296197","5129","Flanker Task","76","45694","82","yes","1024"
"92.7710843373494","92.7710843373494","556.4216867469879","556.4216867469879","black","legacy","legacy","legacy","0","Incongruent","uniform","1","undefined","1","h","0","0","0","82","82","0","82","82","0","0","0","82","82","82","82","0","Wed Sep 21 12:40:21 2022","600","The main experiment item","yes","FlankerTask.osexp","C:\Users\Austin\Documents","no","mono","no","18","no","white","no","yes","768","legacy","2","79","C:/Users/Austin/Documents/AH-subject-3.csv","legacy","Lentiform Loewenfeld","3.3.12","0","h","NA","s","NA","s","h","489","NA","97809","NA","36833","489","2","legacy","1024","2","48000","-16","experiment","SSHSS","3","odd","102950","NA","293624","294382","NA","NA","297851","296636","5139","NA","256789","297957","298448","297844","297956","5129","Flanker Task","77","46183","83","yes","1024"
"92.85714285714286","92.85714285714286","554.9166666666666","554.9166666666666","black","legacy","legacy","legacy","0","Congruent","uniform","1","undefined","1","h","0","0","0","83","83","0","83","83","0","0","0","83","83","83","83","0","Wed Sep 21 12:40:21 2022","600","The main experiment item","yes","FlankerTask.osexp","C:\Users\Austin\Documents","no","mono","no","18","no","white","no","yes","768","legacy","3","79","C:/Users/Austin/Documents/AH-subject-3.csv","legacy","Lentiform Loewenfeld","3.3.12","0","h","NA","s","NA","s","h","430","NA","97809","NA","36833","430","2","legacy","1024","2","48000","-16","experiment","HHHHH","3","odd","102950","NA","293624","294382","NA","NA","299672","298460","5139","NA","256789","299779","300212","299665","299779","5129","Flanker Task","78","46613","84","yes","1024"
"92.94117647058823","92.94117647058823","553.6117647058824","553.6117647058824","black","legacy","legacy","legacy","0","Incongruent","uniform","1","undefined","1","s","0","0","0","84","84","0","84","84","0","0","0","84","84","84","84","0","Wed Sep 21 12:40:21 2022","600","The main experiment item","yes","FlankerTask.osexp","C:\Users\Austin\Documents","no","mono","no","18","no","white","no","yes","768","legacy","4","79","C:/Users/Austin/Documents/AH-subject-3.csv","legacy","Lentiform Loewenfeld","3.3.12","0","s","NA","s","NA","s","s","444","NA","97809","NA","36833","444","2","legacy","1024","2","48000","-16","experiment","HHSHH","3","odd","102950","NA","293624","294382","NA","NA","301432","300223","5139","NA","256789","301540","301987","301425","301540","5129","Flanker Task","79","47057","85","yes","1024"
"93.02325581395348","93.02325581395348","552.0581395348837","552.0581395348837","black","legacy","legacy","legacy","0","Congruent","uniform","1","undefined","1","s","0","0","0","85","85","0","85","85","0","0","0","85","85","85","85","0","Wed Sep 21 12:40:21 2022","600","The main experiment item","yes","FlankerTask.osexp","C:\Users\Austin\Documents","no","mono","no","18","no","white","no","yes","768","legacy","5","79","C:/Users/Austin/Documents/AH-subject-3.csv","legacy","Lentiform Loewenfeld","3.3.12","0","s","NA","s","NA","s","s","420","NA","97809","NA","36833","420","2","legacy","1024","2","48000","-16","experiment","SSSSS","3","odd","102950","NA","293624","294382","NA","NA","303204","301998","5139","NA","256789","303313","303735","303197","303312","5129","Flanker Task","80","47477","86","yes","1024"
"93.10344827586206","93.10344827586206","551.7701149425287","551.7701149425287","black","legacy","legacy","legacy","0","Incongruent","uniform","1","undefined","1","s","0","0","0","86","86","0","86","86","0","0","0","86","86","86","86","0","Wed Sep 21 12:40:21 2022","600","The main experiment item","yes","FlankerTask.osexp","C:\Users\Austin\Documents","no","mono","no","18","no","white","no","yes","768","legacy","6","79","C:/Users/Austin/Documents/AH-subject-3.csv","legacy","Lentiform Loewenfeld","3.3.12","0","s","NA","s","NA","s","s","527","NA","97809","NA","36833","527","2","legacy","1024","2","48000","-16","experiment","HHSHH","3","odd","102950","NA","293624","294382","NA","NA","304949","303746","5139","NA","256789","305057","305586","304942","305057","5129","Flanker Task","81","48004","87","yes","1024"
"93.18181818181819","93.18181818181819","550.0795454545455","550.0795454545455","black","legacy","legacy","legacy","0","Incongruent","uniform","1","undefined","1","s","0","0","0","87","87","0","87","87","0","0","0","87","87","87","87","0","Wed Sep 21 12:40:21 2022","600","The main experiment item","yes","FlankerTask.osexp","C:\Users\Austin\Documents","no","mono","no","18","no","white","no","yes","768","legacy","7","79","C:/Users/Austin/Documents/AH-subject-3.csv","legacy","Lentiform Loewenfeld","3.3.12","0","s","NA","s","NA","s","s","403","NA","97809","NA","36833","403","2","legacy","1024","2","48000","-16","experiment","HHSHH","3","odd","102950","NA","293624","294382","NA","NA","306814","305598","5139","NA","256789","306922","307327","306807","306921","5129","Flanker Task","82","48407","88","yes","1024"
"93.25842696629213","93.25842696629213","548.4719101123595","548.4719101123595","black","legacy","legacy","legacy","0","Incongruent","uniform","1","undefined","1","s","0","0","0","88","88","0","88","88","0","0","0","88","88","88","88","0","Wed Sep 21 12:40:21 2022","600","The main experiment item","yes","FlankerTask.osexp","C:\Users\Austin\Documents","no","mono","no","18","no","white","no","yes","768","legacy","8","79","C:/Users/Austin/Documents/AH-subject-3.csv","legacy","Lentiform Loewenfeld","3.3.12","0","s","NA","s","NA","s","s","407","NA","97809","NA","36833","407","2","legacy","1024","2","48000","-16","experiment","HHSHH","3","odd","102950","NA","293624","294382","NA","NA","308549","307338","5139","NA","256789","308657","309067","308542","308657","5129","Flanker Task","83","48814","89","yes","1024"
"93.33333333333333","93.33333333333333","547.2444444444444","547.2444444444444","black","legacy","legacy","legacy","0","Incongruent","uniform","1","undefined","1","s","0","0","0","89","89","0","89","89","0","0","0","89","89","89","89","0","Wed Sep 21 12:40:21 2022","600","The main experiment item","yes","FlankerTask.osexp","C:\Users\Austin\Documents","no","mono","no","18","no","white","no","yes","768","legacy","9","79","C:/Users/Austin/Documents/AH-subject-3.csv","legacy","Lentiform Loewenfeld","3.3.12","0","s","NA","s","NA","s","s","438","NA","97809","NA","36833","438","2","legacy","1024","2","48000","-16","experiment","HHSHH","3","odd","102950","NA","293624","294382","NA","NA","310287","309078","5139","NA","256789","310395","310836","310280","310395","5129","Flanker Task","84","49252","90","yes","1024"
"93.4065934065934","93.4065934065934","548.3956043956044","548.3956043956044","black","legacy","legacy","legacy","0","Congruent","uniform","1","undefined","1","h","0","0","0","90","90","0","90","90","0","0","0","90","90","90","90","0","Wed Sep 21 12:40:21 2022","600","The main experiment item","yes","FlankerTask.osexp","C:\Users\Austin\Documents","no","mono","no","18","no","white","no","yes","768","legacy","10","79","C:/Users/Austin/Documents/AH-subject-3.csv","legacy","Lentiform Loewenfeld","3.3.12","0","h","NA","s","NA","s","h","652","NA","97809","NA","36833","652","2","legacy","1024","2","48000","-16","experiment","HHHHH","3","odd","102950","NA","293624","294382","NA","NA","312057","310847","5139","NA","256789","312164","312819","312050","312163","5129","Flanker Task","85","49904","91","yes","1024"
"93.47826086956522","93.47826086956522","547.1195652173913","547.1195652173913","black","legacy","legacy","legacy","0","Congruent","uniform","1","undefined","1","h","0","0","0","91","91","0","91","91","0","0","0","91","91","91","91","0","Wed Sep 21 12:40:21 2022","600","The main experiment item","yes","FlankerTask.osexp","C:\Users\Austin\Documents","no","mono","no","18","no","white","no","yes","768","legacy","11","79","C:/Users/Austin/Documents/AH-subject-3.csv","legacy","Lentiform Loewenfeld","3.3.12","0","h","NA","s","NA","s","h","431","NA","97809","NA","36833","431","2","legacy","1024","2","48000","-16","experiment","HHHHH","3","odd","102950","NA","293624","294382","312830","NA","314542","313337","5139","NA","256789","314649","315082","314535","314648","5129","Flanker Task","86","50335","92","yes","1024"
"93.54838709677419","93.54838709677419","545.8387096774194","545.8387096774194","black","legacy","legacy","legacy","0","Congruent","uniform","1","undefined","1","h","0","0","0","92","92","0","92","92","0","0","0","92","92","92","92","0","Wed Sep 21 12:40:21 2022","600","The main experiment item","yes","FlankerTask.osexp","C:\Users\Austin\Documents","no","mono","no","18","no","white","no","yes","768","legacy","12","79","C:/Users/Austin/Documents/AH-subject-3.csv","legacy","Lentiform Loewenfeld","3.3.12","0","h","NA","s","NA","s","h","428","NA","97809","NA","36833","428","2","legacy","1024","2","48000","-16","experiment","HHHHH","3","odd","102950","NA","293624","294382","312830","NA","316303","315093","5139","NA","256789","316410","316841","316296","316410","5129","Flanker Task","87","50763","93","yes","1024"
"93.61702127659575","93.61702127659575","545.2021276595744","545.2021276595744","black","legacy","legacy","legacy","0","Incongruent","uniform","1","undefined","1","h","0","0","0","93","93","0","93","93","0","0","0","93","93","93","93","0","Wed Sep 21 12:40:21 2022","600","The main experiment item","yes","FlankerTask.osexp","C:\Users\Austin\Documents","no","mono","no","18","no","white","no","yes","768","legacy","13","79","C:/Users/Austin/Documents/AH-subject-3.csv","legacy","Lentiform Loewenfeld","3.3.12","0","h","NA","s","NA","s","h","486","NA","97809","NA","36833","486","2","legacy","1024","2","48000","-16","experiment","SSHSS","3","odd","102950","NA","293624","294382","312830","NA","318061","316852","5139","NA","256789","318170","318659","318054","318169","5129","Flanker Task","88","51249","94","yes","1024"
"93.6842105263158","93.6842105263158","544.021052631579","544.021052631579","black","legacy","legacy","legacy","0","Congruent","uniform","1","undefined","1","h","0","0","0","94","94","0","94","94","0","0","0","94","94","94","94","0","Wed Sep 21 12:40:21 2022","600","The main experiment item","yes","FlankerTask.osexp","C:\Users\Austin\Documents","no","mono","no","18","no","white","no","yes","768","legacy","14","79","C:/Users/Austin/Documents/AH-subject-3.csv","legacy","Lentiform Loewenfeld","3.3.12","0","h","NA","s","NA","s","h","433","NA","97809","NA","36833","433","2","legacy","1024","2","48000","-16","experiment","HHHHH","3","odd","102950","NA","293624","294382","312830","NA","319889","318670","5139","NA","256789","319997","320432","319882","319997","5129","Flanker Task","89","51682","95","yes","1024"
"93.75","93.75","543.1458333333334","543.1458333333334","black","legacy","legacy","legacy","0","Incongruent","uniform","1","undefined","1","s","0","0","0","95","95","0","95","95","0","0","0","95","95","95","95","0","Wed Sep 21 12:40:21 2022","600","The main experiment item","yes","FlankerTask.osexp","C:\Users\Austin\Documents","no","mono","no","18","no","white","no","yes","768","legacy","15","79","C:/Users/Austin/Documents/AH-subject-3.csv","legacy","Lentiform Loewenfeld","3.3.12","0","s","NA","s","NA","s","s","460","NA","97809","NA","36833","460","2","legacy","1024","2","48000","-16","experiment","HHSHH","3","odd","102950","NA","293624","294382","312830","NA","321656","320443","5139","NA","256789","321764","322227","321649","321764","5129","Flanker Task","90","52142","96","yes","1024"
"93.81443298969072","93.81443298969072","541.5463917525773","541.5463917525773","black","legacy","legacy","legacy","0","Congruent","uniform","1","undefined","1","s","0","0","0","96","96","0","96","96","0","0","0","96","96","96","96","0","Wed Sep 21 12:40:21 2022","600","The main experiment item","yes","FlankerTask.osexp","C:\Users\Austin\Documents","no","mono","no","18","no","white","no","yes","768","legacy","16","79","C:/Users/Austin/Documents/AH-subject-3.csv","legacy","Lentiform Loewenfeld","3.3.12","0","s","NA","s","NA","s","s","388","NA","97809","NA","36833","388","2","legacy","1024","2","48000","-16","experiment","SSSSS","3","odd","102950","NA","293624","294382","312830","NA","323450","322238","5139","NA","256789","323558","323949","323441","323557","5129","Flanker Task","91","52530","97","yes","1024"
"93.87755102040816","93.87755102040816","541.030612244898","541.030612244898","black","legacy","legacy","legacy","0","Incongruent","uniform","1","undefined","1","h","0","0","0","97","97","0","97","97","0","0","0","97","97","97","97","0","Wed Sep 21 12:40:21 2022","600","The main experiment item","yes","FlankerTask.osexp","C:\Users\Austin\Documents","no","mono","no","18","no","white","no","yes","768","legacy","17","79","C:/Users/Austin/Documents/AH-subject-3.csv","legacy","Lentiform Loewenfeld","3.3.12","0","h","NA","s","NA","s","h","491","NA","97809","NA","36833","491","2","legacy","1024","2","48000","-16","experiment","SSHSS","3","odd","102950","NA","293624","294382","312830","NA","325172","323960","5139","NA","256789","325280","325774","325165","325280","5129","Flanker Task","92","53021","98","yes","1024"
"93.93939393939394","93.93939393939394","539.3737373737374","539.3737373737374","black","legacy","legacy","legacy","0","Congruent","uniform","1","undefined","1","s","0","0","0","98","98","0","98","98","0","0","0","98","98","98","98","0","Wed Sep 21 12:40:21 2022","600","The main experiment item","yes","FlankerTask.osexp","C:\Users\Austin\Documents","no","mono","no","18","no","white","no","yes","768","legacy","18","79","C:/Users/Austin/Documents/AH-subject-3.csv","legacy","Lentiform Loewenfeld","3.3.12","0","s","NA","s","NA","s","s","377","NA","97809","NA","36833","377","2","legacy","1024","2","48000","-16","experiment","SSSSS","3","odd","102950","NA","293624","294382","312830","NA","326996","325785","5139","NA","256789","327103","327482","326989","327103","5129","Flanker Task","93","53398","99","yes","1024"
"94","94","537.96","537.96","black","legacy","legacy","legacy","0","Congruent","uniform","1","undefined","1","s","0","0","0","99","99","0","99","99","0","0","0","99","99","99","99","0","Wed Sep 21 12:40:21 2022","600","The main experiment item","yes","FlankerTask.osexp","C:\Users\Austin\Documents","no","mono","no","18","no","white","no","yes","768","legacy","19","79","C:/Users/Austin/Documents/AH-subject-3.csv","legacy","Lentiform Loewenfeld","3.3.12","0","s","NA","s","NA","s","s","398","NA","97809","NA","36833","398","2","legacy","1024","2","48000","-16","experiment","SSSSS","3","odd","102950","NA","293624","294382","312830","NA","328709","327493","5139","NA","256789","328815","329215","328701","328815","5129","Flanker Task","94","53796","100","yes","1024"
"94.05940594059406","94.05940594059406","536.2673267326733","536.2673267326733","black","legacy","legacy","legacy","0","Congruent","uniform","1","undefined","1","s","0","0","0","100","100","0","100","100","0","0","0","100","100","100","100","0","Wed Sep 21 12:40:21 2022","600","The main experiment item","yes","FlankerTask.osexp","C:\Users\Austin\Documents","no","mono","no","18","no","white","no","yes","768","legacy","20","79","C:/Users/Austin/Documents/AH-subject-3.csv","legacy","Lentiform Loewenfeld","3.3.12","0","s","NA","s","NA","s","s","367","NA","97809","NA","36833","367","2","legacy","1024","2","48000","-16","experiment","SSSSS","3","odd","102950","NA","293624","294382","312830","NA","330434","329227","5139","NA","256789","330542","330912","330426","330541","5129","Flanker Task","95","54163","101","yes","1024"
"94.11764705882354","94.11764705882354","535.1862745098039","535.1862745098039","black","legacy","legacy","legacy","0","Congruent","uniform","1","undefined","1","h","0","0","0","101","101","0","101","101","0","0","0","101","101","101","101","0","Wed Sep 21 12:40:21 2022","600","The main experiment item","yes","FlankerTask.osexp","C:\Users\Austin\Documents","no","mono","no","18","no","white","no","yes","768","legacy","21","79","C:/Users/Austin/Documents/AH-subject-3.csv","legacy","Lentiform Loewenfeld","3.3.12","0","h","NA","s","NA","s","h","426","NA","97809","NA","36833","426","2","legacy","1024","2","48000","-16","experiment","HHHHH","3","odd","102950","NA","293624","294382","312830","NA","332128","330922","5139","NA","256789","332236","332665","332121","332236","5129","Flanker Task","96","54589","102","yes","1024"
"94.1747572815534","94.1747572815534","534.6407766990292","534.6407766990292","black","legacy","legacy","legacy","0","Congruent","uniform","1","undefined","1","h","0","0","0","102","102","0","102","102","0","0","0","102","102","102","102","0","Wed Sep 21 12:40:21 2022","600","The main experiment item","yes","FlankerTask.osexp","C:\Users\Austin\Documents","no","mono","no","18","no","white","no","yes","768","legacy","22","79","C:/Users/Austin/Documents/AH-subject-3.csv","legacy","Lentiform Loewenfeld","3.3.12","0","h","NA","s","NA","s","h","479","NA","97809","NA","36833","479","2","legacy","1024","2","48000","-16","experiment","HHHHH","3","odd","102950","NA","293624","294382","312830","NA","333883","332675","5139","NA","256789","333991","334472","333876","333990","5129","Flanker Task","97","55068","103","yes","1024"
"94.23076923076923","94.23076923076923","535.0384615384615","535.0384615384615","black","legacy","legacy","legacy","0","Congruent","uniform","1","undefined","1","h","0","0","0","103","103","0","103","103","0","0","0","103","103","103","103","0","Wed Sep 21 12:40:21 2022","600","The main experiment item","yes","FlankerTask.osexp","C:\Users\Austin\Documents","no","mono","no","18","no","white","no","yes","768","legacy","23","79","C:/Users/Austin/Documents/AH-subject-3.csv","legacy","Lentiform Loewenfeld","3.3.12","0","h","NA","s","NA","s","h","576","NA","97809","NA","36833","576","2","legacy","1024","2","48000","-16","experiment","HHHHH","3","odd","102950","NA","293624","294382","312830","NA","335693","334484","5139","NA","256789","335801","336379","335686","335801","5129","Flanker Task","98","55644","104","yes","1024"
"93.33333333333333","93.33333333333333","534.1714285714286","534.1714285714286","black","legacy","legacy","legacy","0","Incongruent","uniform","0","undefined","0","h","0","0","0","104","104","0","104","104","0","0","0","104","104","104","104","0","Wed Sep 21 12:40:21 2022","600","The main experiment item","yes","FlankerTask.osexp","C:\Users\Austin\Documents","no","mono","no","18","no","white","no","yes","768","legacy","24","79","C:/Users/Austin/Documents/AH-subject-3.csv","legacy","Lentiform Loewenfeld","3.3.12","0","s","NA","s","NA","s","s","444","NA","97809","NA","36833","444","2","legacy","1024","2","48000","-16","experiment","SSHSS","3","odd","102950","NA","293624","294382","312830","NA","337602","336391","5139","NA","256789","337707","338153","337594","337707","5129","Flanker Task","98","56088","105","yes","1024"
"93.39622641509433","93.39622641509433","533.5","533.5","black","legacy","legacy","legacy","0","Incongruent","uniform","1","undefined","1","s","0","0","0","105","105","0","105","105","0","0","0","105","105","105","105","0","Wed Sep 21 12:40:21 2022","600","The main experiment item","yes","FlankerTask.osexp","C:\Users\Austin\Documents","no","mono","no","18","no","white","no","yes","768","legacy","25","79","C:/Users/Austin/Documents/AH-subject-3.csv","legacy","Lentiform Loewenfeld","3.3.12","0","s","NA","s","NA","s","s","463","NA","97809","NA","36833","463","2","legacy","1024","2","48000","-16","experiment","HHSHH","3","odd","102950","NA","293624","338164","312830","NA","339884","338671","5139","NA","256789","339992","340458","339876","339992","5129","Flanker Task","99","56551","106","yes","1024"
"93.45794392523365","93.45794392523365","534.4672897196261","534.4672897196261","black","legacy","legacy","legacy","0","Incongruent","uniform","1","undefined","1","h","0","0","0","106","106","0","106","106","0","0","0","106","106","106","106","0","Wed Sep 21 12:40:21 2022","600","The main experiment item","yes","FlankerTask.osexp","C:\Users\Austin\Documents","no","mono","no","18","no","white","no","yes","768","legacy","26","79","C:/Users/Austin/Documents/AH-subject-3.csv","legacy","Lentiform Loewenfeld","3.3.12","0","h","NA","s","NA","s","h","637","NA","97809","NA","36833","637","2","legacy","1024","2","48000","-16","experiment","SSHSS","3","odd","102950","NA","293624","338164","312830","NA","341676","340470","5139","NA","256789","341784","342424","341669","341784","5129","Flanker Task","100","57188","107","yes","1024"
"93.51851851851852","93.51851851851852","534.5370370370371","534.5370370370371","black","legacy","legacy","legacy","0","Incongruent","uniform","1","undefined","1","h","0","0","0","107","107","0","107","107","0","0","0","107","107","107","107","0","Wed Sep 21 12:40:21 2022","600","The main experiment item","yes","FlankerTask.osexp","C:\Users\Austin\Documents","no","mono","no","18","no","white","no","yes","768","legacy","27","79","C:/Users/Austin/Documents/AH-subject-3.csv","legacy","Lentiform Loewenfeld","3.3.12","0","h","NA","s","NA","s","h","542","NA","97809","NA","36833","542","2","legacy","1024","2","48000","-16","experiment","SSHSS","3","odd","102950","NA","293624","338164","342436","NA","344152","342943","5139","NA","256789","344259","344804","344145","344259","5129","Flanker Task","101","57730","108","yes","1024"
"93.57798165137615","93.57798165137615","533.183486238532","533.183486238532","black","legacy","legacy","legacy","0","Congruent","uniform","1","undefined","1","s","0","0","0","108","108","0","108","108","0","0","0","108","108","108","108","0","Wed Sep 21 12:40:21 2022","600","The main experiment item","yes","FlankerTask.osexp","C:\Users\Austin\Documents","no","mono","no","18","no","white","no","yes","768","legacy","28","79","C:/Users/Austin/Documents/AH-subject-3.csv","legacy","Lentiform Loewenfeld","3.3.12","0","s","NA","s","NA","s","s","387","NA","97809","NA","36833","387","2","legacy","1024","2","48000","-16","experiment","SSSSS","3","odd","102950","NA","293624","338164","342436","NA","346030","344816","5139","NA","256789","346137","346527","346023","346137","5129","Flanker Task","102","58117","109","yes","1024"
"93.63636363636364","93.63636363636364","533.790909090909","533.790909090909","black","legacy","legacy","legacy","0","Incongruent","uniform","1","undefined","1","s","0","0","0","109","109","0","109","109","0","0","0","109","109","109","109","0","Wed Sep 21 12:40:21 2022","600","The main experiment item","yes","FlankerTask.osexp","C:\Users\Austin\Documents","no","mono","no","18","no","white","no","yes","768","legacy","29","79","C:/Users/Austin/Documents/AH-subject-3.csv","legacy","Lentiform Loewenfeld","3.3.12","0","s","NA","s","NA","s","s","600","NA","97809","NA","36833","600","2","legacy","1024","2","48000","-16","experiment","HHSHH","3","odd","102950","NA","293624","338164","342436","NA","347748","346538","5139","NA","256789","347858","348461","347741","347857","5129","Flanker Task","103","58717","110","yes","1024"
"93.69369369369369","93.69369369369369","533.7927927927927","533.7927927927927","black","legacy","legacy","legacy","0","Incongruent","uniform","1","undefined","1","s","0","0","0","110","110","0","110","110","0","0","0","110","110","110","110","0","Wed Sep 21 12:40:21 2022","600","The main experiment item","yes","FlankerTask.osexp","C:\Users\Austin\Documents","no","mono","no","18","no","white","no","yes","768","legacy","30","79","C:/Users/Austin/Documents/AH-subject-3.csv","legacy","Lentiform Loewenfeld","3.3.12","0","s","NA","s","NA","s","s","534","NA","97809","NA","36833","534","2","legacy","1024","2","48000","-16","experiment","HHSHH","3","odd","102950","NA","293624","338164","342436","NA","349686","348473","5139","NA","256789","349792","350329","349678","349791","5129","Flanker Task","104","59251","111","yes","1024"
"93.75","93.75","535.125","535.125","black","legacy","legacy","legacy","0","Incongruent","uniform","1","undefined","1","h","0","0","0","111","111","0","111","111","0","0","0","111","111","111","111","0","Wed Sep 21 12:40:21 2022","600","The main experiment item","yes","FlankerTask.osexp","C:\Users\Austin\Documents","no","mono","no","18","no","white","no","yes","768","legacy","31","79","C:/Users/Austin/Documents/AH-subject-3.csv","legacy","Lentiform Loewenfeld","3.3.12","0","h","NA","s","NA","s","h","683","NA","97809","NA","36833","683","2","legacy","1024","2","48000","-16","experiment","SSHSS","3","odd","102950","NA","293624","338164","342436","NA","351554","350340","5139","NA","256789","351663","352349","351547","351663","5129","Flanker Task","105","59934","112","yes","1024"
"93.80530973451327","93.80530973451327","533.7610619469026","533.7610619469026","black","legacy","legacy","legacy","0","Congruent","uniform","1","undefined","1","s","0","0","0","112","112","0","112","112","0","0","0","112","112","112","112","0","Wed Sep 21 12:40:21 2022","600","The main experiment item","yes","FlankerTask.osexp","C:\Users\Austin\Documents","no","mono","no","18","no","white","no","yes","768","legacy","32","79","C:/Users/Austin/Documents/AH-subject-3.csv","legacy","Lentiform Loewenfeld","3.3.12","0","s","NA","s","NA","s","s","381","NA","97809","NA","36833","381","2","legacy","1024","2","48000","-16","experiment","SSSSS","3","odd","102950","NA","293624","338164","352362","NA","354075","352870","5139","NA","256789","354183","354567","354067","354183","5129","Flanker Task","106","60315","113","yes","1024"
"93.85964912280701","93.85964912280701","532.219298245614","532.219298245614","black","legacy","legacy","legacy","0","Congruent","uniform","1","undefined","1","s","0","0","0","113","113","0","113","113","0","0","0","113","113","113","113","0","Wed Sep 21 12:40:21 2022","600","The main experiment item","yes","FlankerTask.osexp","C:\Users\Austin\Documents","no","mono","no","18","no","white","no","yes","768","legacy","33","79","C:/Users/Austin/Documents/AH-subject-3.csv","legacy","Lentiform Loewenfeld","3.3.12","0","s","NA","s","NA","s","s","358","NA","97809","NA","36833","358","2","legacy","1024","2","48000","-16","experiment","SSSSS","3","odd","102950","NA","293624","338164","352362","NA","355789","354578","5139","NA","256789","355898","356259","355782","355897","5129","Flanker Task","107","60673","114","yes","1024"
"93.91304347826087","93.91304347826087","532.1739130434783","532.1739130434783","black","legacy","legacy","legacy","0","Congruent","uniform","1","undefined","1","s","0","0","0","114","114","0","114","114","0","0","0","114","114","114","114","0","Wed Sep 21 12:40:21 2022","600","The main experiment item","yes","FlankerTask.osexp","C:\Users\Austin\Documents","no","mono","no","18","no","white","no","yes","768","legacy","34","79","C:/Users/Austin/Documents/AH-subject-3.csv","legacy","Lentiform Loewenfeld","3.3.12","0","s","NA","s","NA","s","s","527","NA","97809","NA","36833","527","2","legacy","1024","2","48000","-16","experiment","SSSSS","3","odd","102950","NA","293624","338164","352362","NA","357483","356270","5139","NA","256789","357591","358121","357475","357590","5129","Flanker Task","108","61200","115","yes","1024"
"93.96551724137932","93.96551724137932","530.448275862069","530.448275862069","black","legacy","legacy","legacy","0","Congruent","uniform","1","undefined","1","s","0","0","0","115","115","0","115","115","0","0","0","115","115","115","115","0","Wed Sep 21 12:40:21 2022","600","The main experiment item","yes","FlankerTask.osexp","C:\Users\Austin\Documents","no","mono","no","18","no","white","no","yes","768","legacy","35","79","C:/Users/Austin/Documents/AH-subject-3.csv","legacy","Lentiform Loewenfeld","3.3.12","0","s","NA","s","NA","s","s","332","NA","97809","NA","36833","332","2","legacy","1024","2","48000","-16","experiment","SSSSS","3","odd","102950","NA","293624","338164","352362","NA","359346","358132","5139","NA","256789","359453","359788","359338","359453","5129","Flanker Task","109","61532","116","yes","1024"
"94.01709401709402","94.01709401709402","529.5299145299145","529.5299145299145","black","legacy","legacy","legacy","0","Congruent","uniform","1","undefined","1","h","0","0","0","116","116","0","116","116","0","0","0","116","116","116","116","0","Wed Sep 21 12:40:21 2022","600","The main experiment item","yes","FlankerTask.osexp","C:\Users\Austin\Documents","no","mono","no","18","no","white","no","yes","768","legacy","36","79","C:/Users/Austin/Documents/AH-subject-3.csv","legacy","Lentiform Loewenfeld","3.3.12","0","h","NA","s","NA","s","h","423","NA","97809","NA","36833","423","2","legacy","1024","2","48000","-16","experiment","HHHHH","3","odd","102950","NA","293624","338164","352362","NA","361010","359799","5139","NA","256789","361118","361544","361002","361118","5129","Flanker Task","110","61955","117","yes","1024"
"93.22033898305085","93.22033898305085","528.1440677966102","528.1440677966102","black","legacy","legacy","legacy","0","Incongruent","uniform","0","undefined","0","h","0","0","0","117","117","0","117","117","0","0","0","117","117","117","117","0","Wed Sep 21 12:40:21 2022","600","The main experiment item","yes","FlankerTask.osexp","C:\Users\Austin\Documents","no","mono","no","18","no","white","no","yes","768","legacy","37","79","C:/Users/Austin/Documents/AH-subject-3.csv","legacy","Lentiform Loewenfeld","3.3.12","0","s","NA","s","NA","s","s","366","NA","97809","NA","36833","366","2","legacy","1024","2","48000","-16","experiment","SSHSS","3","odd","102950","NA","293624","338164","352362","NA","362774","361555","5139","NA","256789","362882","363251","362767","362881","5129","Flanker Task","110","62321","118","yes","1024"
"93.27731092436974","93.27731092436974","527.2521008403361","527.2521008403361","black","legacy","legacy","legacy","0","Incongruent","uniform","1","undefined","1","s","0","0","0","118","118","0","118","118","0","0","0","118","118","118","118","0","Wed Sep 21 12:40:21 2022","600","The main experiment item","yes","FlankerTask.osexp","C:\Users\Austin\Documents","no","mono","no","18","no","white","no","yes","768","legacy","38","79","C:/Users/Austin/Documents/AH-subject-3.csv","legacy","Lentiform Loewenfeld","3.3.12","0","s","NA","s","NA","s","s","422","NA","97809","NA","36833","422","2","legacy","1024","2","48000","-16","experiment","HHSHH","3","odd","102950","NA","293624","363262","352362","NA","365003","363770","5139","NA","256789","365110","365535","364995","365110","5129","Flanker Task","111","62743","119","yes","1024"
"93.33333333333333","93.33333333333333","528.8166666666667","528.8166666666667","black","legacy","legacy","legacy","0","Congruent","uniform","1","undefined","1","s","0","0","0","119","119","0","119","119","0","0","0","119","119","119","119","0","Wed Sep 21 12:40:21 2022","600","The main experiment item","yes","FlankerTask.osexp","C:\Users\Austin\Documents","no","mono","no","18","no","white","no","yes","768","legacy","39","79","C:/Users/Austin/Documents/AH-subject-3.csv","legacy","Lentiform Loewenfeld","3.3.12","0","s","NA","s","NA","s","s","715","NA","97809","NA","36833","715","2","legacy","1024","2","48000","-16","experiment","SSSSS","3","odd","102950","NA","293624","363262","352362","NA","366758","365547","5139","NA","256789","366866","367584","366750","366865","5129","Flanker Task","112","63458","120","yes","1024"
"92.56198347107438","92.56198347107438","527.4876033057851","527.4876033057851","black","legacy","legacy","legacy","0","Congruent","uniform","0","undefined","0","h","0","0","0","120","120","0","120","120","0","0","0","120","120","120","120","0","Wed Sep 21 12:40:21 2022","600","The main experiment item","yes","FlankerTask.osexp","C:\Users\Austin\Documents","no","mono","no","18","no","white","no","yes","768","legacy","40","79","C:/Users/Austin/Documents/AH-subject-3.csv","legacy","Lentiform Loewenfeld","3.3.12","0","s","NA","s","NA","s","s","368","NA","97809","NA","36833","368","2","legacy","1024","2","48000","-16","experiment","HHHHH","3","odd","102950","NA","293624","363262","367596","NA","369307","368103","5139","NA","256789","369415","369786","369299","369415","5129","Flanker Task","112","63826","121","yes","1024"
"92.62295081967213","92.62295081967213","525.5983606557377","525.5983606557377","black","legacy","legacy","legacy","0","Congruent","uniform","1","undefined","1","s","0","0","0","121","121","0","121","121","0","0","0","121","121","121","121","0","Wed Sep 21 12:40:21 2022","600","The main experiment item","yes","FlankerTask.osexp","C:\Users\Austin\Documents","no","mono","no","18","no","white","no","yes","768","legacy","41","79","C:/Users/Austin/Documents/AH-subject-3.csv","legacy","Lentiform Loewenfeld","3.3.12","0","s","NA","s","NA","s","s","297","NA","97809","NA","36833","297","2","legacy","1024","2","48000","-16","experiment","SSSSS","3","odd","102950","NA","293624","369798","367596","NA","371508","370305","5139","NA","256789","371615","371915","371500","371615","5129","Flanker Task","113","64123","122","yes","1024"
