"acc","accuracy","average_response_time","avg_rt","background","canvas_backend","clock_backend","color_backend","condition","correct","correct_instruction1_sketchpad","correct_keyboard_response","correct_response","count_Block1_loop","count_Block3_loop","count_block2_loop","count_errorfeedback_sketchpad","count_experiment","count_faster_sketchpad","count_finish_sketchpad","count_fixation_sketchpad","count_instruction1_sketchpad","count_instructions2_sketchpad","count_instructions3_sketchpad","count_isi_sketchpad","count_keyboard_response","count_logger_logger","count_sequence","count_stimulus_sketchpad","datetime","deadline","description","disable_garbage_collection","experiment_file","experiment_path","font_bold","font_family","font_italic","font_size","font_underline","foreground","form_clicks","fullscreen","height","keyboard_backend","live_row","live_row_Block1_loop","logfile","mouse_backend","opensesame_codename","opensesame_version","repeat_cycle","response","response_finish_sketchpad","response_instruction1_sketchpad","response_instructions2_sketchpad","response_instructions3_sketchpad","response_keyboard_response","response_time","response_time_finish_sketchpad","response_time_instruction1_sketchpad","response_time_instructions2_sketchpad","response_time_instructions3_sketchpad","response_time_keyboard_response","round_decimals","sampler_backend","sound_buf_size","sound_channels","sound_freq","sound_sample_size","start","stimulus","subject_nr","subject_parity","time_Block1_loop","time_Block3_loop","time_block2_loop","time_errorfeedback_sketchpad","time_experiment","time_faster_sketchpad","time_finish_sketchpad","time_fixation_sketchpad","time_instruction1_sketchpad","time_instructions2_sketchpad","time_instructions3_sketchpad","time_isi_sketchpad","time_keyboard_response","time_logger_logger","time_sequence","time_stimulus_sketchpad","title","total_correct","total_response_time","total_responses","width"
"100","100","757","757","#3d3846","legacy","legacy","legacy","congruent","1","undefined","1","h","0","0","0","0","0","0","0","0","0","0","0","0","0","0","0","0","Sun Sep 24 12:51:04 2023","1500","The main experiment item","False","Flankertask fixed.osexp","C:\Users\User","False","mono","False","18","no","white","no","yes","768","legacy","0","0","C:/Users/User/Desktop/data files/subject-1.csv","legacy","Melodramatic Milgram","4.0.5","0","h","NA","s","NA","NA","h","757.0","NA","37340","NA","NA","757","2","legacy","1024","2","48000","-16","experiment","HHHHH","1","odd","38527","NA","NA","NA","1181","NA","NA","38650","1186","NA","NA","NA","38751","39509","38648","38750","Flankertask","1","757.0","1","1024"
"50","50","624","624","#3d3846","legacy","legacy","legacy","incongruent","0","undefined","0","h","0","0","0","1","0","1","0","1","0","0","0","1","1","1","1","1","Sun Sep 24 12:51:04 2023","1500","The main experiment item","False","Flankertask fixed.osexp","C:\Users\User","False","mono","False","18","no","white","no","yes","768","legacy","1","1","C:/Users/User/Desktop/data files/subject-1.csv","legacy","Melodramatic Milgram","4.0.5","0","s","NA","s","NA","NA","s","491.0","NA","37340","NA","NA","491","2","legacy","1024","2","48000","-16","experiment","SSHSS","1","odd","38527","NA","NA","NA","1181","NA","NA","40552","1186","NA","NA","39519","40652","41143","40550","40652","Flankertask","1","1248.0","2","1024"
"66","66","606","606","#3d3846","legacy","legacy","legacy","congruent","1","undefined","1","h","0","0","0","2","0","2","0","2","0","0","0","2","2","2","2","2","Sun Sep 24 12:51:04 2023","1500","The main experiment item","False","Flankertask fixed.osexp","C:\Users\User","False","mono","False","18","no","white","no","yes","768","legacy","2","2","C:/Users/User/Desktop/data files/subject-1.csv","legacy","Melodramatic Milgram","4.0.5","0","h","NA","s","NA","NA","h","570.0","NA","37340","NA","NA","570","2","legacy","1024","2","48000","-16","experiment","HHHHH","1","odd","38527","NA","NA","41149","1181","NA","NA","42681","1186","NA","NA","41650","42781","43351","42679","42781","Flankertask","2","1818.0","3","1024"
"75","75","643","643","#3d3846","legacy","legacy","legacy","incongruent","1","undefined","1","s","0","0","0","3","0","3","0","3","0","0","0","3","3","3","3","3","Sun Sep 24 12:51:04 2023","1500","The main experiment item","False","Flankertask fixed.osexp","C:\Users\User","False","mono","False","18","no","white","no","yes","768","legacy","3","3","C:/Users/User/Desktop/data files/subject-1.csv","legacy","Melodramatic Milgram","4.0.5","0","s","NA","s","NA","NA","s","755.0","NA","37340","NA","NA","755","2","legacy","1024","2","48000","-16","experiment","HHSHH","1","odd","38527","NA","NA","41149","1181","NA","NA","44391","1186","NA","NA","43357","44491","45247","44389","44491","Flankertask","3","2573.0","4","1024"
"80","80","633","633","#3d3846","legacy","legacy","legacy","incongruent","1","undefined","1","s","0","0","0","4","0","4","0","4","0","0","0","4","4","4","4","4","Sun Sep 24 12:51:04 2023","1500","The main experiment item","False","Flankertask fixed.osexp","C:\Users\User","False","mono","False","18","no","white","no","yes","768","legacy","4","4","C:/Users/User/Desktop/data files/subject-1.csv","legacy","Melodramatic Milgram","4.0.5","0","s","NA","s","NA","NA","s","592.0","NA","37340","NA","NA","592","2","legacy","1024","2","48000","-16","experiment","HHSHH","1","odd","38527","NA","NA","41149","1181","NA","NA","46280","1186","NA","NA","45253","46380","46972","46279","46380","Flankertask","4","3165.0","5","1024"
"83","83","630","630","#3d3846","legacy","legacy","legacy","congruent","1","undefined","1","s","0","0","0","5","0","5","0","5","0","0","0","5","5","5","5","5","Sun Sep 24 12:51:04 2023","1500","The main experiment item","False","Flankertask fixed.osexp","C:\Users\User","False","mono","False","18","no","white","no","yes","768","legacy","5","5","C:/Users/User/Desktop/data files/subject-1.csv","legacy","Melodramatic Milgram","4.0.5","0","s","NA","s","NA","NA","s","616.0","NA","37340","NA","NA","616","2","legacy","1024","2","48000","-16","experiment","SSSSS","1","odd","38527","NA","NA","41149","1181","NA","NA","48002","1186","NA","NA","46974","48102","48718","48001","48102","Flankertask","5","3781.0","6","1024"
"85","85","609","609","#3d3846","legacy","legacy","legacy","congruent","1","undefined","1","h","0","0","0","6","0","6","0","6","0","0","0","6","6","6","6","6","Sun Sep 24 12:51:04 2023","1500","The main experiment item","False","Flankertask fixed.osexp","C:\Users\User","False","mono","False","18","no","white","no","yes","768","legacy","6","6","C:/Users/User/Desktop/data files/subject-1.csv","legacy","Melodramatic Milgram","4.0.5","0","h","NA","s","NA","NA","h","485.0","NA","37340","NA","NA","485","2","legacy","1024","2","48000","-16","experiment","HHHHH","1","odd","38527","NA","NA","41149","1181","NA","NA","49752","1186","NA","NA","48724","49852","50337","49751","49852","Flankertask","6","4266.0","7","1024"
"87","87","613","613","#3d3846","legacy","legacy","legacy","congruent","1","undefined","1","s","0","0","0","7","0","7","0","7","0","0","0","7","7","7","7","7","Sun Sep 24 12:51:04 2023","1500","The main experiment item","False","Flankertask fixed.osexp","C:\Users\User","False","mono","False","18","no","white","no","yes","768","legacy","7","7","C:/Users/User/Desktop/data files/subject-1.csv","legacy","Melodramatic Milgram","4.0.5","0","s","NA","s","NA","NA","s","642.0","NA","37340","NA","NA","642","2","legacy","1024","2","48000","-16","experiment","SSSSS","1","odd","38527","NA","NA","41149","1181","NA","NA","51375","1186","NA","NA","50343","51475","52117","51373","51475","Flankertask","7","4908.0","8","1024"
"88","88","605","605","#3d3846","legacy","legacy","legacy","congruent","1","undefined","1","h","0","0","0","8","0","8","0","8","0","0","0","8","8","8","8","8","Sun Sep 24 12:51:04 2023","1500","The main experiment item","False","Flankertask fixed.osexp","C:\Users\User","False","mono","False","18","no","white","no","yes","768","legacy","8","8","C:/Users/User/Desktop/data files/subject-1.csv","legacy","Melodramatic Milgram","4.0.5","0","h","NA","s","NA","NA","h","542.0","NA","37340","NA","NA","542","2","legacy","1024","2","48000","-16","experiment","HHHHH","1","odd","38527","NA","NA","41149","1181","NA","NA","53175","1186","NA","NA","52120","53276","53818","53173","53275","Flankertask","8","5450.0","9","1024"
"90","90","604","604","#3d3846","legacy","legacy","legacy","congruent","1","undefined","1","h","0","0","0","9","0","9","0","9","0","0","0","9","9","9","9","9","Sun Sep 24 12:51:04 2023","1500","The main experiment item","False","Flankertask fixed.osexp","C:\Users\User","False","mono","False","18","no","white","no","yes","768","legacy","9","9","C:/Users/User/Desktop/data files/subject-1.csv","legacy","Melodramatic Milgram","4.0.5","0","h","NA","s","NA","NA","h","595.0","NA","37340","NA","NA","595","2","legacy","1024","2","48000","-16","experiment","HHHHH","1","odd","38527","NA","NA","41149","1181","NA","NA","54864","1186","NA","NA","53821","54964","55560","54863","54964","Flankertask","9","6045.0","10","1024"
"90","90","601","601","#3d3846","legacy","legacy","legacy","congruent","1","undefined","1","s","0","0","0","10","0","10","0","10","0","0","0","10","10","10","10","10","Sun Sep 24 12:51:04 2023","1500","The main experiment item","False","Flankertask fixed.osexp","C:\Users\User","False","mono","False","18","no","white","no","yes","768","legacy","10","10","C:/Users/User/Desktop/data files/subject-1.csv","legacy","Melodramatic Milgram","4.0.5","0","s","NA","s","NA","NA","s","574.0","NA","37340","NA","NA","574","2","legacy","1024","2","48000","-16","experiment","SSSSS","1","odd","38527","NA","NA","41149","1181","NA","NA","56606","1186","NA","NA","55562","56707","57282","56605","56707","Flankertask","10","6619.0","11","1024"
"91","91","612","612","#3d3846","legacy","legacy","legacy","incongruent","1","undefined","1","h","0","0","0","11","0","11","0","11","0","0","0","11","11","11","11","11","Sun Sep 24 12:51:04 2023","1500","The main experiment item","False","Flankertask fixed.osexp","C:\Users\User","False","mono","False","18","no","white","no","yes","768","legacy","11","11","C:/Users/User/Desktop/data files/subject-1.csv","legacy","Melodramatic Milgram","4.0.5","0","h","NA","s","NA","NA","h","732.0","NA","37340","NA","NA","732","2","legacy","1024","2","48000","-16","experiment","SSHSS","1","odd","38527","NA","NA","41149","1181","NA","NA","58318","1186","NA","NA","57284","58418","59151","58317","58418","Flankertask","11","7351.0","12","1024"
"92","92","626","626","#3d3846","legacy","legacy","legacy","incongruent","1","undefined","1","s","0","0","0","12","0","12","0","12","0","0","0","12","12","12","12","12","Sun Sep 24 12:51:04 2023","1500","The main experiment item","False","Flankertask fixed.osexp","C:\Users\User","False","mono","False","18","no","white","no","yes","768","legacy","12","12","C:/Users/User/Desktop/data files/subject-1.csv","legacy","Melodramatic Milgram","4.0.5","0","s","NA","s","NA","NA","s","797.0","NA","37340","NA","NA","797","2","legacy","1024","2","48000","-16","experiment","HHSHH","1","odd","38527","NA","NA","41149","1181","NA","NA","60200","1186","NA","NA","59156","60301","61099","60198","60300","Flankertask","12","8148.0","13","1024"
"92","92","637","637","#3d3846","legacy","legacy","legacy","incongruent","1","undefined","1","s","0","0","0","13","0","13","0","13","0","0","0","13","13","13","13","13","Sun Sep 24 12:51:04 2023","1500","The main experiment item","False","Flankertask fixed.osexp","C:\Users\User","False","mono","False","18","no","white","no","yes","768","legacy","13","13","C:/Users/User/Desktop/data files/subject-1.csv","legacy","Melodramatic Milgram","4.0.5","0","s","NA","s","NA","NA","s","774.0","NA","37340","NA","NA","774","2","legacy","1024","2","48000","-16","experiment","HHSHH","1","odd","38527","NA","NA","41149","1181","NA","NA","62141","1186","NA","NA","61101","62242","63016","62140","62241","Flankertask","13","8922.0","14","1024"
"93","93","645","645","#3d3846","legacy","legacy","legacy","incongruent","1","undefined","1","h","0","0","0","14","0","14","0","14","0","0","0","14","14","14","14","14","Sun Sep 24 12:51:04 2023","1500","The main experiment item","False","Flankertask fixed.osexp","C:\Users\User","False","mono","False","18","no","white","no","yes","768","legacy","14","14","C:/Users/User/Desktop/data files/subject-1.csv","legacy","Melodramatic Milgram","4.0.5","0","h","NA","s","NA","NA","h","757.0","NA","37340","NA","NA","757","2","legacy","1024","2","48000","-16","experiment","SSHSS","1","odd","38527","NA","NA","41149","1181","NA","NA","64057","1186","NA","NA","63022","64157","64915","64056","64157","Flankertask","14","9679.0","15","1024"
"93","93","643","643","#3d3846","legacy","legacy","legacy","congruent","1","undefined","1","s","0","0","0","15","0","15","0","15","0","0","0","15","15","15","15","15","Sun Sep 24 12:51:04 2023","1500","The main experiment item","False","Flankertask fixed.osexp","C:\Users\User","False","mono","False","18","no","white","no","yes","768","legacy","15","15","C:/Users/User/Desktop/data files/subject-1.csv","legacy","Melodramatic Milgram","4.0.5","0","s","NA","s","NA","NA","s","613.0","NA","37340","NA","NA","613","2","legacy","1024","2","48000","-16","experiment","SSSSS","1","odd","38527","NA","NA","41149","1181","NA","NA","65959","1186","NA","NA","64921","66060","66674","65958","66059","Flankertask","15","10292.0","16","1024"
"94","94","643","643","#3d3846","legacy","legacy","legacy","incongruent","1","undefined","1","h","0","0","0","16","0","16","0","16","0","0","0","16","16","16","16","16","Sun Sep 24 12:51:04 2023","1500","The main experiment item","False","Flankertask fixed.osexp","C:\Users\User","False","mono","False","18","no","white","no","yes","768","legacy","16","16","C:/Users/User/Desktop/data files/subject-1.csv","legacy","Melodramatic Milgram","4.0.5","0","h","NA","s","NA","NA","h","644.0","NA","37340","NA","NA","644","2","legacy","1024","2","48000","-16","experiment","SSHSS","1","odd","38527","NA","NA","41149","1181","NA","NA","67725","1186","NA","NA","66680","67825","68470","67723","67825","Flankertask","16","10936.0","17","1024"
"88","88","640","640","#3d3846","legacy","legacy","legacy","incongruent","0","undefined","0","s","0","0","0","17","0","17","0","17","0","0","0","17","17","17","17","17","Sun Sep 24 12:51:04 2023","1500","The main experiment item","False","Flankertask fixed.osexp","C:\Users\User","False","mono","False","18","no","white","no","yes","768","legacy","17","17","C:/Users/User/Desktop/data files/subject-1.csv","legacy","Melodramatic Milgram","4.0.5","0","h","NA","s","NA","NA","h","585.0","NA","37340","NA","NA","585","2","legacy","1024","2","48000","-16","experiment","HHSHH","1","odd","38527","NA","NA","41149","1181","NA","NA","69531","1186","NA","NA","68478","69631","70217","69530","69631","Flankertask","16","11521.0","18","1024"
"89","89","635","635","#3d3846","legacy","legacy","legacy","congruent","1","undefined","1","s","0","0","0","18","0","18","0","18","0","0","0","18","18","18","18","18","Sun Sep 24 12:51:04 2023","1500","The main experiment item","False","Flankertask fixed.osexp","C:\Users\User","False","mono","False","18","no","white","no","yes","768","legacy","18","18","C:/Users/User/Desktop/data files/subject-1.csv","legacy","Melodramatic Milgram","4.0.5","0","s","NA","s","NA","NA","s","554.0","NA","37340","NA","NA","554","2","legacy","1024","2","48000","-16","experiment","SSSSS","1","odd","38527","NA","NA","70220","1181","NA","NA","71762","1186","NA","NA","70721","71863","72418","71760","71862","Flankertask","17","12075.0","19","1024"
"85","85","631","631","#3d3846","legacy","legacy","legacy","incongruent","0","undefined","0","s","0","0","0","19","0","19","0","19","0","0","0","19","19","19","19","19","Sun Sep 24 12:51:04 2023","1500","The main experiment item","False","Flankertask fixed.osexp","C:\Users\User","False","mono","False","18","no","white","no","yes","768","legacy","19","19","C:/Users/User/Desktop/data files/subject-1.csv","legacy","Melodramatic Milgram","4.0.5","0","h","NA","s","NA","NA","h","546.0","NA","37340","NA","NA","546","2","legacy","1024","2","48000","-16","experiment","HHSHH","1","odd","38527","NA","NA","70220","1181","NA","NA","73466","1186","NA","NA","72421","73567","74114","73464","73566","Flankertask","17","12621.0","20","1024"
"80","80","629","629","#3d3846","legacy","legacy","legacy","incongruent","0","undefined","0","h","0","0","0","20","0","20","0","20","0","0","0","20","20","20","20","20","Sun Sep 24 12:51:04 2023","1500","The main experiment item","False","Flankertask fixed.osexp","C:\Users\User","False","mono","False","18","no","white","no","yes","768","legacy","20","20","C:/Users/User/Desktop/data files/subject-1.csv","legacy","Melodramatic Milgram","4.0.5","0","s","NA","s","NA","NA","s","595.0","NA","37340","NA","NA","595","2","legacy","1024","2","48000","-16","experiment","SSHSS","1","odd","38527","NA","NA","74117","1181","NA","NA","75663","1186","NA","NA","74618","75763","76358","75661","75763","Flankertask","17","13216.0","21","1024"
"77","77","621","621","#3d3846","legacy","legacy","legacy","incongruent","0","undefined","0","s","0","0","0","21","0","21","0","21","0","0","0","21","21","21","21","21","Sun Sep 24 12:51:04 2023","1500","The main experiment item","False","Flankertask fixed.osexp","C:\Users\User","False","mono","False","18","no","white","no","yes","768","legacy","21","21","C:/Users/User/Desktop/data files/subject-1.csv","legacy","Melodramatic Milgram","4.0.5","0","h","NA","s","NA","NA","h","452.0","NA","37340","NA","NA","452","2","legacy","1024","2","48000","-16","experiment","HHSHH","1","odd","38527","NA","NA","76364","1181","NA","NA","77905","1186","NA","NA","76864","78005","78458","77904","78005","Flankertask","17","13668.0","22","1024"
"78","78","621","621","#3d3846","legacy","legacy","legacy","congruent","1","undefined","1","h","0","0","0","22","0","22","0","22","0","0","0","22","22","22","22","22","Sun Sep 24 12:51:04 2023","1500","The main experiment item","False","Flankertask fixed.osexp","C:\Users\User","False","mono","False","18","no","white","no","yes","768","legacy","22","22","C:/Users/User/Desktop/data files/subject-1.csv","legacy","Melodramatic Milgram","4.0.5","0","h","NA","s","NA","NA","h","628.0","NA","37340","NA","NA","628","2","legacy","1024","2","48000","-16","experiment","HHHHH","1","odd","38527","NA","NA","78461","1181","NA","NA","79999","1186","NA","NA","78961","80099","80727","79997","80099","Flankertask","18","14296.0","23","1024"
"79","79","627","627","#3d3846","legacy","legacy","legacy","incongruent","1","undefined","1","h","0","0","0","23","0","23","0","23","0","0","0","23","23","23","23","23","Sun Sep 24 12:51:04 2023","1500","The main experiment item","False","Flankertask fixed.osexp","C:\Users\User","False","mono","False","18","no","white","no","yes","768","legacy","23","23","C:/Users/User/Desktop/data files/subject-1.csv","legacy","Melodramatic Milgram","4.0.5","0","h","NA","s","NA","NA","h","765.0","NA","37340","NA","NA","765","2","legacy","1024","2","48000","-16","experiment","SSHSS","1","odd","38527","NA","NA","78461","1181","NA","NA","81766","1186","NA","NA","80732","81866","82631","81764","81866","Flankertask","19","15061.0","24","1024"
"80","80","630","630","#3d3846","legacy","legacy","legacy","incongruent","1","undefined","1","s","0","0","0","24","0","24","0","24","0","0","0","24","24","24","24","24","Sun Sep 24 12:51:04 2023","1500","The main experiment item","False","Flankertask fixed.osexp","C:\Users\User","False","mono","False","18","no","white","no","yes","768","legacy","24","24","C:/Users/User/Desktop/data files/subject-1.csv","legacy","Melodramatic Milgram","4.0.5","0","s","NA","s","NA","NA","s","696.0","NA","37340","NA","NA","696","2","legacy","1024","2","48000","-16","experiment","HHSHH","1","odd","38527","NA","NA","78461","1181","NA","NA","83668","1186","NA","NA","82637","83768","84465","83666","83768","Flankertask","20","15757.0","25","1024"
"80","80","633","633","#3d3846","legacy","legacy","legacy","incongruent","1","undefined","1","s","0","0","0","25","0","25","0","25","0","0","0","25","25","25","25","25","Sun Sep 24 12:51:04 2023","1500","The main experiment item","False","Flankertask fixed.osexp","C:\Users\User","False","mono","False","18","no","white","no","yes","768","legacy","25","25","C:/Users/User/Desktop/data files/subject-1.csv","legacy","Melodramatic Milgram","4.0.5","0","s","NA","s","NA","NA","s","714.0","NA","37340","NA","NA","714","2","legacy","1024","2","48000","-16","experiment","HHSHH","1","odd","38527","NA","NA","78461","1181","NA","NA","85502","1186","NA","NA","84471","85602","86317","85501","85602","Flankertask","21","16471.0","26","1024"
"81","81","643","643","#3d3846","legacy","legacy","legacy","incongruent","1","undefined","1","s","0","0","0","26","0","26","0","26","0","0","0","26","26","26","26","26","Sun Sep 24 12:51:04 2023","1500","The main experiment item","False","Flankertask fixed.osexp","C:\Users\User","False","mono","False","18","no","white","no","yes","768","legacy","26","26","C:/Users/User/Desktop/data files/subject-1.csv","legacy","Melodramatic Milgram","4.0.5","0","s","NA","s","NA","NA","s","895.0","NA","37340","NA","NA","895","2","legacy","1024","2","48000","-16","experiment","HHSHH","1","odd","38527","NA","NA","78461","1181","NA","NA","87393","1186","NA","NA","86357","87493","88389","87392","87493","Flankertask","22","17366.0","27","1024"
"82","82","643","643","#3d3846","legacy","legacy","legacy","incongruent","1","undefined","1","h","0","0","0","27","0","27","0","27","0","0","0","27","27","27","27","27","Sun Sep 24 12:51:04 2023","1500","The main experiment item","False","Flankertask fixed.osexp","C:\Users\User","False","mono","False","18","no","white","no","yes","768","legacy","27","27","C:/Users/User/Desktop/data files/subject-1.csv","legacy","Melodramatic Milgram","4.0.5","0","h","NA","s","NA","NA","h","659.0","NA","37340","NA","NA","659","2","legacy","1024","2","48000","-16","experiment","SSHSS","1","odd","38527","NA","NA","78461","1181","NA","NA","89424","1186","NA","NA","88394","89525","90184","89422","89525","Flankertask","23","18025.0","28","1024"
"82","82","643","643","#3d3846","legacy","legacy","legacy","incongruent","1","undefined","1","s","0","0","0","28","0","28","0","28","0","0","0","28","28","28","28","28","Sun Sep 24 12:51:04 2023","1500","The main experiment item","False","Flankertask fixed.osexp","C:\Users\User","False","mono","False","18","no","white","no","yes","768","legacy","28","28","C:/Users/User/Desktop/data files/subject-1.csv","legacy","Melodramatic Milgram","4.0.5","0","s","NA","s","NA","NA","s","648.0","NA","37340","NA","NA","648","2","legacy","1024","2","48000","-16","experiment","HHSHH","1","odd","38527","NA","NA","78461","1181","NA","NA","91222","1186","NA","NA","90190","91322","91970","91221","91322","Flankertask","24","18673.0","29","1024"
"83","83","644","644","#3d3846","legacy","legacy","legacy","congruent","1","undefined","1","h","0","0","0","29","0","29","0","29","0","0","0","29","29","29","29","29","Sun Sep 24 12:51:04 2023","1500","The main experiment item","False","Flankertask fixed.osexp","C:\Users\User","False","mono","False","18","no","white","no","yes","768","legacy","29","29","C:/Users/User/Desktop/data files/subject-1.csv","legacy","Melodramatic Milgram","4.0.5","0","h","NA","s","NA","NA","h","650.0","NA","37340","NA","NA","650","2","legacy","1024","2","48000","-16","experiment","HHHHH","1","odd","38527","NA","NA","78461","1181","NA","NA","93005","1186","NA","NA","91976","93106","93757","93004","93106","Flankertask","25","19323.0","30","1024"
"83","83","642","642","#3d3846","legacy","legacy","legacy","congruent","1","undefined","1","s","0","0","0","30","0","30","0","30","0","0","0","30","30","30","30","30","Sun Sep 24 12:51:04 2023","1500","The main experiment item","False","Flankertask fixed.osexp","C:\Users\User","False","mono","False","18","no","white","no","yes","768","legacy","30","30","C:/Users/User/Desktop/data files/subject-1.csv","legacy","Melodramatic Milgram","4.0.5","0","s","NA","s","NA","NA","s","607.0","NA","37340","NA","NA","607","2","legacy","1024","2","48000","-16","experiment","SSSSS","1","odd","38527","NA","NA","78461","1181","NA","NA","94793","1186","NA","NA","93759","94893","95501","94792","94893","Flankertask","26","19930.0","31","1024"
"84","84","642","642","#3d3846","legacy","legacy","legacy","incongruent","1","undefined","1","h","0","0","0","31","0","31","0","31","0","0","0","31","31","31","31","31","Sun Sep 24 12:51:04 2023","1500","The main experiment item","False","Flankertask fixed.osexp","C:\Users\User","False","mono","False","18","no","white","no","yes","768","legacy","31","31","C:/Users/User/Desktop/data files/subject-1.csv","legacy","Melodramatic Milgram","4.0.5","0","h","NA","s","NA","NA","h","624.0","NA","37340","NA","NA","624","2","legacy","1024","2","48000","-16","experiment","SSHSS","1","odd","38527","NA","NA","78461","1181","NA","NA","96546","1186","NA","NA","95504","96647","97271","96545","96647","Flankertask","27","20554.0","32","1024"
"84","84","643","643","#3d3846","legacy","legacy","legacy","incongruent","1","undefined","1","h","0","0","0","32","0","32","0","32","0","0","0","32","32","32","32","32","Sun Sep 24 12:51:04 2023","1500","The main experiment item","False","Flankertask fixed.osexp","C:\Users\User","False","mono","False","18","no","white","no","yes","768","legacy","32","32","C:/Users/User/Desktop/data files/subject-1.csv","legacy","Melodramatic Milgram","4.0.5","0","h","NA","s","NA","NA","h","692.0","NA","37340","NA","NA","692","2","legacy","1024","2","48000","-16","experiment","SSHSS","1","odd","38527","NA","NA","78461","1181","NA","NA","98311","1186","NA","NA","97277","98411","99104","98309","98411","Flankertask","28","21246.0","33","1024"
"85","85","640","640","#3d3846","legacy","legacy","legacy","congruent","1","undefined","1","h","0","0","0","33","0","33","0","33","0","0","0","33","33","33","33","33","Sun Sep 24 12:51:04 2023","1500","The main experiment item","False","Flankertask fixed.osexp","C:\Users\User","False","mono","False","18","no","white","no","yes","768","legacy","33","33","C:/Users/User/Desktop/data files/subject-1.csv","legacy","Melodramatic Milgram","4.0.5","0","h","NA","s","NA","NA","h","537.0","NA","37340","NA","NA","537","2","legacy","1024","2","48000","-16","experiment","HHHHH","1","odd","38527","NA","NA","78461","1181","NA","NA","100141","1186","NA","NA","99110","100241","100779","100140","100241","Flankertask","29","21783.0","34","1024"
"85","85","643","643","#3d3846","legacy","legacy","legacy","incongruent","1","undefined","1","h","0","0","0","34","0","34","0","34","0","0","0","34","34","34","34","34","Sun Sep 24 12:51:04 2023","1500","The main experiment item","False","Flankertask fixed.osexp","C:\Users\User","False","mono","False","18","no","white","no","yes","768","legacy","34","34","C:/Users/User/Desktop/data files/subject-1.csv","legacy","Melodramatic Milgram","4.0.5","0","h","NA","s","NA","NA","h","722.0","NA","37340","NA","NA","722","2","legacy","1024","2","48000","-16","experiment","SSHSS","1","odd","38527","NA","NA","78461","1181","NA","NA","101816","1186","NA","NA","100784","101916","102639","101815","101916","Flankertask","30","22505.0","35","1024"
"86","86","645","645","#3d3846","legacy","legacy","legacy","congruent","1","undefined","1","h","0","0","0","35","0","35","0","35","0","0","0","35","35","35","35","35","Sun Sep 24 12:51:04 2023","1500","The main experiment item","False","Flankertask fixed.osexp","C:\Users\User","False","mono","False","18","no","white","no","yes","768","legacy","35","35","C:/Users/User/Desktop/data files/subject-1.csv","legacy","Melodramatic Milgram","4.0.5","0","h","NA","s","NA","NA","h","733.0","NA","37340","NA","NA","733","2","legacy","1024","2","48000","-16","experiment","HHHHH","1","odd","38527","NA","NA","78461","1181","NA","NA","103682","1186","NA","NA","102644","103782","104515","103680","103782","Flankertask","31","23238.0","36","1024"
"86","86","641","641","#3d3846","legacy","legacy","legacy","congruent","1","undefined","1","s","0","0","0","36","0","36","0","36","0","0","0","36","36","36","36","36","Sun Sep 24 12:51:04 2023","1500","The main experiment item","False","Flankertask fixed.osexp","C:\Users\User","False","mono","False","18","no","white","no","yes","768","legacy","36","36","C:/Users/User/Desktop/data files/subject-1.csv","legacy","Melodramatic Milgram","4.0.5","0","s","NA","s","NA","NA","s","494.0","NA","37340","NA","NA","494","2","legacy","1024","2","48000","-16","experiment","SSSSS","1","odd","38527","NA","NA","78461","1181","NA","NA","105553","1186","NA","NA","104521","105653","106148","105552","105653","Flankertask","32","23732.0","37","1024"
"86","86","640","640","#3d3846","legacy","legacy","legacy","congruent","1","undefined","1","s","0","0","0","37","0","37","0","37","0","0","0","37","37","37","37","37","Sun Sep 24 12:51:04 2023","1500","The main experiment item","False","Flankertask fixed.osexp","C:\Users\User","False","mono","False","18","no","white","no","yes","768","legacy","37","37","C:/Users/User/Desktop/data files/subject-1.csv","legacy","Melodramatic Milgram","4.0.5","0","s","NA","s","NA","NA","s","621.0","NA","37340","NA","NA","621","2","legacy","1024","2","48000","-16","experiment","SSSSS","1","odd","38527","NA","NA","78461","1181","NA","NA","107183","1186","NA","NA","106154","107283","107905","107182","107283","Flankertask","33","24353.0","38","1024"
"87","87","639","639","#3d3846","legacy","legacy","legacy","congruent","1","undefined","1","h","0","0","0","38","0","38","0","38","0","0","0","38","38","38","38","38","Sun Sep 24 12:51:04 2023","1500","The main experiment item","False","Flankertask fixed.osexp","C:\Users\User","False","mono","False","18","no","white","no","yes","768","legacy","38","38","C:/Users/User/Desktop/data files/subject-1.csv","legacy","Melodramatic Milgram","4.0.5","0","h","NA","s","NA","NA","h","580.0","NA","37340","NA","NA","580","2","legacy","1024","2","48000","-16","experiment","HHHHH","1","odd","38527","NA","NA","78461","1181","NA","NA","108941","1186","NA","NA","107911","109041","109622","108940","109041","Flankertask","34","24933.0","39","1024"
"87","87","638","638","#3d3846","legacy","legacy","legacy","incongruent","1","undefined","1","s","0","0","0","39","0","39","0","39","0","0","0","39","39","39","39","39","Sun Sep 24 12:51:04 2023","1500","The main experiment item","False","Flankertask fixed.osexp","C:\Users\User","False","mono","False","18","no","white","no","yes","768","legacy","39","39","C:/Users/User/Desktop/data files/subject-1.csv","legacy","Melodramatic Milgram","4.0.5","0","s","NA","s","NA","NA","s","591.0","NA","37340","NA","NA","591","2","legacy","1024","2","48000","-16","experiment","HHSHH","1","odd","38527","NA","NA","78461","1181","NA","NA","110672","1186","NA","NA","109627","110772","111363","110671","110772","Flankertask","35","25524.0","40","1024"
"87","87","637","637","#3d3846","legacy","legacy","legacy","incongruent","1","undefined","1","h","0","0","0","40","0","40","0","40","0","0","0","40","40","40","40","40","Sun Sep 24 12:51:04 2023","1500","The main experiment item","False","Flankertask fixed.osexp","C:\Users\User","False","mono","False","18","no","white","no","yes","768","legacy","40","40","C:/Users/User/Desktop/data files/subject-1.csv","legacy","Melodramatic Milgram","4.0.5","0","h","NA","s","NA","NA","h","621.0","NA","37340","NA","NA","621","2","legacy","1024","2","48000","-16","experiment","SSHSS","1","odd","38527","NA","NA","78461","1181","NA","NA","112400","1186","NA","NA","111369","112500","113122","112399","112500","Flankertask","36","26145.0","41","1024"
"88","88","637","637","#3d3846","legacy","legacy","legacy","congruent","1","undefined","1","s","0","0","0","41","0","41","0","41","0","0","0","41","41","41","41","41","Sun Sep 24 12:51:04 2023","1500","The main experiment item","False","Flankertask fixed.osexp","C:\Users\User","False","mono","False","18","no","white","no","yes","768","legacy","41","41","C:/Users/User/Desktop/data files/subject-1.csv","legacy","Melodramatic Milgram","4.0.5","0","s","NA","s","NA","NA","s","618.0","NA","37340","NA","NA","618","2","legacy","1024","2","48000","-16","experiment","SSSSS","1","odd","38527","NA","NA","78461","1181","NA","NA","114157","1186","NA","NA","113127","114257","114876","114156","114257","Flankertask","37","26763.0","42","1024"
"88","88","637","637","#3d3846","legacy","legacy","legacy","incongruent","1","undefined","1","h","0","0","0","42","0","42","0","42","0","0","0","42","42","42","42","42","Sun Sep 24 12:51:04 2023","1500","The main experiment item","False","Flankertask fixed.osexp","C:\Users\User","False","mono","False","18","no","white","no","yes","768","legacy","42","42","C:/Users/User/Desktop/data files/subject-1.csv","legacy","Melodramatic Milgram","4.0.5","0","h","NA","s","NA","NA","h","661.0","NA","37340","NA","NA","661","2","legacy","1024","2","48000","-16","experiment","SSHSS","1","odd","38527","NA","NA","78461","1181","NA","NA","115913","1186","NA","NA","114879","116013","116675","115911","116013","Flankertask","38","27424.0","43","1024"
"88","88","636","636","#3d3846","legacy","legacy","legacy","incongruent","1","undefined","1","s","0","0","0","43","0","43","0","43","0","0","0","43","43","43","43","43","Sun Sep 24 12:51:04 2023","1500","The main experiment item","False","Flankertask fixed.osexp","C:\Users\User","False","mono","False","18","no","white","no","yes","768","legacy","43","43","C:/Users/User/Desktop/data files/subject-1.csv","legacy","Melodramatic Milgram","4.0.5","0","s","NA","s","NA","NA","s","595.0","NA","37340","NA","NA","595","2","legacy","1024","2","48000","-16","experiment","HHSHH","1","odd","38527","NA","NA","78461","1181","NA","NA","117709","1186","NA","NA","116680","117809","118405","117707","117809","Flankertask","39","28019.0","44","1024"
"88","88","636","636","#3d3846","legacy","legacy","legacy","congruent","1","undefined","1","s","0","0","0","44","0","44","0","44","0","0","0","44","44","44","44","44","Sun Sep 24 12:51:04 2023","1500","The main experiment item","False","Flankertask fixed.osexp","C:\Users\User","False","mono","False","18","no","white","no","yes","768","legacy","44","44","C:/Users/User/Desktop/data files/subject-1.csv","legacy","Melodramatic Milgram","4.0.5","0","s","NA","s","NA","NA","s","620.0","NA","37340","NA","NA","620","2","legacy","1024","2","48000","-16","experiment","SSSSS","1","odd","38527","NA","NA","78461","1181","NA","NA","119446","1186","NA","NA","118411","119546","120167","119445","119546","Flankertask","40","28639.0","45","1024"
"89","89","636","636","#3d3846","legacy","legacy","legacy","congruent","1","undefined","1","s","0","0","0","45","0","45","0","45","0","0","0","45","45","45","45","45","Sun Sep 24 12:51:04 2023","1500","The main experiment item","False","Flankertask fixed.osexp","C:\Users\User","False","mono","False","18","no","white","no","yes","768","legacy","45","45","C:/Users/User/Desktop/data files/subject-1.csv","legacy","Melodramatic Milgram","4.0.5","0","s","NA","s","NA","NA","s","653.0","NA","37340","NA","NA","653","2","legacy","1024","2","48000","-16","experiment","SSSSS","1","odd","38527","NA","NA","78461","1181","NA","NA","121205","1186","NA","NA","120172","121305","121958","121203","121305","Flankertask","41","29292.0","46","1024"
"89","89","637","637","#3d3846","legacy","legacy","legacy","incongruent","1","undefined","1","s","0","0","0","46","0","46","0","46","0","0","0","46","46","46","46","46","Sun Sep 24 12:51:04 2023","1500","The main experiment item","False","Flankertask fixed.osexp","C:\Users\User","False","mono","False","18","no","white","no","yes","768","legacy","46","46","C:/Users/User/Desktop/data files/subject-1.csv","legacy","Melodramatic Milgram","4.0.5","0","s","NA","s","NA","NA","s","673.0","NA","37340","NA","NA","673","2","legacy","1024","2","48000","-16","experiment","HHSHH","1","odd","38527","NA","NA","78461","1181","NA","NA","122994","1186","NA","NA","121964","123094","123768","122993","123094","Flankertask","42","29965.0","47","1024"
"89","89","636","636","#3d3846","legacy","legacy","legacy","congruent","1","undefined","1","s","0","0","0","47","0","47","0","47","0","0","0","47","47","47","47","47","Sun Sep 24 12:51:04 2023","1500","The main experiment item","False","Flankertask fixed.osexp","C:\Users\User","False","mono","False","18","no","white","no","yes","768","legacy","47","47","C:/Users/User/Desktop/data files/subject-1.csv","legacy","Melodramatic Milgram","4.0.5","0","s","NA","s","NA","NA","s","565.0","NA","37340","NA","NA","565","2","legacy","1024","2","48000","-16","experiment","SSSSS","1","odd","38527","NA","NA","78461","1181","NA","NA","124804","1186","NA","NA","123774","124905","125471","124803","124905","Flankertask","43","30530.0","48","1024"
"89","89","635","635","#3d3846","legacy","legacy","legacy","incongruent","1","undefined","1","h","0","0","0","48","0","48","0","48","0","0","0","48","48","48","48","48","Sun Sep 24 12:51:04 2023","1500","The main experiment item","False","Flankertask fixed.osexp","C:\Users\User","False","mono","False","18","no","white","no","yes","768","legacy","48","48","C:/Users/User/Desktop/data files/subject-1.csv","legacy","Melodramatic Milgram","4.0.5","0","h","NA","s","NA","NA","h","618.0","NA","37340","NA","NA","618","2","legacy","1024","2","48000","-16","experiment","SSHSS","1","odd","38527","NA","NA","78461","1181","NA","NA","126512","1186","NA","NA","125477","126612","127231","126511","126612","Flankertask","44","31148.0","49","1024"
"90","90","636","636","#3d3846","legacy","legacy","legacy","incongruent","1","undefined","1","s","0","0","0","49","0","49","0","49","0","0","0","49","49","49","49","49","Sun Sep 24 12:51:04 2023","1500","The main experiment item","False","Flankertask fixed.osexp","C:\Users\User","False","mono","False","18","no","white","no","yes","768","legacy","49","49","C:/Users/User/Desktop/data files/subject-1.csv","legacy","Melodramatic Milgram","4.0.5","0","s","NA","s","NA","NA","s","675.0","NA","37340","NA","NA","675","2","legacy","1024","2","48000","-16","experiment","HHSHH","1","odd","38527","NA","NA","78461","1181","NA","NA","128269","1186","NA","NA","127236","128370","129046","128268","128369","Flankertask","45","31823.0","50","1024"
"90","90","636","636","#3d3846","legacy","legacy","legacy","incongruent","1","undefined","1","h","0","0","0","50","0","50","0","50","0","0","0","50","50","50","50","50","Sun Sep 24 12:51:04 2023","1500","The main experiment item","False","Flankertask fixed.osexp","C:\Users\User","False","mono","False","18","no","white","no","yes","768","legacy","50","50","C:/Users/User/Desktop/data files/subject-1.csv","legacy","Melodramatic Milgram","4.0.5","0","h","NA","s","NA","NA","h","643.0","NA","37340","NA","NA","643","2","legacy","1024","2","48000","-16","experiment","SSHSS","1","odd","38527","NA","NA","78461","1181","NA","NA","130090","1186","NA","NA","129049","130191","130835","130089","130191","Flankertask","46","32466.0","51","1024"
"88","88","633","633","#3d3846","legacy","legacy","legacy","incongruent","0","undefined","0","h","0","0","0","51","0","51","0","51","0","0","0","51","51","51","51","51","Sun Sep 24 12:51:04 2023","1500","The main experiment item","False","Flankertask fixed.osexp","C:\Users\User","False","mono","False","18","no","white","no","yes","768","legacy","51","51","C:/Users/User/Desktop/data files/subject-1.csv","legacy","Melodramatic Milgram","4.0.5","0","s","NA","s","NA","NA","s","455.0","NA","37340","NA","NA","455","2","legacy","1024","2","48000","-16","experiment","SSHSS","1","odd","38527","NA","NA","78461","1181","NA","NA","131869","1186","NA","NA","130838","131969","132424","131868","131969","Flankertask","46","32921.0","52","1024"
"88","88","631","631","#3d3846","legacy","legacy","legacy","congruent","1","undefined","1","h","0","0","0","52","0","52","0","52","0","0","0","52","52","52","52","52","Sun Sep 24 12:51:04 2023","1500","The main experiment item","False","Flankertask fixed.osexp","C:\Users\User","False","mono","False","18","no","white","no","yes","768","legacy","52","52","C:/Users/User/Desktop/data files/subject-1.csv","legacy","Melodramatic Milgram","4.0.5","0","h","NA","s","NA","NA","h","565.0","NA","37340","NA","NA","565","2","legacy","1024","2","48000","-16","experiment","HHHHH","1","odd","38527","NA","NA","132431","1181","NA","NA","133958","1186","NA","NA","132931","134058","134624","133956","134058","Flankertask","47","33486.0","53","1024"
"88","88","630","630","#3d3846","legacy","legacy","legacy","congruent","1","undefined","1","h","0","0","0","53","0","53","0","53","0","0","0","53","53","53","53","53","Sun Sep 24 12:51:04 2023","1500","The main experiment item","False","Flankertask fixed.osexp","C:\Users\User","False","mono","False","18","no","white","no","yes","768","legacy","53","53","C:/Users/User/Desktop/data files/subject-1.csv","legacy","Melodramatic Milgram","4.0.5","0","h","NA","s","NA","NA","h","543.0","NA","37340","NA","NA","543","2","legacy","1024","2","48000","-16","experiment","HHHHH","1","odd","38527","NA","NA","132431","1181","NA","NA","135667","1186","NA","NA","134630","135767","136311","135666","135767","Flankertask","48","34029.0","54","1024"
"89","89","628","628","#3d3846","legacy","legacy","legacy","congruent","1","undefined","1","h","0","0","0","54","0","54","0","54","0","0","0","54","54","54","54","54","Sun Sep 24 12:51:04 2023","1500","The main experiment item","False","Flankertask fixed.osexp","C:\Users\User","False","mono","False","18","no","white","no","yes","768","legacy","54","54","C:/Users/User/Desktop/data files/subject-1.csv","legacy","Melodramatic Milgram","4.0.5","0","h","NA","s","NA","NA","h","537.0","NA","37340","NA","NA","537","2","legacy","1024","2","48000","-16","experiment","HHHHH","1","odd","38527","NA","NA","132431","1181","NA","NA","137351","1186","NA","NA","136317","137451","137988","137349","137451","Flankertask","49","34566.0","55","1024"
"89","89","627","627","#3d3846","legacy","legacy","legacy","incongruent","1","undefined","1","h","0","0","0","55","0","55","0","55","0","0","0","55","55","55","55","55","Sun Sep 24 12:51:04 2023","1500","The main experiment item","False","Flankertask fixed.osexp","C:\Users\User","False","mono","False","18","no","white","no","yes","768","legacy","55","55","C:/Users/User/Desktop/data files/subject-1.csv","legacy","Melodramatic Milgram","4.0.5","0","h","NA","s","NA","NA","h","562.0","NA","37340","NA","NA","562","2","legacy","1024","2","48000","-16","experiment","SSHSS","1","odd","38527","NA","NA","132431","1181","NA","NA","139022","1186","NA","NA","137994","139122","139685","139021","139122","Flankertask","50","35128.0","56","1024"
"89","89","626","626","#3d3846","legacy","legacy","legacy","congruent","1","undefined","1","h","0","0","0","56","0","56","0","56","0","0","0","56","56","56","56","56","Sun Sep 24 12:51:04 2023","1500","The main experiment item","False","Flankertask fixed.osexp","C:\Users\User","False","mono","False","18","no","white","no","yes","768","legacy","56","56","C:/Users/User/Desktop/data files/subject-1.csv","legacy","Melodramatic Milgram","4.0.5","0","h","NA","s","NA","NA","h","568.0","NA","37340","NA","NA","568","2","legacy","1024","2","48000","-16","experiment","HHHHH","1","odd","38527","NA","NA","132431","1181","NA","NA","140717","1186","NA","NA","139690","140817","141386","140716","140817","Flankertask","51","35696.0","57","1024"
"89","89","628","628","#3d3846","legacy","legacy","legacy","incongruent","1","undefined","1","s","0","0","0","57","0","57","0","57","0","0","0","57","57","57","57","57","Sun Sep 24 12:51:04 2023","1500","The main experiment item","False","Flankertask fixed.osexp","C:\Users\User","False","mono","False","18","no","white","no","yes","768","legacy","57","57","C:/Users/User/Desktop/data files/subject-1.csv","legacy","Melodramatic Milgram","4.0.5","0","s","NA","s","NA","NA","s","753.0","NA","37340","NA","NA","753","2","legacy","1024","2","48000","-16","experiment","HHSHH","1","odd","38527","NA","NA","132431","1181","NA","NA","142419","1186","NA","NA","141392","142519","143273","142418","142519","Flankertask","52","36449.0","58","1024"
"89","89","630","630","#3d3846","legacy","legacy","legacy","incongruent","1","undefined","1","h","0","0","0","58","0","58","0","58","0","0","0","58","58","58","58","58","Sun Sep 24 12:51:04 2023","1500","The main experiment item","False","Flankertask fixed.osexp","C:\Users\User","False","mono","False","18","no","white","no","yes","768","legacy","58","58","C:/Users/User/Desktop/data files/subject-1.csv","legacy","Melodramatic Milgram","4.0.5","0","h","NA","s","NA","NA","h","767.0","NA","37340","NA","NA","767","2","legacy","1024","2","48000","-16","experiment","SSHSS","1","odd","38527","NA","NA","132431","1181","NA","NA","144307","1186","NA","NA","143279","144407","145175","144306","144407","Flankertask","53","37216.0","59","1024"
"90","90","630","630","#3d3846","legacy","legacy","legacy","incongruent","1","undefined","1","h","0","0","0","59","0","59","0","59","0","0","0","59","59","59","59","59","Sun Sep 24 12:51:04 2023","1500","The main experiment item","False","Flankertask fixed.osexp","C:\Users\User","False","mono","False","18","no","white","no","yes","768","legacy","59","59","C:/Users/User/Desktop/data files/subject-1.csv","legacy","Melodramatic Milgram","4.0.5","0","h","NA","s","NA","NA","h","628.0","NA","37340","NA","NA","628","2","legacy","1024","2","48000","-16","experiment","SSHSS","1","odd","38527","NA","NA","132431","1181","NA","NA","146247","1186","NA","NA","145218","146347","146976","146246","146347","Flankertask","54","37844.0","60","1024"
"90","90","630","630","#3d3846","legacy","legacy","legacy","congruent","1","undefined","1","h","0","0","0","60","0","60","0","60","0","0","0","60","60","60","60","60","Sun Sep 24 12:51:04 2023","1500","The main experiment item","False","Flankertask fixed.osexp","C:\Users\User","False","mono","False","18","no","white","no","yes","768","legacy","60","60","C:/Users/User/Desktop/data files/subject-1.csv","legacy","Melodramatic Milgram","4.0.5","0","h","NA","s","NA","NA","h","611.0","NA","37340","NA","NA","611","2","legacy","1024","2","48000","-16","experiment","HHHHH","1","odd","38527","NA","NA","132431","1181","NA","NA","148013","1186","NA","NA","146981","148113","148725","148011","148113","Flankertask","55","38455.0","61","1024"
"90","90","629","629","#3d3846","legacy","legacy","legacy","congruent","1","undefined","1","s","0","0","0","61","0","61","0","61","0","0","0","61","61","61","61","61","Sun Sep 24 12:51:04 2023","1500","The main experiment item","False","Flankertask fixed.osexp","C:\Users\User","False","mono","False","18","no","white","no","yes","768","legacy","61","61","C:/Users/User/Desktop/data files/subject-1.csv","legacy","Melodramatic Milgram","4.0.5","0","s","NA","s","NA","NA","s","570.0","NA","37340","NA","NA","570","2","legacy","1024","2","48000","-16","experiment","SSSSS","1","odd","38527","NA","NA","132431","1181","NA","NA","149777","1186","NA","NA","148731","149878","150449","149775","149877","Flankertask","56","39025.0","62","1024"
"90","90","628","628","#3d3846","legacy","legacy","legacy","congruent","1","undefined","1","s","0","0","0","62","0","62","0","62","0","0","0","62","62","62","62","62","Sun Sep 24 12:51:04 2023","1500","The main experiment item","False","Flankertask fixed.osexp","C:\Users\User","False","mono","False","18","no","white","no","yes","768","legacy","62","62","C:/Users/User/Desktop/data files/subject-1.csv","legacy","Melodramatic Milgram","4.0.5","0","s","NA","s","NA","NA","s","555.0","NA","37340","NA","NA","555","2","legacy","1024","2","48000","-16","experiment","SSSSS","1","odd","38527","NA","NA","132431","1181","NA","NA","151496","1186","NA","NA","150455","151596","152152","151494","151596","Flankertask","57","39580.0","63","1024"
"90","90","630","630","#3d3846","legacy","legacy","legacy","congruent","1","undefined","1","s","0","0","0","63","0","63","0","63","0","0","0","63","63","63","63","63","Sun Sep 24 12:51:04 2023","1500","The main experiment item","False","Flankertask fixed.osexp","C:\Users\User","False","mono","False","18","no","white","no","yes","768","legacy","63","63","C:/Users/User/Desktop/data files/subject-1.csv","legacy","Melodramatic Milgram","4.0.5","0","s","NA","s","NA","NA","s","761.0","NA","37340","NA","NA","761","2","legacy","1024","2","48000","-16","experiment","SSSSS","1","odd","38527","NA","NA","132431","1181","NA","NA","153199","1186","NA","NA","152156","153300","154062","153197","153300","Flankertask","58","40341.0","64","1024"
"90","90","628","628","#3d3846","legacy","legacy","legacy","congruent","1","undefined","1","h","0","0","0","64","0","64","0","64","0","0","0","64","64","64","64","64","Sun Sep 24 12:51:04 2023","1500","The main experiment item","False","Flankertask fixed.osexp","C:\Users\User","False","mono","False","18","no","white","no","yes","768","legacy","64","64","C:/Users/User/Desktop/data files/subject-1.csv","legacy","Melodramatic Milgram","4.0.5","0","h","NA","s","NA","NA","h","534.0","NA","37340","NA","NA","534","2","legacy","1024","2","48000","-16","experiment","HHHHH","1","odd","38527","NA","NA","132431","1181","NA","NA","155118","1186","NA","NA","154076","155219","155754","155117","155219","Flankertask","59","40875.0","65","1024"
"90","90","627","627","#3d3846","legacy","legacy","legacy","congruent","1","undefined","1","s","0","0","0","65","0","65","0","65","0","0","0","65","65","65","65","65","Sun Sep 24 12:51:04 2023","1500","The main experiment item","False","Flankertask fixed.osexp","C:\Users\User","False","mono","False","18","no","white","no","yes","768","legacy","65","65","C:/Users/User/Desktop/data files/subject-1.csv","legacy","Melodramatic Milgram","4.0.5","0","s","NA","s","NA","NA","s","566.0","NA","37340","NA","NA","566","2","legacy","1024","2","48000","-16","experiment","SSSSS","1","odd","38527","NA","NA","132431","1181","NA","NA","156796","1186","NA","NA","155757","156896","157463","156795","156896","Flankertask","60","41441.0","66","1024"
"91","91","627","627","#3d3846","legacy","legacy","legacy","incongruent","1","undefined","1","h","0","0","0","66","0","66","0","66","0","0","0","66","66","66","66","66","Sun Sep 24 12:51:04 2023","1500","The main experiment item","False","Flankertask fixed.osexp","C:\Users\User","False","mono","False","18","no","white","no","yes","768","legacy","66","66","C:/Users/User/Desktop/data files/subject-1.csv","legacy","Melodramatic Milgram","4.0.5","0","h","NA","s","NA","NA","h","624.0","NA","37340","NA","NA","624","2","legacy","1024","2","48000","-16","experiment","SSHSS","1","odd","38527","NA","NA","132431","1181","NA","NA","158496","1186","NA","NA","157469","158596","159221","158495","158596","Flankertask","61","42065.0","67","1024"
"91","91","626","626","#3d3846","legacy","legacy","legacy","congruent","1","undefined","1","h","0","0","0","67","0","67","0","67","0","0","0","67","67","67","67","67","Sun Sep 24 12:51:04 2023","1500","The main experiment item","False","Flankertask fixed.osexp","C:\Users\User","False","mono","False","18","no","white","no","yes","768","legacy","67","67","C:/Users/User/Desktop/data files/subject-1.csv","legacy","Melodramatic Milgram","4.0.5","0","h","NA","s","NA","NA","h","550.0","NA","37340","NA","NA","550","2","legacy","1024","2","48000","-16","experiment","HHHHH","1","odd","38527","NA","NA","132431","1181","NA","NA","160259","1186","NA","NA","159227","160359","160910","160258","160359","Flankertask","62","42615.0","68","1024"
"91","91","624","624","#3d3846","legacy","legacy","legacy","congruent","1","undefined","1","s","0","0","0","68","0","68","0","68","0","0","0","68","68","68","68","68","Sun Sep 24 12:51:04 2023","1500","The main experiment item","False","Flankertask fixed.osexp","C:\Users\User","False","mono","False","18","no","white","no","yes","768","legacy","68","68","C:/Users/User/Desktop/data files/subject-1.csv","legacy","Melodramatic Milgram","4.0.5","0","s","NA","s","NA","NA","s","508.0","NA","37340","NA","NA","508","2","legacy","1024","2","48000","-16","experiment","SSSSS","1","odd","38527","NA","NA","132431","1181","NA","NA","161948","1186","NA","NA","160916","162048","162556","161947","162048","Flankertask","63","43123.0","69","1024"
"91","91","625","625","#3d3846","legacy","legacy","legacy","congruent","1","undefined","1","s","0","0","0","69","0","69","0","69","0","0","0","69","69","69","69","69","Sun Sep 24 12:51:04 2023","1500","The main experiment item","False","Flankertask fixed.osexp","C:\Users\User","False","mono","False","18","no","white","no","yes","768","legacy","69","69","C:/Users/User/Desktop/data files/subject-1.csv","legacy","Melodramatic Milgram","4.0.5","0","s","NA","s","NA","NA","s","647.0","NA","37340","NA","NA","647","2","legacy","1024","2","48000","-16","experiment","SSSSS","1","odd","38527","NA","NA","132431","1181","NA","NA","163589","1186","NA","NA","162559","163689","164337","163588","163689","Flankertask","64","43770.0","70","1024"
"91","91","626","626","#3d3846","legacy","legacy","legacy","incongruent","1","undefined","1","s","0","0","0","70","0","70","0","70","0","0","0","70","70","70","70","70","Sun Sep 24 12:51:04 2023","1500","The main experiment item","False","Flankertask fixed.osexp","C:\Users\User","False","mono","False","18","no","white","no","yes","768","legacy","70","70","C:/Users/User/Desktop/data files/subject-1.csv","legacy","Melodramatic Milgram","4.0.5","0","s","NA","s","NA","NA","s","703.0","NA","37340","NA","NA","703","2","legacy","1024","2","48000","-16","experiment","HHSHH","1","odd","38527","NA","NA","132431","1181","NA","NA","165372","1186","NA","NA","164342","165472","166175","165371","165472","Flankertask","65","44473.0","71","1024"
"91","91","626","626","#3d3846","legacy","legacy","legacy","incongruent","1","undefined","1","s","0","0","0","71","0","71","0","71","0","0","0","71","71","71","71","71","Sun Sep 24 12:51:04 2023","1500","The main experiment item","False","Flankertask fixed.osexp","C:\Users\User","False","mono","False","18","no","white","no","yes","768","legacy","71","71","C:/Users/User/Desktop/data files/subject-1.csv","legacy","Melodramatic Milgram","4.0.5","0","s","NA","s","NA","NA","s","661.0","NA","37340","NA","NA","661","2","legacy","1024","2","48000","-16","experiment","HHSHH","1","odd","38527","NA","NA","132431","1181","NA","NA","167218","1186","NA","NA","166181","167318","167980","167216","167318","Flankertask","66","45134.0","72","1024"
"91","91","626","626","#3d3846","legacy","legacy","legacy","congruent","1","undefined","1","h","0","0","0","72","0","72","0","72","0","0","0","72","72","72","72","72","Sun Sep 24 12:51:04 2023","1500","The main experiment item","False","Flankertask fixed.osexp","C:\Users\User","False","mono","False","18","no","white","no","yes","768","legacy","72","72","C:/Users/User/Desktop/data files/subject-1.csv","legacy","Melodramatic Milgram","4.0.5","0","h","NA","s","NA","NA","h","574.0","NA","37340","NA","NA","574","2","legacy","1024","2","48000","-16","experiment","HHHHH","1","odd","38527","NA","NA","132431","1181","NA","NA","169017","1186","NA","NA","167987","169118","169692","169016","169118","Flankertask","67","45708.0","73","1024"
"91","91","624","624","#3d3846","legacy","legacy","legacy","congruent","1","undefined","1","h","0","0","0","73","0","73","0","73","0","0","0","73","73","73","73","73","Sun Sep 24 12:51:04 2023","1500","The main experiment item","False","Flankertask fixed.osexp","C:\Users\User","False","mono","False","18","no","white","no","yes","768","legacy","73","73","C:/Users/User/Desktop/data files/subject-1.csv","legacy","Melodramatic Milgram","4.0.5","0","h","NA","s","NA","NA","h","502.0","NA","37340","NA","NA","502","2","legacy","1024","2","48000","-16","experiment","HHHHH","1","odd","38527","NA","NA","132431","1181","NA","NA","170739","1186","NA","NA","169698","170840","171343","170737","170839","Flankertask","68","46210.0","74","1024"
"92","92","622","622","#3d3846","legacy","legacy","legacy","congruent","1","undefined","1","s","0","0","0","74","0","74","0","74","0","0","0","74","74","74","74","74","Sun Sep 24 12:51:04 2023","1500","The main experiment item","False","Flankertask fixed.osexp","C:\Users\User","False","mono","False","18","no","white","no","yes","768","legacy","74","74","C:/Users/User/Desktop/data files/subject-1.csv","legacy","Melodramatic Milgram","4.0.5","0","s","NA","s","NA","NA","s","510.0","NA","37340","NA","NA","510","2","legacy","1024","2","48000","-16","experiment","SSSSS","1","odd","38527","NA","NA","132431","1181","NA","NA","172385","1186","NA","NA","171345","172485","172996","172384","172485","Flankertask","69","46720.0","75","1024"
"90","90","622","622","#3d3846","legacy","legacy","legacy","incongruent","0","undefined","0","s","0","0","0","75","0","75","0","75","0","0","0","75","75","75","75","75","Sun Sep 24 12:51:04 2023","1500","The main experiment item","False","Flankertask fixed.osexp","C:\Users\User","False","mono","False","18","no","white","no","yes","768","legacy","75","75","C:/Users/User/Desktop/data files/subject-1.csv","legacy","Melodramatic Milgram","4.0.5","0","h","NA","s","NA","NA","h","572.0","NA","37340","NA","NA","572","2","legacy","1024","2","48000","-16","experiment","HHSHH","1","odd","38527","NA","NA","132431","1181","NA","NA","174030","1186","NA","NA","173002","174130","174704","174029","174130","Flankertask","69","47292.0","76","1024"
"90","90","621","621","#3d3846","legacy","legacy","legacy","congruent","1","undefined","1","h","0","0","0","76","0","76","0","76","0","0","0","76","76","76","76","76","Sun Sep 24 12:51:04 2023","1500","The main experiment item","False","Flankertask fixed.osexp","C:\Users\User","False","mono","False","18","no","white","no","yes","768","legacy","76","76","C:/Users/User/Desktop/data files/subject-1.csv","legacy","Melodramatic Milgram","4.0.5","0","h","NA","s","NA","NA","h","553.0","NA","37340","NA","NA","553","2","legacy","1024","2","48000","-16","experiment","HHHHH","1","odd","38527","NA","NA","174707","1181","NA","NA","176241","1186","NA","NA","175207","176341","176895","176240","176341","Flankertask","70","47845.0","77","1024"
"91","91","621","621","#3d3846","legacy","legacy","legacy","incongruent","1","undefined","1","h","0","0","0","77","0","77","0","77","0","0","0","77","77","77","77","77","Sun Sep 24 12:51:04 2023","1500","The main experiment item","False","Flankertask fixed.osexp","C:\Users\User","False","mono","False","18","no","white","no","yes","768","legacy","77","77","C:/Users/User/Desktop/data files/subject-1.csv","legacy","Melodramatic Milgram","4.0.5","0","h","NA","s","NA","NA","h","617.0","NA","37340","NA","NA","617","2","legacy","1024","2","48000","-16","experiment","SSHSS","1","odd","38527","NA","NA","174707","1181","NA","NA","177933","1186","NA","NA","176901","178034","178651","177932","178033","Flankertask","71","48462.0","78","1024"
"91","91","620","620","#3d3846","legacy","legacy","legacy","congruent","1","undefined","1","s","0","0","0","78","0","78","0","78","0","0","0","78","78","78","78","78","Sun Sep 24 12:51:04 2023","1500","The main experiment item","False","Flankertask fixed.osexp","C:\Users\User","False","mono","False","18","no","white","no","yes","768","legacy","78","78","C:/Users/User/Desktop/data files/subject-1.csv","legacy","Melodramatic Milgram","4.0.5","0","s","NA","s","NA","NA","s","569.0","NA","37340","NA","NA","569","2","legacy","1024","2","48000","-16","experiment","SSSSS","1","odd","38527","NA","NA","174707","1181","NA","NA","179686","1186","NA","NA","178657","179787","180357","179685","179786","Flankertask","72","49031.0","79","1024"
"91","91","622","622","#3d3846","legacy","legacy","legacy","incongruent","1","undefined","1","s","0","0","0","79","0","79","0","79","0","0","0","79","79","79","79","79","Sun Sep 24 12:51:04 2023","1500","The main experiment item","False","Flankertask fixed.osexp","C:\Users\User","False","mono","False","18","no","white","no","yes","768","legacy","79","79","C:/Users/User/Desktop/data files/subject-1.csv","legacy","Melodramatic Milgram","4.0.5","0","s","NA","s","NA","NA","s","745.0","NA","37340","NA","NA","745","2","legacy","1024","2","48000","-16","experiment","HHSHH","1","odd","38527","NA","NA","174707","1181","NA","NA","181390","1186","NA","NA","180359","181490","182236","181389","181490","Flankertask","73","49776.0","80","1024"
"91","91","623","623","#3d3846","legacy","legacy","legacy","incongruent","1","undefined","1","h","0","0","0","80","0","80","0","80","0","0","0","80","80","80","80","80","Sun Sep 24 12:51:04 2023","600","The main experiment item","False","Flankertask fixed.osexp","C:\Users\User","False","mono","False","18","no","white","no","yes","768","legacy","0","79","C:/Users/User/Desktop/data files/subject-1.csv","legacy","Melodramatic Milgram","4.0.5","0","h","NA","s","h","NA","h","711.0","NA","37340","11089","NA","711","2","legacy","1024","2","48000","-16","experiment","SSHSS","1","odd","38527","NA","194331","174707","1181","NA","NA","194372","1186","183241","NA","182241","194473","195185","194371","194472","Flankertask","74","50487.0","81","1024"
"91","91","621","621","#3d3846","legacy","legacy","legacy","congruent","1","undefined","1","s","0","0","0","81","0","81","0","81","0","0","0","81","81","81","81","81","Sun Sep 24 12:51:04 2023","600","The main experiment item","False","Flankertask fixed.osexp","C:\Users\User","False","mono","False","18","no","white","no","yes","768","legacy","1","79","C:/Users/User/Desktop/data files/subject-1.csv","legacy","Melodramatic Milgram","4.0.5","0","s","NA","s","h","NA","s","487.0","NA","37340","11089","NA","487","2","legacy","1024","2","48000","-16","experiment","SSSSS","1","odd","38527","NA","194331","174707","1181","195191","NA","196719","1186","183241","NA","195691","196819","197306","196718","196819","Flankertask","75","50974.0","82","1024"
"91","91","619","619","#3d3846","legacy","legacy","legacy","congruent","1","undefined","1","h","0","0","0","82","0","82","0","82","0","0","0","82","82","82","82","82","Sun Sep 24 12:51:04 2023","600","The main experiment item","False","Flankertask fixed.osexp","C:\Users\User","False","mono","False","18","no","white","no","yes","768","legacy","2","79","C:/Users/User/Desktop/data files/subject-1.csv","legacy","Melodramatic Milgram","4.0.5","0","h","NA","s","h","NA","h","408.0","NA","37340","11089","NA","408","2","legacy","1024","2","48000","-16","experiment","HHHHH","1","odd","38527","NA","194331","174707","1181","195191","NA","198349","1186","183241","NA","197312","198449","198858","198347","198449","Flankertask","76","51382.0","83","1024"
"90","90","617","617","#3d3846","legacy","legacy","legacy","incongruent","0","undefined","0","h","0","0","0","83","0","83","0","83","0","0","0","83","83","83","83","83","Sun Sep 24 12:51:04 2023","600","The main experiment item","False","Flankertask fixed.osexp","C:\Users\User","False","mono","False","18","no","white","no","yes","768","legacy","3","79","C:/Users/User/Desktop/data files/subject-1.csv","legacy","Melodramatic Milgram","4.0.5","0","s","NA","s","h","NA","s","466.0","NA","37340","11089","NA","466","2","legacy","1024","2","48000","-16","experiment","SSHSS","1","odd","38527","NA","194331","174707","1181","195191","NA","199896","1186","183241","NA","198863","199996","200463","199895","199996","Flankertask","76","51848.0","84","1024"
"90","90","617","617","#3d3846","legacy","legacy","legacy","congruent","1","undefined","1","s","0","0","0","84","0","84","0","84","0","0","0","84","84","84","84","84","Sun Sep 24 12:51:04 2023","600","The main experiment item","False","Flankertask fixed.osexp","C:\Users\User","False","mono","False","18","no","white","no","yes","768","legacy","4","79","C:/Users/User/Desktop/data files/subject-1.csv","legacy","Melodramatic Milgram","4.0.5","0","s","NA","s","h","NA","s","681.0","NA","37340","11089","NA","681","2","legacy","1024","2","48000","-16","experiment","SSSSS","1","odd","38527","NA","194331","200469","1181","195191","NA","201998","1186","183241","NA","200969","202098","202780","201997","202098","Flankertask","77","52529.0","85","1024"
"89","89","617","617","#3d3846","legacy","legacy","legacy","incongruent","0","undefined","0","s","0","0","0","85","0","85","0","85","0","0","0","85","85","85","85","85","Sun Sep 24 12:51:04 2023","600","The main experiment item","False","Flankertask fixed.osexp","C:\Users\User","False","mono","False","18","no","white","no","yes","768","legacy","5","79","C:/Users/User/Desktop/data files/subject-1.csv","legacy","Melodramatic Milgram","4.0.5","0","h","NA","s","h","NA","h","560.0","NA","37340","11089","NA","560","2","legacy","1024","2","48000","-16","experiment","HHSHH","1","odd","38527","NA","194331","200469","1181","202786","NA","204315","1186","183241","NA","203286","204415","204976","204314","204415","Flankertask","77","53089.0","86","1024"
"88","88","614","614","#3d3846","legacy","legacy","legacy","congruent","0","undefined","0","h","0","0","0","86","0","86","0","86","0","0","0","86","86","86","86","86","Sun Sep 24 12:51:04 2023","600","The main experiment item","False","Flankertask fixed.osexp","C:\Users\User","False","mono","False","18","no","white","no","yes","768","legacy","6","79","C:/Users/User/Desktop/data files/subject-1.csv","legacy","Melodramatic Milgram","4.0.5","0","s","NA","s","h","NA","s","333.0","NA","37340","11089","NA","333","2","legacy","1024","2","48000","-16","experiment","HHHHH","1","odd","38527","NA","194331","204982","1181","202786","NA","206512","1186","183241","NA","205482","206612","206946","206510","206612","Flankertask","77","53422.0","87","1024"
"88","88","613","613","#3d3846","legacy","legacy","legacy","congruent","1","undefined","1","s","0","0","0","87","0","87","0","87","0","0","0","87","87","87","87","87","Sun Sep 24 12:51:04 2023","600","The main experiment item","False","Flankertask fixed.osexp","C:\Users\User","False","mono","False","18","no","white","no","yes","768","legacy","7","79","C:/Users/User/Desktop/data files/subject-1.csv","legacy","Melodramatic Milgram","4.0.5","0","s","NA","s","h","NA","s","550.0","NA","37340","11089","NA","550","2","legacy","1024","2","48000","-16","experiment","SSSSS","1","odd","38527","NA","194331","206952","1181","202786","NA","208485","1186","183241","NA","207452","208585","209136","208484","208585","Flankertask","78","53972.0","88","1024"
"87","87","611","611","#3d3846","legacy","legacy","legacy","incongruent","0","undefined","0","h","0","0","0","88","0","88","0","88","0","0","0","88","88","88","88","88","Sun Sep 24 12:51:04 2023","600","The main experiment item","False","Flankertask fixed.osexp","C:\Users\User","False","mono","False","18","no","white","no","yes","768","legacy","8","79","C:/Users/User/Desktop/data files/subject-1.csv","legacy","Melodramatic Milgram","4.0.5","0","s","NA","s","h","NA","s","453.0","NA","37340","11089","NA","453","2","legacy","1024","2","48000","-16","experiment","SSHSS","1","odd","38527","NA","194331","206952","1181","202786","NA","210167","1186","183241","NA","209139","210267","210721","210166","210267","Flankertask","78","54425.0","89","1024"
"87","87","610","610","#3d3846","legacy","legacy","legacy","congruent","1","undefined","1","h","0","0","0","89","0","89","0","89","0","0","0","89","89","89","89","89","Sun Sep 24 12:51:04 2023","600","The main experiment item","False","Flankertask fixed.osexp","C:\Users\User","False","mono","False","18","no","white","no","yes","768","legacy","9","79","C:/Users/User/Desktop/data files/subject-1.csv","legacy","Melodramatic Milgram","4.0.5","0","h","NA","s","h","NA","h","512.0","NA","37340","11089","NA","512","2","legacy","1024","2","48000","-16","experiment","HHHHH","1","odd","38527","NA","194331","210727","1181","202786","NA","212264","1186","183241","NA","211228","212365","212878","212262","212364","Flankertask","79","54937.0","90","1024"
"87","87","610","610","#3d3846","legacy","legacy","legacy","incongruent","1","undefined","1","h","0","0","0","90","0","90","0","90","0","0","0","90","90","90","90","90","Sun Sep 24 12:51:04 2023","600","The main experiment item","False","Flankertask fixed.osexp","C:\Users\User","False","mono","False","18","no","white","no","yes","768","legacy","10","79","C:/Users/User/Desktop/data files/subject-1.csv","legacy","Melodramatic Milgram","4.0.5","0","h","NA","s","h","NA","h","605.0","NA","37340","11089","NA","605","2","legacy","1024","2","48000","-16","experiment","SSHSS","1","odd","38527","NA","194331","210727","1181","202786","NA","213912","1186","183241","NA","212882","214012","214618","213911","214012","Flankertask","80","55542.0","91","1024"
"88","88","609","609","#3d3846","legacy","legacy","legacy","congruent","1","undefined","1","h","0","0","0","91","0","91","0","91","0","0","0","91","91","91","91","91","Sun Sep 24 12:51:04 2023","600","The main experiment item","False","Flankertask fixed.osexp","C:\Users\User","False","mono","False","18","no","white","no","yes","768","legacy","11","79","C:/Users/User/Desktop/data files/subject-1.csv","legacy","Melodramatic Milgram","4.0.5","0","h","NA","s","h","NA","h","487.0","NA","37340","11089","NA","487","2","legacy","1024","2","48000","-16","experiment","HHHHH","1","odd","38527","NA","194331","210727","1181","214624","NA","216154","1186","183241","NA","215124","216255","216743","216153","216254","Flankertask","81","56029.0","92","1024"
"88","88","607","607","#3d3846","legacy","legacy","legacy","congruent","1","undefined","1","s","0","0","0","92","0","92","0","92","0","0","0","92","92","92","92","92","Sun Sep 24 12:51:04 2023","600","The main experiment item","False","Flankertask fixed.osexp","C:\Users\User","False","mono","False","18","no","white","no","yes","768","legacy","12","79","C:/Users/User/Desktop/data files/subject-1.csv","legacy","Melodramatic Milgram","4.0.5","0","s","NA","s","h","NA","s","498.0","NA","37340","11089","NA","498","2","legacy","1024","2","48000","-16","experiment","SSSSS","1","odd","38527","NA","194331","210727","1181","214624","NA","217778","1186","183241","NA","216749","217878","218377","217777","217878","Flankertask","82","56527.0","93","1024"
"88","88","613","613","#3d3846","legacy","legacy","legacy","congruent","1","undefined","1","s","0","0","0","93","0","93","0","93","0","0","0","93","93","93","93","93","Sun Sep 24 12:51:04 2023","600","The main experiment item","False","Flankertask fixed.osexp","C:\Users\User","False","mono","False","18","no","white","no","yes","768","legacy","13","79","C:/Users/User/Desktop/data files/subject-1.csv","legacy","Melodramatic Milgram","4.0.5","0","s","NA","s","h","NA","s","1148.0","NA","37340","11089","NA","1148","2","legacy","1024","2","48000","-16","experiment","SSSSS","1","odd","38527","NA","194331","210727","1181","214624","NA","219412","1186","183241","NA","218383","219512","220661","219411","219512","Flankertask","83","57675.0","94","1024"
"88","88","613","613","#3d3846","legacy","legacy","legacy","incongruent","1","undefined","1","h","0","0","0","94","0","94","0","94","0","0","0","94","94","94","94","94","Sun Sep 24 12:51:04 2023","600","The main experiment item","False","Flankertask fixed.osexp","C:\Users\User","False","mono","False","18","no","white","no","yes","768","legacy","14","79","C:/Users/User/Desktop/data files/subject-1.csv","legacy","Melodramatic Milgram","4.0.5","0","h","NA","s","h","NA","h","580.0","NA","37340","11089","NA","580","2","legacy","1024","2","48000","-16","experiment","SSHSS","1","odd","38527","NA","194331","210727","1181","220667","NA","222197","1186","183241","NA","221167","222297","222878","222195","222297","Flankertask","84","58255.0","95","1024"
"88","88","613","613","#3d3846","legacy","legacy","legacy","incongruent","1","undefined","1","h","0","0","0","95","0","95","0","95","0","0","0","95","95","95","95","95","Sun Sep 24 12:51:04 2023","600","The main experiment item","False","Flankertask fixed.osexp","C:\Users\User","False","mono","False","18","no","white","no","yes","768","legacy","15","79","C:/Users/User/Desktop/data files/subject-1.csv","legacy","Melodramatic Milgram","4.0.5","0","h","NA","s","h","NA","h","614.0","NA","37340","11089","NA","614","2","legacy","1024","2","48000","-16","experiment","SSHSS","1","odd","38527","NA","194331","210727","1181","220667","NA","223912","1186","183241","NA","222883","224012","224627","223911","224012","Flankertask","85","58869.0","96","1024"
"88","88","613","613","#3d3846","legacy","legacy","legacy","incongruent","1","undefined","1","h","0","0","0","96","0","96","0","96","0","0","0","96","96","96","96","96","Sun Sep 24 12:51:04 2023","600","The main experiment item","False","Flankertask fixed.osexp","C:\Users\User","False","mono","False","18","no","white","no","yes","768","legacy","16","79","C:/Users/User/Desktop/data files/subject-1.csv","legacy","Melodramatic Milgram","4.0.5","0","h","NA","s","h","NA","h","667.0","NA","37340","11089","NA","667","2","legacy","1024","2","48000","-16","experiment","SSHSS","1","odd","38527","NA","194331","210727","1181","224633","NA","226165","1186","183241","NA","225133","226265","226933","226164","226265","Flankertask","86","59536.0","97","1024"
"88","88","612","612","#3d3846","legacy","legacy","legacy","congruent","1","undefined","1","s","0","0","0","97","0","97","0","97","0","0","0","97","97","97","97","97","Sun Sep 24 12:51:04 2023","600","The main experiment item","False","Flankertask fixed.osexp","C:\Users\User","False","mono","False","18","no","white","no","yes","768","legacy","17","79","C:/Users/User/Desktop/data files/subject-1.csv","legacy","Melodramatic Milgram","4.0.5","0","s","NA","s","h","NA","s","509.0","NA","37340","11089","NA","509","2","legacy","1024","2","48000","-16","experiment","SSSSS","1","odd","38527","NA","194331","210727","1181","226948","NA","228478","1186","183241","NA","227449","228578","229088","228477","228578","Flankertask","87","60045.0","98","1024"
"88","88","612","612","#3d3846","legacy","legacy","legacy","incongruent","1","undefined","1","h","0","0","0","98","0","98","0","98","0","0","0","98","98","98","98","98","Sun Sep 24 12:51:04 2023","600","The main experiment item","False","Flankertask fixed.osexp","C:\Users\User","False","mono","False","18","no","white","no","yes","768","legacy","18","79","C:/Users/User/Desktop/data files/subject-1.csv","legacy","Melodramatic Milgram","4.0.5","0","h","NA","s","h","NA","h","590.0","NA","37340","11089","NA","590","2","legacy","1024","2","48000","-16","experiment","SSHSS","1","odd","38527","NA","194331","210727","1181","226948","NA","230125","1186","183241","NA","229094","230225","230817","230123","230225","Flankertask","88","60635.0","99","1024"
"89","89","611","611","#3d3846","legacy","legacy","legacy","congruent","1","undefined","1","h","0","0","0","99","0","99","0","99","0","0","0","99","99","99","99","99","Sun Sep 24 12:51:04 2023","600","The main experiment item","False","Flankertask fixed.osexp","C:\Users\User","False","mono","False","18","no","white","no","yes","768","legacy","19","79","C:/Users/User/Desktop/data files/subject-1.csv","legacy","Melodramatic Milgram","4.0.5","0","h","NA","s","h","NA","h","468.0","NA","37340","11089","NA","468","2","legacy","1024","2","48000","-16","experiment","HHHHH","1","odd","38527","NA","194331","210727","1181","226948","NA","231852","1186","183241","NA","230823","231954","232423","231851","231953","Flankertask","89","61103.0","100","1024"
"89","89","611","611","#3d3846","legacy","legacy","legacy","congruent","1","undefined","1","s","0","0","0","100","0","100","0","100","0","0","0","100","100","100","100","100","Sun Sep 24 12:51:04 2023","600","The main experiment item","False","Flankertask fixed.osexp","C:\Users\User","False","mono","False","18","no","white","no","yes","768","legacy","20","79","C:/Users/User/Desktop/data files/subject-1.csv","legacy","Melodramatic Milgram","4.0.5","0","s","NA","s","h","NA","s","619.0","NA","37340","11089","NA","619","2","legacy","1024","2","48000","-16","experiment","SSSSS","1","odd","38527","NA","194331","210727","1181","226948","NA","233462","1186","183241","NA","232429","233562","234182","233461","233562","Flankertask","90","61722.0","101","1024"
"89","89","609","609","#3d3846","legacy","legacy","legacy","congruent","1","undefined","1","h","0","0","0","101","0","101","0","101","0","0","0","101","101","101","101","101","Sun Sep 24 12:51:04 2023","600","The main experiment item","False","Flankertask fixed.osexp","C:\Users\User","False","mono","False","18","no","white","no","yes","768","legacy","21","79","C:/Users/User/Desktop/data files/subject-1.csv","legacy","Melodramatic Milgram","4.0.5","0","h","NA","s","h","NA","h","444.0","NA","37340","11089","NA","444","2","legacy","1024","2","48000","-16","experiment","HHHHH","1","odd","38527","NA","194331","210727","1181","234188","NA","235719","1186","183241","NA","234689","235820","236265","235718","235820","Flankertask","91","62166.0","102","1024"
"89","89","608","608","#3d3846","legacy","legacy","legacy","congruent","1","undefined","1","h","0","0","0","102","0","102","0","102","0","0","0","102","102","102","102","102","Sun Sep 24 12:51:04 2023","600","The main experiment item","False","Flankertask fixed.osexp","C:\Users\User","False","mono","False","18","no","white","no","yes","768","legacy","22","79","C:/Users/User/Desktop/data files/subject-1.csv","legacy","Melodramatic Milgram","4.0.5","0","h","NA","s","h","NA","h","508.0","NA","37340","11089","NA","508","2","legacy","1024","2","48000","-16","experiment","HHHHH","1","odd","38527","NA","194331","210727","1181","234188","NA","237301","1186","183241","NA","236271","237401","237910","237300","237401","Flankertask","92","62674.0","103","1024"
"89","89","606","606","#3d3846","legacy","legacy","legacy","congruent","1","undefined","1","s","0","0","0","103","0","103","0","103","0","0","0","103","103","103","103","103","Sun Sep 24 12:51:04 2023","600","The main experiment item","False","Flankertask fixed.osexp","C:\Users\User","False","mono","False","18","no","white","no","yes","768","legacy","23","79","C:/Users/User/Desktop/data files/subject-1.csv","legacy","Melodramatic Milgram","4.0.5","0","s","NA","s","h","NA","s","447.0","NA","37340","11089","NA","447","2","legacy","1024","2","48000","-16","experiment","SSSSS","1","odd","38527","NA","194331","210727","1181","234188","NA","238945","1186","183241","NA","237916","239045","239493","238944","239045","Flankertask","93","63121.0","104","1024"
"89","89","604","604","#3d3846","legacy","legacy","legacy","incongruent","1","undefined","1","h","0","0","0","104","0","104","0","104","0","0","0","104","104","104","104","104","Sun Sep 24 12:51:04 2023","600","The main experiment item","False","Flankertask fixed.osexp","C:\Users\User","False","mono","False","18","no","white","no","yes","768","legacy","24","79","C:/Users/User/Desktop/data files/subject-1.csv","legacy","Melodramatic Milgram","4.0.5","0","h","NA","s","h","NA","h","369.0","NA","37340","11089","NA","369","2","legacy","1024","2","48000","-16","experiment","SSHSS","1","odd","38527","NA","194331","210727","1181","234188","NA","240525","1186","183241","NA","239499","240625","240995","240524","240625","Flankertask","94","63490.0","105","1024"
"89","89","602","602","#3d3846","legacy","legacy","legacy","congruent","1","undefined","1","s","0","0","0","105","0","105","0","105","0","0","0","105","105","105","105","105","Sun Sep 24 12:51:04 2023","600","The main experiment item","False","Flankertask fixed.osexp","C:\Users\User","False","mono","False","18","no","white","no","yes","768","legacy","25","79","C:/Users/User/Desktop/data files/subject-1.csv","legacy","Melodramatic Milgram","4.0.5","0","s","NA","s","h","NA","s","417.0","NA","37340","11089","NA","417","2","legacy","1024","2","48000","-16","experiment","SSSSS","1","odd","38527","NA","194331","210727","1181","234188","NA","242039","1186","183241","NA","241001","242139","242557","242038","242139","Flankertask","95","63907.0","106","1024"
"89","89","601","601","#3d3846","legacy","legacy","legacy","congruent","1","undefined","1","h","0","0","0","106","0","106","0","106","0","0","0","106","106","106","106","106","Sun Sep 24 12:51:04 2023","600","The main experiment item","False","Flankertask fixed.osexp","C:\Users\User","False","mono","False","18","no","white","no","yes","768","legacy","26","79","C:/Users/User/Desktop/data files/subject-1.csv","legacy","Melodramatic Milgram","4.0.5","0","h","NA","s","h","NA","h","497.0","NA","37340","11089","NA","497","2","legacy","1024","2","48000","-16","experiment","HHHHH","1","odd","38527","NA","194331","210727","1181","234188","NA","243590","1186","183241","NA","242563","243690","244187","243589","243690","Flankertask","96","64404.0","107","1024"
"88","88","600","600","#3d3846","legacy","legacy","legacy","incongruent","0","undefined","0","s","0","0","0","107","0","107","0","107","0","0","0","107","107","107","107","107","Sun Sep 24 12:51:04 2023","600","The main experiment item","False","Flankertask fixed.osexp","C:\Users\User","False","mono","False","18","no","white","no","yes","768","legacy","27","79","C:/Users/User/Desktop/data files/subject-1.csv","legacy","Melodramatic Milgram","4.0.5","0","h","NA","s","h","NA","h","488.0","NA","37340","11089","NA","488","2","legacy","1024","2","48000","-16","experiment","HHSHH","1","odd","38527","NA","194331","210727","1181","234188","NA","245221","1186","183241","NA","244193","245321","245810","245220","245321","Flankertask","96","64892.0","108","1024"
"88","88","599","599","#3d3846","legacy","legacy","legacy","congruent","1","undefined","1","h","0","0","0","108","0","108","0","108","0","0","0","108","108","108","108","108","Sun Sep 24 12:51:04 2023","600","The main experiment item","False","Flankertask fixed.osexp","C:\Users\User","False","mono","False","18","no","white","no","yes","768","legacy","28","79","C:/Users/User/Desktop/data files/subject-1.csv","legacy","Melodramatic Milgram","4.0.5","0","h","NA","s","h","NA","h","506.0","NA","37340","11089","NA","506","2","legacy","1024","2","48000","-16","experiment","HHHHH","1","odd","38527","NA","194331","245816","1181","234188","NA","247345","1186","183241","NA","246316","247445","247952","247343","247445","Flankertask","97","65398.0","109","1024"
"89","89","600","600","#3d3846","legacy","legacy","legacy","incongruent","1","undefined","1","s","0","0","0","109","0","109","0","109","0","0","0","109","109","109","109","109","Sun Sep 24 12:51:04 2023","600","The main experiment item","False","Flankertask fixed.osexp","C:\Users\User","False","mono","False","18","no","white","no","yes","768","legacy","29","79","C:/Users/User/Desktop/data files/subject-1.csv","legacy","Melodramatic Milgram","4.0.5","0","s","NA","s","h","NA","s","634.0","NA","37340","11089","NA","634","2","legacy","1024","2","48000","-16","experiment","HHSHH","1","odd","38527","NA","194331","245816","1181","234188","NA","248986","1186","183241","NA","247958","249086","249721","248985","249086","Flankertask","98","66032.0","110","1024"
"88","88","599","599","#3d3846","legacy","legacy","legacy","incongruent","0","undefined","0","s","0","0","0","110","0","110","0","110","0","0","0","110","110","110","110","110","Sun Sep 24 12:51:04 2023","600","The main experiment item","False","Flankertask fixed.osexp","C:\Users\User","False","mono","False","18","no","white","no","yes","768","legacy","30","79","C:/Users/User/Desktop/data files/subject-1.csv","legacy","Melodramatic Milgram","4.0.5","0","h","NA","s","h","NA","h","546.0","NA","37340","11089","NA","546","2","legacy","1024","2","48000","-16","experiment","HHSHH","1","odd","38527","NA","194331","245816","1181","249727","NA","251253","1186","183241","NA","250227","251354","251901","251252","251353","Flankertask","98","66578.0","111","1024"
"88","88","600","600","#3d3846","legacy","legacy","legacy","incongruent","1","undefined","1","s","0","0","0","111","0","111","0","111","0","0","0","111","111","111","111","111","Sun Sep 24 12:51:04 2023","600","The main experiment item","False","Flankertask fixed.osexp","C:\Users\User","False","mono","False","18","no","white","no","yes","768","legacy","31","79","C:/Users/User/Desktop/data files/subject-1.csv","legacy","Melodramatic Milgram","4.0.5","0","s","NA","s","h","NA","s","622.0","NA","37340","11089","NA","622","2","legacy","1024","2","48000","-16","experiment","HHSHH","1","odd","38527","NA","194331","251908","1181","249727","NA","253436","1186","183241","NA","252408","253536","254159","253435","253536","Flankertask","99","67200.0","112","1024"
"87","87","598","598","#3d3846","legacy","legacy","legacy","congruent","0","undefined","0","h","0","0","0","112","0","112","0","112","0","0","0","112","112","112","112","112","Sun Sep 24 12:51:04 2023","600","The main experiment item","False","Flankertask fixed.osexp","C:\Users\User","False","mono","False","18","no","white","no","yes","768","legacy","32","79","C:/Users/User/Desktop/data files/subject-1.csv","legacy","Melodramatic Milgram","4.0.5","0","s","NA","s","h","NA","s","472.0","NA","37340","11089","NA","472","2","legacy","1024","2","48000","-16","experiment","HHHHH","1","odd","38527","NA","194331","251908","1181","254164","NA","255695","1186","183241","NA","254665","255795","256268","255694","255795","Flankertask","99","67672.0","113","1024"
"86","86","597","597","#3d3846","legacy","legacy","legacy","incongruent","0","undefined","0","s","0","0","0","113","0","113","0","113","0","0","0","113","113","113","113","113","Sun Sep 24 12:51:04 2023","600","The main experiment item","False","Flankertask fixed.osexp","C:\Users\User","False","mono","False","18","no","white","no","yes","768","legacy","33","79","C:/Users/User/Desktop/data files/subject-1.csv","legacy","Melodramatic Milgram","4.0.5","0","h","NA","s","h","NA","h","433.0","NA","37340","11089","NA","433","2","legacy","1024","2","48000","-16","experiment","HHSHH","1","odd","38527","NA","194331","256274","1181","254164","NA","257816","1186","183241","NA","256774","257917","258352","257815","257917","Flankertask","99","68105.0","114","1024"
"86","86","596","596","#3d3846","legacy","legacy","legacy","congruent","1","undefined","1","s","0","0","0","114","0","114","0","114","0","0","0","114","114","114","114","114","Sun Sep 24 12:51:04 2023","600","The main experiment item","False","Flankertask fixed.osexp","C:\Users\User","False","mono","False","18","no","white","no","yes","768","legacy","34","79","C:/Users/User/Desktop/data files/subject-1.csv","legacy","Melodramatic Milgram","4.0.5","0","s","NA","s","h","NA","s","512.0","NA","37340","11089","NA","512","2","legacy","1024","2","48000","-16","experiment","SSSSS","1","odd","38527","NA","194331","258358","1181","254164","NA","259890","1186","183241","NA","258858","259990","260502","259889","259990","Flankertask","100","68617.0","115","1024"
"87","87","595","595","#3d3846","legacy","legacy","legacy","congruent","1","undefined","1","s","0","0","0","115","0","115","0","115","0","0","0","115","115","115","115","115","Sun Sep 24 12:51:04 2023","600","The main experiment item","False","Flankertask fixed.osexp","C:\Users\User","False","mono","False","18","no","white","no","yes","768","legacy","35","79","C:/Users/User/Desktop/data files/subject-1.csv","legacy","Melodramatic Milgram","4.0.5","0","s","NA","s","h","NA","s","448.0","NA","37340","11089","NA","448","2","legacy","1024","2","48000","-16","experiment","SSSSS","1","odd","38527","NA","194331","258358","1181","254164","NA","261541","1186","183241","NA","260508","261641","262090","261540","261641","Flankertask","101","69065.0","116","1024"
"87","87","595","595","#3d3846","legacy","legacy","legacy","incongruent","1","undefined","1","s","0","0","0","116","0","116","0","116","0","0","0","116","116","116","116","116","Sun Sep 24 12:51:04 2023","600","The main experiment item","False","Flankertask fixed.osexp","C:\Users\User","False","mono","False","18","no","white","no","yes","768","legacy","36","79","C:/Users/User/Desktop/data files/subject-1.csv","legacy","Melodramatic Milgram","4.0.5","0","s","NA","s","h","NA","s","623.0","NA","37340","11089","NA","623","2","legacy","1024","2","48000","-16","experiment","HHSHH","1","odd","38527","NA","194331","258358","1181","254164","NA","263118","1186","183241","NA","262092","263219","263843","263117","263219","Flankertask","102","69688.0","117","1024"
"87","87","594","594","#3d3846","legacy","legacy","legacy","incongruent","1","undefined","1","s","0","0","0","117","0","117","0","117","0","0","0","117","117","117","117","117","Sun Sep 24 12:51:04 2023","600","The main experiment item","False","Flankertask fixed.osexp","C:\Users\User","False","mono","False","18","no","white","no","yes","768","legacy","37","79","C:/Users/User/Desktop/data files/subject-1.csv","legacy","Melodramatic Milgram","4.0.5","0","s","NA","s","h","NA","s","424.0","NA","37340","11089","NA","424","2","legacy","1024","2","48000","-16","experiment","HHSHH","1","odd","38527","NA","194331","258358","1181","263849","NA","265381","1186","183241","NA","264349","265481","265906","265380","265481","Flankertask","103","70112.0","118","1024"
"86","86","591","591","#3d3846","legacy","legacy","legacy","incongruent","0","undefined","0","s","0","0","0","118","0","118","0","118","0","0","0","118","118","118","118","118","Sun Sep 24 12:51:04 2023","600","The main experiment item","False","Flankertask fixed.osexp","C:\Users\User","False","mono","False","18","no","white","no","yes","768","legacy","38","79","C:/Users/User/Desktop/data files/subject-1.csv","legacy","Melodramatic Milgram","4.0.5","0","h","NA","s","h","NA","h","321.0","NA","37340","11089","NA","321","2","legacy","1024","2","48000","-16","experiment","HHSHH","1","odd","38527","NA","194331","258358","1181","263849","NA","266941","1186","183241","NA","265912","267041","267363","266940","267041","Flankertask","103","70433.0","119","1024"
"86","86","593","593","#3d3846","legacy","legacy","legacy","incongruent","1","undefined","1","h","0","0","0","119","0","119","0","119","0","0","0","119","119","119","119","119","Sun Sep 24 12:51:04 2023","600","The main experiment item","False","Flankertask fixed.osexp","C:\Users\User","False","mono","False","18","no","white","no","yes","768","legacy","39","79","C:/Users/User/Desktop/data files/subject-1.csv","legacy","Melodramatic Milgram","4.0.5","0","h","NA","s","h","NA","h","792.0","NA","37340","11089","NA","792","2","legacy","1024","2","48000","-16","experiment","SSHSS","1","odd","38527","NA","194331","267369","1181","263849","NA","268914","1186","183241","NA","267869","269014","269807","268913","269014","Flankertask","104","71225.0","120","1024"
"86","86","592","592","#3d3846","legacy","legacy","legacy","incongruent","1","undefined","1","h","0","0","0","120","0","120","0","120","0","0","0","120","120","120","120","120","Sun Sep 24 12:51:04 2023","600","The main experiment item","False","Flankertask fixed.osexp","C:\Users\User","False","mono","False","18","no","white","no","yes","768","legacy","40","79","C:/Users/User/Desktop/data files/subject-1.csv","legacy","Melodramatic Milgram","4.0.5","0","h","NA","s","h","NA","h","428.0","NA","37340","11089","NA","428","2","legacy","1024","2","48000","-16","experiment","SSHSS","1","odd","38527","NA","194331","267369","1181","269810","NA","271339","1186","183241","NA","270310","271440","271869","271338","271440","Flankertask","105","71653.0","121","1024"
"86","86","591","591","#3d3846","legacy","legacy","legacy","incongruent","0","undefined","0","s","0","0","0","121","0","121","0","121","0","0","0","121","121","121","121","121","Sun Sep 24 12:51:04 2023","600","The main experiment item","False","Flankertask fixed.osexp","C:\Users\User","False","mono","False","18","no","white","no","yes","768","legacy","41","79","C:/Users/User/Desktop/data files/subject-1.csv","legacy","Melodramatic Milgram","4.0.5","0","h","NA","s","h","NA","h","493.0","NA","37340","11089","NA","493","2","legacy","1024","2","48000","-16","experiment","HHSHH","1","odd","38527","NA","194331","267369","1181","269810","NA","272905","1186","183241","NA","271875","273005","273499","272904","273005","Flankertask","105","72146.0","122","1024"
"85","85","590","590","#3d3846","legacy","legacy","legacy","incongruent","0","undefined","0","h","0","0","0","122","0","122","0","122","0","0","0","122","122","122","122","122","Sun Sep 24 12:51:04 2023","600","The main experiment item","False","Flankertask fixed.osexp","C:\Users\User","False","mono","False","18","no","white","no","yes","768","legacy","42","79","C:/Users/User/Desktop/data files/subject-1.csv","legacy","Melodramatic Milgram","4.0.5","0","s","NA","s","h","NA","s","462.0","NA","37340","11089","NA","462","2","legacy","1024","2","48000","-16","experiment","SSHSS","1","odd","38527","NA","194331","273504","1181","269810","NA","275031","1186","183241","NA","274004","275132","275595","275030","275132","Flankertask","105","72608.0","123","1024"
"85","85","591","591","#3d3846","legacy","legacy","legacy","congruent","1","undefined","1","s","0","0","0","123","0","123","0","123","0","0","0","123","123","123","123","123","Sun Sep 24 12:51:04 2023","600","The main experiment item","False","Flankertask fixed.osexp","C:\Users\User","False","mono","False","18","no","white","no","yes","768","legacy","43","79","C:/Users/User/Desktop/data files/subject-1.csv","legacy","Melodramatic Milgram","4.0.5","0","s","NA","s","h","NA","s","741.0","NA","37340","11089","NA","741","2","legacy","1024","2","48000","-16","experiment","SSSSS","1","odd","38527","NA","194331","275601","1181","269810","NA","277135","1186","183241","NA","276101","277236","277978","277134","277235","Flankertask","106","73349.0","124","1024"
"84","84","591","591","#3d3846","legacy","legacy","legacy","congruent","0","undefined","0","s","0","0","0","124","0","124","0","124","0","0","0","124","124","124","124","124","Sun Sep 24 12:51:04 2023","600","The main experiment item","False","Flankertask fixed.osexp","C:\Users\User","False","mono","False","18","no","white","no","yes","768","legacy","44","79","C:/Users/User/Desktop/data files/subject-1.csv","legacy","Melodramatic Milgram","4.0.5","0","h","NA","s","h","NA","h","526.0","NA","37340","11089","NA","526","2","legacy","1024","2","48000","-16","experiment","SSSSS","1","odd","38527","NA","194331","275601","1181","277983","NA","279513","1186","183241","NA","278484","279613","280140","279512","279613","Flankertask","106","73875.0","125","1024"
"84","84","590","590","#3d3846","legacy","legacy","legacy","congruent","1","undefined","1","h","0","0","0","125","0","125","0","125","0","0","0","125","125","125","125","125","Sun Sep 24 12:51:04 2023","600","The main experiment item","False","Flankertask fixed.osexp","C:\Users\User","False","mono","False","18","no","white","no","yes","768","legacy","45","79","C:/Users/User/Desktop/data files/subject-1.csv","legacy","Melodramatic Milgram","4.0.5","0","h","NA","s","h","NA","h","558.0","NA","37340","11089","NA","558","2","legacy","1024","2","48000","-16","experiment","HHHHH","1","odd","38527","NA","194331","280146","1181","277983","NA","281676","1186","183241","NA","280646","281776","282335","281675","281776","Flankertask","107","74433.0","126","1024"
"85","85","590","590","#3d3846","legacy","legacy","legacy","congruent","1","undefined","1","s","0","0","0","126","0","126","0","126","0","0","0","126","126","126","126","126","Sun Sep 24 12:51:04 2023","600","The main experiment item","False","Flankertask fixed.osexp","C:\Users\User","False","mono","False","18","no","white","no","yes","768","legacy","46","79","C:/Users/User/Desktop/data files/subject-1.csv","legacy","Melodramatic Milgram","4.0.5","0","s","NA","s","h","NA","s","500.0","NA","37340","11089","NA","500","2","legacy","1024","2","48000","-16","experiment","SSSSS","1","odd","38527","NA","194331","280146","1181","277983","NA","283368","1186","183241","NA","282341","283468","283969","283367","283468","Flankertask","108","74933.0","127","1024"
"85","85","589","589","#3d3846","legacy","legacy","legacy","congruent","1","undefined","1","h","0","0","0","127","0","127","0","127","0","0","0","127","127","127","127","127","Sun Sep 24 12:51:04 2023","600","The main experiment item","False","Flankertask fixed.osexp","C:\Users\User","False","mono","False","18","no","white","no","yes","768","legacy","47","79","C:/Users/User/Desktop/data files/subject-1.csv","legacy","Melodramatic Milgram","4.0.5","0","h","NA","s","h","NA","h","521.0","NA","37340","11089","NA","521","2","legacy","1024","2","48000","-16","experiment","HHHHH","1","odd","38527","NA","194331","280146","1181","277983","NA","285016","1186","183241","NA","283975","285117","285639","285015","285117","Flankertask","109","75454.0","128","1024"
"85","85","588","588","#3d3846","legacy","legacy","legacy","incongruent","1","undefined","1","h","0","0","0","128","0","128","0","128","0","0","0","128","128","128","128","128","Sun Sep 24 12:51:04 2023","600","The main experiment item","False","Flankertask fixed.osexp","C:\Users\User","False","mono","False","18","no","white","no","yes","768","legacy","48","79","C:/Users/User/Desktop/data files/subject-1.csv","legacy","Melodramatic Milgram","4.0.5","0","h","NA","s","h","NA","h","438.0","NA","37340","11089","NA","438","2","legacy","1024","2","48000","-16","experiment","SSHSS","1","odd","38527","NA","194331","280146","1181","277983","NA","286670","1186","183241","NA","285645","286771","287210","286669","286771","Flankertask","110","75892.0","129","1024"
"85","85","587","587","#3d3846","legacy","legacy","legacy","congruent","1","undefined","1","h","0","0","0","129","0","129","0","129","0","0","0","129","129","129","129","129","Sun Sep 24 12:51:04 2023","600","The main experiment item","False","Flankertask fixed.osexp","C:\Users\User","False","mono","False","18","no","white","no","yes","768","legacy","49","79","C:/Users/User/Desktop/data files/subject-1.csv","legacy","Melodramatic Milgram","4.0.5","0","h","NA","s","h","NA","h","535.0","NA","37340","11089","NA","535","2","legacy","1024","2","48000","-16","experiment","HHHHH","1","odd","38527","NA","194331","280146","1181","277983","NA","288242","1186","183241","NA","287216","288343","288879","288241","288343","Flankertask","111","76427.0","130","1024"
"84","84","586","586","#3d3846","legacy","legacy","legacy","incongruent","0","undefined","0","h","0","0","0","130","0","130","0","130","0","0","0","130","130","130","130","130","Sun Sep 24 12:51:04 2023","600","The main experiment item","False","Flankertask fixed.osexp","C:\Users\User","False","mono","False","18","no","white","no","yes","768","legacy","50","79","C:/Users/User/Desktop/data files/subject-1.csv","legacy","Melodramatic Milgram","4.0.5","0","s","NA","s","h","NA","s","427.0","NA","37340","11089","NA","427","2","legacy","1024","2","48000","-16","experiment","SSHSS","1","odd","38527","NA","194331","280146","1181","277983","NA","289910","1186","183241","NA","288885","290011","290439","289909","290011","Flankertask","111","76854.0","131","1024"
