"acc","accuracy","average_response_time","avg_rt","background","canvas_backend","clock_backend","color_backend","condition","correct","correct_instructions1","correct_keyboard_response","correct_response","count_Block1","count_Block2","count_Block3","count_ISI","count_errorFeedback","count_experiment","count_faster","count_finish","count_fixation","count_instructions1","count_instructions2","count_instructions3","count_keyboard_response","count_logger","count_sequence","count_stimulus","datetime","deadline","description","disable_garbage_collection","experiment_file","experiment_path","font_bold","font_family","font_italic","font_size","font_underline","foreground","form_clicks","fullscreen","height","keyboard_backend","live_row","live_row_Block1","logfile","mouse_backend","opensesame_codename","opensesame_version","repeat_cycle","response","response_finish","response_instructions1","response_instructions2","response_instructions3","response_keyboard_response","response_time","response_time_finish","response_time_instructions1","response_time_instructions2","response_time_instructions3","response_time_keyboard_response","round_decimals","sampler_backend","sound_buf_size","sound_channels","sound_freq","sound_sample_size","start","stimulus","subject_nr","subject_parity","time_Block1","time_Block2","time_Block3","time_ISI","time_errorFeedback","time_experiment","time_faster","time_finish","time_fixation","time_instructions1","time_instructions2","time_instructions3","time_keyboard_response","time_logger","time_sequence","time_stimulus","title","total_correct","total_response_time","total_responses","width"
"0","0","1500","1500","black","legacy","legacy","legacy","incongruent","0","undefined","0","h","0","0","0","0","0","0","0","0","0","0","0","0","0","0","0","0","Wed Sep 20 10:58:28 2023","1500","The main experiment item","True","Lab2.1.osexp","/Users/test/Desktop","False","mono","False","18","no","white","no","yes","768","legacy","0","0","/Users/test/Downloads/at-subject-2.csv","legacy","Melodramatic Milgram","4.0.5","0","None","NA","h","NA","NA","None","1500.0","NA","13963","NA","NA","1500","2","legacy","1024","2","48000","-16","experiment","SSHSS","2","even","18089","NA","NA","NA","NA","4010","NA","NA","18148","4101","NA","NA","18252","19752","18142","18251","Lab 2-1","0","1500.0","1","1024"
"50","50","1099","1099","black","legacy","legacy","legacy","incongruent","1","undefined","1","h","0","0","0","1","1","0","1","0","1","0","0","0","1","1","1","1","Wed Sep 20 10:58:28 2023","1500","The main experiment item","True","Lab2.1.osexp","/Users/test/Desktop","False","mono","False","18","no","white","no","yes","768","legacy","1","1","/Users/test/Downloads/at-subject-2.csv","legacy","Melodramatic Milgram","4.0.5","0","h","NA","h","NA","NA","h","699.0","NA","13963","NA","NA","699","2","legacy","1024","2","48000","-16","experiment","SSHSS","2","even","18089","NA","NA","20275","19758","4010","NA","NA","21323","4101","NA","NA","21426","22126","21320","21425","Lab 2-1","1","2199.0","2","1024"
"66","66","952","952","black","legacy","legacy","legacy","congruent","1","undefined","1","h","0","0","0","2","2","0","2","0","2","0","0","0","2","2","2","2","Wed Sep 20 10:58:28 2023","1500","The main experiment item","True","Lab2.1.osexp","/Users/test/Desktop","False","mono","False","18","no","white","no","yes","768","legacy","2","2","/Users/test/Downloads/at-subject-2.csv","legacy","Melodramatic Milgram","4.0.5","0","h","NA","h","NA","NA","h","657.0","NA","13963","NA","NA","657","2","legacy","1024","2","48000","-16","experiment","HHHHH","2","even","18089","NA","NA","22129","19758","4010","NA","NA","23169","4101","NA","NA","23273","23931","23166","23272","Lab 2-1","2","2856.0","3","1024"
"75","75","841","841","black","legacy","legacy","legacy","congruent","1","undefined","1","h","0","0","0","3","3","0","3","0","3","0","0","0","3","3","3","3","Wed Sep 20 10:58:28 2023","1500","The main experiment item","True","Lab2.1.osexp","/Users/test/Desktop","False","mono","False","18","no","white","no","yes","768","legacy","3","3","/Users/test/Downloads/at-subject-2.csv","legacy","Melodramatic Milgram","4.0.5","0","h","NA","h","NA","NA","h","510.0","NA","13963","NA","NA","510","2","legacy","1024","2","48000","-16","experiment","HHHHH","2","even","18089","NA","NA","23935","19758","4010","NA","NA","24986","4101","NA","NA","25090","25600","24983","25089","Lab 2-1","3","3366.0","4","1024"
"80","80","791","791","black","legacy","legacy","legacy","congruent","1","undefined","1","s","0","0","0","4","4","0","4","0","4","0","0","0","4","4","4","4","Wed Sep 20 10:58:28 2023","1500","The main experiment item","True","Lab2.1.osexp","/Users/test/Desktop","False","mono","False","18","no","white","no","yes","768","legacy","4","4","/Users/test/Downloads/at-subject-2.csv","legacy","Melodramatic Milgram","4.0.5","0","s","NA","h","NA","NA","s","591.0","NA","13963","NA","NA","591","2","legacy","1024","2","48000","-16","experiment","SSSSS","2","even","18089","NA","NA","25604","19758","4010","NA","NA","26651","4101","NA","NA","26756","27348","26648","26755","Lab 2-1","4","3957.0","5","1024"
"66","66","744","744","black","legacy","legacy","legacy","incongruent","0","undefined","0","s","0","0","0","5","5","0","5","0","5","0","0","0","5","5","5","5","Wed Sep 20 10:58:28 2023","1500","The main experiment item","True","Lab2.1.osexp","/Users/test/Desktop","False","mono","False","18","no","white","no","yes","768","legacy","5","5","/Users/test/Downloads/at-subject-2.csv","legacy","Melodramatic Milgram","4.0.5","0","h","NA","h","NA","NA","h","510.0","NA","13963","NA","NA","510","2","legacy","1024","2","48000","-16","experiment","HHSHH","2","even","18089","NA","NA","27351","19758","4010","NA","NA","28398","4101","NA","NA","28501","29012","28395","28501","Lab 2-1","4","4467.0","6","1024"
"71","71","754","754","black","legacy","legacy","legacy","incongruent","1","undefined","1","h","0","0","0","6","6","0","6","0","6","0","0","0","6","6","6","6","Wed Sep 20 10:58:28 2023","1500","The main experiment item","True","Lab2.1.osexp","/Users/test/Desktop","False","mono","False","18","no","white","no","yes","768","legacy","6","6","/Users/test/Downloads/at-subject-2.csv","legacy","Melodramatic Milgram","4.0.5","0","h","NA","h","NA","NA","h","811.0","NA","13963","NA","NA","811","2","legacy","1024","2","48000","-16","experiment","SSHSS","2","even","18089","NA","NA","29518","29015","4010","NA","NA","30563","4101","NA","NA","30667","31479","30560","30666","Lab 2-1","5","5278.0","7","1024"
"75","75","736","736","black","legacy","legacy","legacy","congruent","1","undefined","1","h","0","0","0","7","7","0","7","0","7","0","0","0","7","7","7","7","Wed Sep 20 10:58:28 2023","1500","The main experiment item","True","Lab2.1.osexp","/Users/test/Desktop","False","mono","False","18","no","white","no","yes","768","legacy","7","7","/Users/test/Downloads/at-subject-2.csv","legacy","Melodramatic Milgram","4.0.5","0","h","NA","h","NA","NA","h","615.0","NA","13963","NA","NA","615","2","legacy","1024","2","48000","-16","experiment","HHHHH","2","even","18089","NA","NA","31482","29015","4010","NA","NA","32527","4101","NA","NA","32631","33247","32524","32630","Lab 2-1","6","5893.0","8","1024"
"77","77","725","725","black","legacy","legacy","legacy","incongruent","1","undefined","1","h","0","0","0","8","8","0","8","0","8","0","0","0","8","8","8","8","Wed Sep 20 10:58:28 2023","1500","The main experiment item","True","Lab2.1.osexp","/Users/test/Desktop","False","mono","False","18","no","white","no","yes","768","legacy","8","8","/Users/test/Downloads/at-subject-2.csv","legacy","Melodramatic Milgram","4.0.5","0","h","NA","h","NA","NA","h","635.0","NA","13963","NA","NA","635","2","legacy","1024","2","48000","-16","experiment","SSHSS","2","even","18089","NA","NA","33250","29015","4010","NA","NA","34295","4101","NA","NA","34399","35035","34293","34399","Lab 2-1","7","6528.0","9","1024"
"80","80","726","726","black","legacy","legacy","legacy","incongruent","1","undefined","1","s","0","0","0","9","9","0","9","0","9","0","0","0","9","9","9","9","Wed Sep 20 10:58:28 2023","1500","The main experiment item","True","Lab2.1.osexp","/Users/test/Desktop","False","mono","False","18","no","white","no","yes","768","legacy","9","9","/Users/test/Downloads/at-subject-2.csv","legacy","Melodramatic Milgram","4.0.5","0","s","NA","h","NA","NA","s","739.0","NA","13963","NA","NA","739","2","legacy","1024","2","48000","-16","experiment","HHSHH","2","even","18089","NA","NA","35039","29015","4010","NA","NA","36087","4101","NA","NA","36190","36930","36084","36190","Lab 2-1","8","7267.0","10","1024"
"81","81","730","730","black","legacy","legacy","legacy","incongruent","1","undefined","1","h","0","0","0","10","10","0","10","0","10","0","0","0","10","10","10","10","Wed Sep 20 10:58:28 2023","1500","The main experiment item","True","Lab2.1.osexp","/Users/test/Desktop","False","mono","False","18","no","white","no","yes","768","legacy","10","10","/Users/test/Downloads/at-subject-2.csv","legacy","Melodramatic Milgram","4.0.5","0","h","NA","h","NA","NA","h","770.0","NA","13963","NA","NA","770","2","legacy","1024","2","48000","-16","experiment","SSHSS","2","even","18089","NA","NA","36933","29015","4010","NA","NA","37970","4101","NA","NA","38074","38845","37967","38073","Lab 2-1","9","8037.0","11","1024"
"83","83","718","718","black","legacy","legacy","legacy","congruent","1","undefined","1","s","0","0","0","11","11","0","11","0","11","0","0","0","11","11","11","11","Wed Sep 20 10:58:28 2023","1500","The main experiment item","True","Lab2.1.osexp","/Users/test/Desktop","False","mono","False","18","no","white","no","yes","768","legacy","11","11","/Users/test/Downloads/at-subject-2.csv","legacy","Melodramatic Milgram","4.0.5","0","s","NA","h","NA","NA","s","581.0","NA","13963","NA","NA","581","2","legacy","1024","2","48000","-16","experiment","SSSSS","2","even","18089","NA","NA","38849","29015","4010","NA","NA","39893","4101","NA","NA","39996","40578","39890","39996","Lab 2-1","10","8618.0","12","1024"
"84","84","719","719","black","legacy","legacy","legacy","congruent","1","undefined","1","h","0","0","0","12","12","0","12","0","12","0","0","0","12","12","12","12","Wed Sep 20 10:58:28 2023","1500","The main experiment item","True","Lab2.1.osexp","/Users/test/Desktop","False","mono","False","18","no","white","no","yes","768","legacy","12","12","/Users/test/Downloads/at-subject-2.csv","legacy","Melodramatic Milgram","4.0.5","0","h","NA","h","NA","NA","h","740.0","NA","13963","NA","NA","740","2","legacy","1024","2","48000","-16","experiment","HHHHH","2","even","18089","NA","NA","40581","29015","4010","NA","NA","41624","4101","NA","NA","41728","42468","41621","41728","Lab 2-1","11","9358.0","13","1024"
"85","85","720","720","black","legacy","legacy","legacy","incongruent","1","undefined","1","s","0","0","0","13","13","0","13","0","13","0","0","0","13","13","13","13","Wed Sep 20 10:58:28 2023","1500","The main experiment item","True","Lab2.1.osexp","/Users/test/Desktop","False","mono","False","18","no","white","no","yes","768","legacy","13","13","/Users/test/Downloads/at-subject-2.csv","legacy","Melodramatic Milgram","4.0.5","0","s","NA","h","NA","NA","s","733.0","NA","13963","NA","NA","733","2","legacy","1024","2","48000","-16","experiment","HHSHH","2","even","18089","NA","NA","42472","29015","4010","NA","NA","43515","4101","NA","NA","43619","44352","43512","43618","Lab 2-1","12","10091.0","14","1024"
"86","86","709","709","black","legacy","legacy","legacy","incongruent","1","undefined","1","h","0","0","0","14","14","0","14","0","14","0","0","0","14","14","14","14","Wed Sep 20 10:58:28 2023","1500","The main experiment item","True","Lab2.1.osexp","/Users/test/Desktop","False","mono","False","18","no","white","no","yes","768","legacy","14","14","/Users/test/Downloads/at-subject-2.csv","legacy","Melodramatic Milgram","4.0.5","0","h","NA","h","NA","NA","h","546.0","NA","13963","NA","NA","546","2","legacy","1024","2","48000","-16","experiment","SSHSS","2","even","18089","NA","NA","44356","29015","4010","NA","NA","45400","4101","NA","NA","45505","46052","45397","45504","Lab 2-1","13","10637.0","15","1024"
"87","87","696","696","black","legacy","legacy","legacy","congruent","1","undefined","1","s","0","0","0","15","15","0","15","0","15","0","0","0","15","15","15","15","Wed Sep 20 10:58:28 2023","1500","The main experiment item","True","Lab2.1.osexp","/Users/test/Desktop","False","mono","False","18","no","white","no","yes","768","legacy","15","15","/Users/test/Downloads/at-subject-2.csv","legacy","Melodramatic Milgram","4.0.5","0","s","NA","h","NA","NA","s","512.0","NA","13963","NA","NA","512","2","legacy","1024","2","48000","-16","experiment","SSSSS","2","even","18089","NA","NA","46056","29015","4010","NA","NA","47100","4101","NA","NA","47203","47715","47097","47203","Lab 2-1","14","11149.0","16","1024"
"88","88","703","703","black","legacy","legacy","legacy","incongruent","1","undefined","1","s","0","0","0","16","16","0","16","0","16","0","0","0","16","16","16","16","Wed Sep 20 10:58:28 2023","1500","The main experiment item","True","Lab2.1.osexp","/Users/test/Desktop","False","mono","False","18","no","white","no","yes","768","legacy","16","16","/Users/test/Downloads/at-subject-2.csv","legacy","Melodramatic Milgram","4.0.5","0","s","NA","h","NA","NA","s","809.0","NA","13963","NA","NA","809","2","legacy","1024","2","48000","-16","experiment","HHSHH","2","even","18089","NA","NA","47719","29015","4010","NA","NA","48774","4101","NA","NA","48876","49686","48770","48876","Lab 2-1","15","11958.0","17","1024"
"88","88","698","698","black","legacy","legacy","legacy","congruent","1","undefined","1","h","0","0","0","17","17","0","17","0","17","0","0","0","17","17","17","17","Wed Sep 20 10:58:28 2023","1500","The main experiment item","True","Lab2.1.osexp","/Users/test/Desktop","False","mono","False","18","no","white","no","yes","768","legacy","17","17","/Users/test/Downloads/at-subject-2.csv","legacy","Melodramatic Milgram","4.0.5","0","h","NA","h","NA","NA","h","613.0","NA","13963","NA","NA","613","2","legacy","1024","2","48000","-16","experiment","HHHHH","2","even","18089","NA","NA","49690","29015","4010","NA","NA","50726","4101","NA","NA","50829","51443","50723","50829","Lab 2-1","16","12571.0","18","1024"
"89","89","689","689","black","legacy","legacy","legacy","congruent","1","undefined","1","s","0","0","0","18","18","0","18","0","18","0","0","0","18","18","18","18","Wed Sep 20 10:58:28 2023","1500","The main experiment item","True","Lab2.1.osexp","/Users/test/Desktop","False","mono","False","18","no","white","no","yes","768","legacy","18","18","/Users/test/Downloads/at-subject-2.csv","legacy","Melodramatic Milgram","4.0.5","0","s","NA","h","NA","NA","s","537.0","NA","13963","NA","NA","537","2","legacy","1024","2","48000","-16","experiment","SSSSS","2","even","18089","NA","NA","51447","29015","4010","NA","NA","52484","4101","NA","NA","52587","53125","52481","52587","Lab 2-1","17","13108.0","19","1024"
"90","90","699","699","black","legacy","legacy","legacy","incongruent","1","undefined","1","h","0","0","0","19","19","0","19","0","19","0","0","0","19","19","19","19","Wed Sep 20 10:58:28 2023","1500","The main experiment item","True","Lab2.1.osexp","/Users/test/Desktop","False","mono","False","18","no","white","no","yes","768","legacy","19","19","/Users/test/Downloads/at-subject-2.csv","legacy","Melodramatic Milgram","4.0.5","0","h","NA","h","NA","NA","h","874.0","NA","13963","NA","NA","874","2","legacy","1024","2","48000","-16","experiment","SSHSS","2","even","18089","NA","NA","53128","29015","4010","NA","NA","54172","4101","NA","NA","54275","55150","54169","54275","Lab 2-1","18","13982.0","20","1024"
"90","90","701","701","black","legacy","legacy","legacy","incongruent","1","undefined","1","s","0","0","0","20","20","0","20","0","20","0","0","0","20","20","20","20","Wed Sep 20 10:58:28 2023","1500","The main experiment item","True","Lab2.1.osexp","/Users/test/Desktop","False","mono","False","18","no","white","no","yes","768","legacy","20","20","/Users/test/Downloads/at-subject-2.csv","legacy","Melodramatic Milgram","4.0.5","0","s","NA","h","NA","NA","s","744.0","NA","13963","NA","NA","744","2","legacy","1024","2","48000","-16","experiment","HHSHH","2","even","18089","NA","NA","55154","29015","4010","NA","NA","56197","4101","NA","NA","56300","57045","56194","56300","Lab 2-1","19","14726.0","21","1024"
"90","90","701","701","black","legacy","legacy","legacy","congruent","1","undefined","1","h","0","0","0","21","21","0","21","0","21","0","0","0","21","21","21","21","Wed Sep 20 10:58:28 2023","1500","The main experiment item","True","Lab2.1.osexp","/Users/test/Desktop","False","mono","False","18","no","white","no","yes","768","legacy","21","21","/Users/test/Downloads/at-subject-2.csv","legacy","Melodramatic Milgram","4.0.5","0","h","NA","h","NA","NA","h","716.0","NA","13963","NA","NA","716","2","legacy","1024","2","48000","-16","experiment","HHHHH","2","even","18089","NA","NA","57048","29015","4010","NA","NA","58092","4101","NA","NA","58195","58912","58089","58195","Lab 2-1","20","15442.0","22","1024"
"91","91","704","704","black","legacy","legacy","legacy","incongruent","1","undefined","1","h","0","0","0","22","22","0","22","0","22","0","0","0","22","22","22","22","Wed Sep 20 10:58:28 2023","1500","The main experiment item","True","Lab2.1.osexp","/Users/test/Desktop","False","mono","False","18","no","white","no","yes","768","legacy","22","22","/Users/test/Downloads/at-subject-2.csv","legacy","Melodramatic Milgram","4.0.5","0","h","NA","h","NA","NA","h","762.0","NA","13963","NA","NA","762","2","legacy","1024","2","48000","-16","experiment","SSHSS","2","even","18089","NA","NA","58915","29015","4010","NA","NA","59961","4101","NA","NA","60065","60828","59959","60065","Lab 2-1","21","16204.0","23","1024"
"91","91","700","700","black","legacy","legacy","legacy","congruent","1","undefined","1","s","0","0","0","23","23","0","23","0","23","0","0","0","23","23","23","23","Wed Sep 20 10:58:28 2023","1500","The main experiment item","True","Lab2.1.osexp","/Users/test/Desktop","False","mono","False","18","no","white","no","yes","768","legacy","23","23","/Users/test/Downloads/at-subject-2.csv","legacy","Melodramatic Milgram","4.0.5","0","s","NA","h","NA","NA","s","597.0","NA","13963","NA","NA","597","2","legacy","1024","2","48000","-16","experiment","SSSSS","2","even","18089","NA","NA","60832","29015","4010","NA","NA","61891","4101","NA","NA","61994","62592","61888","61993","Lab 2-1","22","16801.0","24","1024"
"92","92","703","703","black","legacy","legacy","legacy","incongruent","1","undefined","1","s","0","0","0","24","24","0","24","0","24","0","0","0","24","24","24","24","Wed Sep 20 10:58:28 2023","1500","The main experiment item","True","Lab2.1.osexp","/Users/test/Desktop","False","mono","False","18","no","white","no","yes","768","legacy","24","24","/Users/test/Downloads/at-subject-2.csv","legacy","Melodramatic Milgram","4.0.5","0","s","NA","h","NA","NA","s","788.0","NA","13963","NA","NA","788","2","legacy","1024","2","48000","-16","experiment","HHSHH","2","even","18089","NA","NA","62595","29015","4010","NA","NA","63644","4101","NA","NA","63747","64536","63641","63747","Lab 2-1","23","17589.0","25","1024"
"92","92","702","702","black","legacy","legacy","legacy","incongruent","1","undefined","1","h","0","0","0","25","25","0","25","0","25","0","0","0","25","25","25","25","Wed Sep 20 10:58:28 2023","1500","The main experiment item","True","Lab2.1.osexp","/Users/test/Desktop","False","mono","False","18","no","white","no","yes","768","legacy","25","25","/Users/test/Downloads/at-subject-2.csv","legacy","Melodramatic Milgram","4.0.5","0","h","NA","h","NA","NA","h","669.0","NA","13963","NA","NA","669","2","legacy","1024","2","48000","-16","experiment","SSHSS","2","even","18089","NA","NA","64539","29015","4010","NA","NA","65575","4101","NA","NA","65678","66348","65572","65678","Lab 2-1","24","18258.0","26","1024"
"92","92","708","708","black","legacy","legacy","legacy","congruent","1","undefined","1","s","0","0","0","26","26","0","26","0","26","0","0","0","26","26","26","26","Wed Sep 20 10:58:28 2023","1500","The main experiment item","True","Lab2.1.osexp","/Users/test/Desktop","False","mono","False","18","no","white","no","yes","768","legacy","26","26","/Users/test/Downloads/at-subject-2.csv","legacy","Melodramatic Milgram","4.0.5","0","s","NA","h","NA","NA","s","865.0","NA","13963","NA","NA","865","2","legacy","1024","2","48000","-16","experiment","SSSSS","2","even","18089","NA","NA","66351","29015","4010","NA","NA","67390","4101","NA","NA","67494","68360","67388","67494","Lab 2-1","25","19123.0","27","1024"
"92","92","712","712","black","legacy","legacy","legacy","incongruent","1","undefined","1","s","0","0","0","27","27","0","27","0","27","0","0","0","27","27","27","27","Wed Sep 20 10:58:28 2023","1500","The main experiment item","True","Lab2.1.osexp","/Users/test/Desktop","False","mono","False","18","no","white","no","yes","768","legacy","27","27","/Users/test/Downloads/at-subject-2.csv","legacy","Melodramatic Milgram","4.0.5","0","s","NA","h","NA","NA","s","823.0","NA","13963","NA","NA","823","2","legacy","1024","2","48000","-16","experiment","HHSHH","2","even","18089","NA","NA","68363","29015","4010","NA","NA","69407","4101","NA","NA","69510","70334","69404","69510","Lab 2-1","26","19946.0","28","1024"
"93","93","713","713","black","legacy","legacy","legacy","congruent","1","undefined","1","h","0","0","0","28","28","0","28","0","28","0","0","0","28","28","28","28","Wed Sep 20 10:58:28 2023","1500","The main experiment item","True","Lab2.1.osexp","/Users/test/Desktop","False","mono","False","18","no","white","no","yes","768","legacy","28","28","/Users/test/Downloads/at-subject-2.csv","legacy","Melodramatic Milgram","4.0.5","0","h","NA","h","NA","NA","h","741.0","NA","13963","NA","NA","741","2","legacy","1024","2","48000","-16","experiment","HHHHH","2","even","18089","NA","NA","70337","29015","4010","NA","NA","71381","4101","NA","NA","71484","72226","71378","71484","Lab 2-1","27","20687.0","29","1024"
"93","93","712","712","black","legacy","legacy","legacy","incongruent","1","undefined","1","s","0","0","0","29","29","0","29","0","29","0","0","0","29","29","29","29","Wed Sep 20 10:58:28 2023","1500","The main experiment item","True","Lab2.1.osexp","/Users/test/Desktop","False","mono","False","18","no","white","no","yes","768","legacy","29","29","/Users/test/Downloads/at-subject-2.csv","legacy","Melodramatic Milgram","4.0.5","0","s","NA","h","NA","NA","s","678.0","NA","13963","NA","NA","678","2","legacy","1024","2","48000","-16","experiment","HHSHH","2","even","18089","NA","NA","72229","29015","4010","NA","NA","73273","4101","NA","NA","73376","74055","73270","73376","Lab 2-1","28","21365.0","30","1024"
"93","93","714","714","black","legacy","legacy","legacy","congruent","1","undefined","1","h","0","0","0","30","30","0","30","0","30","0","0","0","30","30","30","30","Wed Sep 20 10:58:28 2023","1500","The main experiment item","True","Lab2.1.osexp","/Users/test/Desktop","False","mono","False","18","no","white","no","yes","768","legacy","30","30","/Users/test/Downloads/at-subject-2.csv","legacy","Melodramatic Milgram","4.0.5","0","h","NA","h","NA","NA","h","776.0","NA","13963","NA","NA","776","2","legacy","1024","2","48000","-16","experiment","HHHHH","2","even","18089","NA","NA","74059","29015","4010","NA","NA","75103","4101","NA","NA","75207","75984","75101","75207","Lab 2-1","29","22141.0","31","1024"
"93","93","715","715","black","legacy","legacy","legacy","incongruent","1","undefined","1","s","0","0","0","31","31","0","31","0","31","0","0","0","31","31","31","31","Wed Sep 20 10:58:28 2023","1500","The main experiment item","True","Lab2.1.osexp","/Users/test/Desktop","False","mono","False","18","no","white","no","yes","768","legacy","31","31","/Users/test/Downloads/at-subject-2.csv","legacy","Melodramatic Milgram","4.0.5","0","s","NA","h","NA","NA","s","752.0","NA","13963","NA","NA","752","2","legacy","1024","2","48000","-16","experiment","HHSHH","2","even","18089","NA","NA","75988","29015","4010","NA","NA","77038","4101","NA","NA","77142","77896","77035","77142","Lab 2-1","30","22893.0","32","1024"
"93","93","713","713","black","legacy","legacy","legacy","congruent","1","undefined","1","s","0","0","0","32","32","0","32","0","32","0","0","0","32","32","32","32","Wed Sep 20 10:58:28 2023","1500","The main experiment item","True","Lab2.1.osexp","/Users/test/Desktop","False","mono","False","18","no","white","no","yes","768","legacy","32","32","/Users/test/Downloads/at-subject-2.csv","legacy","Melodramatic Milgram","4.0.5","0","s","NA","h","NA","NA","s","652.0","NA","13963","NA","NA","652","2","legacy","1024","2","48000","-16","experiment","SSSSS","2","even","18089","NA","NA","77899","29015","4010","NA","NA","78941","4101","NA","NA","79045","79698","78938","79045","Lab 2-1","31","23545.0","33","1024"
"94","94","710","710","black","legacy","legacy","legacy","incongruent","1","undefined","1","s","0","0","0","33","33","0","33","0","33","0","0","0","33","33","33","33","Wed Sep 20 10:58:28 2023","1500","The main experiment item","True","Lab2.1.osexp","/Users/test/Desktop","False","mono","False","18","no","white","no","yes","768","legacy","33","33","/Users/test/Downloads/at-subject-2.csv","legacy","Melodramatic Milgram","4.0.5","0","s","NA","h","NA","NA","s","599.0","NA","13963","NA","NA","599","2","legacy","1024","2","48000","-16","experiment","HHSHH","2","even","18089","NA","NA","79701","29015","4010","NA","NA","80739","4101","NA","NA","80842","81441","80736","80842","Lab 2-1","32","24144.0","34","1024"
"94","94","708","708","black","legacy","legacy","legacy","congruent","1","undefined","1","h","0","0","0","34","34","0","34","0","34","0","0","0","34","34","34","34","Wed Sep 20 10:58:28 2023","1500","The main experiment item","True","Lab2.1.osexp","/Users/test/Desktop","False","mono","False","18","no","white","no","yes","768","legacy","34","34","/Users/test/Downloads/at-subject-2.csv","legacy","Melodramatic Milgram","4.0.5","0","h","NA","h","NA","NA","h","649.0","NA","13963","NA","NA","649","2","legacy","1024","2","48000","-16","experiment","HHHHH","2","even","18089","NA","NA","81445","29015","4010","NA","NA","82489","4101","NA","NA","82592","83242","82486","82592","Lab 2-1","33","24793.0","35","1024"
"94","94","703","703","black","legacy","legacy","legacy","congruent","1","undefined","1","h","0","0","0","35","35","0","35","0","35","0","0","0","35","35","35","35","Wed Sep 20 10:58:28 2023","1500","The main experiment item","True","Lab2.1.osexp","/Users/test/Desktop","False","mono","False","18","no","white","no","yes","768","legacy","35","35","/Users/test/Downloads/at-subject-2.csv","legacy","Melodramatic Milgram","4.0.5","0","h","NA","h","NA","NA","h","532.0","NA","13963","NA","NA","532","2","legacy","1024","2","48000","-16","experiment","HHHHH","2","even","18089","NA","NA","83245","29015","4010","NA","NA","84288","4101","NA","NA","84391","84924","84285","84390","Lab 2-1","34","25325.0","36","1024"
"94","94","700","700","black","legacy","legacy","legacy","congruent","1","undefined","1","h","0","0","0","36","36","0","36","0","36","0","0","0","36","36","36","36","Wed Sep 20 10:58:28 2023","1500","The main experiment item","True","Lab2.1.osexp","/Users/test/Desktop","False","mono","False","18","no","white","no","yes","768","legacy","36","36","/Users/test/Downloads/at-subject-2.csv","legacy","Melodramatic Milgram","4.0.5","0","h","NA","h","NA","NA","h","595.0","NA","13963","NA","NA","595","2","legacy","1024","2","48000","-16","experiment","HHHHH","2","even","18089","NA","NA","84928","29015","4010","NA","NA","85973","4101","NA","NA","86077","86672","85970","86077","Lab 2-1","35","25920.0","37","1024"
"94","94","699","699","black","legacy","legacy","legacy","incongruent","1","undefined","1","h","0","0","0","37","37","0","37","0","37","0","0","0","37","37","37","37","Wed Sep 20 10:58:28 2023","1500","The main experiment item","True","Lab2.1.osexp","/Users/test/Desktop","False","mono","False","18","no","white","no","yes","768","legacy","37","37","/Users/test/Downloads/at-subject-2.csv","legacy","Melodramatic Milgram","4.0.5","0","h","NA","h","NA","NA","h","662.0","NA","13963","NA","NA","662","2","legacy","1024","2","48000","-16","experiment","SSHSS","2","even","18089","NA","NA","86675","29015","4010","NA","NA","87718","4101","NA","NA","87822","88485","87716","87822","Lab 2-1","36","26582.0","38","1024"
"94","94","696","696","black","legacy","legacy","legacy","congruent","1","undefined","1","h","0","0","0","38","38","0","38","0","38","0","0","0","38","38","38","38","Wed Sep 20 10:58:28 2023","1500","The main experiment item","True","Lab2.1.osexp","/Users/test/Desktop","False","mono","False","18","no","white","no","yes","768","legacy","38","38","/Users/test/Downloads/at-subject-2.csv","legacy","Melodramatic Milgram","4.0.5","0","h","NA","h","NA","NA","h","598.0","NA","13963","NA","NA","598","2","legacy","1024","2","48000","-16","experiment","HHHHH","2","even","18089","NA","NA","88489","29015","4010","NA","NA","89534","4101","NA","NA","89638","90237","89531","89637","Lab 2-1","37","27180.0","39","1024"
"95","95","694","694","black","legacy","legacy","legacy","congruent","1","undefined","1","h","0","0","0","39","39","0","39","0","39","0","0","0","39","39","39","39","Wed Sep 20 10:58:28 2023","1500","The main experiment item","True","Lab2.1.osexp","/Users/test/Desktop","False","mono","False","18","no","white","no","yes","768","legacy","39","39","/Users/test/Downloads/at-subject-2.csv","legacy","Melodramatic Milgram","4.0.5","0","h","NA","h","NA","NA","h","599.0","NA","13963","NA","NA","599","2","legacy","1024","2","48000","-16","experiment","HHHHH","2","even","18089","NA","NA","90240","29015","4010","NA","NA","91289","4101","NA","NA","91392","91992","91286","91392","Lab 2-1","38","27779.0","40","1024"
"95","95","691","691","black","legacy","legacy","legacy","congruent","1","undefined","1","s","0","0","0","40","40","0","40","0","40","0","0","0","40","40","40","40","Wed Sep 20 10:58:28 2023","1500","The main experiment item","True","Lab2.1.osexp","/Users/test/Desktop","False","mono","False","18","no","white","no","yes","768","legacy","40","40","/Users/test/Downloads/at-subject-2.csv","legacy","Melodramatic Milgram","4.0.5","0","s","NA","h","NA","NA","s","568.0","NA","13963","NA","NA","568","2","legacy","1024","2","48000","-16","experiment","SSSSS","2","even","18089","NA","NA","91995","29015","4010","NA","NA","93028","4101","NA","NA","93131","93700","93025","93131","Lab 2-1","39","28347.0","41","1024"
"95","95","688","688","black","legacy","legacy","legacy","congruent","1","undefined","1","s","0","0","0","41","41","0","41","0","41","0","0","0","41","41","41","41","Wed Sep 20 10:58:28 2023","1500","The main experiment item","True","Lab2.1.osexp","/Users/test/Desktop","False","mono","False","18","no","white","no","yes","768","legacy","41","41","/Users/test/Downloads/at-subject-2.csv","legacy","Melodramatic Milgram","4.0.5","0","s","NA","h","NA","NA","s","554.0","NA","13963","NA","NA","554","2","legacy","1024","2","48000","-16","experiment","SSSSS","2","even","18089","NA","NA","93703","29015","4010","NA","NA","94742","4101","NA","NA","94844","95399","94739","94844","Lab 2-1","40","28901.0","42","1024"
"95","95","686","686","black","legacy","legacy","legacy","congruent","1","undefined","1","h","0","0","0","42","42","0","42","0","42","0","0","0","42","42","42","42","Wed Sep 20 10:58:28 2023","1500","The main experiment item","True","Lab2.1.osexp","/Users/test/Desktop","False","mono","False","18","no","white","no","yes","768","legacy","42","42","/Users/test/Downloads/at-subject-2.csv","legacy","Melodramatic Milgram","4.0.5","0","h","NA","h","NA","NA","h","626.0","NA","13963","NA","NA","626","2","legacy","1024","2","48000","-16","experiment","HHHHH","2","even","18089","NA","NA","95402","29015","4010","NA","NA","96444","4101","NA","NA","96547","97174","96441","96547","Lab 2-1","41","29527.0","43","1024"
"95","95","683","683","black","legacy","legacy","legacy","congruent","1","undefined","1","h","0","0","0","43","43","0","43","0","43","0","0","0","43","43","43","43","Wed Sep 20 10:58:28 2023","1500","The main experiment item","True","Lab2.1.osexp","/Users/test/Desktop","False","mono","False","18","no","white","no","yes","768","legacy","43","43","/Users/test/Downloads/at-subject-2.csv","legacy","Melodramatic Milgram","4.0.5","0","h","NA","h","NA","NA","h","535.0","NA","13963","NA","NA","535","2","legacy","1024","2","48000","-16","experiment","HHHHH","2","even","18089","NA","NA","97178","29015","4010","NA","NA","98221","4101","NA","NA","98324","98860","98218","98324","Lab 2-1","42","30062.0","44","1024"
"95","95","682","682","black","legacy","legacy","legacy","incongruent","1","undefined","1","h","0","0","0","44","44","0","44","0","44","0","0","0","44","44","44","44","Wed Sep 20 10:58:28 2023","1500","The main experiment item","True","Lab2.1.osexp","/Users/test/Desktop","False","mono","False","18","no","white","no","yes","768","legacy","44","44","/Users/test/Downloads/at-subject-2.csv","legacy","Melodramatic Milgram","4.0.5","0","h","NA","h","NA","NA","h","658.0","NA","13963","NA","NA","658","2","legacy","1024","2","48000","-16","experiment","SSHSS","2","even","18089","NA","NA","98864","29015","4010","NA","NA","99917","4101","NA","NA","100020","100679","99914","100020","Lab 2-1","43","30720.0","45","1024"
"95","95","682","682","black","legacy","legacy","legacy","incongruent","1","undefined","1","h","0","0","0","45","45","0","45","0","45","0","0","0","45","45","45","45","Wed Sep 20 10:58:28 2023","1500","The main experiment item","True","Lab2.1.osexp","/Users/test/Desktop","False","mono","False","18","no","white","no","yes","768","legacy","45","45","/Users/test/Downloads/at-subject-2.csv","legacy","Melodramatic Milgram","4.0.5","0","h","NA","h","NA","NA","h","686.0","NA","13963","NA","NA","686","2","legacy","1024","2","48000","-16","experiment","SSHSS","2","even","18089","NA","NA","100682","29015","4010","NA","NA","101726","4101","NA","NA","101830","102518","101723","101830","Lab 2-1","44","31406.0","46","1024"
"95","95","680","680","black","legacy","legacy","legacy","congruent","1","undefined","1","s","0","0","0","46","46","0","46","0","46","0","0","0","46","46","46","46","Wed Sep 20 10:58:28 2023","1500","The main experiment item","True","Lab2.1.osexp","/Users/test/Desktop","False","mono","False","18","no","white","no","yes","768","legacy","46","46","/Users/test/Downloads/at-subject-2.csv","legacy","Melodramatic Milgram","4.0.5","0","s","NA","h","NA","NA","s","567.0","NA","13963","NA","NA","567","2","legacy","1024","2","48000","-16","experiment","SSSSS","2","even","18089","NA","NA","102522","29015","4010","NA","NA","103594","4101","NA","NA","103697","104264","103591","103697","Lab 2-1","45","31973.0","47","1024"
"95","95","678","678","black","legacy","legacy","legacy","congruent","1","undefined","1","h","0","0","0","47","47","0","47","0","47","0","0","0","47","47","47","47","Wed Sep 20 10:58:28 2023","1500","The main experiment item","True","Lab2.1.osexp","/Users/test/Desktop","False","mono","False","18","no","white","no","yes","768","legacy","47","47","/Users/test/Downloads/at-subject-2.csv","legacy","Melodramatic Milgram","4.0.5","0","h","NA","h","NA","NA","h","590.0","NA","13963","NA","NA","590","2","legacy","1024","2","48000","-16","experiment","HHHHH","2","even","18089","NA","NA","104268","29015","4010","NA","NA","105304","4101","NA","NA","105407","105998","105301","105406","Lab 2-1","46","32563.0","48","1024"
"95","95","676","676","black","legacy","legacy","legacy","congruent","1","undefined","1","s","0","0","0","48","48","0","48","0","48","0","0","0","48","48","48","48","Wed Sep 20 10:58:28 2023","1500","The main experiment item","True","Lab2.1.osexp","/Users/test/Desktop","False","mono","False","18","no","white","no","yes","768","legacy","48","48","/Users/test/Downloads/at-subject-2.csv","legacy","Melodramatic Milgram","4.0.5","0","s","NA","h","NA","NA","s","564.0","NA","13963","NA","NA","564","2","legacy","1024","2","48000","-16","experiment","SSSSS","2","even","18089","NA","NA","106001","29015","4010","NA","NA","107035","4101","NA","NA","107139","107704","107032","107139","Lab 2-1","47","33127.0","49","1024"
"96","96","674","674","black","legacy","legacy","legacy","congruent","1","undefined","1","s","0","0","0","49","49","0","49","0","49","0","0","0","49","49","49","49","Wed Sep 20 10:58:28 2023","1500","The main experiment item","True","Lab2.1.osexp","/Users/test/Desktop","False","mono","False","18","no","white","no","yes","768","legacy","49","49","/Users/test/Downloads/at-subject-2.csv","legacy","Melodramatic Milgram","4.0.5","0","s","NA","h","NA","NA","s","602.0","NA","13963","NA","NA","602","2","legacy","1024","2","48000","-16","experiment","SSSSS","2","even","18089","NA","NA","107708","29015","4010","NA","NA","108751","4101","NA","NA","108854","109457","108748","108853","Lab 2-1","48","33729.0","50","1024"
"96","96","671","671","black","legacy","legacy","legacy","congruent","1","undefined","1","h","0","0","0","50","50","0","50","0","50","0","0","0","50","50","50","50","Wed Sep 20 10:58:28 2023","1500","The main experiment item","True","Lab2.1.osexp","/Users/test/Desktop","False","mono","False","18","no","white","no","yes","768","legacy","50","50","/Users/test/Downloads/at-subject-2.csv","legacy","Melodramatic Milgram","4.0.5","0","h","NA","h","NA","NA","h","541.0","NA","13963","NA","NA","541","2","legacy","1024","2","48000","-16","experiment","HHHHH","2","even","18089","NA","NA","109461","29015","4010","NA","NA","110504","4101","NA","NA","110607","111149","110501","110607","Lab 2-1","49","34270.0","51","1024"
"96","96","674","674","black","legacy","legacy","legacy","incongruent","1","undefined","1","h","0","0","0","51","51","0","51","0","51","0","0","0","51","51","51","51","Wed Sep 20 10:58:28 2023","1500","The main experiment item","True","Lab2.1.osexp","/Users/test/Desktop","False","mono","False","18","no","white","no","yes","768","legacy","51","51","/Users/test/Downloads/at-subject-2.csv","legacy","Melodramatic Milgram","4.0.5","0","h","NA","h","NA","NA","h","821.0","NA","13963","NA","NA","821","2","legacy","1024","2","48000","-16","experiment","SSHSS","2","even","18089","NA","NA","111152","29015","4010","NA","NA","112195","4101","NA","NA","112298","113120","112192","112298","Lab 2-1","50","35091.0","52","1024"
"96","96","674","674","black","legacy","legacy","legacy","incongruent","1","undefined","1","s","0","0","0","52","52","0","52","0","52","0","0","0","52","52","52","52","Wed Sep 20 10:58:28 2023","1500","The main experiment item","True","Lab2.1.osexp","/Users/test/Desktop","False","mono","False","18","no","white","no","yes","768","legacy","52","52","/Users/test/Downloads/at-subject-2.csv","legacy","Melodramatic Milgram","4.0.5","0","s","NA","h","NA","NA","s","665.0","NA","13963","NA","NA","665","2","legacy","1024","2","48000","-16","experiment","HHSHH","2","even","18089","NA","NA","113123","29015","4010","NA","NA","114167","4101","NA","NA","114270","114936","114164","114270","Lab 2-1","51","35756.0","53","1024"
"96","96","674","674","black","legacy","legacy","legacy","congruent","1","undefined","1","s","0","0","0","53","53","0","53","0","53","0","0","0","53","53","53","53","Wed Sep 20 10:58:28 2023","1500","The main experiment item","True","Lab2.1.osexp","/Users/test/Desktop","False","mono","False","18","no","white","no","yes","768","legacy","53","53","/Users/test/Downloads/at-subject-2.csv","legacy","Melodramatic Milgram","4.0.5","0","s","NA","h","NA","NA","s","661.0","NA","13963","NA","NA","661","2","legacy","1024","2","48000","-16","experiment","SSSSS","2","even","18089","NA","NA","114940","29015","4010","NA","NA","115985","4101","NA","NA","116088","116750","115982","116088","Lab 2-1","52","36417.0","54","1024"
"96","96","672","672","black","legacy","legacy","legacy","congruent","1","undefined","1","s","0","0","0","54","54","0","54","0","54","0","0","0","54","54","54","54","Wed Sep 20 10:58:28 2023","1500","The main experiment item","True","Lab2.1.osexp","/Users/test/Desktop","False","mono","False","18","no","white","no","yes","768","legacy","54","54","/Users/test/Downloads/at-subject-2.csv","legacy","Melodramatic Milgram","4.0.5","0","s","NA","h","NA","NA","s","583.0","NA","13963","NA","NA","583","2","legacy","1024","2","48000","-16","experiment","SSSSS","2","even","18089","NA","NA","116753","29015","4010","NA","NA","117802","4101","NA","NA","117905","118489","117799","117904","Lab 2-1","53","37000.0","55","1024"
"96","96","669","669","black","legacy","legacy","legacy","congruent","1","undefined","1","s","0","0","0","55","55","0","55","0","55","0","0","0","55","55","55","55","Wed Sep 20 10:58:28 2023","1500","The main experiment item","True","Lab2.1.osexp","/Users/test/Desktop","False","mono","False","18","no","white","no","yes","768","legacy","55","55","/Users/test/Downloads/at-subject-2.csv","legacy","Melodramatic Milgram","4.0.5","0","s","NA","h","NA","NA","s","500.0","NA","13963","NA","NA","500","2","legacy","1024","2","48000","-16","experiment","SSSSS","2","even","18089","NA","NA","118492","29015","4010","NA","NA","119528","4101","NA","NA","119631","120132","119525","119631","Lab 2-1","54","37500.0","56","1024"
"96","96","669","669","black","legacy","legacy","legacy","incongruent","1","undefined","1","h","0","0","0","56","56","0","56","0","56","0","0","0","56","56","56","56","Wed Sep 20 10:58:28 2023","1500","The main experiment item","True","Lab2.1.osexp","/Users/test/Desktop","False","mono","False","18","no","white","no","yes","768","legacy","56","56","/Users/test/Downloads/at-subject-2.csv","legacy","Melodramatic Milgram","4.0.5","0","h","NA","h","NA","NA","h","678.0","NA","13963","NA","NA","678","2","legacy","1024","2","48000","-16","experiment","SSHSS","2","even","18089","NA","NA","120135","29015","4010","NA","NA","121174","4101","NA","NA","121277","121956","121171","121277","Lab 2-1","55","38178.0","57","1024"
"96","96","669","669","black","legacy","legacy","legacy","incongruent","1","undefined","1","s","0","0","0","57","57","0","57","0","57","0","0","0","57","57","57","57","Wed Sep 20 10:58:28 2023","1500","The main experiment item","True","Lab2.1.osexp","/Users/test/Desktop","False","mono","False","18","no","white","no","yes","768","legacy","57","57","/Users/test/Downloads/at-subject-2.csv","legacy","Melodramatic Milgram","4.0.5","0","s","NA","h","NA","NA","s","631.0","NA","13963","NA","NA","631","2","legacy","1024","2","48000","-16","experiment","HHSHH","2","even","18089","NA","NA","121959","29015","4010","NA","NA","123003","4101","NA","NA","123106","123738","123000","123106","Lab 2-1","56","38809.0","58","1024"
"96","96","667","667","black","legacy","legacy","legacy","incongruent","1","undefined","1","s","0","0","0","58","58","0","58","0","58","0","0","0","58","58","58","58","Wed Sep 20 10:58:28 2023","1500","The main experiment item","True","Lab2.1.osexp","/Users/test/Desktop","False","mono","False","18","no","white","no","yes","768","legacy","58","58","/Users/test/Downloads/at-subject-2.csv","legacy","Melodramatic Milgram","4.0.5","0","s","NA","h","NA","NA","s","577.0","NA","13963","NA","NA","577","2","legacy","1024","2","48000","-16","experiment","HHSHH","2","even","18089","NA","NA","123742","29015","4010","NA","NA","124785","4101","NA","NA","124889","125467","124783","124888","Lab 2-1","57","39386.0","59","1024"
"96","96","666","666","black","legacy","legacy","legacy","incongruent","1","undefined","1","s","0","0","0","59","59","0","59","0","59","0","0","0","59","59","59","59","Wed Sep 20 10:58:28 2023","1500","The main experiment item","True","Lab2.1.osexp","/Users/test/Desktop","False","mono","False","18","no","white","no","yes","768","legacy","59","59","/Users/test/Downloads/at-subject-2.csv","legacy","Melodramatic Milgram","4.0.5","0","s","NA","h","NA","NA","s","628.0","NA","13963","NA","NA","628","2","legacy","1024","2","48000","-16","experiment","HHSHH","2","even","18089","NA","NA","125471","29015","4010","NA","NA","126514","4101","NA","NA","126617","127246","126512","126617","Lab 2-1","58","40014.0","60","1024"
"96","96","665","665","black","legacy","legacy","legacy","incongruent","1","undefined","1","s","0","0","0","60","60","0","60","0","60","0","0","0","60","60","60","60","Wed Sep 20 10:58:28 2023","1500","The main experiment item","True","Lab2.1.osexp","/Users/test/Desktop","False","mono","False","18","no","white","no","yes","768","legacy","60","60","/Users/test/Downloads/at-subject-2.csv","legacy","Melodramatic Milgram","4.0.5","0","s","NA","h","NA","NA","s","569.0","NA","13963","NA","NA","569","2","legacy","1024","2","48000","-16","experiment","HHSHH","2","even","18089","NA","NA","127249","29015","4010","NA","NA","128293","4101","NA","NA","128396","128966","128290","128396","Lab 2-1","59","40583.0","61","1024"
"96","96","665","665","black","legacy","legacy","legacy","congruent","1","undefined","1","h","0","0","0","61","61","0","61","0","61","0","0","0","61","61","61","61","Wed Sep 20 10:58:28 2023","1500","The main experiment item","True","Lab2.1.osexp","/Users/test/Desktop","False","mono","False","18","no","white","no","yes","768","legacy","61","61","/Users/test/Downloads/at-subject-2.csv","legacy","Melodramatic Milgram","4.0.5","0","h","NA","h","NA","NA","h","663.0","NA","13963","NA","NA","663","2","legacy","1024","2","48000","-16","experiment","HHHHH","2","even","18089","NA","NA","128970","29015","4010","NA","NA","130020","4101","NA","NA","130125","130790","130018","130124","Lab 2-1","60","41246.0","62","1024"
"96","96","662","662","black","legacy","legacy","legacy","congruent","1","undefined","1","s","0","0","0","62","62","0","62","0","62","0","0","0","62","62","62","62","Wed Sep 20 10:58:28 2023","1500","The main experiment item","True","Lab2.1.osexp","/Users/test/Desktop","False","mono","False","18","no","white","no","yes","768","legacy","62","62","/Users/test/Downloads/at-subject-2.csv","legacy","Melodramatic Milgram","4.0.5","0","s","NA","h","NA","NA","s","520.0","NA","13963","NA","NA","520","2","legacy","1024","2","48000","-16","experiment","SSSSS","2","even","18089","NA","NA","130794","29015","4010","NA","NA","131830","4101","NA","NA","131932","132453","131827","131932","Lab 2-1","61","41766.0","63","1024"
"96","96","664","664","black","legacy","legacy","legacy","incongruent","1","undefined","1","s","0","0","0","63","63","0","63","0","63","0","0","0","63","63","63","63","Wed Sep 20 10:58:28 2023","1500","The main experiment item","True","Lab2.1.osexp","/Users/test/Desktop","False","mono","False","18","no","white","no","yes","768","legacy","63","63","/Users/test/Downloads/at-subject-2.csv","legacy","Melodramatic Milgram","4.0.5","0","s","NA","h","NA","NA","s","730.0","NA","13963","NA","NA","730","2","legacy","1024","2","48000","-16","experiment","HHSHH","2","even","18089","NA","NA","132456","29015","4010","NA","NA","133494","4101","NA","NA","133597","134328","133491","133597","Lab 2-1","62","42496.0","64","1024"
"96","96","662","662","black","legacy","legacy","legacy","incongruent","1","undefined","1","s","0","0","0","64","64","0","64","0","64","0","0","0","64","64","64","64","Wed Sep 20 10:58:28 2023","1500","The main experiment item","True","Lab2.1.osexp","/Users/test/Desktop","False","mono","False","18","no","white","no","yes","768","legacy","64","64","/Users/test/Downloads/at-subject-2.csv","legacy","Melodramatic Milgram","4.0.5","0","s","NA","h","NA","NA","s","590.0","NA","13963","NA","NA","590","2","legacy","1024","2","48000","-16","experiment","HHSHH","2","even","18089","NA","NA","134332","29015","4010","NA","NA","135379","4101","NA","NA","135482","136073","135376","135482","Lab 2-1","63","43086.0","65","1024"
"96","96","661","661","black","legacy","legacy","legacy","congruent","1","undefined","1","s","0","0","0","65","65","0","65","0","65","0","0","0","65","65","65","65","Wed Sep 20 10:58:28 2023","1500","The main experiment item","True","Lab2.1.osexp","/Users/test/Desktop","False","mono","False","18","no","white","no","yes","768","legacy","65","65","/Users/test/Downloads/at-subject-2.csv","legacy","Melodramatic Milgram","4.0.5","0","s","NA","h","NA","NA","s","543.0","NA","13963","NA","NA","543","2","legacy","1024","2","48000","-16","experiment","SSSSS","2","even","18089","NA","NA","136077","29015","4010","NA","NA","137119","4101","NA","NA","137223","137767","137116","137223","Lab 2-1","64","43629.0","66","1024"
"97","97","657","657","black","legacy","legacy","legacy","congruent","1","undefined","1","s","0","0","0","66","66","0","66","0","66","0","0","0","66","66","66","66","Wed Sep 20 10:58:28 2023","1500","The main experiment item","True","Lab2.1.osexp","/Users/test/Desktop","False","mono","False","18","no","white","no","yes","768","legacy","66","66","/Users/test/Downloads/at-subject-2.csv","legacy","Melodramatic Milgram","4.0.5","0","s","NA","h","NA","NA","s","451.0","NA","13963","NA","NA","451","2","legacy","1024","2","48000","-16","experiment","SSSSS","2","even","18089","NA","NA","137770","29015","4010","NA","NA","138814","4101","NA","NA","138917","139369","138811","138916","Lab 2-1","65","44080.0","67","1024"
"97","97","655","655","black","legacy","legacy","legacy","congruent","1","undefined","1","s","0","0","0","67","67","0","67","0","67","0","0","0","67","67","67","67","Wed Sep 20 10:58:28 2023","1500","The main experiment item","True","Lab2.1.osexp","/Users/test/Desktop","False","mono","False","18","no","white","no","yes","768","legacy","67","67","/Users/test/Downloads/at-subject-2.csv","legacy","Melodramatic Milgram","4.0.5","0","s","NA","h","NA","NA","s","464.0","NA","13963","NA","NA","464","2","legacy","1024","2","48000","-16","experiment","SSSSS","2","even","18089","NA","NA","139373","29015","4010","NA","NA","140416","4101","NA","NA","140519","140984","140413","140519","Lab 2-1","66","44544.0","68","1024"
"97","97","656","656","black","legacy","legacy","legacy","congruent","1","undefined","1","h","0","0","0","68","68","0","68","0","68","0","0","0","68","68","68","68","Wed Sep 20 10:58:28 2023","1500","The main experiment item","True","Lab2.1.osexp","/Users/test/Desktop","False","mono","False","18","no","white","no","yes","768","legacy","68","68","/Users/test/Downloads/at-subject-2.csv","legacy","Melodramatic Milgram","4.0.5","0","h","NA","h","NA","NA","h","785.0","NA","13963","NA","NA","785","2","legacy","1024","2","48000","-16","experiment","HHHHH","2","even","18089","NA","NA","140987","29015","4010","NA","NA","142028","4101","NA","NA","142131","142917","142025","142131","Lab 2-1","67","45329.0","69","1024"
"97","97","657","657","black","legacy","legacy","legacy","incongruent","1","undefined","1","h","0","0","0","69","69","0","69","0","69","0","0","0","69","69","69","69","Wed Sep 20 10:58:28 2023","1500","The main experiment item","True","Lab2.1.osexp","/Users/test/Desktop","False","mono","False","18","no","white","no","yes","768","legacy","69","69","/Users/test/Downloads/at-subject-2.csv","legacy","Melodramatic Milgram","4.0.5","0","h","NA","h","NA","NA","h","715.0","NA","13963","NA","NA","715","2","legacy","1024","2","48000","-16","experiment","SSHSS","2","even","18089","NA","NA","142921","29015","4010","NA","NA","143973","4101","NA","NA","144076","144793","143970","144076","Lab 2-1","68","46044.0","70","1024"
"97","97","660","660","black","legacy","legacy","legacy","incongruent","1","undefined","1","s","0","0","0","70","70","0","70","0","70","0","0","0","70","70","70","70","Wed Sep 20 10:58:28 2023","1500","The main experiment item","True","Lab2.1.osexp","/Users/test/Desktop","False","mono","False","18","no","white","no","yes","768","legacy","70","70","/Users/test/Downloads/at-subject-2.csv","legacy","Melodramatic Milgram","4.0.5","0","s","NA","h","NA","NA","s","834.0","NA","13963","NA","NA","834","2","legacy","1024","2","48000","-16","experiment","HHSHH","2","even","18089","NA","NA","144797","29015","4010","NA","NA","145834","4101","NA","NA","145937","146772","145831","145936","Lab 2-1","69","46878.0","71","1024"
"97","97","662","662","black","legacy","legacy","legacy","incongruent","1","undefined","1","s","0","0","0","71","71","0","71","0","71","0","0","0","71","71","71","71","Wed Sep 20 10:58:28 2023","1500","The main experiment item","True","Lab2.1.osexp","/Users/test/Desktop","False","mono","False","18","no","white","no","yes","768","legacy","71","71","/Users/test/Downloads/at-subject-2.csv","legacy","Melodramatic Milgram","4.0.5","0","s","NA","h","NA","NA","s","798.0","NA","13963","NA","NA","798","2","legacy","1024","2","48000","-16","experiment","HHSHH","2","even","18089","NA","NA","146775","29015","4010","NA","NA","147815","4101","NA","NA","147917","148716","147812","147917","Lab 2-1","70","47676.0","72","1024"
"97","97","663","663","black","legacy","legacy","legacy","incongruent","1","undefined","1","h","0","0","0","72","72","0","72","0","72","0","0","0","72","72","72","72","Wed Sep 20 10:58:28 2023","1500","The main experiment item","True","Lab2.1.osexp","/Users/test/Desktop","False","mono","False","18","no","white","no","yes","768","legacy","72","72","/Users/test/Downloads/at-subject-2.csv","legacy","Melodramatic Milgram","4.0.5","0","h","NA","h","NA","NA","h","762.0","NA","13963","NA","NA","762","2","legacy","1024","2","48000","-16","experiment","SSHSS","2","even","18089","NA","NA","148720","29015","4010","NA","NA","149762","4101","NA","NA","149866","150629","149760","149865","Lab 2-1","71","48438.0","73","1024"
"97","97","662","662","black","legacy","legacy","legacy","incongruent","1","undefined","1","h","0","0","0","73","73","0","73","0","73","0","0","0","73","73","73","73","Wed Sep 20 10:58:28 2023","1500","The main experiment item","True","Lab2.1.osexp","/Users/test/Desktop","False","mono","False","18","no","white","no","yes","768","legacy","73","73","/Users/test/Downloads/at-subject-2.csv","legacy","Melodramatic Milgram","4.0.5","0","h","NA","h","NA","NA","h","557.0","NA","13963","NA","NA","557","2","legacy","1024","2","48000","-16","experiment","SSHSS","2","even","18089","NA","NA","150632","29015","4010","NA","NA","151676","4101","NA","NA","151779","152337","151673","151779","Lab 2-1","72","48995.0","74","1024"
"97","97","660","660","black","legacy","legacy","legacy","incongruent","1","undefined","1","h","0","0","0","74","74","0","74","0","74","0","0","0","74","74","74","74","Wed Sep 20 10:58:28 2023","1500","The main experiment item","True","Lab2.1.osexp","/Users/test/Desktop","False","mono","False","18","no","white","no","yes","768","legacy","74","74","/Users/test/Downloads/at-subject-2.csv","legacy","Melodramatic Milgram","4.0.5","0","h","NA","h","NA","NA","h","550.0","NA","13963","NA","NA","550","2","legacy","1024","2","48000","-16","experiment","SSHSS","2","even","18089","NA","NA","152341","29015","4010","NA","NA","153386","4101","NA","NA","153490","154041","153384","153490","Lab 2-1","73","49545.0","75","1024"
"97","97","661","661","black","legacy","legacy","legacy","incongruent","1","undefined","1","s","0","0","0","75","75","0","75","0","75","0","0","0","75","75","75","75","Wed Sep 20 10:58:28 2023","1500","The main experiment item","True","Lab2.1.osexp","/Users/test/Desktop","False","mono","False","18","no","white","no","yes","768","legacy","75","75","/Users/test/Downloads/at-subject-2.csv","legacy","Melodramatic Milgram","4.0.5","0","s","NA","h","NA","NA","s","711.0","NA","13963","NA","NA","711","2","legacy","1024","2","48000","-16","experiment","HHSHH","2","even","18089","NA","NA","154044","29015","4010","NA","NA","155088","4101","NA","NA","155191","155903","155085","155191","Lab 2-1","74","50256.0","76","1024"
"97","97","665","665","black","legacy","legacy","legacy","congruent","1","undefined","1","h","0","0","0","76","76","0","76","0","76","0","0","0","76","76","76","76","Wed Sep 20 10:58:28 2023","1500","The main experiment item","True","Lab2.1.osexp","/Users/test/Desktop","False","mono","False","18","no","white","no","yes","768","legacy","76","76","/Users/test/Downloads/at-subject-2.csv","legacy","Melodramatic Milgram","4.0.5","0","h","NA","h","NA","NA","h","1013.0","NA","13963","NA","NA","1013","2","legacy","1024","2","48000","-16","experiment","HHHHH","2","even","18089","NA","NA","155907","29015","4010","NA","NA","156965","4101","NA","NA","157068","158082","156961","157068","Lab 2-1","75","51269.0","77","1024"
"97","97","664","664","black","legacy","legacy","legacy","congruent","1","undefined","1","s","0","0","0","77","77","0","77","0","77","0","0","0","77","77","77","77","Wed Sep 20 10:58:28 2023","1500","The main experiment item","True","Lab2.1.osexp","/Users/test/Desktop","False","mono","False","18","no","white","no","yes","768","legacy","77","77","/Users/test/Downloads/at-subject-2.csv","legacy","Melodramatic Milgram","4.0.5","0","s","NA","h","NA","NA","s","544.0","NA","13963","NA","NA","544","2","legacy","1024","2","48000","-16","experiment","SSSSS","2","even","18089","NA","NA","158086","29015","4010","NA","NA","159121","4101","NA","NA","159226","159771","159119","159226","Lab 2-1","76","51813.0","78","1024"
"97","97","664","664","black","legacy","legacy","legacy","incongruent","1","undefined","1","h","0","0","0","78","78","0","78","0","78","0","0","0","78","78","78","78","Wed Sep 20 10:58:28 2023","1500","The main experiment item","True","Lab2.1.osexp","/Users/test/Desktop","False","mono","False","18","no","white","no","yes","768","legacy","78","78","/Users/test/Downloads/at-subject-2.csv","legacy","Melodramatic Milgram","4.0.5","0","h","NA","h","NA","NA","h","653.0","NA","13963","NA","NA","653","2","legacy","1024","2","48000","-16","experiment","SSHSS","2","even","18089","NA","NA","159774","29015","4010","NA","NA","160811","4101","NA","NA","160914","161568","160808","160913","Lab 2-1","77","52466.0","79","1024"
"97","97","663","663","black","legacy","legacy","legacy","incongruent","1","undefined","1","h","0","0","0","79","79","0","79","0","79","0","0","0","79","79","79","79","Wed Sep 20 10:58:28 2023","1500","The main experiment item","True","Lab2.1.osexp","/Users/test/Desktop","False","mono","False","18","no","white","no","yes","768","legacy","79","79","/Users/test/Downloads/at-subject-2.csv","legacy","Melodramatic Milgram","4.0.5","0","h","NA","h","NA","NA","h","631.0","NA","13963","NA","NA","631","2","legacy","1024","2","48000","-16","experiment","SSHSS","2","even","18089","NA","NA","161572","29015","4010","NA","NA","162615","4101","NA","NA","162718","163350","162612","162718","Lab 2-1","78","53097.0","80","1024"
"97","97","666","666","black","legacy","legacy","legacy","incongruent","1","undefined","1","s","0","0","0","80","80","0","80","0","80","0","0","0","80","80","80","80","Wed Sep 20 10:58:28 2023","600","The main experiment item","True","Lab2.1.osexp","/Users/test/Desktop","False","mono","False","18","no","white","no","yes","768","legacy","0","79","/Users/test/Downloads/at-subject-2.csv","legacy","Melodramatic Milgram","4.0.5","0","s","NA","h","h","NA","s","875.0","NA","13963","7054","NA","875","2","legacy","1024","2","48000","-16","experiment","HHSHH","2","even","18089","171413","NA","163354","29015","4010","NA","NA","171455","4101","164358","NA","171560","172436","171452","171560","Lab 2-1","79","53972.0","81","1024"
"96","96","664","664","black","legacy","legacy","legacy","incongruent","0","undefined","0","h","0","0","0","81","81","0","81","0","81","0","0","0","81","81","81","81","Wed Sep 20 10:58:28 2023","600","The main experiment item","True","Lab2.1.osexp","/Users/test/Desktop","False","mono","False","18","no","white","no","yes","768","legacy","1","79","/Users/test/Downloads/at-subject-2.csv","legacy","Melodramatic Milgram","4.0.5","0","s","NA","h","h","NA","s","536.0","NA","13963","7054","NA","536","2","legacy","1024","2","48000","-16","experiment","SSHSS","2","even","18089","171413","NA","172943","29015","4010","172440","NA","173980","4101","164358","NA","174083","174621","173977","174083","Lab 2-1","79","54508.0","82","1024"
"96","96","664","664","black","legacy","legacy","legacy","incongruent","1","undefined","1","h","0","0","0","82","82","0","82","0","82","0","0","0","82","82","82","82","Wed Sep 20 10:58:28 2023","600","The main experiment item","True","Lab2.1.osexp","/Users/test/Desktop","False","mono","False","18","no","white","no","yes","768","legacy","2","79","/Users/test/Downloads/at-subject-2.csv","legacy","Melodramatic Milgram","4.0.5","0","h","NA","h","h","NA","h","632.0","NA","13963","7054","NA","632","2","legacy","1024","2","48000","-16","experiment","SSHSS","2","even","18089","171413","NA","175128","174624","4010","172440","NA","176167","4101","164358","NA","176271","176904","176165","176271","Lab 2-1","80","55140.0","83","1024"
"96","96","663","663","black","legacy","legacy","legacy","incongruent","1","undefined","1","s","0","0","0","83","83","0","83","0","83","0","0","0","83","83","83","83","Wed Sep 20 10:58:28 2023","600","The main experiment item","True","Lab2.1.osexp","/Users/test/Desktop","False","mono","False","18","no","white","no","yes","768","legacy","3","79","/Users/test/Downloads/at-subject-2.csv","legacy","Melodramatic Milgram","4.0.5","0","s","NA","h","h","NA","s","625.0","NA","13963","7054","NA","625","2","legacy","1024","2","48000","-16","experiment","HHSHH","2","even","18089","171413","NA","177411","174624","4010","176908","NA","178454","4101","164358","NA","178557","179183","178452","178557","Lab 2-1","81","55765.0","84","1024"
"96","96","662","662","black","legacy","legacy","legacy","incongruent","1","undefined","1","s","0","0","0","84","84","0","84","0","84","0","0","0","84","84","84","84","Wed Sep 20 10:58:28 2023","600","The main experiment item","True","Lab2.1.osexp","/Users/test/Desktop","False","mono","False","18","no","white","no","yes","768","legacy","4","79","/Users/test/Downloads/at-subject-2.csv","legacy","Melodramatic Milgram","4.0.5","0","s","NA","h","h","NA","s","560.0","NA","13963","7054","NA","560","2","legacy","1024","2","48000","-16","experiment","HHSHH","2","even","18089","171413","NA","179689","174624","4010","179186","NA","180730","4101","164358","NA","180833","181394","180728","180833","Lab 2-1","82","56325.0","85","1024"
"96","96","660","660","black","legacy","legacy","legacy","incongruent","1","undefined","1","s","0","0","0","85","85","0","85","0","85","0","0","0","85","85","85","85","Wed Sep 20 10:58:28 2023","600","The main experiment item","True","Lab2.1.osexp","/Users/test/Desktop","False","mono","False","18","no","white","no","yes","768","legacy","5","79","/Users/test/Downloads/at-subject-2.csv","legacy","Melodramatic Milgram","4.0.5","0","s","NA","h","h","NA","s","490.0","NA","13963","7054","NA","490","2","legacy","1024","2","48000","-16","experiment","HHSHH","2","even","18089","171413","NA","181398","174624","4010","179186","NA","182442","4101","164358","NA","182546","183037","182439","182546","Lab 2-1","83","56815.0","86","1024"
"96","96","659","659","black","legacy","legacy","legacy","congruent","1","undefined","1","h","0","0","0","86","86","0","86","0","86","0","0","0","86","86","86","86","Wed Sep 20 10:58:28 2023","600","The main experiment item","True","Lab2.1.osexp","/Users/test/Desktop","False","mono","False","18","no","white","no","yes","768","legacy","6","79","/Users/test/Downloads/at-subject-2.csv","legacy","Melodramatic Milgram","4.0.5","0","h","NA","h","h","NA","h","523.0","NA","13963","7054","NA","523","2","legacy","1024","2","48000","-16","experiment","HHHHH","2","even","18089","171413","NA","183041","174624","4010","179186","NA","184085","4101","164358","NA","184188","184712","184082","184188","Lab 2-1","84","57338.0","87","1024"
"96","96","657","657","black","legacy","legacy","legacy","congruent","1","undefined","1","h","0","0","0","87","87","0","87","0","87","0","0","0","87","87","87","87","Wed Sep 20 10:58:28 2023","600","The main experiment item","True","Lab2.1.osexp","/Users/test/Desktop","False","mono","False","18","no","white","no","yes","768","legacy","7","79","/Users/test/Downloads/at-subject-2.csv","legacy","Melodramatic Milgram","4.0.5","0","h","NA","h","h","NA","h","540.0","NA","13963","7054","NA","540","2","legacy","1024","2","48000","-16","experiment","HHHHH","2","even","18089","171413","NA","184715","174624","4010","179186","NA","185759","4101","164358","NA","185862","186403","185756","185861","Lab 2-1","85","57878.0","88","1024"
"96","96","655","655","black","legacy","legacy","legacy","congruent","1","undefined","1","s","0","0","0","88","88","0","88","0","88","0","0","0","88","88","88","88","Wed Sep 20 10:58:28 2023","600","The main experiment item","True","Lab2.1.osexp","/Users/test/Desktop","False","mono","False","18","no","white","no","yes","768","legacy","8","79","/Users/test/Downloads/at-subject-2.csv","legacy","Melodramatic Milgram","4.0.5","0","s","NA","h","h","NA","s","474.0","NA","13963","7054","NA","474","2","legacy","1024","2","48000","-16","experiment","SSSSS","2","even","18089","171413","NA","186407","174624","4010","179186","NA","187453","4101","164358","NA","187557","188032","187451","187557","Lab 2-1","86","58352.0","89","1024"
"96","96","656","656","black","legacy","legacy","legacy","incongruent","1","undefined","1","s","0","0","0","89","89","0","89","0","89","0","0","0","89","89","89","89","Wed Sep 20 10:58:28 2023","600","The main experiment item","True","Lab2.1.osexp","/Users/test/Desktop","False","mono","False","18","no","white","no","yes","768","legacy","9","79","/Users/test/Downloads/at-subject-2.csv","legacy","Melodramatic Milgram","4.0.5","0","s","NA","h","h","NA","s","763.0","NA","13963","7054","NA","763","2","legacy","1024","2","48000","-16","experiment","HHSHH","2","even","18089","171413","NA","188035","174624","4010","179186","NA","189072","4101","164358","NA","189175","189940","189069","189175","Lab 2-1","87","59115.0","90","1024"
"96","96","655","655","black","legacy","legacy","legacy","congruent","1","undefined","1","h","0","0","0","90","90","0","90","0","90","0","0","0","90","90","90","90","Wed Sep 20 10:58:28 2023","600","The main experiment item","True","Lab2.1.osexp","/Users/test/Desktop","False","mono","False","18","no","white","no","yes","768","legacy","10","79","/Users/test/Downloads/at-subject-2.csv","legacy","Melodramatic Milgram","4.0.5","0","h","NA","h","h","NA","h","551.0","NA","13963","7054","NA","551","2","legacy","1024","2","48000","-16","experiment","HHHHH","2","even","18089","171413","NA","190447","174624","4010","189944","NA","191486","4101","164358","NA","191589","192141","191483","191589","Lab 2-1","88","59666.0","91","1024"
"95","95","654","654","black","legacy","legacy","legacy","incongruent","0","undefined","0","h","0","0","0","91","91","0","91","0","91","0","0","0","91","91","91","91","Wed Sep 20 10:58:28 2023","600","The main experiment item","True","Lab2.1.osexp","/Users/test/Desktop","False","mono","False","18","no","white","no","yes","768","legacy","11","79","/Users/test/Downloads/at-subject-2.csv","legacy","Melodramatic Milgram","4.0.5","0","s","NA","h","h","NA","s","537.0","NA","13963","7054","NA","537","2","legacy","1024","2","48000","-16","experiment","SSHSS","2","even","18089","171413","NA","192145","174624","4010","189944","NA","193197","4101","164358","NA","193299","193838","193194","193299","Lab 2-1","88","60203.0","92","1024"
"95","95","653","653","black","legacy","legacy","legacy","congruent","1","undefined","1","h","0","0","0","92","92","0","92","0","92","0","0","0","92","92","92","92","Wed Sep 20 10:58:28 2023","600","The main experiment item","True","Lab2.1.osexp","/Users/test/Desktop","False","mono","False","18","no","white","no","yes","768","legacy","12","79","/Users/test/Downloads/at-subject-2.csv","legacy","Melodramatic Milgram","4.0.5","0","h","NA","h","h","NA","h","535.0","NA","13963","7054","NA","535","2","legacy","1024","2","48000","-16","experiment","HHHHH","2","even","18089","171413","NA","194345","193842","4010","189944","NA","195389","4101","164358","NA","195494","196030","195386","195493","Lab 2-1","89","60738.0","93","1024"
"95","95","650","650","black","legacy","legacy","legacy","congruent","1","undefined","1","h","0","0","0","93","93","0","93","0","93","0","0","0","93","93","93","93","Wed Sep 20 10:58:28 2023","600","The main experiment item","True","Lab2.1.osexp","/Users/test/Desktop","False","mono","False","18","no","white","no","yes","768","legacy","13","79","/Users/test/Downloads/at-subject-2.csv","legacy","Melodramatic Milgram","4.0.5","0","h","NA","h","h","NA","h","405.0","NA","13963","7054","NA","405","2","legacy","1024","2","48000","-16","experiment","HHHHH","2","even","18089","171413","NA","196034","193842","4010","189944","NA","197080","4101","164358","NA","197183","197589","197077","197183","Lab 2-1","90","61143.0","94","1024"
"95","95","649","649","black","legacy","legacy","legacy","incongruent","1","undefined","1","s","0","0","0","94","94","0","94","0","94","0","0","0","94","94","94","94","Wed Sep 20 10:58:28 2023","600","The main experiment item","True","Lab2.1.osexp","/Users/test/Desktop","False","mono","False","18","no","white","no","yes","768","legacy","14","79","/Users/test/Downloads/at-subject-2.csv","legacy","Melodramatic Milgram","4.0.5","0","s","NA","h","h","NA","s","603.0","NA","13963","7054","NA","603","2","legacy","1024","2","48000","-16","experiment","HHSHH","2","even","18089","171413","NA","197593","193842","4010","189944","NA","198639","4101","164358","NA","198743","199347","198636","198743","Lab 2-1","91","61746.0","95","1024"
"95","95","649","649","black","legacy","legacy","legacy","incongruent","1","undefined","1","s","0","0","0","95","95","0","95","0","95","0","0","0","95","95","95","95","Wed Sep 20 10:58:28 2023","600","The main experiment item","True","Lab2.1.osexp","/Users/test/Desktop","False","mono","False","18","no","white","no","yes","768","legacy","15","79","/Users/test/Downloads/at-subject-2.csv","legacy","Melodramatic Milgram","4.0.5","0","s","NA","h","h","NA","s","606.0","NA","13963","7054","NA","606","2","legacy","1024","2","48000","-16","experiment","HHSHH","2","even","18089","171413","NA","199854","193842","4010","199351","NA","200924","4101","164358","NA","201026","201633","200921","201026","Lab 2-1","92","62352.0","96","1024"
"95","95","647","647","black","legacy","legacy","legacy","congruent","1","undefined","1","s","0","0","0","96","96","0","96","0","96","0","0","0","96","96","96","96","Wed Sep 20 10:58:28 2023","600","The main experiment item","True","Lab2.1.osexp","/Users/test/Desktop","False","mono","False","18","no","white","no","yes","768","legacy","16","79","/Users/test/Downloads/at-subject-2.csv","legacy","Melodramatic Milgram","4.0.5","0","s","NA","h","h","NA","s","434.0","NA","13963","7054","NA","434","2","legacy","1024","2","48000","-16","experiment","SSSSS","2","even","18089","171413","NA","202140","193842","4010","201637","NA","203176","4101","164358","NA","203279","203714","203173","203279","Lab 2-1","93","62786.0","97","1024"
"95","95","644","644","black","legacy","legacy","legacy","incongruent","1","undefined","1","s","0","0","0","97","97","0","97","0","97","0","0","0","97","97","97","97","Wed Sep 20 10:58:28 2023","600","The main experiment item","True","Lab2.1.osexp","/Users/test/Desktop","False","mono","False","18","no","white","no","yes","768","legacy","17","79","/Users/test/Downloads/at-subject-2.csv","legacy","Melodramatic Milgram","4.0.5","0","s","NA","h","h","NA","s","395.0","NA","13963","7054","NA","395","2","legacy","1024","2","48000","-16","experiment","HHSHH","2","even","18089","171413","NA","203718","193842","4010","201637","NA","204754","4101","164358","NA","204857","205253","204751","204856","Lab 2-1","94","63181.0","98","1024"
"95","95","642","642","black","legacy","legacy","legacy","incongruent","1","undefined","1","s","0","0","0","98","98","0","98","0","98","0","0","0","98","98","98","98","Wed Sep 20 10:58:28 2023","600","The main experiment item","True","Lab2.1.osexp","/Users/test/Desktop","False","mono","False","18","no","white","no","yes","768","legacy","18","79","/Users/test/Downloads/at-subject-2.csv","legacy","Melodramatic Milgram","4.0.5","0","s","NA","h","h","NA","s","452.0","NA","13963","7054","NA","452","2","legacy","1024","2","48000","-16","experiment","HHSHH","2","even","18089","171413","NA","205256","193842","4010","201637","NA","206301","4101","164358","NA","206404","206858","206298","206404","Lab 2-1","95","63633.0","99","1024"
"96","96","643","643","black","legacy","legacy","legacy","congruent","1","undefined","1","h","0","0","0","99","99","0","99","0","99","0","0","0","99","99","99","99","Wed Sep 20 10:58:28 2023","600","The main experiment item","True","Lab2.1.osexp","/Users/test/Desktop","False","mono","False","18","no","white","no","yes","768","legacy","19","79","/Users/test/Downloads/at-subject-2.csv","legacy","Melodramatic Milgram","4.0.5","0","h","NA","h","h","NA","h","727.0","NA","13963","7054","NA","727","2","legacy","1024","2","48000","-16","experiment","HHHHH","2","even","18089","171413","NA","206862","193842","4010","201637","NA","207914","4101","164358","NA","208016","208744","207911","208016","Lab 2-1","96","64360.0","100","1024"
"95","95","641","641","black","legacy","legacy","legacy","incongruent","0","undefined","0","h","0","0","0","100","100","0","100","0","100","0","0","0","100","100","100","100","Wed Sep 20 10:58:28 2023","600","The main experiment item","True","Lab2.1.osexp","/Users/test/Desktop","False","mono","False","18","no","white","no","yes","768","legacy","20","79","/Users/test/Downloads/at-subject-2.csv","legacy","Melodramatic Milgram","4.0.5","0","s","NA","h","h","NA","s","465.0","NA","13963","7054","NA","465","2","legacy","1024","2","48000","-16","experiment","SSHSS","2","even","18089","171413","NA","209250","193842","4010","208747","NA","210294","4101","164358","NA","210397","210864","210291","210397","Lab 2-1","96","64825.0","101","1024"
"95","95","641","641","black","legacy","legacy","legacy","incongruent","1","undefined","1","s","0","0","0","101","101","0","101","0","101","0","0","0","101","101","101","101","Wed Sep 20 10:58:28 2023","600","The main experiment item","True","Lab2.1.osexp","/Users/test/Desktop","False","mono","False","18","no","white","no","yes","768","legacy","21","79","/Users/test/Downloads/at-subject-2.csv","legacy","Melodramatic Milgram","4.0.5","0","s","NA","h","h","NA","s","629.0","NA","13963","7054","NA","629","2","legacy","1024","2","48000","-16","experiment","HHSHH","2","even","18089","171413","NA","211371","210868","4010","208747","NA","212414","4101","164358","NA","212518","213148","212412","212518","Lab 2-1","97","65454.0","102","1024"
"95","95","640","640","black","legacy","legacy","legacy","congruent","1","undefined","1","h","0","0","0","102","102","0","102","0","102","0","0","0","102","102","102","102","Wed Sep 20 10:58:28 2023","600","The main experiment item","True","Lab2.1.osexp","/Users/test/Desktop","False","mono","False","18","no","white","no","yes","768","legacy","22","79","/Users/test/Downloads/at-subject-2.csv","legacy","Melodramatic Milgram","4.0.5","0","h","NA","h","h","NA","h","553.0","NA","13963","7054","NA","553","2","legacy","1024","2","48000","-16","experiment","HHHHH","2","even","18089","171413","NA","213655","210868","4010","213152","NA","214698","4101","164358","NA","214801","215355","214695","214801","Lab 2-1","98","66007.0","103","1024"
"95","95","638","638","black","legacy","legacy","legacy","congruent","1","undefined","1","h","0","0","0","103","103","0","103","0","103","0","0","0","103","103","103","103","Wed Sep 20 10:58:28 2023","600","The main experiment item","True","Lab2.1.osexp","/Users/test/Desktop","False","mono","False","18","no","white","no","yes","768","legacy","23","79","/Users/test/Downloads/at-subject-2.csv","legacy","Melodramatic Milgram","4.0.5","0","h","NA","h","h","NA","h","426.0","NA","13963","7054","NA","426","2","legacy","1024","2","48000","-16","experiment","HHHHH","2","even","18089","171413","NA","215359","210868","4010","213152","NA","216408","4101","164358","NA","216511","216938","216405","216511","Lab 2-1","99","66433.0","104","1024"
"95","95","637","637","black","legacy","legacy","legacy","congruent","1","undefined","1","s","0","0","0","104","104","0","104","0","104","0","0","0","104","104","104","104","Wed Sep 20 10:58:28 2023","600","The main experiment item","True","Lab2.1.osexp","/Users/test/Desktop","False","mono","False","18","no","white","no","yes","768","legacy","24","79","/Users/test/Downloads/at-subject-2.csv","legacy","Melodramatic Milgram","4.0.5","0","s","NA","h","h","NA","s","504.0","NA","13963","7054","NA","504","2","legacy","1024","2","48000","-16","experiment","SSSSS","2","even","18089","171413","NA","216941","210868","4010","213152","NA","217978","4101","164358","NA","218081","218586","217975","218081","Lab 2-1","100","66937.0","105","1024"
"94","94","636","636","black","legacy","legacy","legacy","incongruent","0","undefined","0","h","0","0","0","105","105","0","105","0","105","0","0","0","105","105","105","105","Wed Sep 20 10:58:28 2023","600","The main experiment item","True","Lab2.1.osexp","/Users/test/Desktop","False","mono","False","18","no","white","no","yes","768","legacy","25","79","/Users/test/Downloads/at-subject-2.csv","legacy","Melodramatic Milgram","4.0.5","0","s","NA","h","h","NA","s","506.0","NA","13963","7054","NA","506","2","legacy","1024","2","48000","-16","experiment","SSHSS","2","even","18089","171413","NA","218589","210868","4010","213152","NA","219628","4101","164358","NA","219731","220238","219625","219731","Lab 2-1","100","67443.0","106","1024"
"94","94","635","635","black","legacy","legacy","legacy","congruent","1","undefined","1","s","0","0","0","106","106","0","106","0","106","0","0","0","106","106","106","106","Wed Sep 20 10:58:28 2023","600","The main experiment item","True","Lab2.1.osexp","/Users/test/Desktop","False","mono","False","18","no","white","no","yes","768","legacy","26","79","/Users/test/Downloads/at-subject-2.csv","legacy","Melodramatic Milgram","4.0.5","0","s","NA","h","h","NA","s","602.0","NA","13963","7054","NA","602","2","legacy","1024","2","48000","-16","experiment","SSSSS","2","even","18089","171413","NA","220744","220241","4010","213152","NA","221787","4101","164358","NA","221889","222492","221784","221889","Lab 2-1","101","68045.0","107","1024"
"94","94","633","633","black","legacy","legacy","legacy","incongruent","1","undefined","1","s","0","0","0","107","107","0","107","0","107","0","0","0","107","107","107","107","Wed Sep 20 10:58:28 2023","600","The main experiment item","True","Lab2.1.osexp","/Users/test/Desktop","False","mono","False","18","no","white","no","yes","768","legacy","27","79","/Users/test/Downloads/at-subject-2.csv","legacy","Melodramatic Milgram","4.0.5","0","s","NA","h","h","NA","s","406.0","NA","13963","7054","NA","406","2","legacy","1024","2","48000","-16","experiment","HHSHH","2","even","18089","171413","NA","222999","220241","4010","222496","NA","224039","4101","164358","NA","224143","224551","224037","224143","Lab 2-1","102","68451.0","108","1024"
"94","94","632","632","black","legacy","legacy","legacy","incongruent","1","undefined","1","s","0","0","0","108","108","0","108","0","108","0","0","0","108","108","108","108","Wed Sep 20 10:58:28 2023","600","The main experiment item","True","Lab2.1.osexp","/Users/test/Desktop","False","mono","False","18","no","white","no","yes","768","legacy","28","79","/Users/test/Downloads/at-subject-2.csv","legacy","Melodramatic Milgram","4.0.5","0","s","NA","h","h","NA","s","437.0","NA","13963","7054","NA","437","2","legacy","1024","2","48000","-16","experiment","HHSHH","2","even","18089","171413","NA","224554","220241","4010","222496","NA","225597","4101","164358","NA","225699","226137","225594","225699","Lab 2-1","103","68888.0","109","1024"
"94","94","629","629","black","legacy","legacy","legacy","congruent","1","undefined","1","s","0","0","0","109","109","0","109","0","109","0","0","0","109","109","109","109","Wed Sep 20 10:58:28 2023","600","The main experiment item","True","Lab2.1.osexp","/Users/test/Desktop","False","mono","False","18","no","white","no","yes","768","legacy","29","79","/Users/test/Downloads/at-subject-2.csv","legacy","Melodramatic Milgram","4.0.5","0","s","NA","h","h","NA","s","360.0","NA","13963","7054","NA","360","2","legacy","1024","2","48000","-16","experiment","SSSSS","2","even","18089","171413","NA","226140","220241","4010","222496","NA","227184","4101","164358","NA","227287","227649","227181","227287","Lab 2-1","104","69248.0","110","1024"
"94","94","628","628","black","legacy","legacy","legacy","congruent","1","undefined","1","h","0","0","0","110","110","0","110","0","110","0","0","0","110","110","110","110","Wed Sep 20 10:58:28 2023","600","The main experiment item","True","Lab2.1.osexp","/Users/test/Desktop","False","mono","False","18","no","white","no","yes","768","legacy","30","79","/Users/test/Downloads/at-subject-2.csv","legacy","Melodramatic Milgram","4.0.5","0","h","NA","h","h","NA","h","522.0","NA","13963","7054","NA","522","2","legacy","1024","2","48000","-16","experiment","HHHHH","2","even","18089","171413","NA","227652","220241","4010","222496","NA","228704","4101","164358","NA","228809","229332","228702","228808","Lab 2-1","105","69770.0","111","1024"
"94","94","627","627","black","legacy","legacy","legacy","congruent","1","undefined","1","h","0","0","0","111","111","0","111","0","111","0","0","0","111","111","111","111","Wed Sep 20 10:58:28 2023","600","The main experiment item","True","Lab2.1.osexp","/Users/test/Desktop","False","mono","False","18","no","white","no","yes","768","legacy","31","79","/Users/test/Downloads/at-subject-2.csv","legacy","Melodramatic Milgram","4.0.5","0","h","NA","h","h","NA","h","506.0","NA","13963","7054","NA","506","2","legacy","1024","2","48000","-16","experiment","HHHHH","2","even","18089","171413","NA","229336","220241","4010","222496","NA","230372","4101","164358","NA","230476","230983","230369","230475","Lab 2-1","106","70276.0","112","1024"
"94","94","625","625","black","legacy","legacy","legacy","congruent","1","undefined","1","h","0","0","0","112","112","0","112","0","112","0","0","0","112","112","112","112","Wed Sep 20 10:58:28 2023","600","The main experiment item","True","Lab2.1.osexp","/Users/test/Desktop","False","mono","False","18","no","white","no","yes","768","legacy","32","79","/Users/test/Downloads/at-subject-2.csv","legacy","Melodramatic Milgram","4.0.5","0","h","NA","h","h","NA","h","421.0","NA","13963","7054","NA","421","2","legacy","1024","2","48000","-16","experiment","HHHHH","2","even","18089","171413","NA","230987","220241","4010","222496","NA","232021","4101","164358","NA","232126","232548","232019","232125","Lab 2-1","107","70697.0","113","1024"
"94","94","624","624","black","legacy","legacy","legacy","congruent","1","undefined","1","s","0","0","0","113","113","0","113","0","113","0","0","0","113","113","113","113","Wed Sep 20 10:58:28 2023","600","The main experiment item","True","Lab2.1.osexp","/Users/test/Desktop","False","mono","False","18","no","white","no","yes","768","legacy","33","79","/Users/test/Downloads/at-subject-2.csv","legacy","Melodramatic Milgram","4.0.5","0","s","NA","h","h","NA","s","453.0","NA","13963","7054","NA","453","2","legacy","1024","2","48000","-16","experiment","SSSSS","2","even","18089","171413","NA","232551","220241","4010","222496","NA","233595","4101","164358","NA","233698","234152","233592","233698","Lab 2-1","108","71150.0","114","1024"
"94","94","622","622","black","legacy","legacy","legacy","congruent","1","undefined","1","s","0","0","0","114","114","0","114","0","114","0","0","0","114","114","114","114","Wed Sep 20 10:58:28 2023","600","The main experiment item","True","Lab2.1.osexp","/Users/test/Desktop","False","mono","False","18","no","white","no","yes","768","legacy","34","79","/Users/test/Downloads/at-subject-2.csv","legacy","Melodramatic Milgram","4.0.5","0","s","NA","h","h","NA","s","412.0","NA","13963","7054","NA","412","2","legacy","1024","2","48000","-16","experiment","SSSSS","2","even","18089","171413","NA","234156","220241","4010","222496","NA","235198","4101","164358","NA","235301","235714","235195","235301","Lab 2-1","109","71562.0","115","1024"
"93","93","620","620","black","legacy","legacy","legacy","incongruent","0","undefined","0","h","0","0","0","115","115","0","115","0","115","0","0","0","115","115","115","115","Wed Sep 20 10:58:28 2023","600","The main experiment item","True","Lab2.1.osexp","/Users/test/Desktop","False","mono","False","18","no","white","no","yes","768","legacy","35","79","/Users/test/Downloads/at-subject-2.csv","legacy","Melodramatic Milgram","4.0.5","0","s","NA","h","h","NA","s","380.0","NA","13963","7054","NA","380","2","legacy","1024","2","48000","-16","experiment","SSHSS","2","even","18089","171413","NA","235718","220241","4010","222496","NA","236761","4101","164358","NA","236863","237244","236758","236863","Lab 2-1","109","71942.0","116","1024"
"94","94","619","619","black","legacy","legacy","legacy","congruent","1","undefined","1","s","0","0","0","116","116","0","116","0","116","0","0","0","116","116","116","116","Wed Sep 20 10:58:28 2023","600","The main experiment item","True","Lab2.1.osexp","/Users/test/Desktop","False","mono","False","18","no","white","no","yes","768","legacy","36","79","/Users/test/Downloads/at-subject-2.csv","legacy","Melodramatic Milgram","4.0.5","0","s","NA","h","h","NA","s","519.0","NA","13963","7054","NA","519","2","legacy","1024","2","48000","-16","experiment","SSSSS","2","even","18089","171413","NA","237751","237248","4010","222496","NA","238794","4101","164358","NA","238896","239417","238791","238896","Lab 2-1","110","72461.0","117","1024"
"94","94","617","617","black","legacy","legacy","legacy","congruent","1","undefined","1","h","0","0","0","117","117","0","117","0","117","0","0","0","117","117","117","117","Wed Sep 20 10:58:28 2023","600","The main experiment item","True","Lab2.1.osexp","/Users/test/Desktop","False","mono","False","18","no","white","no","yes","768","legacy","37","79","/Users/test/Downloads/at-subject-2.csv","legacy","Melodramatic Milgram","4.0.5","0","h","NA","h","h","NA","h","450.0","NA","13963","7054","NA","450","2","legacy","1024","2","48000","-16","experiment","HHHHH","2","even","18089","171413","NA","239420","237248","4010","222496","NA","240464","4101","164358","NA","240567","241018","240461","240567","Lab 2-1","111","72911.0","118","1024"
"94","94","618","618","black","legacy","legacy","legacy","incongruent","1","undefined","1","s","0","0","0","118","118","0","118","0","118","0","0","0","118","118","118","118","Wed Sep 20 10:58:28 2023","600","The main experiment item","True","Lab2.1.osexp","/Users/test/Desktop","False","mono","False","18","no","white","no","yes","768","legacy","38","79","/Users/test/Downloads/at-subject-2.csv","legacy","Melodramatic Milgram","4.0.5","0","s","NA","h","h","NA","s","633.0","NA","13963","7054","NA","633","2","legacy","1024","2","48000","-16","experiment","HHSHH","2","even","18089","171413","NA","241022","237248","4010","222496","NA","242071","4101","164358","NA","242174","242809","242068","242174","Lab 2-1","112","73544.0","119","1024"
"94","94","616","616","black","legacy","legacy","legacy","congruent","1","undefined","1","s","0","0","0","119","119","0","119","0","119","0","0","0","119","119","119","119","Wed Sep 20 10:58:28 2023","600","The main experiment item","True","Lab2.1.osexp","/Users/test/Desktop","False","mono","False","18","no","white","no","yes","768","legacy","39","79","/Users/test/Downloads/at-subject-2.csv","legacy","Melodramatic Milgram","4.0.5","0","s","NA","h","h","NA","s","420.0","NA","13963","7054","NA","420","2","legacy","1024","2","48000","-16","experiment","SSSSS","2","even","18089","171413","NA","243316","237248","4010","242812","NA","244352","4101","164358","NA","244456","244878","244349","244455","Lab 2-1","113","73964.0","120","1024"
"94","94","616","616","black","legacy","legacy","legacy","incongruent","1","undefined","1","s","0","0","0","120","120","0","120","0","120","0","0","0","120","120","120","120","Wed Sep 20 10:58:28 2023","600","The main experiment item","True","Lab2.1.osexp","/Users/test/Desktop","False","mono","False","18","no","white","no","yes","768","legacy","40","79","/Users/test/Downloads/at-subject-2.csv","legacy","Melodramatic Milgram","4.0.5","0","s","NA","h","h","NA","s","585.0","NA","13963","7054","NA","585","2","legacy","1024","2","48000","-16","experiment","HHSHH","2","even","18089","171413","NA","244882","237248","4010","242812","NA","245928","4101","164358","NA","246031","246617","245925","246031","Lab 2-1","114","74549.0","121","1024"
"94","94","614","614","black","legacy","legacy","legacy","congruent","1","undefined","1","s","0","0","0","121","121","0","121","0","121","0","0","0","121","121","121","121","Wed Sep 20 10:58:28 2023","600","The main experiment item","True","Lab2.1.osexp","/Users/test/Desktop","False","mono","False","18","no","white","no","yes","768","legacy","41","79","/Users/test/Downloads/at-subject-2.csv","legacy","Melodramatic Milgram","4.0.5","0","s","NA","h","h","NA","s","414.0","NA","13963","7054","NA","414","2","legacy","1024","2","48000","-16","experiment","SSSSS","2","even","18089","171413","NA","246620","237248","4010","242812","NA","247664","4101","164358","NA","247767","248183","247661","247767","Lab 2-1","115","74963.0","122","1024"
"93","93","612","612","black","legacy","legacy","legacy","incongruent","0","undefined","0","h","0","0","0","122","122","0","122","0","122","0","0","0","122","122","122","122","Wed Sep 20 10:58:28 2023","600","The main experiment item","True","Lab2.1.osexp","/Users/test/Desktop","False","mono","False","18","no","white","no","yes","768","legacy","42","79","/Users/test/Downloads/at-subject-2.csv","legacy","Melodramatic Milgram","4.0.5","0","s","NA","h","h","NA","s","395.0","NA","13963","7054","NA","395","2","legacy","1024","2","48000","-16","experiment","SSHSS","2","even","18089","171413","NA","248186","237248","4010","242812","NA","249228","4101","164358","NA","249332","249729","249226","249332","Lab 2-1","115","75358.0","123","1024"
"93","93","611","611","black","legacy","legacy","legacy","congruent","1","undefined","1","s","0","0","0","123","123","0","123","0","123","0","0","0","123","123","123","123","Wed Sep 20 10:58:28 2023","600","The main experiment item","True","Lab2.1.osexp","/Users/test/Desktop","False","mono","False","18","no","white","no","yes","768","legacy","43","79","/Users/test/Downloads/at-subject-2.csv","legacy","Melodramatic Milgram","4.0.5","0","s","NA","h","h","NA","s","483.0","NA","13963","7054","NA","483","2","legacy","1024","2","48000","-16","experiment","SSSSS","2","even","18089","171413","NA","250235","249732","4010","242812","NA","251278","4101","164358","NA","251381","251866","251275","251381","Lab 2-1","116","75841.0","124","1024"
"93","93","611","611","black","legacy","legacy","legacy","congruent","1","undefined","1","s","0","0","0","124","124","0","124","0","124","0","0","0","124","124","124","124","Wed Sep 20 10:58:28 2023","600","The main experiment item","True","Lab2.1.osexp","/Users/test/Desktop","False","mono","False","18","no","white","no","yes","768","legacy","44","79","/Users/test/Downloads/at-subject-2.csv","legacy","Melodramatic Milgram","4.0.5","0","s","NA","h","h","NA","s","542.0","NA","13963","7054","NA","542","2","legacy","1024","2","48000","-16","experiment","SSSSS","2","even","18089","171413","NA","251870","249732","4010","242812","NA","252924","4101","164358","NA","253027","253570","252921","253027","Lab 2-1","117","76383.0","125","1024"
"93","93","610","610","black","legacy","legacy","legacy","incongruent","1","undefined","1","h","0","0","0","125","125","0","125","0","125","0","0","0","125","125","125","125","Wed Sep 20 10:58:28 2023","600","The main experiment item","True","Lab2.1.osexp","/Users/test/Desktop","False","mono","False","18","no","white","no","yes","768","legacy","45","79","/Users/test/Downloads/at-subject-2.csv","legacy","Melodramatic Milgram","4.0.5","0","h","NA","h","h","NA","h","482.0","NA","13963","7054","NA","482","2","legacy","1024","2","48000","-16","experiment","SSHSS","2","even","18089","171413","NA","253574","249732","4010","242812","NA","254670","4101","164358","NA","254774","255258","254667","254774","Lab 2-1","118","76865.0","126","1024"
"93","93","610","610","black","legacy","legacy","legacy","incongruent","1","undefined","1","h","0","0","0","126","126","0","126","0","126","0","0","0","126","126","126","126","Wed Sep 20 10:58:28 2023","600","The main experiment item","True","Lab2.1.osexp","/Users/test/Desktop","False","mono","False","18","no","white","no","yes","768","legacy","46","79","/Users/test/Downloads/at-subject-2.csv","legacy","Melodramatic Milgram","4.0.5","0","h","NA","h","h","NA","h","649.0","NA","13963","7054","NA","649","2","legacy","1024","2","48000","-16","experiment","SSHSS","2","even","18089","171413","NA","255261","249732","4010","242812","NA","256297","4101","164358","NA","256400","257051","256294","256400","Lab 2-1","119","77514.0","127","1024"
"93","93","609","609","black","legacy","legacy","legacy","incongruent","1","undefined","1","h","0","0","0","127","127","0","127","0","127","0","0","0","127","127","127","127","Wed Sep 20 10:58:28 2023","600","The main experiment item","True","Lab2.1.osexp","/Users/test/Desktop","False","mono","False","18","no","white","no","yes","768","legacy","47","79","/Users/test/Downloads/at-subject-2.csv","legacy","Melodramatic Milgram","4.0.5","0","h","NA","h","h","NA","h","522.0","NA","13963","7054","NA","522","2","legacy","1024","2","48000","-16","experiment","SSHSS","2","even","18089","171413","NA","257557","249732","4010","257054","NA","258594","4101","164358","NA","258696","259219","258592","258696","Lab 2-1","120","78036.0","128","1024"
"93","93","608","608","black","legacy","legacy","legacy","incongruent","1","undefined","1","h","0","0","0","128","128","0","128","0","128","0","0","0","128","128","128","128","Wed Sep 20 10:58:28 2023","600","The main experiment item","True","Lab2.1.osexp","/Users/test/Desktop","False","mono","False","18","no","white","no","yes","768","legacy","48","79","/Users/test/Downloads/at-subject-2.csv","legacy","Melodramatic Milgram","4.0.5","0","h","NA","h","h","NA","h","477.0","NA","13963","7054","NA","477","2","legacy","1024","2","48000","-16","experiment","SSHSS","2","even","18089","171413","NA","259223","249732","4010","257054","NA","260269","4101","164358","NA","260373","260852","260266","260372","Lab 2-1","121","78513.0","129","1024"
"93","93","608","608","black","legacy","legacy","legacy","congruent","1","undefined","1","h","0","0","0","129","129","0","129","0","129","0","0","0","129","129","129","129","Wed Sep 20 10:58:28 2023","600","The main experiment item","True","Lab2.1.osexp","/Users/test/Desktop","False","mono","False","18","no","white","no","yes","768","legacy","49","79","/Users/test/Downloads/at-subject-2.csv","legacy","Melodramatic Milgram","4.0.5","0","h","NA","h","h","NA","h","565.0","NA","13963","7054","NA","565","2","legacy","1024","2","48000","-16","experiment","HHHHH","2","even","18089","171413","NA","260856","249732","4010","257054","NA","261906","4101","164358","NA","262008","262574","261903","262008","Lab 2-1","122","79078.0","130","1024"
"93","93","606","606","black","legacy","legacy","legacy","congruent","1","undefined","1","h","0","0","0","130","130","0","130","0","130","0","0","0","130","130","130","130","Wed Sep 20 10:58:28 2023","600","The main experiment item","True","Lab2.1.osexp","/Users/test/Desktop","False","mono","False","18","no","white","no","yes","768","legacy","50","79","/Users/test/Downloads/at-subject-2.csv","legacy","Melodramatic Milgram","4.0.5","0","h","NA","h","h","NA","h","431.0","NA","13963","7054","NA","431","2","legacy","1024","2","48000","-16","experiment","HHHHH","2","even","18089","171413","NA","262578","249732","4010","257054","NA","263621","4101","164358","NA","263724","264156","263618","263724","Lab 2-1","123","79509.0","131","1024"
"93","93","605","605","black","legacy","legacy","legacy","incongruent","1","undefined","1","s","0","0","0","131","131","0","131","0","131","0","0","0","131","131","131","131","Wed Sep 20 10:58:28 2023","600","The main experiment item","True","Lab2.1.osexp","/Users/test/Desktop","False","mono","False","18","no","white","no","yes","768","legacy","51","79","/Users/test/Downloads/at-subject-2.csv","legacy","Melodramatic Milgram","4.0.5","0","s","NA","h","h","NA","s","476.0","NA","13963","7054","NA","476","2","legacy","1024","2","48000","-16","experiment","HHSHH","2","even","18089","171413","NA","264160","249732","4010","257054","NA","265203","4101","164358","NA","265306","265783","265200","265306","Lab 2-1","124","79985.0","132","1024"
"93","93","607","607","black","legacy","legacy","legacy","incongruent","1","undefined","1","h","0","0","0","132","132","0","132","0","132","0","0","0","132","132","132","132","Wed Sep 20 10:58:28 2023","600","The main experiment item","True","Lab2.1.osexp","/Users/test/Desktop","False","mono","False","18","no","white","no","yes","768","legacy","52","79","/Users/test/Downloads/at-subject-2.csv","legacy","Melodramatic Milgram","4.0.5","0","h","NA","h","h","NA","h","753.0","NA","13963","7054","NA","753","2","legacy","1024","2","48000","-16","experiment","SSHSS","2","even","18089","171413","NA","265787","249732","4010","257054","NA","266830","4101","164358","NA","266934","267688","266827","266933","Lab 2-1","125","80738.0","133","1024"
"93","93","609","609","black","legacy","legacy","legacy","incongruent","0","undefined","0","h","0","0","0","133","133","0","133","0","133","0","0","0","133","133","133","133","Wed Sep 20 10:58:28 2023","600","The main experiment item","True","Lab2.1.osexp","/Users/test/Desktop","False","mono","False","18","no","white","no","yes","768","legacy","53","79","/Users/test/Downloads/at-subject-2.csv","legacy","Melodramatic Milgram","4.0.5","0","s","NA","h","h","NA","s","988.0","NA","13963","7054","NA","988","2","legacy","1024","2","48000","-16","experiment","SSHSS","2","even","18089","171413","NA","268195","249732","4010","267691","NA","269243","4101","164358","NA","269346","270335","269241","269346","Lab 2-1","125","81726.0","134","1024"
"93","93","612","612","black","legacy","legacy","legacy","incongruent","1","undefined","1","h","0","0","0","134","134","0","134","0","134","0","0","0","134","134","134","134","Wed Sep 20 10:58:28 2023","600","The main experiment item","True","Lab2.1.osexp","/Users/test/Desktop","False","mono","False","18","no","white","no","yes","768","legacy","54","79","/Users/test/Downloads/at-subject-2.csv","legacy","Melodramatic Milgram","4.0.5","0","h","NA","h","h","NA","h","916.0","NA","13963","7054","NA","916","2","legacy","1024","2","48000","-16","experiment","SSHSS","2","even","18089","171413","NA","271344","270339","4010","270842","NA","272380","4101","164358","NA","272483","273401","272378","272483","Lab 2-1","126","82642.0","135","1024"
"93","93","612","612","black","legacy","legacy","legacy","incongruent","1","undefined","1","h","0","0","0","135","135","0","135","0","135","0","0","0","135","135","135","135","Wed Sep 20 10:58:28 2023","600","The main experiment item","True","Lab2.1.osexp","/Users/test/Desktop","False","mono","False","18","no","white","no","yes","768","legacy","55","79","/Users/test/Downloads/at-subject-2.csv","legacy","Melodramatic Milgram","4.0.5","0","h","NA","h","h","NA","h","599.0","NA","13963","7054","NA","599","2","legacy","1024","2","48000","-16","experiment","SSHSS","2","even","18089","171413","NA","273908","270339","4010","273404","NA","274951","4101","164358","NA","275054","275655","274948","275054","Lab 2-1","127","83241.0","136","1024"
