acc,accuracy,average_response_time,avg_rt,background,canvas_backend,clock_backend,color_backend,condition,correct,correct_Instructions1,correct_keyboardresponse,correct_response,count_Block1,count_Block2,count_Block3,count_Finish,count_ISI,count_Instructions1,count_Instructions2,count_errorFeedback,count_experiment,count_faster,count_fixation,count_instructions3,count_keyboardresponse,count_logger,count_sequence,count_stimulus,datetime,deadline,description,disable_garbage_collection,experiment_file,experiment_path,font_bold,font_family,font_italic,font_size,font_underline,foreground,form_clicks,fullscreen,height,keyboard_backend,live_row,live_row_Block1,logfile,mouse_backend,opensesame_codename,opensesame_version,repeat_cycle,response,response_Finish,response_Instructions1,response_Instructions2,response_instructions3,response_keyboardresponse,response_time,response_time_Finish,response_time_Instructions1,response_time_Instructions2,response_time_instructions3,response_time_keyboardresponse,round_decimals,sampler_backend,sound_buf_size,sound_channels,sound_freq,sound_sample_size,start,stimulus,subject_nr,subject_parity,time_Block1,time_Block2,time_Block3,time_Finish,time_ISI,time_Instructions1,time_Instructions2,time_errorFeedback,time_experiment,time_faster,time_fixation,time_instructions3,time_keyboardresponse,time_logger,time_sequence,time_stimulus,title,total_correct,total_response_time,total_responses,width
100,100,1458,1458,#000000,legacy,legacy,legacy,incongruent,1,undefined,1,h,0,0,0,0,0,0,0,0,0,0,0,0,0,0,0,0,Fri Sep 22 13:05:48 2023,1500,The main experiment item,FALSE,FlankerTaskLab21.osexp,C:\Users\katjo\OneDrive\Desktop,FALSE,mono,FALSE,18,no,white,no,yes,768,legacy,0,0,C:/Users/katjo/OneDrive/Desktop/KJ-subject-4 68M.csv,legacy,Melodramatic Milgram,4.0.5,0,h,NA,h,NA,NA,h,1458,NA,86866,NA,NA,1458,2,legacy,1024,2,48000,-16,experiment,SSHSS,4,even,88800,NA,NA,NA,NA,1933,NA,NA,1930,NA,88839,NA,88940,90398,88838,88940,Flanker Task Lab 2.1,1,1458,1,1024
100,100,1239,1239,#000000,legacy,legacy,legacy,incongruent,1,undefined,1,s,0,0,0,0,1,0,0,1,0,1,1,0,1,1,1,1,Fri Sep 22 13:05:48 2023,1500,The main experiment item,FALSE,FlankerTaskLab21.osexp,C:\Users\katjo\OneDrive\Desktop,FALSE,mono,FALSE,18,no,white,no,yes,768,legacy,1,1,C:/Users/katjo/OneDrive/Desktop/KJ-subject-4 68M.csv,legacy,Melodramatic Milgram,4.0.5,0,s,NA,h,NA,NA,s,1021,NA,86866,NA,NA,1021,2,legacy,1024,2,48000,-16,experiment,HHSHH,4,even,88800,NA,NA,NA,90407,1933,NA,NA,1930,NA,91430,NA,91530,92551,91429,91530,Flanker Task Lab 2.1,2,2479,2,1024
100,100,1048,1048,#000000,legacy,legacy,legacy,congruent,1,undefined,1,s,0,0,0,0,2,0,0,2,0,2,2,0,2,2,2,2,Fri Sep 22 13:05:48 2023,1500,The main experiment item,FALSE,FlankerTaskLab21.osexp,C:\Users\katjo\OneDrive\Desktop,FALSE,mono,FALSE,18,no,white,no,yes,768,legacy,2,2,C:/Users/katjo/OneDrive/Desktop/KJ-subject-4 68M.csv,legacy,Melodramatic Milgram,4.0.5,0,s,NA,h,NA,NA,s,665,NA,86866,NA,NA,665,2,legacy,1024,2,48000,-16,experiment,SSSSS,4,even,88800,NA,NA,NA,92555,1933,NA,NA,1930,NA,93576,NA,93678,94343,93575,93678,Flanker Task Lab 2.1,3,3144,3,1024
100,100,924,924,#000000,legacy,legacy,legacy,congruent,1,undefined,1,s,0,0,0,0,3,0,0,3,0,3,3,0,3,3,3,3,Fri Sep 22 13:05:48 2023,1500,The main experiment item,FALSE,FlankerTaskLab21.osexp,C:\Users\katjo\OneDrive\Desktop,FALSE,mono,FALSE,18,no,white,no,yes,768,legacy,3,3,C:/Users/katjo/OneDrive/Desktop/KJ-subject-4 68M.csv,legacy,Melodramatic Milgram,4.0.5,0,s,NA,h,NA,NA,s,555,NA,86866,NA,NA,555,2,legacy,1024,2,48000,-16,experiment,SSSSS,4,even,88800,NA,NA,NA,94350,1933,NA,NA,1930,NA,95373,NA,95474,96029,95372,95474,Flanker Task Lab 2.1,4,3699,4,1024
100,100,837,837,#000000,legacy,legacy,legacy,congruent,1,undefined,1,h,0,0,0,0,4,0,0,4,0,4,4,0,4,4,4,4,Fri Sep 22 13:05:48 2023,1500,The main experiment item,FALSE,FlankerTaskLab21.osexp,C:\Users\katjo\OneDrive\Desktop,FALSE,mono,FALSE,18,no,white,no,yes,768,legacy,4,4,C:/Users/katjo/OneDrive/Desktop/KJ-subject-4 68M.csv,legacy,Melodramatic Milgram,4.0.5,0,h,NA,h,NA,NA,h,490,NA,86866,NA,NA,490,2,legacy,1024,2,48000,-16,experiment,HHHHH,4,even,88800,NA,NA,NA,96035,1933,NA,NA,1930,NA,97060,NA,97161,97651,97059,97161,Flanker Task Lab 2.1,5,4189,5,1024
100,100,783,783,#000000,legacy,legacy,legacy,congruent,1,undefined,1,s,0,0,0,0,5,0,0,5,0,5,5,0,5,5,5,5,Fri Sep 22 13:05:48 2023,1500,The main experiment item,FALSE,FlankerTaskLab21.osexp,C:\Users\katjo\OneDrive\Desktop,FALSE,mono,FALSE,18,no,white,no,yes,768,legacy,5,5,C:/Users/katjo/OneDrive/Desktop/KJ-subject-4 68M.csv,legacy,Melodramatic Milgram,4.0.5,0,s,NA,h,NA,NA,s,512,NA,86866,NA,NA,512,2,legacy,1024,2,48000,-16,experiment,SSSSS,4,even,88800,NA,NA,NA,97657,1933,NA,NA,1930,NA,98684,NA,98785,99297,98683,98785,Flanker Task Lab 2.1,6,4701,6,1024
100,100,734,734,#000000,legacy,legacy,legacy,congruent,1,undefined,1,s,0,0,0,0,6,0,0,6,0,6,6,0,6,6,6,6,Fri Sep 22 13:05:48 2023,1500,The main experiment item,FALSE,FlankerTaskLab21.osexp,C:\Users\katjo\OneDrive\Desktop,FALSE,mono,FALSE,18,no,white,no,yes,768,legacy,6,6,C:/Users/katjo/OneDrive/Desktop/KJ-subject-4 68M.csv,legacy,Melodramatic Milgram,4.0.5,0,s,NA,h,NA,NA,s,443,NA,86866,NA,NA,443,2,legacy,1024,2,48000,-16,experiment,SSSSS,4,even,88800,NA,NA,NA,99323,1933,NA,NA,1930,NA,100347,NA,100447,100891,100346,100447,Flanker Task Lab 2.1,7,5144,7,1024
100,100,701,701,#000000,legacy,legacy,legacy,congruent,1,undefined,1,h,0,0,0,0,7,0,0,7,0,7,7,0,7,7,7,7,Fri Sep 22 13:05:48 2023,1500,The main experiment item,FALSE,FlankerTaskLab21.osexp,C:\Users\katjo\OneDrive\Desktop,FALSE,mono,FALSE,18,no,white,no,yes,768,legacy,7,7,C:/Users/katjo/OneDrive/Desktop/KJ-subject-4 68M.csv,legacy,Melodramatic Milgram,4.0.5,0,h,NA,h,NA,NA,h,471,NA,86866,NA,NA,471,2,legacy,1024,2,48000,-16,experiment,HHHHH,4,even,88800,NA,NA,NA,100896,1933,NA,NA,1930,NA,101920,NA,102021,102492,101920,102021,Flanker Task Lab 2.1,8,5615,8,1024
88,88,666,666,#000000,legacy,legacy,legacy,congruent,0,undefined,0,h,0,0,0,0,8,0,0,8,0,8,8,0,8,8,8,8,Fri Sep 22 13:05:48 2023,1500,The main experiment item,FALSE,FlankerTaskLab21.osexp,C:\Users\katjo\OneDrive\Desktop,FALSE,mono,FALSE,18,no,white,no,yes,768,legacy,8,8,C:/Users/katjo/OneDrive/Desktop/KJ-subject-4 68M.csv,legacy,Melodramatic Milgram,4.0.5,0,s,NA,h,NA,NA,s,381,NA,86866,NA,NA,381,2,legacy,1024,2,48000,-16,experiment,HHHHH,4,even,88800,NA,NA,NA,102518,1933,NA,NA,1930,NA,103550,NA,103651,104032,103548,103651,Flanker Task Lab 2.1,8,5996,9,1024
90,90,672,672,#000000,legacy,legacy,legacy,congruent,1,undefined,1,h,0,0,0,0,9,0,0,9,0,9,9,0,9,9,9,9,Fri Sep 22 13:05:48 2023,1500,The main experiment item,FALSE,FlankerTaskLab21.osexp,C:\Users\katjo\OneDrive\Desktop,FALSE,mono,FALSE,18,no,white,no,yes,768,legacy,9,9,C:/Users/katjo/OneDrive/Desktop/KJ-subject-4 68M.csv,legacy,Melodramatic Milgram,4.0.5,0,h,NA,h,NA,NA,h,727,NA,86866,NA,NA,727,2,legacy,1024,2,48000,-16,experiment,HHHHH,4,even,88800,NA,NA,NA,104535,1933,NA,104035,1930,NA,105575,NA,105675,106402,105574,105675,Flanker Task Lab 2.1,9,6723,10,1024
81,81,648,648,#000000,legacy,legacy,legacy,congruent,0,undefined,0,s,0,0,0,0,10,0,0,10,0,10,10,0,10,10,10,10,Fri Sep 22 13:05:48 2023,1500,The main experiment item,FALSE,FlankerTaskLab21.osexp,C:\Users\katjo\OneDrive\Desktop,FALSE,mono,FALSE,18,no,white,no,yes,768,legacy,10,10,C:/Users/katjo/OneDrive/Desktop/KJ-subject-4 68M.csv,legacy,Melodramatic Milgram,4.0.5,0,h,NA,h,NA,NA,h,408,NA,86866,NA,NA,408,2,legacy,1024,2,48000,-16,experiment,SSSSS,4,even,88800,NA,NA,NA,106406,1933,NA,104035,1930,NA,107428,NA,107529,107938,107428,107529,Flanker Task Lab 2.1,9,7131,11,1024
83,83,655,655,#000000,legacy,legacy,legacy,congruent,1,undefined,1,h,0,0,0,0,11,0,0,11,0,11,11,0,11,11,11,11,Fri Sep 22 13:05:48 2023,1500,The main experiment item,FALSE,FlankerTaskLab21.osexp,C:\Users\katjo\OneDrive\Desktop,FALSE,mono,FALSE,18,no,white,no,yes,768,legacy,11,11,C:/Users/katjo/OneDrive/Desktop/KJ-subject-4 68M.csv,legacy,Melodramatic Milgram,4.0.5,0,h,NA,h,NA,NA,h,739,NA,86866,NA,NA,739,2,legacy,1024,2,48000,-16,experiment,HHHHH,4,even,88800,NA,NA,NA,108445,1933,NA,107945,1930,NA,109469,NA,109570,110310,109468,109570,Flanker Task Lab 2.1,10,7870,12,1024
84,84,660,660,#000000,legacy,legacy,legacy,incongruent,1,undefined,1,h,0,0,0,0,12,0,0,12,0,12,12,0,12,12,12,12,Fri Sep 22 13:05:48 2023,1500,The main experiment item,FALSE,FlankerTaskLab21.osexp,C:\Users\katjo\OneDrive\Desktop,FALSE,mono,FALSE,18,no,white,no,yes,768,legacy,12,12,C:/Users/katjo/OneDrive/Desktop/KJ-subject-4 68M.csv,legacy,Melodramatic Milgram,4.0.5,0,h,NA,h,NA,NA,h,714,NA,86866,NA,NA,714,2,legacy,1024,2,48000,-16,experiment,SSHSS,4,even,88800,NA,NA,NA,110335,1933,NA,107945,1930,NA,111359,NA,111460,112174,111358,111460,Flanker Task Lab 2.1,11,8584,13,1024
85,85,654,654,#000000,legacy,legacy,legacy,congruent,1,undefined,1,s,0,0,0,0,13,0,0,13,0,13,13,0,13,13,13,13,Fri Sep 22 13:05:48 2023,1500,The main experiment item,FALSE,FlankerTaskLab21.osexp,C:\Users\katjo\OneDrive\Desktop,FALSE,mono,FALSE,18,no,white,no,yes,768,legacy,13,13,C:/Users/katjo/OneDrive/Desktop/KJ-subject-4 68M.csv,legacy,Melodramatic Milgram,4.0.5,0,s,NA,h,NA,NA,s,575,NA,86866,NA,NA,575,2,legacy,1024,2,48000,-16,experiment,SSSSS,4,even,88800,NA,NA,NA,112181,1933,NA,107945,1930,NA,113204,NA,113305,113881,113203,113305,Flanker Task Lab 2.1,12,9159,14,1024
86,86,644,644,#000000,legacy,legacy,legacy,congruent,1,undefined,1,h,0,0,0,0,14,0,0,14,0,14,14,0,14,14,14,14,Fri Sep 22 13:05:48 2023,1500,The main experiment item,FALSE,FlankerTaskLab21.osexp,C:\Users\katjo\OneDrive\Desktop,FALSE,mono,FALSE,18,no,white,no,yes,768,legacy,14,14,C:/Users/katjo/OneDrive/Desktop/KJ-subject-4 68M.csv,legacy,Melodramatic Milgram,4.0.5,0,h,NA,h,NA,NA,h,504,NA,86866,NA,NA,504,2,legacy,1024,2,48000,-16,experiment,HHHHH,4,even,88800,NA,NA,NA,113882,1933,NA,107945,1930,NA,114912,NA,115012,115516,114911,115012,Flanker Task Lab 2.1,13,9663,15,1024
87,87,654,654,#000000,legacy,legacy,legacy,incongruent,1,undefined,1,h,0,0,0,0,15,0,0,15,0,15,15,0,15,15,15,15,Fri Sep 22 13:05:48 2023,1500,The main experiment item,FALSE,FlankerTaskLab21.osexp,C:\Users\katjo\OneDrive\Desktop,FALSE,mono,FALSE,18,no,white,no,yes,768,legacy,15,15,C:/Users/katjo/OneDrive/Desktop/KJ-subject-4 68M.csv,legacy,Melodramatic Milgram,4.0.5,0,h,NA,h,NA,NA,h,803,NA,86866,NA,NA,803,2,legacy,1024,2,48000,-16,experiment,SSHSS,4,even,88800,NA,NA,NA,115519,1933,NA,107945,1930,NA,116539,NA,116639,117442,116538,116639,Flanker Task Lab 2.1,14,10466,16,1024
88,88,650,650,#000000,legacy,legacy,legacy,congruent,1,undefined,1,s,0,0,0,0,16,0,0,16,0,16,16,0,16,16,16,16,Fri Sep 22 13:05:48 2023,1500,The main experiment item,FALSE,FlankerTaskLab21.osexp,C:\Users\katjo\OneDrive\Desktop,FALSE,mono,FALSE,18,no,white,no,yes,768,legacy,16,16,C:/Users/katjo/OneDrive/Desktop/KJ-subject-4 68M.csv,legacy,Melodramatic Milgram,4.0.5,0,s,NA,h,NA,NA,s,599,NA,86866,NA,NA,599,2,legacy,1024,2,48000,-16,experiment,SSSSS,4,even,88800,NA,NA,NA,117450,1933,NA,107945,1930,NA,118473,NA,118573,119172,118472,118573,Flanker Task Lab 2.1,15,11065,17,1024
88,88,648,648,#000000,legacy,legacy,legacy,congruent,1,undefined,1,h,0,0,0,0,17,0,0,17,0,17,17,0,17,17,17,17,Fri Sep 22 13:05:48 2023,1500,The main experiment item,FALSE,FlankerTaskLab21.osexp,C:\Users\katjo\OneDrive\Desktop,FALSE,mono,FALSE,18,no,white,no,yes,768,legacy,17,17,C:/Users/katjo/OneDrive/Desktop/KJ-subject-4 68M.csv,legacy,Melodramatic Milgram,4.0.5,0,h,NA,h,NA,NA,h,611,NA,86866,NA,NA,611,2,legacy,1024,2,48000,-16,experiment,HHHHH,4,even,88800,NA,NA,NA,119179,1933,NA,107945,1930,NA,120224,NA,120326,120937,120223,120325,Flanker Task Lab 2.1,16,11676,18,1024
89,89,653,653,#000000,legacy,legacy,legacy,incongruent,1,undefined,1,h,0,0,0,0,18,0,0,18,0,18,18,0,18,18,18,18,Fri Sep 22 13:05:48 2023,1500,The main experiment item,FALSE,FlankerTaskLab21.osexp,C:\Users\katjo\OneDrive\Desktop,FALSE,mono,FALSE,18,no,white,no,yes,768,legacy,18,18,C:/Users/katjo/OneDrive/Desktop/KJ-subject-4 68M.csv,legacy,Melodramatic Milgram,4.0.5,0,h,NA,h,NA,NA,h,747,NA,86866,NA,NA,747,2,legacy,1024,2,48000,-16,experiment,SSHSS,4,even,88800,NA,NA,NA,120943,1933,NA,107945,1930,NA,121964,NA,122064,122811,121963,122064,Flanker Task Lab 2.1,17,12423,19,1024
90,90,660,660,#000000,legacy,legacy,legacy,congruent,1,undefined,1,s,0,0,0,0,19,0,0,19,0,19,19,0,19,19,19,19,Fri Sep 22 13:05:48 2023,1500,The main experiment item,FALSE,FlankerTaskLab21.osexp,C:\Users\katjo\OneDrive\Desktop,FALSE,mono,FALSE,18,no,white,no,yes,768,legacy,19,19,C:/Users/katjo/OneDrive/Desktop/KJ-subject-4 68M.csv,legacy,Melodramatic Milgram,4.0.5,0,s,NA,h,NA,NA,s,777,NA,86866,NA,NA,777,2,legacy,1024,2,48000,-16,experiment,SSSSS,4,even,88800,NA,NA,NA,122818,1933,NA,107945,1930,NA,123840,NA,123940,124717,123840,123940,Flanker Task Lab 2.1,18,13200,20,1024
90,90,661,661,#000000,legacy,legacy,legacy,congruent,1,undefined,1,h,0,0,0,0,20,0,0,20,0,20,20,0,20,20,20,20,Fri Sep 22 13:05:48 2023,1500,The main experiment item,FALSE,FlankerTaskLab21.osexp,C:\Users\katjo\OneDrive\Desktop,FALSE,mono,FALSE,18,no,white,no,yes,768,legacy,20,20,C:/Users/katjo/OneDrive/Desktop/KJ-subject-4 68M.csv,legacy,Melodramatic Milgram,4.0.5,0,h,NA,h,NA,NA,h,697,NA,86866,NA,NA,697,2,legacy,1024,2,48000,-16,experiment,HHHHH,4,even,88800,NA,NA,NA,124723,1933,NA,107945,1930,NA,125746,NA,125846,126543,125745,125846,Flanker Task Lab 2.1,19,13897,21,1024
90,90,664,664,#000000,legacy,legacy,legacy,congruent,1,undefined,1,s,0,0,0,0,21,0,0,21,0,21,21,0,21,21,21,21,Fri Sep 22 13:05:48 2023,1500,The main experiment item,FALSE,FlankerTaskLab21.osexp,C:\Users\katjo\OneDrive\Desktop,FALSE,mono,FALSE,18,no,white,no,yes,768,legacy,21,21,C:/Users/katjo/OneDrive/Desktop/KJ-subject-4 68M.csv,legacy,Melodramatic Milgram,4.0.5,0,s,NA,h,NA,NA,s,720,NA,86866,NA,NA,720,2,legacy,1024,2,48000,-16,experiment,SSSSS,4,even,88800,NA,NA,NA,126545,1933,NA,107945,1930,NA,127565,NA,127666,128387,127564,127666,Flanker Task Lab 2.1,20,14617,22,1024
91,91,669,669,#000000,legacy,legacy,legacy,incongruent,1,undefined,1,h,0,0,0,0,22,0,0,22,0,22,22,0,22,22,22,22,Fri Sep 22 13:05:48 2023,1500,The main experiment item,FALSE,FlankerTaskLab21.osexp,C:\Users\katjo\OneDrive\Desktop,FALSE,mono,FALSE,18,no,white,no,yes,768,legacy,22,22,C:/Users/katjo/OneDrive/Desktop/KJ-subject-4 68M.csv,legacy,Melodramatic Milgram,4.0.5,0,h,NA,h,NA,NA,h,774,NA,86866,NA,NA,774,2,legacy,1024,2,48000,-16,experiment,SSHSS,4,even,88800,NA,NA,NA,128413,1933,NA,107945,1930,NA,129437,NA,129537,130312,129436,129537,Flanker Task Lab 2.1,21,15391,23,1024
91,91,672,672,#000000,legacy,legacy,legacy,congruent,1,undefined,1,s,0,0,0,0,23,0,0,23,0,23,23,0,23,23,23,23,Fri Sep 22 13:05:48 2023,1500,The main experiment item,FALSE,FlankerTaskLab21.osexp,C:\Users\katjo\OneDrive\Desktop,FALSE,mono,FALSE,18,no,white,no,yes,768,legacy,23,23,C:/Users/katjo/OneDrive/Desktop/KJ-subject-4 68M.csv,legacy,Melodramatic Milgram,4.0.5,0,s,NA,h,NA,NA,s,746,NA,86866,NA,NA,746,2,legacy,1024,2,48000,-16,experiment,SSSSS,4,even,88800,NA,NA,NA,130314,1933,NA,107945,1930,NA,131336,NA,131437,132184,131335,131437,Flanker Task Lab 2.1,22,16137,24,1024
92,92,674,674,#000000,legacy,legacy,legacy,incongruent,1,undefined,1,h,0,0,0,0,24,0,0,24,0,24,24,0,24,24,24,24,Fri Sep 22 13:05:48 2023,1500,The main experiment item,FALSE,FlankerTaskLab21.osexp,C:\Users\katjo\OneDrive\Desktop,FALSE,mono,FALSE,18,no,white,no,yes,768,legacy,24,24,C:/Users/katjo/OneDrive/Desktop/KJ-subject-4 68M.csv,legacy,Melodramatic Milgram,4.0.5,0,h,NA,h,NA,NA,h,717,NA,86866,NA,NA,717,2,legacy,1024,2,48000,-16,experiment,SSHSS,4,even,88800,NA,NA,NA,132210,1933,NA,107945,1930,NA,133234,NA,133334,134051,133233,133334,Flanker Task Lab 2.1,23,16854,25,1024
92,92,675,675,#000000,legacy,legacy,legacy,incongruent,1,undefined,1,h,0,0,0,0,25,0,0,25,0,25,25,0,25,25,25,25,Fri Sep 22 13:05:48 2023,1500,The main experiment item,FALSE,FlankerTaskLab21.osexp,C:\Users\katjo\OneDrive\Desktop,FALSE,mono,FALSE,18,no,white,no,yes,768,legacy,25,25,C:/Users/katjo/OneDrive/Desktop/KJ-subject-4 68M.csv,legacy,Melodramatic Milgram,4.0.5,0,h,NA,h,NA,NA,h,706,NA,86866,NA,NA,706,2,legacy,1024,2,48000,-16,experiment,SSHSS,4,even,88800,NA,NA,NA,134078,1933,NA,107945,1930,NA,135099,NA,135199,135905,135098,135199,Flanker Task Lab 2.1,24,17560,26,1024
92,92,672,672,#000000,legacy,legacy,legacy,congruent,1,undefined,1,s,0,0,0,0,26,0,0,26,0,26,26,0,26,26,26,26,Fri Sep 22 13:05:48 2023,1500,The main experiment item,FALSE,FlankerTaskLab21.osexp,C:\Users\katjo\OneDrive\Desktop,FALSE,mono,FALSE,18,no,white,no,yes,768,legacy,26,26,C:/Users/katjo/OneDrive/Desktop/KJ-subject-4 68M.csv,legacy,Melodramatic Milgram,4.0.5,0,s,NA,h,NA,NA,s,604,NA,86866,NA,NA,604,2,legacy,1024,2,48000,-16,experiment,SSSSS,4,even,88800,NA,NA,NA,135911,1933,NA,107945,1930,NA,136942,NA,137043,137647,136941,137043,Flanker Task Lab 2.1,25,18164,27,1024
92,92,670,670,#000000,legacy,legacy,legacy,incongruent,1,undefined,1,h,0,0,0,0,27,0,0,27,0,27,27,0,27,27,27,27,Fri Sep 22 13:05:48 2023,1500,The main experiment item,FALSE,FlankerTaskLab21.osexp,C:\Users\katjo\OneDrive\Desktop,FALSE,mono,FALSE,18,no,white,no,yes,768,legacy,27,27,C:/Users/katjo/OneDrive/Desktop/KJ-subject-4 68M.csv,legacy,Melodramatic Milgram,4.0.5,0,h,NA,h,NA,NA,h,607,NA,86866,NA,NA,607,2,legacy,1024,2,48000,-16,experiment,SSHSS,4,even,88800,NA,NA,NA,137673,1933,NA,107945,1930,NA,138697,NA,138798,139406,138696,138798,Flanker Task Lab 2.1,26,18771,28,1024
93,93,673,673,#000000,legacy,legacy,legacy,incongruent,1,undefined,1,s,0,0,0,0,28,0,0,28,0,28,28,0,28,28,28,28,Fri Sep 22 13:05:48 2023,1500,The main experiment item,FALSE,FlankerTaskLab21.osexp,C:\Users\katjo\OneDrive\Desktop,FALSE,mono,FALSE,18,no,white,no,yes,768,legacy,28,28,C:/Users/katjo/OneDrive/Desktop/KJ-subject-4 68M.csv,legacy,Melodramatic Milgram,4.0.5,0,s,NA,h,NA,NA,s,764,NA,86866,NA,NA,764,2,legacy,1024,2,48000,-16,experiment,HHSHH,4,even,88800,NA,NA,NA,139412,1933,NA,107945,1930,NA,140435,NA,140535,141300,140434,140535,Flanker Task Lab 2.1,27,19535,29,1024
93,93,675,675,#000000,legacy,legacy,legacy,incongruent,1,undefined,1,h,0,0,0,0,29,0,0,29,0,29,29,0,29,29,29,29,Fri Sep 22 13:05:48 2023,1500,The main experiment item,FALSE,FlankerTaskLab21.osexp,C:\Users\katjo\OneDrive\Desktop,FALSE,mono,FALSE,18,no,white,no,yes,768,legacy,29,29,C:/Users/katjo/OneDrive/Desktop/KJ-subject-4 68M.csv,legacy,Melodramatic Milgram,4.0.5,0,h,NA,h,NA,NA,h,720,NA,86866,NA,NA,720,2,legacy,1024,2,48000,-16,experiment,SSHSS,4,even,88800,NA,NA,NA,141306,1933,NA,107945,1930,NA,142332,NA,142433,143153,142331,142433,Flanker Task Lab 2.1,28,20255,30,1024
93,93,675,675,#000000,legacy,legacy,legacy,incongruent,1,undefined,1,s,0,0,0,0,30,0,0,30,0,30,30,0,30,30,30,30,Fri Sep 22 13:05:48 2023,1500,The main experiment item,FALSE,FlankerTaskLab21.osexp,C:\Users\katjo\OneDrive\Desktop,FALSE,mono,FALSE,18,no,white,no,yes,768,legacy,30,30,C:/Users/katjo/OneDrive/Desktop/KJ-subject-4 68M.csv,legacy,Melodramatic Milgram,4.0.5,0,s,NA,h,NA,NA,s,679,NA,86866,NA,NA,679,2,legacy,1024,2,48000,-16,experiment,HHSHH,4,even,88800,NA,NA,NA,143160,1933,NA,107945,1930,NA,144189,NA,144291,144971,144188,144290,Flanker Task Lab 2.1,29,20934,31,1024
93,93,674,674,#000000,legacy,legacy,legacy,incongruent,1,undefined,1,s,0,0,0,0,31,0,0,31,0,31,31,0,31,31,31,31,Fri Sep 22 13:05:48 2023,1500,The main experiment item,FALSE,FlankerTaskLab21.osexp,C:\Users\katjo\OneDrive\Desktop,FALSE,mono,FALSE,18,no,white,no,yes,768,legacy,31,31,C:/Users/katjo/OneDrive/Desktop/KJ-subject-4 68M.csv,legacy,Melodramatic Milgram,4.0.5,0,s,NA,h,NA,NA,s,659,NA,86866,NA,NA,659,2,legacy,1024,2,48000,-16,experiment,HHSHH,4,even,88800,NA,NA,NA,144978,1933,NA,107945,1930,NA,146002,NA,146102,146761,146001,146102,Flanker Task Lab 2.1,30,21593,32,1024
93,93,668,668,#000000,legacy,legacy,legacy,congruent,1,undefined,1,h,0,0,0,0,32,0,0,32,0,32,32,0,32,32,32,32,Fri Sep 22 13:05:48 2023,1500,The main experiment item,FALSE,FlankerTaskLab21.osexp,C:\Users\katjo\OneDrive\Desktop,FALSE,mono,FALSE,18,no,white,no,yes,768,legacy,32,32,C:/Users/katjo/OneDrive/Desktop/KJ-subject-4 68M.csv,legacy,Melodramatic Milgram,4.0.5,0,h,NA,h,NA,NA,h,459,NA,86866,NA,NA,459,2,legacy,1024,2,48000,-16,experiment,HHHHH,4,even,88800,NA,NA,NA,146769,1933,NA,107945,1930,NA,147791,NA,147892,148352,147790,147892,Flanker Task Lab 2.1,31,22052,33,1024
94,94,663,663,#000000,legacy,legacy,legacy,incongruent,1,undefined,1,h,0,0,0,0,33,0,0,33,0,33,33,0,33,33,33,33,Fri Sep 22 13:05:48 2023,1500,The main experiment item,FALSE,FlankerTaskLab21.osexp,C:\Users\katjo\OneDrive\Desktop,FALSE,mono,FALSE,18,no,white,no,yes,768,legacy,33,33,C:/Users/katjo/OneDrive/Desktop/KJ-subject-4 68M.csv,legacy,Melodramatic Milgram,4.0.5,0,h,NA,h,NA,NA,h,517,NA,86866,NA,NA,517,2,legacy,1024,2,48000,-16,experiment,SSHSS,4,even,88800,NA,NA,NA,148358,1933,NA,107945,1930,NA,149379,NA,149480,149998,149378,149480,Flanker Task Lab 2.1,32,22569,34,1024
94,94,661,661,#000000,legacy,legacy,legacy,congruent,1,undefined,1,h,0,0,0,0,34,0,0,34,0,34,34,0,34,34,34,34,Fri Sep 22 13:05:48 2023,1500,The main experiment item,FALSE,FlankerTaskLab21.osexp,C:\Users\katjo\OneDrive\Desktop,FALSE,mono,FALSE,18,no,white,no,yes,768,legacy,34,34,C:/Users/katjo/OneDrive/Desktop/KJ-subject-4 68M.csv,legacy,Melodramatic Milgram,4.0.5,0,h,NA,h,NA,NA,h,598,NA,86866,NA,NA,598,2,legacy,1024,2,48000,-16,experiment,HHHHH,4,even,88800,NA,NA,NA,150024,1933,NA,107945,1930,NA,151044,NA,151144,151743,151043,151144,Flanker Task Lab 2.1,33,23167,35,1024
94,94,657,657,#000000,legacy,legacy,legacy,congruent,1,undefined,1,h,0,0,0,0,35,0,0,35,0,35,35,0,35,35,35,35,Fri Sep 22 13:05:48 2023,1500,The main experiment item,FALSE,FlankerTaskLab21.osexp,C:\Users\katjo\OneDrive\Desktop,FALSE,mono,FALSE,18,no,white,no,yes,768,legacy,35,35,C:/Users/katjo/OneDrive/Desktop/KJ-subject-4 68M.csv,legacy,Melodramatic Milgram,4.0.5,0,h,NA,h,NA,NA,h,487,NA,86866,NA,NA,487,2,legacy,1024,2,48000,-16,experiment,HHHHH,4,even,88800,NA,NA,NA,151749,1933,NA,107945,1930,NA,152779,NA,152879,153367,152778,152879,Flanker Task Lab 2.1,34,23654,36,1024
94,94,652,652,#000000,legacy,legacy,legacy,congruent,1,undefined,1,h,0,0,0,0,36,0,0,36,0,36,36,0,36,36,36,36,Fri Sep 22 13:05:48 2023,1500,The main experiment item,FALSE,FlankerTaskLab21.osexp,C:\Users\katjo\OneDrive\Desktop,FALSE,mono,FALSE,18,no,white,no,yes,768,legacy,36,36,C:/Users/katjo/OneDrive/Desktop/KJ-subject-4 68M.csv,legacy,Melodramatic Milgram,4.0.5,0,h,NA,h,NA,NA,h,493,NA,86866,NA,NA,493,2,legacy,1024,2,48000,-16,experiment,HHHHH,4,even,88800,NA,NA,NA,153373,1933,NA,107945,1930,NA,154396,NA,154497,154991,154395,154497,Flanker Task Lab 2.1,35,24147,37,1024
94,94,649,649,#000000,legacy,legacy,legacy,incongruent,1,undefined,1,s,0,0,0,0,37,0,0,37,0,37,37,0,37,37,37,37,Fri Sep 22 13:05:48 2023,1500,The main experiment item,FALSE,FlankerTaskLab21.osexp,C:\Users\katjo\OneDrive\Desktop,FALSE,mono,FALSE,18,no,white,no,yes,768,legacy,37,37,C:/Users/katjo/OneDrive/Desktop/KJ-subject-4 68M.csv,legacy,Melodramatic Milgram,4.0.5,0,s,NA,h,NA,NA,s,528,NA,86866,NA,NA,528,2,legacy,1024,2,48000,-16,experiment,HHSHH,4,even,88800,NA,NA,NA,154997,1933,NA,107945,1930,NA,156017,NA,156118,156647,156016,156118,Flanker Task Lab 2.1,36,24675,38,1024
94,94,648,648,#000000,legacy,legacy,legacy,congruent,1,undefined,1,s,0,0,0,0,38,0,0,38,0,38,38,0,38,38,38,38,Fri Sep 22 13:05:48 2023,1500,The main experiment item,FALSE,FlankerTaskLab21.osexp,C:\Users\katjo\OneDrive\Desktop,FALSE,mono,FALSE,18,no,white,no,yes,768,legacy,38,38,C:/Users/katjo/OneDrive/Desktop/KJ-subject-4 68M.csv,legacy,Melodramatic Milgram,4.0.5,0,s,NA,h,NA,NA,s,628,NA,86866,NA,NA,628,2,legacy,1024,2,48000,-16,experiment,SSSSS,4,even,88800,NA,NA,NA,156649,1933,NA,107945,1930,NA,157672,NA,157773,158402,157671,157773,Flanker Task Lab 2.1,37,25303,39,1024
95,95,648,648,#000000,legacy,legacy,legacy,incongruent,1,undefined,1,h,0,0,0,0,39,0,0,39,0,39,39,0,39,39,39,39,Fri Sep 22 13:05:48 2023,1500,The main experiment item,FALSE,FlankerTaskLab21.osexp,C:\Users\katjo\OneDrive\Desktop,FALSE,mono,FALSE,18,no,white,no,yes,768,legacy,39,39,C:/Users/katjo/OneDrive/Desktop/KJ-subject-4 68M.csv,legacy,Melodramatic Milgram,4.0.5,0,h,NA,h,NA,NA,h,653,NA,86866,NA,NA,653,2,legacy,1024,2,48000,-16,experiment,SSHSS,4,even,88800,NA,NA,NA,158408,1933,NA,107945,1930,NA,159430,NA,159530,160184,159429,159530,Flanker Task Lab 2.1,38,25956,40,1024
95,95,656,656,#000000,legacy,legacy,legacy,incongruent,1,undefined,1,s,0,0,0,0,40,0,0,40,0,40,40,0,40,40,40,40,Fri Sep 22 13:05:48 2023,1500,The main experiment item,FALSE,FlankerTaskLab21.osexp,C:\Users\katjo\OneDrive\Desktop,FALSE,mono,FALSE,18,no,white,no,yes,768,legacy,40,40,C:/Users/katjo/OneDrive/Desktop/KJ-subject-4 68M.csv,legacy,Melodramatic Milgram,4.0.5,0,s,NA,h,NA,NA,s,972,NA,86866,NA,NA,972,2,legacy,1024,2,48000,-16,experiment,HHSHH,4,even,88800,NA,NA,NA,160190,1933,NA,107945,1930,NA,161214,NA,161315,162287,161214,161314,Flanker Task Lab 2.1,39,26928,41,1024
95,95,652,652,#000000,legacy,legacy,legacy,incongruent,1,undefined,1,h,0,0,0,0,41,0,0,41,0,41,41,0,41,41,41,41,Fri Sep 22 13:05:48 2023,1500,The main experiment item,FALSE,FlankerTaskLab21.osexp,C:\Users\katjo\OneDrive\Desktop,FALSE,mono,FALSE,18,no,white,no,yes,768,legacy,41,41,C:/Users/katjo/OneDrive/Desktop/KJ-subject-4 68M.csv,legacy,Melodramatic Milgram,4.0.5,0,h,NA,h,NA,NA,h,466,NA,86866,NA,NA,466,2,legacy,1024,2,48000,-16,experiment,SSHSS,4,even,88800,NA,NA,NA,162294,1933,NA,107945,1930,NA,163315,NA,163416,163882,163314,163416,Flanker Task Lab 2.1,40,27394,42,1024
95,95,653,653,#000000,legacy,legacy,legacy,incongruent,1,undefined,1,h,0,0,0,0,42,0,0,42,0,42,42,0,42,42,42,42,Fri Sep 22 13:05:48 2023,1500,The main experiment item,FALSE,FlankerTaskLab21.osexp,C:\Users\katjo\OneDrive\Desktop,FALSE,mono,FALSE,18,no,white,no,yes,768,legacy,42,42,C:/Users/katjo/OneDrive/Desktop/KJ-subject-4 68M.csv,legacy,Melodramatic Milgram,4.0.5,0,h,NA,h,NA,NA,h,686,NA,86866,NA,NA,686,2,legacy,1024,2,48000,-16,experiment,SSHSS,4,even,88800,NA,NA,NA,163889,1933,NA,107945,1930,NA,164917,NA,165019,165705,164916,165018,Flanker Task Lab 2.1,41,28080,43,1024
95,95,651,651,#000000,legacy,legacy,legacy,congruent,1,undefined,1,s,0,0,0,0,43,0,0,43,0,43,43,0,43,43,43,43,Fri Sep 22 13:05:48 2023,1500,The main experiment item,FALSE,FlankerTaskLab21.osexp,C:\Users\katjo\OneDrive\Desktop,FALSE,mono,FALSE,18,no,white,no,yes,768,legacy,43,43,C:/Users/katjo/OneDrive/Desktop/KJ-subject-4 68M.csv,legacy,Melodramatic Milgram,4.0.5,0,s,NA,h,NA,NA,s,570,NA,86866,NA,NA,570,2,legacy,1024,2,48000,-16,experiment,SSSSS,4,even,88800,NA,NA,NA,165707,1933,NA,107945,1930,NA,166732,NA,166833,167403,166732,166833,Flanker Task Lab 2.1,42,28650,44,1024
95,95,649,649,#000000,legacy,legacy,legacy,incongruent,1,undefined,1,s,0,0,0,0,44,0,0,44,0,44,44,0,44,44,44,44,Fri Sep 22 13:05:48 2023,1500,The main experiment item,FALSE,FlankerTaskLab21.osexp,C:\Users\katjo\OneDrive\Desktop,FALSE,mono,FALSE,18,no,white,no,yes,768,legacy,44,44,C:/Users/katjo/OneDrive/Desktop/KJ-subject-4 68M.csv,legacy,Melodramatic Milgram,4.0.5,0,s,NA,h,NA,NA,s,569,NA,86866,NA,NA,569,2,legacy,1024,2,48000,-16,experiment,HHSHH,4,even,88800,NA,NA,NA,167429,1933,NA,107945,1930,NA,168462,NA,168563,169132,168461,168563,Flanker Task Lab 2.1,43,29219,45,1024
95,95,648,648,#000000,legacy,legacy,legacy,incongruent,1,undefined,1,s,0,0,0,0,45,0,0,45,0,45,45,0,45,45,45,45,Fri Sep 22 13:05:48 2023,1500,The main experiment item,FALSE,FlankerTaskLab21.osexp,C:\Users\katjo\OneDrive\Desktop,FALSE,mono,FALSE,18,no,white,no,yes,768,legacy,45,45,C:/Users/katjo/OneDrive/Desktop/KJ-subject-4 68M.csv,legacy,Melodramatic Milgram,4.0.5,0,s,NA,h,NA,NA,s,621,NA,86866,NA,NA,621,2,legacy,1024,2,48000,-16,experiment,HHSHH,4,even,88800,NA,NA,NA,169139,1933,NA,107945,1930,NA,170162,NA,170264,170885,170161,170263,Flanker Task Lab 2.1,44,29840,46,1024
95,95,645,645,#000000,legacy,legacy,legacy,congruent,1,undefined,1,s,0,0,0,0,46,0,0,46,0,46,46,0,46,46,46,46,Fri Sep 22 13:05:48 2023,1500,The main experiment item,FALSE,FlankerTaskLab21.osexp,C:\Users\katjo\OneDrive\Desktop,FALSE,mono,FALSE,18,no,white,no,yes,768,legacy,46,46,C:/Users/katjo/OneDrive/Desktop/KJ-subject-4 68M.csv,legacy,Melodramatic Milgram,4.0.5,0,s,NA,h,NA,NA,s,494,NA,86866,NA,NA,494,2,legacy,1024,2,48000,-16,experiment,SSSSS,4,even,88800,NA,NA,NA,170911,1933,NA,107945,1930,NA,171951,NA,172051,172545,171950,172051,Flanker Task Lab 2.1,45,30334,47,1024
95,95,642,642,#000000,legacy,legacy,legacy,congruent,1,undefined,1,h,0,0,0,0,47,0,0,47,0,47,47,0,47,47,47,47,Fri Sep 22 13:05:48 2023,1500,The main experiment item,FALSE,FlankerTaskLab21.osexp,C:\Users\katjo\OneDrive\Desktop,FALSE,mono,FALSE,18,no,white,no,yes,768,legacy,47,47,C:/Users/katjo/OneDrive/Desktop/KJ-subject-4 68M.csv,legacy,Melodramatic Milgram,4.0.5,0,h,NA,h,NA,NA,h,482,NA,86866,NA,NA,482,2,legacy,1024,2,48000,-16,experiment,HHHHH,4,even,88800,NA,NA,NA,172547,1933,NA,107945,1930,NA,173572,NA,173674,174156,173571,173673,Flanker Task Lab 2.1,46,30816,48,1024
95,95,641,641,#000000,legacy,legacy,legacy,incongruent,1,undefined,1,s,0,0,0,0,48,0,0,48,0,48,48,0,48,48,48,48,Fri Sep 22 13:05:48 2023,1500,The main experiment item,FALSE,FlankerTaskLab21.osexp,C:\Users\katjo\OneDrive\Desktop,FALSE,mono,FALSE,18,no,white,no,yes,768,legacy,48,48,C:/Users/katjo/OneDrive/Desktop/KJ-subject-4 68M.csv,legacy,Melodramatic Milgram,4.0.5,0,s,NA,h,NA,NA,s,606,NA,86866,NA,NA,606,2,legacy,1024,2,48000,-16,experiment,HHSHH,4,even,88800,NA,NA,NA,174163,1933,NA,107945,1930,NA,175186,NA,175286,175893,175185,175286,Flanker Task Lab 2.1,47,31422,49,1024
96,96,642,642,#000000,legacy,legacy,legacy,incongruent,1,undefined,1,s,0,0,0,0,49,0,0,49,0,49,49,0,49,49,49,49,Fri Sep 22 13:05:48 2023,1500,The main experiment item,FALSE,FlankerTaskLab21.osexp,C:\Users\katjo\OneDrive\Desktop,FALSE,mono,FALSE,18,no,white,no,yes,768,legacy,49,49,C:/Users/katjo/OneDrive/Desktop/KJ-subject-4 68M.csv,legacy,Melodramatic Milgram,4.0.5,0,s,NA,h,NA,NA,s,701,NA,86866,NA,NA,701,2,legacy,1024,2,48000,-16,experiment,HHSHH,4,even,88800,NA,NA,NA,175900,1933,NA,107945,1930,NA,176934,NA,177035,177737,176934,177035,Flanker Task Lab 2.1,48,32123,50,1024
96,96,639,639,#000000,legacy,legacy,legacy,congruent,1,undefined,1,h,0,0,0,0,50,0,0,50,0,50,50,0,50,50,50,50,Fri Sep 22 13:05:48 2023,1500,The main experiment item,FALSE,FlankerTaskLab21.osexp,C:\Users\katjo\OneDrive\Desktop,FALSE,mono,FALSE,18,no,white,no,yes,768,legacy,50,50,C:/Users/katjo/OneDrive/Desktop/KJ-subject-4 68M.csv,legacy,Melodramatic Milgram,4.0.5,0,h,NA,h,NA,NA,h,477,NA,86866,NA,NA,477,2,legacy,1024,2,48000,-16,experiment,HHHHH,4,even,88800,NA,NA,NA,177745,1933,NA,107945,1930,NA,178768,NA,178868,179346,178767,178868,Flanker Task Lab 2.1,49,32600,51,1024
96,96,634,634,#000000,legacy,legacy,legacy,congruent,1,undefined,1,h,0,0,0,0,51,0,0,51,0,51,51,0,51,51,51,51,Fri Sep 22 13:05:48 2023,1500,The main experiment item,FALSE,FlankerTaskLab21.osexp,C:\Users\katjo\OneDrive\Desktop,FALSE,mono,FALSE,18,no,white,no,yes,768,legacy,51,51,C:/Users/katjo/OneDrive/Desktop/KJ-subject-4 68M.csv,legacy,Melodramatic Milgram,4.0.5,0,h,NA,h,NA,NA,h,411,NA,86866,NA,NA,411,2,legacy,1024,2,48000,-16,experiment,HHHHH,4,even,88800,NA,NA,NA,179348,1933,NA,107945,1930,NA,180372,NA,180473,180885,180371,180473,Flanker Task Lab 2.1,50,33011,52,1024
96,96,634,634,#000000,legacy,legacy,legacy,incongruent,1,undefined,1,s,0,0,0,0,52,0,0,52,0,52,52,0,52,52,52,52,Fri Sep 22 13:05:48 2023,1500,The main experiment item,FALSE,FlankerTaskLab21.osexp,C:\Users\katjo\OneDrive\Desktop,FALSE,mono,FALSE,18,no,white,no,yes,768,legacy,52,52,C:/Users/katjo/OneDrive/Desktop/KJ-subject-4 68M.csv,legacy,Melodramatic Milgram,4.0.5,0,s,NA,h,NA,NA,s,607,NA,86866,NA,NA,607,2,legacy,1024,2,48000,-16,experiment,HHSHH,4,even,88800,NA,NA,NA,180891,1933,NA,107945,1930,NA,181932,NA,182033,182640,181931,182033,Flanker Task Lab 2.1,51,33618,53,1024
96,96,633,633,#000000,legacy,legacy,legacy,incongruent,1,undefined,1,h,0,0,0,0,53,0,0,53,0,53,53,0,53,53,53,53,Fri Sep 22 13:05:48 2023,1500,The main experiment item,FALSE,FlankerTaskLab21.osexp,C:\Users\katjo\OneDrive\Desktop,FALSE,mono,FALSE,18,no,white,no,yes,768,legacy,53,53,C:/Users/katjo/OneDrive/Desktop/KJ-subject-4 68M.csv,legacy,Melodramatic Milgram,4.0.5,0,h,NA,h,NA,NA,h,568,NA,86866,NA,NA,568,2,legacy,1024,2,48000,-16,experiment,SSHSS,4,even,88800,NA,NA,NA,182654,1933,NA,107945,1930,NA,183681,NA,183782,184351,183680,183781,Flanker Task Lab 2.1,52,34186,54,1024
96,96,631,631,#000000,legacy,legacy,legacy,congruent,1,undefined,1,h,0,0,0,0,54,0,0,54,0,54,54,0,54,54,54,54,Fri Sep 22 13:05:48 2023,1500,The main experiment item,FALSE,FlankerTaskLab21.osexp,C:\Users\katjo\OneDrive\Desktop,FALSE,mono,FALSE,18,no,white,no,yes,768,legacy,54,54,C:/Users/katjo/OneDrive/Desktop/KJ-subject-4 68M.csv,legacy,Melodramatic Milgram,4.0.5,0,h,NA,h,NA,NA,h,524,NA,86866,NA,NA,524,2,legacy,1024,2,48000,-16,experiment,HHHHH,4,even,88800,NA,NA,NA,184357,1933,NA,107945,1930,NA,185382,NA,185482,186007,185381,185482,Flanker Task Lab 2.1,53,34710,55,1024
96,96,631,631,#000000,legacy,legacy,legacy,incongruent,1,undefined,1,s,0,0,0,0,55,0,0,55,0,55,55,0,55,55,55,55,Fri Sep 22 13:05:48 2023,1500,The main experiment item,FALSE,FlankerTaskLab21.osexp,C:\Users\katjo\OneDrive\Desktop,FALSE,mono,FALSE,18,no,white,no,yes,768,legacy,55,55,C:/Users/katjo/OneDrive/Desktop/KJ-subject-4 68M.csv,legacy,Melodramatic Milgram,4.0.5,0,s,NA,h,NA,NA,s,631,NA,86866,NA,NA,631,2,legacy,1024,2,48000,-16,experiment,HHSHH,4,even,88800,NA,NA,NA,186010,1933,NA,107945,1930,NA,187053,NA,187154,187786,187052,187153,Flanker Task Lab 2.1,54,35341,56,1024
96,96,632,632,#000000,legacy,legacy,legacy,incongruent,1,undefined,1,h,0,0,0,0,56,0,0,56,0,56,56,0,56,56,56,56,Fri Sep 22 13:05:48 2023,1500,The main experiment item,FALSE,FlankerTaskLab21.osexp,C:\Users\katjo\OneDrive\Desktop,FALSE,mono,FALSE,18,no,white,no,yes,768,legacy,56,56,C:/Users/katjo/OneDrive/Desktop/KJ-subject-4 68M.csv,legacy,Melodramatic Milgram,4.0.5,0,h,NA,h,NA,NA,h,696,NA,86866,NA,NA,696,2,legacy,1024,2,48000,-16,experiment,SSHSS,4,even,88800,NA,NA,NA,187792,1933,NA,107945,1930,NA,188817,NA,188917,189613,188816,188917,Flanker Task Lab 2.1,55,36037,57,1024
96,96,632,632,#000000,legacy,legacy,legacy,congruent,1,undefined,1,s,0,0,0,0,57,0,0,57,0,57,57,0,57,57,57,57,Fri Sep 22 13:05:48 2023,1500,The main experiment item,FALSE,FlankerTaskLab21.osexp,C:\Users\katjo\OneDrive\Desktop,FALSE,mono,FALSE,18,no,white,no,yes,768,legacy,57,57,C:/Users/katjo/OneDrive/Desktop/KJ-subject-4 68M.csv,legacy,Melodramatic Milgram,4.0.5,0,s,NA,h,NA,NA,s,620,NA,86866,NA,NA,620,2,legacy,1024,2,48000,-16,experiment,SSSSS,4,even,88800,NA,NA,NA,189640,1933,NA,107945,1930,NA,190681,NA,190781,191402,190680,190781,Flanker Task Lab 2.1,56,36657,58,1024
96,96,628,628,#000000,legacy,legacy,legacy,incongruent,1,undefined,1,s,0,0,0,0,58,0,0,58,0,58,58,0,58,58,58,58,Fri Sep 22 13:05:48 2023,1500,The main experiment item,FALSE,FlankerTaskLab21.osexp,C:\Users\katjo\OneDrive\Desktop,FALSE,mono,FALSE,18,no,white,no,yes,768,legacy,58,58,C:/Users/katjo/OneDrive/Desktop/KJ-subject-4 68M.csv,legacy,Melodramatic Milgram,4.0.5,0,s,NA,h,NA,NA,s,435,NA,86866,NA,NA,435,2,legacy,1024,2,48000,-16,experiment,HHSHH,4,even,88800,NA,NA,NA,191409,1933,NA,107945,1930,NA,192433,NA,192534,192970,192432,192534,Flanker Task Lab 2.1,57,37092,59,1024
96,96,626,626,#000000,legacy,legacy,legacy,incongruent,1,undefined,1,s,0,0,0,0,59,0,0,59,0,59,59,0,59,59,59,59,Fri Sep 22 13:05:48 2023,1500,The main experiment item,FALSE,FlankerTaskLab21.osexp,C:\Users\katjo\OneDrive\Desktop,FALSE,mono,FALSE,18,no,white,no,yes,768,legacy,59,59,C:/Users/katjo/OneDrive/Desktop/KJ-subject-4 68M.csv,legacy,Melodramatic Milgram,4.0.5,0,s,NA,h,NA,NA,s,478,NA,86866,NA,NA,478,2,legacy,1024,2,48000,-16,experiment,HHSHH,4,even,88800,NA,NA,NA,192972,1933,NA,107945,1930,NA,193997,NA,194098,194577,193996,194098,Flanker Task Lab 2.1,58,37570,60,1024
96,96,625,625,#000000,legacy,legacy,legacy,incongruent,1,undefined,1,s,0,0,0,0,60,0,0,60,0,60,60,0,60,60,60,60,Fri Sep 22 13:05:48 2023,1500,The main experiment item,FALSE,FlankerTaskLab21.osexp,C:\Users\katjo\OneDrive\Desktop,FALSE,mono,FALSE,18,no,white,no,yes,768,legacy,60,60,C:/Users/katjo/OneDrive/Desktop/KJ-subject-4 68M.csv,legacy,Melodramatic Milgram,4.0.5,0,s,NA,h,NA,NA,s,615,NA,86866,NA,NA,615,2,legacy,1024,2,48000,-16,experiment,HHSHH,4,even,88800,NA,NA,NA,194583,1933,NA,107945,1930,NA,195624,NA,195724,196340,195624,195724,Flanker Task Lab 2.1,59,38185,61,1024
96,96,624,624,#000000,legacy,legacy,legacy,incongruent,1,undefined,1,s,0,0,0,0,61,0,0,61,0,61,61,0,61,61,61,61,Fri Sep 22 13:05:48 2023,1500,The main experiment item,FALSE,FlankerTaskLab21.osexp,C:\Users\katjo\OneDrive\Desktop,FALSE,mono,FALSE,18,no,white,no,yes,768,legacy,61,61,C:/Users/katjo/OneDrive/Desktop/KJ-subject-4 68M.csv,legacy,Melodramatic Milgram,4.0.5,0,s,NA,h,NA,NA,s,521,NA,86866,NA,NA,521,2,legacy,1024,2,48000,-16,experiment,HHSHH,4,even,88800,NA,NA,NA,196366,1933,NA,107945,1930,NA,197388,NA,197489,198010,197388,197489,Flanker Task Lab 2.1,60,38706,62,1024
96,96,622,622,#000000,legacy,legacy,legacy,incongruent,1,undefined,1,s,0,0,0,0,62,0,0,62,0,62,62,0,62,62,62,62,Fri Sep 22 13:05:48 2023,1500,The main experiment item,FALSE,FlankerTaskLab21.osexp,C:\Users\katjo\OneDrive\Desktop,FALSE,mono,FALSE,18,no,white,no,yes,768,legacy,62,62,C:/Users/katjo/OneDrive/Desktop/KJ-subject-4 68M.csv,legacy,Melodramatic Milgram,4.0.5,0,s,NA,h,NA,NA,s,517,NA,86866,NA,NA,517,2,legacy,1024,2,48000,-16,experiment,HHSHH,4,even,88800,NA,NA,NA,198036,1933,NA,107945,1930,NA,199070,NA,199171,199688,199069,199171,Flanker Task Lab 2.1,61,39223,63,1024
96,96,619,619,#000000,legacy,legacy,legacy,congruent,1,undefined,1,s,0,0,0,0,63,0,0,63,0,63,63,0,63,63,63,63,Fri Sep 22 13:05:48 2023,1500,The main experiment item,FALSE,FlankerTaskLab21.osexp,C:\Users\katjo\OneDrive\Desktop,FALSE,mono,FALSE,18,no,white,no,yes,768,legacy,63,63,C:/Users/katjo/OneDrive/Desktop/KJ-subject-4 68M.csv,legacy,Melodramatic Milgram,4.0.5,0,s,NA,h,NA,NA,s,453,NA,86866,NA,NA,453,2,legacy,1024,2,48000,-16,experiment,SSSSS,4,even,88800,NA,NA,NA,199695,1933,NA,107945,1930,NA,200734,NA,200834,201287,200733,200834,Flanker Task Lab 2.1,62,39676,64,1024
96,96,617,617,#000000,legacy,legacy,legacy,congruent,1,undefined,1,s,0,0,0,0,64,0,0,64,0,64,64,0,64,64,64,64,Fri Sep 22 13:05:48 2023,1500,The main experiment item,FALSE,FlankerTaskLab21.osexp,C:\Users\katjo\OneDrive\Desktop,FALSE,mono,FALSE,18,no,white,no,yes,768,legacy,64,64,C:/Users/katjo/OneDrive/Desktop/KJ-subject-4 68M.csv,legacy,Melodramatic Milgram,4.0.5,0,s,NA,h,NA,NA,s,463,NA,86866,NA,NA,463,2,legacy,1024,2,48000,-16,experiment,SSSSS,4,even,88800,NA,NA,NA,201294,1933,NA,107945,1930,NA,202335,NA,202436,202900,202335,202436,Flanker Task Lab 2.1,63,40139,65,1024
96,96,617,617,#000000,legacy,legacy,legacy,congruent,1,undefined,1,h,0,0,0,0,65,0,0,65,0,65,65,0,65,65,65,65,Fri Sep 22 13:05:48 2023,1500,The main experiment item,FALSE,FlankerTaskLab21.osexp,C:\Users\katjo\OneDrive\Desktop,FALSE,mono,FALSE,18,no,white,no,yes,768,legacy,65,65,C:/Users/katjo/OneDrive/Desktop/KJ-subject-4 68M.csv,legacy,Melodramatic Milgram,4.0.5,0,h,NA,h,NA,NA,h,600,NA,86866,NA,NA,600,2,legacy,1024,2,48000,-16,experiment,HHHHH,4,even,88800,NA,NA,NA,202906,1933,NA,107945,1930,NA,203926,NA,204027,204627,203925,204027,Flanker Task Lab 2.1,64,40739,66,1024
97,97,617,617,#000000,legacy,legacy,legacy,incongruent,1,undefined,1,h,0,0,0,0,66,0,0,66,0,66,66,0,66,66,66,66,Fri Sep 22 13:05:48 2023,1500,The main experiment item,FALSE,FlankerTaskLab21.osexp,C:\Users\katjo\OneDrive\Desktop,FALSE,mono,FALSE,18,no,white,no,yes,768,legacy,66,66,C:/Users/katjo/OneDrive/Desktop/KJ-subject-4 68M.csv,legacy,Melodramatic Milgram,4.0.5,0,h,NA,h,NA,NA,h,635,NA,86866,NA,NA,635,2,legacy,1024,2,48000,-16,experiment,SSHSS,4,even,88800,NA,NA,NA,204634,1933,NA,107945,1930,NA,205655,NA,205756,206392,205654,205756,Flanker Task Lab 2.1,65,41374,67,1024
97,97,616,616,#000000,legacy,legacy,legacy,congruent,1,undefined,1,h,0,0,0,0,67,0,0,67,0,67,67,0,67,67,67,67,Fri Sep 22 13:05:48 2023,1500,The main experiment item,FALSE,FlankerTaskLab21.osexp,C:\Users\katjo\OneDrive\Desktop,FALSE,mono,FALSE,18,no,white,no,yes,768,legacy,67,67,C:/Users/katjo/OneDrive/Desktop/KJ-subject-4 68M.csv,legacy,Melodramatic Milgram,4.0.5,0,h,NA,h,NA,NA,h,544,NA,86866,NA,NA,544,2,legacy,1024,2,48000,-16,experiment,HHHHH,4,even,88800,NA,NA,NA,206398,1933,NA,107945,1930,NA,207436,NA,207536,208081,207435,207536,Flanker Task Lab 2.1,66,41918,68,1024
97,97,615,615,#000000,legacy,legacy,legacy,congruent,1,undefined,1,h,0,0,0,0,68,0,0,68,0,68,68,0,68,68,68,68,Fri Sep 22 13:05:48 2023,1500,The main experiment item,FALSE,FlankerTaskLab21.osexp,C:\Users\katjo\OneDrive\Desktop,FALSE,mono,FALSE,18,no,white,no,yes,768,legacy,68,68,C:/Users/katjo/OneDrive/Desktop/KJ-subject-4 68M.csv,legacy,Melodramatic Milgram,4.0.5,0,h,NA,h,NA,NA,h,520,NA,86866,NA,NA,520,2,legacy,1024,2,48000,-16,experiment,HHHHH,4,even,88800,NA,NA,NA,208088,1933,NA,107945,1930,NA,209110,NA,209211,209732,209109,209211,Flanker Task Lab 2.1,67,42438,69,1024
97,97,615,615,#000000,legacy,legacy,legacy,incongruent,1,undefined,1,s,0,0,0,0,69,0,0,69,0,69,69,0,69,69,69,69,Fri Sep 22 13:05:48 2023,1500,The main experiment item,FALSE,FlankerTaskLab21.osexp,C:\Users\katjo\OneDrive\Desktop,FALSE,mono,FALSE,18,no,white,no,yes,768,legacy,69,69,C:/Users/katjo/OneDrive/Desktop/KJ-subject-4 68M.csv,legacy,Melodramatic Milgram,4.0.5,0,s,NA,h,NA,NA,s,615,NA,86866,NA,NA,615,2,legacy,1024,2,48000,-16,experiment,HHSHH,4,even,88800,NA,NA,NA,209759,1933,NA,107945,1930,NA,210786,NA,210887,211502,210785,210887,Flanker Task Lab 2.1,68,43053,70,1024
97,97,612,612,#000000,legacy,legacy,legacy,congruent,1,undefined,1,s,0,0,0,0,70,0,0,70,0,70,70,0,70,70,70,70,Fri Sep 22 13:05:48 2023,1500,The main experiment item,FALSE,FlankerTaskLab21.osexp,C:\Users\katjo\OneDrive\Desktop,FALSE,mono,FALSE,18,no,white,no,yes,768,legacy,70,70,C:/Users/katjo/OneDrive/Desktop/KJ-subject-4 68M.csv,legacy,Melodramatic Milgram,4.0.5,0,s,NA,h,NA,NA,s,460,NA,86866,NA,NA,460,2,legacy,1024,2,48000,-16,experiment,SSSSS,4,even,88800,NA,NA,NA,211528,1933,NA,107945,1930,NA,212548,NA,212648,213109,212547,212648,Flanker Task Lab 2.1,69,43513,71,1024
97,97,613,613,#000000,legacy,legacy,legacy,incongruent,1,undefined,1,h,0,0,0,0,71,0,0,71,0,71,71,0,71,71,71,71,Fri Sep 22 13:05:48 2023,1500,The main experiment item,FALSE,FlankerTaskLab21.osexp,C:\Users\katjo\OneDrive\Desktop,FALSE,mono,FALSE,18,no,white,no,yes,768,legacy,71,71,C:/Users/katjo/OneDrive/Desktop/KJ-subject-4 68M.csv,legacy,Melodramatic Milgram,4.0.5,0,h,NA,h,NA,NA,h,637,NA,86866,NA,NA,637,2,legacy,1024,2,48000,-16,experiment,SSHSS,4,even,88800,NA,NA,NA,213115,1933,NA,107945,1930,NA,214141,NA,214242,214880,214140,214242,Flanker Task Lab 2.1,70,44150,72,1024
97,97,613,613,#000000,legacy,legacy,legacy,incongruent,1,undefined,1,h,0,0,0,0,72,0,0,72,0,72,72,0,72,72,72,72,Fri Sep 22 13:05:48 2023,1500,The main experiment item,FALSE,FlankerTaskLab21.osexp,C:\Users\katjo\OneDrive\Desktop,FALSE,mono,FALSE,18,no,white,no,yes,768,legacy,72,72,C:/Users/katjo/OneDrive/Desktop/KJ-subject-4 68M.csv,legacy,Melodramatic Milgram,4.0.5,0,h,NA,h,NA,NA,h,610,NA,86866,NA,NA,610,2,legacy,1024,2,48000,-16,experiment,SSHSS,4,even,88800,NA,NA,NA,214906,1933,NA,107945,1930,NA,215930,NA,216031,216642,215929,216030,Flanker Task Lab 2.1,71,44760,73,1024
97,97,613,613,#000000,legacy,legacy,legacy,congruent,1,undefined,1,s,0,0,0,0,73,0,0,73,0,73,73,0,73,73,73,73,Fri Sep 22 13:05:48 2023,1500,The main experiment item,FALSE,FlankerTaskLab21.osexp,C:\Users\katjo\OneDrive\Desktop,FALSE,mono,FALSE,18,no,white,no,yes,768,legacy,73,73,C:/Users/katjo/OneDrive/Desktop/KJ-subject-4 68M.csv,legacy,Melodramatic Milgram,4.0.5,0,s,NA,h,NA,NA,s,631,NA,86866,NA,NA,631,2,legacy,1024,2,48000,-16,experiment,SSSSS,4,even,88800,NA,NA,NA,216649,1933,NA,107945,1930,NA,217674,NA,217774,218405,217673,217774,Flanker Task Lab 2.1,72,45391,74,1024
97,97,613,613,#000000,legacy,legacy,legacy,incongruent,1,undefined,1,h,0,0,0,0,74,0,0,74,0,74,74,0,74,74,74,74,Fri Sep 22 13:05:48 2023,1500,The main experiment item,FALSE,FlankerTaskLab21.osexp,C:\Users\katjo\OneDrive\Desktop,FALSE,mono,FALSE,18,no,white,no,yes,768,legacy,74,74,C:/Users/katjo/OneDrive/Desktop/KJ-subject-4 68M.csv,legacy,Melodramatic Milgram,4.0.5,0,h,NA,h,NA,NA,h,602,NA,86866,NA,NA,602,2,legacy,1024,2,48000,-16,experiment,SSHSS,4,even,88800,NA,NA,NA,218431,1933,NA,107945,1930,NA,219453,NA,219553,220156,219452,219553,Flanker Task Lab 2.1,73,45993,75,1024
97,97,613,613,#000000,legacy,legacy,legacy,congruent,1,undefined,1,s,0,0,0,0,75,0,0,75,0,75,75,0,75,75,75,75,Fri Sep 22 13:05:48 2023,1500,The main experiment item,FALSE,FlankerTaskLab21.osexp,C:\Users\katjo\OneDrive\Desktop,FALSE,mono,FALSE,18,no,white,no,yes,768,legacy,75,75,C:/Users/katjo/OneDrive/Desktop/KJ-subject-4 68M.csv,legacy,Melodramatic Milgram,4.0.5,0,s,NA,h,NA,NA,s,622,NA,86866,NA,NA,622,2,legacy,1024,2,48000,-16,experiment,SSSSS,4,even,88800,NA,NA,NA,220163,1933,NA,107945,1930,NA,221204,NA,221305,221927,221203,221305,Flanker Task Lab 2.1,74,46615,76,1024
97,97,612,612,#000000,legacy,legacy,legacy,incongruent,1,undefined,1,s,0,0,0,0,76,0,0,76,0,76,76,0,76,76,76,76,Fri Sep 22 13:05:48 2023,1500,The main experiment item,FALSE,FlankerTaskLab21.osexp,C:\Users\katjo\OneDrive\Desktop,FALSE,mono,FALSE,18,no,white,no,yes,768,legacy,76,76,C:/Users/katjo/OneDrive/Desktop/KJ-subject-4 68M.csv,legacy,Melodramatic Milgram,4.0.5,0,s,NA,h,NA,NA,s,540,NA,86866,NA,NA,540,2,legacy,1024,2,48000,-16,experiment,HHSHH,4,even,88800,NA,NA,NA,221953,1933,NA,107945,1930,NA,222974,NA,223074,223614,222973,223074,Flanker Task Lab 2.1,75,47155,77,1024
97,97,610,610,#000000,legacy,legacy,legacy,congruent,1,undefined,1,h,0,0,0,0,77,0,0,77,0,77,77,0,77,77,77,77,Fri Sep 22 13:05:48 2023,1500,The main experiment item,FALSE,FlankerTaskLab21.osexp,C:\Users\katjo\OneDrive\Desktop,FALSE,mono,FALSE,18,no,white,no,yes,768,legacy,77,77,C:/Users/katjo/OneDrive/Desktop/KJ-subject-4 68M.csv,legacy,Melodramatic Milgram,4.0.5,0,h,NA,h,NA,NA,h,454,NA,86866,NA,NA,454,2,legacy,1024,2,48000,-16,experiment,HHHHH,4,even,88800,NA,NA,NA,223621,1933,NA,107945,1930,NA,224644,NA,224745,225199,224644,224744,Flanker Task Lab 2.1,76,47609,78,1024
97,97,607,607,#000000,legacy,legacy,legacy,incongruent,1,undefined,1,h,0,0,0,0,78,0,0,78,0,78,78,0,78,78,78,78,Fri Sep 22 13:05:48 2023,1500,The main experiment item,FALSE,FlankerTaskLab21.osexp,C:\Users\katjo\OneDrive\Desktop,FALSE,mono,FALSE,18,no,white,no,yes,768,legacy,78,78,C:/Users/katjo/OneDrive/Desktop/KJ-subject-4 68M.csv,legacy,Melodramatic Milgram,4.0.5,0,h,NA,h,NA,NA,h,411,NA,86866,NA,NA,411,2,legacy,1024,2,48000,-16,experiment,SSHSS,4,even,88800,NA,NA,NA,225225,1933,NA,107945,1930,NA,226250,NA,226351,226762,226249,226351,Flanker Task Lab 2.1,77,48020,79,1024
97,97,605,605,#000000,legacy,legacy,legacy,incongruent,1,undefined,1,s,0,0,0,0,79,0,0,79,0,79,79,0,79,79,79,79,Fri Sep 22 13:05:48 2023,1500,The main experiment item,FALSE,FlankerTaskLab21.osexp,C:\Users\katjo\OneDrive\Desktop,FALSE,mono,FALSE,18,no,white,no,yes,768,legacy,79,79,C:/Users/katjo/OneDrive/Desktop/KJ-subject-4 68M.csv,legacy,Melodramatic Milgram,4.0.5,0,s,NA,h,NA,NA,s,415,NA,86866,NA,NA,415,2,legacy,1024,2,48000,-16,experiment,HHSHH,4,even,88800,NA,NA,NA,226769,1933,NA,107945,1930,NA,227792,NA,227892,228307,227791,227892,Flanker Task Lab 2.1,78,48435,80,1024
97,97,605,605,#000000,legacy,legacy,legacy,incongruent,1,undefined,1,h,0,0,0,0,80,0,0,80,0,80,80,0,80,80,80,80,Fri Sep 22 13:05:48 2023,600,The main experiment item,FALSE,FlankerTaskLab21.osexp,C:\Users\katjo\OneDrive\Desktop,FALSE,mono,FALSE,18,no,white,no,yes,768,legacy,0,79,C:/Users/katjo/OneDrive/Desktop/KJ-subject-4 68M.csv,legacy,Melodramatic Milgram,4.0.5,0,h,NA,h,h,NA,h,614,NA,86866,33505,NA,614,2,legacy,1024,2,48000,-16,experiment,SSHSS,4,even,88800,262817,NA,NA,228311,1933,229312,107945,1930,NA,262850,NA,262951,263567,262850,262951,Flanker Task Lab 2.1,79,49049,81,1024
96,96,602,602,#000000,legacy,legacy,legacy,incongruent,0,undefined,0,s,0,0,0,0,81,0,0,81,0,81,81,0,81,81,81,81,Fri Sep 22 13:05:48 2023,600,The main experiment item,FALSE,FlankerTaskLab21.osexp,C:\Users\katjo\OneDrive\Desktop,FALSE,mono,FALSE,18,no,white,no,yes,768,legacy,1,79,C:/Users/katjo/OneDrive/Desktop/KJ-subject-4 68M.csv,legacy,Melodramatic Milgram,4.0.5,0,h,NA,h,h,NA,h,359,NA,86866,33505,NA,359,2,legacy,1024,2,48000,-16,experiment,HHSHH,4,even,88800,262817,NA,NA,264074,1933,229312,107945,1930,263573,265108,NA,265208,265567,265107,265208,Flanker Task Lab 2.1,79,49408,82,1024
96,96,600,600,#000000,legacy,legacy,legacy,incongruent,1,undefined,1,s,0,0,0,0,82,0,0,82,0,82,82,0,82,82,82,82,Fri Sep 22 13:05:48 2023,600,The main experiment item,FALSE,FlankerTaskLab21.osexp,C:\Users\katjo\OneDrive\Desktop,FALSE,mono,FALSE,18,no,white,no,yes,768,legacy,2,79,C:/Users/katjo/OneDrive/Desktop/KJ-subject-4 68M.csv,legacy,Melodramatic Milgram,4.0.5,0,s,NA,h,h,NA,s,408,NA,86866,33505,NA,408,2,legacy,1024,2,48000,-16,experiment,HHSHH,4,even,88800,262817,NA,NA,266069,1933,229312,265569,1930,263573,267096,NA,267197,267606,267095,267197,Flanker Task Lab 2.1,80,49816,83,1024
96,96,599,599,#000000,legacy,legacy,legacy,incongruent,1,undefined,1,s,0,0,0,0,83,0,0,83,0,83,83,0,83,83,83,83,Fri Sep 22 13:05:48 2023,600,The main experiment item,FALSE,FlankerTaskLab21.osexp,C:\Users\katjo\OneDrive\Desktop,FALSE,mono,FALSE,18,no,white,no,yes,768,legacy,3,79,C:/Users/katjo/OneDrive/Desktop/KJ-subject-4 68M.csv,legacy,Melodramatic Milgram,4.0.5,0,s,NA,h,h,NA,s,531,NA,86866,33505,NA,531,2,legacy,1024,2,48000,-16,experiment,HHSHH,4,even,88800,262817,NA,NA,267612,1933,229312,265569,1930,263573,268645,NA,268746,269278,268644,268746,Flanker Task Lab 2.1,81,50347,84,1024
96,96,596,596,#000000,legacy,legacy,legacy,congruent,1,undefined,1,h,0,0,0,0,84,0,0,84,0,84,84,0,84,84,84,84,Fri Sep 22 13:05:48 2023,600,The main experiment item,FALSE,FlankerTaskLab21.osexp,C:\Users\katjo\OneDrive\Desktop,FALSE,mono,FALSE,18,no,white,no,yes,768,legacy,4,79,C:/Users/katjo/OneDrive/Desktop/KJ-subject-4 68M.csv,legacy,Melodramatic Milgram,4.0.5,0,h,NA,h,h,NA,h,386,NA,86866,33505,NA,386,2,legacy,1024,2,48000,-16,experiment,HHHHH,4,even,88800,262817,NA,NA,269283,1933,229312,265569,1930,263573,270310,NA,270411,270798,270309,270411,Flanker Task Lab 2.1,82,50733,85,1024
96,96,594,594,#000000,legacy,legacy,legacy,incongruent,1,undefined,1,s,0,0,0,0,85,0,0,85,0,85,85,0,85,85,85,85,Fri Sep 22 13:05:48 2023,600,The main experiment item,FALSE,FlankerTaskLab21.osexp,C:\Users\katjo\OneDrive\Desktop,FALSE,mono,FALSE,18,no,white,no,yes,768,legacy,5,79,C:/Users/katjo/OneDrive/Desktop/KJ-subject-4 68M.csv,legacy,Melodramatic Milgram,4.0.5,0,s,NA,h,h,NA,s,377,NA,86866,33505,NA,377,2,legacy,1024,2,48000,-16,experiment,HHSHH,4,even,88800,262817,NA,NA,270804,1933,229312,265569,1930,263573,271826,NA,271926,272304,271825,271926,Flanker Task Lab 2.1,83,51110,86,1024
96,96,591,591,#000000,legacy,legacy,legacy,congruent,1,undefined,1,h,0,0,0,0,86,0,0,86,0,86,86,0,86,86,86,86,Fri Sep 22 13:05:48 2023,600,The main experiment item,FALSE,FlankerTaskLab21.osexp,C:\Users\katjo\OneDrive\Desktop,FALSE,mono,FALSE,18,no,white,no,yes,768,legacy,6,79,C:/Users/katjo/OneDrive/Desktop/KJ-subject-4 68M.csv,legacy,Melodramatic Milgram,4.0.5,0,h,NA,h,h,NA,h,390,NA,86866,33505,NA,390,2,legacy,1024,2,48000,-16,experiment,HHHHH,4,even,88800,262817,NA,NA,272329,1933,229312,265569,1930,263573,273353,NA,273453,273843,273353,273453,Flanker Task Lab 2.1,84,51500,87,1024
96,96,590,590,#000000,legacy,legacy,legacy,congruent,1,undefined,1,h,0,0,0,0,87,0,0,87,0,87,87,0,87,87,87,87,Fri Sep 22 13:05:48 2023,600,The main experiment item,FALSE,FlankerTaskLab21.osexp,C:\Users\katjo\OneDrive\Desktop,FALSE,mono,FALSE,18,no,white,no,yes,768,legacy,7,79,C:/Users/katjo/OneDrive/Desktop/KJ-subject-4 68M.csv,legacy,Melodramatic Milgram,4.0.5,0,h,NA,h,h,NA,h,479,NA,86866,33505,NA,479,2,legacy,1024,2,48000,-16,experiment,HHHHH,4,even,88800,262817,NA,NA,273870,1933,229312,265569,1930,263573,274914,NA,275014,275494,274914,275014,Flanker Task Lab 2.1,85,51979,88,1024
96,96,589,589,#000000,legacy,legacy,legacy,congruent,1,undefined,1,h,0,0,0,0,88,0,0,88,0,88,88,0,88,88,88,88,Fri Sep 22 13:05:48 2023,600,The main experiment item,FALSE,FlankerTaskLab21.osexp,C:\Users\katjo\OneDrive\Desktop,FALSE,mono,FALSE,18,no,white,no,yes,768,legacy,8,79,C:/Users/katjo/OneDrive/Desktop/KJ-subject-4 68M.csv,legacy,Melodramatic Milgram,4.0.5,0,h,NA,h,h,NA,h,444,NA,86866,33505,NA,444,2,legacy,1024,2,48000,-16,experiment,HHHHH,4,even,88800,262817,NA,NA,275500,1933,229312,265569,1930,263573,276521,NA,276622,277067,276521,276622,Flanker Task Lab 2.1,86,52423,89,1024
96,96,588,588,#000000,legacy,legacy,legacy,congruent,1,undefined,1,h,0,0,0,0,89,0,0,89,0,89,89,0,89,89,89,89,Fri Sep 22 13:05:48 2023,600,The main experiment item,FALSE,FlankerTaskLab21.osexp,C:\Users\katjo\OneDrive\Desktop,FALSE,mono,FALSE,18,no,white,no,yes,768,legacy,9,79,C:/Users/katjo/OneDrive/Desktop/KJ-subject-4 68M.csv,legacy,Melodramatic Milgram,4.0.5,0,h,NA,h,h,NA,h,503,NA,86866,33505,NA,503,2,legacy,1024,2,48000,-16,experiment,HHHHH,4,even,88800,262817,NA,NA,277073,1933,229312,265569,1930,263573,278096,NA,278198,278702,278095,278197,Flanker Task Lab 2.1,87,52926,90,1024
96,96,586,586,#000000,legacy,legacy,legacy,congruent,1,undefined,1,h,0,0,0,0,90,0,0,90,0,90,90,0,90,90,90,90,Fri Sep 22 13:05:48 2023,600,The main experiment item,FALSE,FlankerTaskLab21.osexp,C:\Users\katjo\OneDrive\Desktop,FALSE,mono,FALSE,18,no,white,no,yes,768,legacy,10,79,C:/Users/katjo/OneDrive/Desktop/KJ-subject-4 68M.csv,legacy,Melodramatic Milgram,4.0.5,0,h,NA,h,h,NA,h,446,NA,86866,33505,NA,446,2,legacy,1024,2,48000,-16,experiment,HHHHH,4,even,88800,262817,NA,NA,278728,1933,229312,265569,1930,263573,279749,NA,279849,280296,279748,279849,Flanker Task Lab 2.1,88,53372,91,1024
95,95,584,584,#000000,legacy,legacy,legacy,incongruent,0,undefined,0,s,0,0,0,0,91,0,0,91,0,91,91,0,91,91,91,91,Fri Sep 22 13:05:48 2023,600,The main experiment item,FALSE,FlankerTaskLab21.osexp,C:\Users\katjo\OneDrive\Desktop,FALSE,mono,FALSE,18,no,white,no,yes,768,legacy,11,79,C:/Users/katjo/OneDrive/Desktop/KJ-subject-4 68M.csv,legacy,Melodramatic Milgram,4.0.5,0,h,NA,h,h,NA,h,444,NA,86866,33505,NA,444,2,legacy,1024,2,48000,-16,experiment,HHSHH,4,even,88800,262817,NA,NA,280302,1933,229312,265569,1930,263573,281326,NA,281426,281871,281325,281426,Flanker Task Lab 2.1,88,53816,92,1024
95,95,583,583,#000000,legacy,legacy,legacy,congruent,1,undefined,1,s,0,0,0,0,92,0,0,92,0,92,92,0,92,92,92,92,Fri Sep 22 13:05:48 2023,600,The main experiment item,FALSE,FlankerTaskLab21.osexp,C:\Users\katjo\OneDrive\Desktop,FALSE,mono,FALSE,18,no,white,no,yes,768,legacy,12,79,C:/Users/katjo/OneDrive/Desktop/KJ-subject-4 68M.csv,legacy,Melodramatic Milgram,4.0.5,0,s,NA,h,h,NA,s,403,NA,86866,33505,NA,403,2,legacy,1024,2,48000,-16,experiment,SSSSS,4,even,88800,262817,NA,NA,282378,1933,229312,281878,1930,263573,283402,NA,283503,283907,283401,283503,Flanker Task Lab 2.1,89,54219,93,1024
95,95,581,581,#000000,legacy,legacy,legacy,incongruent,1,undefined,1,s,0,0,0,0,93,0,0,93,0,93,93,0,93,93,93,93,Fri Sep 22 13:05:48 2023,600,The main experiment item,FALSE,FlankerTaskLab21.osexp,C:\Users\katjo\OneDrive\Desktop,FALSE,mono,FALSE,18,no,white,no,yes,768,legacy,13,79,C:/Users/katjo/OneDrive/Desktop/KJ-subject-4 68M.csv,legacy,Melodramatic Milgram,4.0.5,0,s,NA,h,h,NA,s,438,NA,86866,33505,NA,438,2,legacy,1024,2,48000,-16,experiment,HHSHH,4,even,88800,262817,NA,NA,283913,1933,229312,281878,1930,263573,284942,NA,285043,285482,284942,285043,Flanker Task Lab 2.1,90,54657,94,1024
95,95,580,580,#000000,legacy,legacy,legacy,incongruent,1,undefined,1,s,0,0,0,0,94,0,0,94,0,94,94,0,94,94,94,94,Fri Sep 22 13:05:48 2023,600,The main experiment item,FALSE,FlankerTaskLab21.osexp,C:\Users\katjo\OneDrive\Desktop,FALSE,mono,FALSE,18,no,white,no,yes,768,legacy,14,79,C:/Users/katjo/OneDrive/Desktop/KJ-subject-4 68M.csv,legacy,Melodramatic Milgram,4.0.5,0,s,NA,h,h,NA,s,537,NA,86866,33505,NA,537,2,legacy,1024,2,48000,-16,experiment,HHSHH,4,even,88800,262817,NA,NA,285488,1933,229312,281878,1930,263573,286512,NA,286613,287150,286511,286613,Flanker Task Lab 2.1,91,55194,95,1024
94,94,579,579,#000000,legacy,legacy,legacy,congruent,0,undefined,0,s,0,0,0,0,95,0,0,95,0,95,95,0,95,95,95,95,Fri Sep 22 13:05:48 2023,600,The main experiment item,FALSE,FlankerTaskLab21.osexp,C:\Users\katjo\OneDrive\Desktop,FALSE,mono,FALSE,18,no,white,no,yes,768,legacy,15,79,C:/Users/katjo/OneDrive/Desktop/KJ-subject-4 68M.csv,legacy,Melodramatic Milgram,4.0.5,0,h,NA,h,h,NA,h,452,NA,86866,33505,NA,452,2,legacy,1024,2,48000,-16,experiment,SSSSS,4,even,88800,262817,NA,NA,287157,1933,229312,281878,1930,263573,288179,NA,288280,288733,288178,288280,Flanker Task Lab 2.1,91,55646,96,1024
94,94,580,580,#000000,legacy,legacy,legacy,congruent,1,undefined,1,h,0,0,0,0,96,0,0,96,0,96,96,0,96,96,96,96,Fri Sep 22 13:05:48 2023,600,The main experiment item,FALSE,FlankerTaskLab21.osexp,C:\Users\katjo\OneDrive\Desktop,FALSE,mono,FALSE,18,no,white,no,yes,768,legacy,16,79,C:/Users/katjo/OneDrive/Desktop/KJ-subject-4 68M.csv,legacy,Melodramatic Milgram,4.0.5,0,h,NA,h,h,NA,h,620,NA,86866,33505,NA,620,2,legacy,1024,2,48000,-16,experiment,HHHHH,4,even,88800,262817,NA,NA,289234,1933,229312,288734,1930,263573,290260,NA,290361,290982,290259,290361,Flanker Task Lab 2.1,92,56266,97,1024
94,94,578,578,#000000,legacy,legacy,legacy,congruent,1,undefined,1,s,0,0,0,0,97,0,0,97,0,97,97,0,97,97,97,97,Fri Sep 22 13:05:48 2023,600,The main experiment item,FALSE,FlankerTaskLab21.osexp,C:\Users\katjo\OneDrive\Desktop,FALSE,mono,FALSE,18,no,white,no,yes,768,legacy,17,79,C:/Users/katjo/OneDrive/Desktop/KJ-subject-4 68M.csv,legacy,Melodramatic Milgram,4.0.5,0,s,NA,h,h,NA,s,465,NA,86866,33505,NA,465,2,legacy,1024,2,48000,-16,experiment,SSSSS,4,even,88800,262817,NA,NA,291509,1933,229312,288734,1930,291008,292529,NA,292630,293096,292528,292630,Flanker Task Lab 2.1,93,56731,98,1024
94,94,578,578,#000000,legacy,legacy,legacy,congruent,1,undefined,1,h,0,0,0,0,98,0,0,98,0,98,98,0,98,98,98,98,Fri Sep 22 13:05:48 2023,600,The main experiment item,FALSE,FlankerTaskLab21.osexp,C:\Users\katjo\OneDrive\Desktop,FALSE,mono,FALSE,18,no,white,no,yes,768,legacy,18,79,C:/Users/katjo/OneDrive/Desktop/KJ-subject-4 68M.csv,legacy,Melodramatic Milgram,4.0.5,0,h,NA,h,h,NA,h,518,NA,86866,33505,NA,518,2,legacy,1024,2,48000,-16,experiment,HHHHH,4,even,88800,262817,NA,NA,293103,1933,229312,288734,1930,291008,294133,NA,294234,294753,294132,294234,Flanker Task Lab 2.1,94,57249,99,1024
95,95,576,576,#000000,legacy,legacy,legacy,incongruent,1,undefined,1,s,0,0,0,0,99,0,0,99,0,99,99,0,99,99,99,99,Fri Sep 22 13:05:48 2023,600,The main experiment item,FALSE,FlankerTaskLab21.osexp,C:\Users\katjo\OneDrive\Desktop,FALSE,mono,FALSE,18,no,white,no,yes,768,legacy,19,79,C:/Users/katjo/OneDrive/Desktop/KJ-subject-4 68M.csv,legacy,Melodramatic Milgram,4.0.5,0,s,NA,h,h,NA,s,393,NA,86866,33505,NA,393,2,legacy,1024,2,48000,-16,experiment,HHSHH,4,even,88800,262817,NA,NA,294759,1933,229312,288734,1930,291008,295801,NA,295902,296296,295800,295902,Flanker Task Lab 2.1,95,57642,100,1024
95,95,576,576,#000000,legacy,legacy,legacy,congruent,1,undefined,1,s,0,0,0,0,100,0,0,100,0,100,100,0,100,100,100,100,Fri Sep 22 13:05:48 2023,600,The main experiment item,FALSE,FlankerTaskLab21.osexp,C:\Users\katjo\OneDrive\Desktop,FALSE,mono,FALSE,18,no,white,no,yes,768,legacy,20,79,C:/Users/katjo/OneDrive/Desktop/KJ-subject-4 68M.csv,legacy,Melodramatic Milgram,4.0.5,0,s,NA,h,h,NA,s,563,NA,86866,33505,NA,563,2,legacy,1024,2,48000,-16,experiment,SSSSS,4,even,88800,262817,NA,NA,296298,1933,229312,288734,1930,291008,297319,NA,297419,297982,297318,297419,Flanker Task Lab 2.1,96,58205,101,1024
95,95,574,574,#000000,legacy,legacy,legacy,incongruent,1,undefined,1,h,0,0,0,0,101,0,0,101,0,101,101,0,101,101,101,101,Fri Sep 22 13:05:48 2023,600,The main experiment item,FALSE,FlankerTaskLab21.osexp,C:\Users\katjo\OneDrive\Desktop,FALSE,mono,FALSE,18,no,white,no,yes,768,legacy,21,79,C:/Users/katjo/OneDrive/Desktop/KJ-subject-4 68M.csv,legacy,Melodramatic Milgram,4.0.5,0,h,NA,h,h,NA,h,423,NA,86866,33505,NA,423,2,legacy,1024,2,48000,-16,experiment,SSHSS,4,even,88800,262817,NA,NA,297984,1933,229312,288734,1930,291008,299007,NA,299107,299531,299006,299107,Flanker Task Lab 2.1,97,58628,102,1024
95,95,573,573,#000000,legacy,legacy,legacy,congruent,1,undefined,1,s,0,0,0,0,102,0,0,102,0,102,102,0,102,102,102,102,Fri Sep 22 13:05:48 2023,600,The main experiment item,FALSE,FlankerTaskLab21.osexp,C:\Users\katjo\OneDrive\Desktop,FALSE,mono,FALSE,18,no,white,no,yes,768,legacy,22,79,C:/Users/katjo/OneDrive/Desktop/KJ-subject-4 68M.csv,legacy,Melodramatic Milgram,4.0.5,0,s,NA,h,h,NA,s,415,NA,86866,33505,NA,415,2,legacy,1024,2,48000,-16,experiment,SSSSS,4,even,88800,262817,NA,NA,299558,1933,229312,288734,1930,291008,300580,NA,300680,301096,300579,300680,Flanker Task Lab 2.1,98,59043,103,1024
94,94,571,571,#000000,legacy,legacy,legacy,congruent,0,undefined,0,h,0,0,0,0,103,0,0,103,0,103,103,0,103,103,103,103,Fri Sep 22 13:05:48 2023,600,The main experiment item,FALSE,FlankerTaskLab21.osexp,C:\Users\katjo\OneDrive\Desktop,FALSE,mono,FALSE,18,no,white,no,yes,768,legacy,23,79,C:/Users/katjo/OneDrive/Desktop/KJ-subject-4 68M.csv,legacy,Melodramatic Milgram,4.0.5,0,s,NA,h,h,NA,s,418,NA,86866,33505,NA,418,2,legacy,1024,2,48000,-16,experiment,HHHHH,4,even,88800,262817,NA,NA,301122,1933,229312,288734,1930,291008,302154,NA,302255,302674,302153,302255,Flanker Task Lab 2.1,98,59461,104,1024
94,94,572,572,#000000,legacy,legacy,legacy,incongruent,1,undefined,1,h,0,0,0,0,104,0,0,104,0,104,104,0,104,104,104,104,Fri Sep 22 13:05:48 2023,600,The main experiment item,FALSE,FlankerTaskLab21.osexp,C:\Users\katjo\OneDrive\Desktop,FALSE,mono,FALSE,18,no,white,no,yes,768,legacy,24,79,C:/Users/katjo/OneDrive/Desktop/KJ-subject-4 68M.csv,legacy,Melodramatic Milgram,4.0.5,0,h,NA,h,h,NA,h,674,NA,86866,33505,NA,674,2,legacy,1024,2,48000,-16,experiment,SSHSS,4,even,88800,262817,NA,NA,303200,1933,229312,302700,1930,291008,304233,NA,304334,305008,304232,304334,Flanker Task Lab 2.1,99,60135,105,1024
94,94,571,571,#000000,legacy,legacy,legacy,congruent,1,undefined,1,s,0,0,0,0,105,0,0,105,0,105,105,0,105,105,105,105,Fri Sep 22 13:05:48 2023,600,The main experiment item,FALSE,FlankerTaskLab21.osexp,C:\Users\katjo\OneDrive\Desktop,FALSE,mono,FALSE,18,no,white,no,yes,768,legacy,25,79,C:/Users/katjo/OneDrive/Desktop/KJ-subject-4 68M.csv,legacy,Melodramatic Milgram,4.0.5,0,s,NA,h,h,NA,s,479,NA,86866,33505,NA,479,2,legacy,1024,2,48000,-16,experiment,SSSSS,4,even,88800,262817,NA,NA,305516,1933,229312,302700,1930,305015,306544,NA,306646,307126,306543,306646,Flanker Task Lab 2.1,100,60614,106,1024
94,94,571,571,#000000,legacy,legacy,legacy,incongruent,1,undefined,1,h,0,0,0,0,106,0,0,106,0,106,106,0,106,106,106,106,Fri Sep 22 13:05:48 2023,600,The main experiment item,FALSE,FlankerTaskLab21.osexp,C:\Users\katjo\OneDrive\Desktop,FALSE,mono,FALSE,18,no,white,no,yes,768,legacy,26,79,C:/Users/katjo/OneDrive/Desktop/KJ-subject-4 68M.csv,legacy,Melodramatic Milgram,4.0.5,0,h,NA,h,h,NA,h,521,NA,86866,33505,NA,521,2,legacy,1024,2,48000,-16,experiment,SSHSS,4,even,88800,262817,NA,NA,307132,1933,229312,302700,1930,305015,308158,NA,308259,308781,308157,308259,Flanker Task Lab 2.1,101,61135,107,1024
94,94,570,570,#000000,legacy,legacy,legacy,congruent,1,undefined,1,h,0,0,0,0,107,0,0,107,0,107,107,0,107,107,107,107,Fri Sep 22 13:05:48 2023,600,The main experiment item,FALSE,FlankerTaskLab21.osexp,C:\Users\katjo\OneDrive\Desktop,FALSE,mono,FALSE,18,no,white,no,yes,768,legacy,27,79,C:/Users/katjo/OneDrive/Desktop/KJ-subject-4 68M.csv,legacy,Melodramatic Milgram,4.0.5,0,h,NA,h,h,NA,h,484,NA,86866,33505,NA,484,2,legacy,1024,2,48000,-16,experiment,HHHHH,4,even,88800,262817,NA,NA,308807,1933,229312,302700,1930,305015,309828,NA,309929,310414,309827,309929,Flanker Task Lab 2.1,102,61619,108,1024
94,94,569,569,#000000,legacy,legacy,legacy,congruent,1,undefined,1,h,0,0,0,0,108,0,0,108,0,108,108,0,108,108,108,108,Fri Sep 22 13:05:48 2023,600,The main experiment item,FALSE,FlankerTaskLab21.osexp,C:\Users\katjo\OneDrive\Desktop,FALSE,mono,FALSE,18,no,white,no,yes,768,legacy,28,79,C:/Users/katjo/OneDrive/Desktop/KJ-subject-4 68M.csv,legacy,Melodramatic Milgram,4.0.5,0,h,NA,h,h,NA,h,450,NA,86866,33505,NA,450,2,legacy,1024,2,48000,-16,experiment,HHHHH,4,even,88800,262817,NA,NA,310421,1933,229312,302700,1930,305015,311463,NA,311563,312014,311462,311563,Flanker Task Lab 2.1,103,62069,109,1024
93,93,568,568,#000000,legacy,legacy,legacy,incongruent,0,undefined,0,s,0,0,0,0,109,0,0,109,0,109,109,0,109,109,109,109,Fri Sep 22 13:05:48 2023,600,The main experiment item,FALSE,FlankerTaskLab21.osexp,C:\Users\katjo\OneDrive\Desktop,FALSE,mono,FALSE,18,no,white,no,yes,768,legacy,29,79,C:/Users/katjo/OneDrive/Desktop/KJ-subject-4 68M.csv,legacy,Melodramatic Milgram,4.0.5,0,h,NA,h,h,NA,h,438,NA,86866,33505,NA,438,2,legacy,1024,2,48000,-16,experiment,HHSHH,4,even,88800,262817,NA,NA,312040,1933,229312,302700,1930,305015,313080,NA,313181,313620,313080,313181,Flanker Task Lab 2.1,103,62507,110,1024
93,93,568,568,#000000,legacy,legacy,legacy,incongruent,1,undefined,1,h,0,0,0,0,110,0,0,110,0,110,110,0,110,110,110,110,Fri Sep 22 13:05:48 2023,600,The main experiment item,FALSE,FlankerTaskLab21.osexp,C:\Users\katjo\OneDrive\Desktop,FALSE,mono,FALSE,18,no,white,no,yes,768,legacy,30,79,C:/Users/katjo/OneDrive/Desktop/KJ-subject-4 68M.csv,legacy,Melodramatic Milgram,4.0.5,0,h,NA,h,h,NA,h,606,NA,86866,33505,NA,606,2,legacy,1024,2,48000,-16,experiment,SSHSS,4,even,88800,262817,NA,NA,314145,1933,229312,313645,1930,305015,315170,NA,315270,315877,315169,315270,Flanker Task Lab 2.1,104,63113,111,1024
93,93,568,568,#000000,legacy,legacy,legacy,incongruent,1,undefined,1,s,0,0,0,0,111,0,0,111,0,111,111,0,111,111,111,111,Fri Sep 22 13:05:48 2023,600,The main experiment item,FALSE,FlankerTaskLab21.osexp,C:\Users\katjo\OneDrive\Desktop,FALSE,mono,FALSE,18,no,white,no,yes,768,legacy,31,79,C:/Users/katjo/OneDrive/Desktop/KJ-subject-4 68M.csv,legacy,Melodramatic Milgram,4.0.5,0,s,NA,h,h,NA,s,598,NA,86866,33505,NA,598,2,legacy,1024,2,48000,-16,experiment,HHSHH,4,even,88800,262817,NA,NA,316384,1933,229312,313645,1930,315883,317406,NA,317507,318105,317405,317507,Flanker Task Lab 2.1,105,63711,112,1024
93,93,569,569,#000000,legacy,legacy,legacy,incongruent,1,undefined,1,h,0,0,0,0,112,0,0,112,0,112,112,0,112,112,112,112,Fri Sep 22 13:05:48 2023,600,The main experiment item,FALSE,FlankerTaskLab21.osexp,C:\Users\katjo\OneDrive\Desktop,FALSE,mono,FALSE,18,no,white,no,yes,768,legacy,32,79,C:/Users/katjo/OneDrive/Desktop/KJ-subject-4 68M.csv,legacy,Melodramatic Milgram,4.0.5,0,h,NA,h,h,NA,h,603,NA,86866,33505,NA,603,2,legacy,1024,2,48000,-16,experiment,SSHSS,4,even,88800,262817,NA,NA,318112,1933,229312,313645,1930,315883,319134,NA,319235,319839,319133,319234,Flanker Task Lab 2.1,106,64314,113,1024
93,93,568,568,#000000,legacy,legacy,legacy,congruent,1,undefined,1,h,0,0,0,0,113,0,0,113,0,113,113,0,113,113,113,113,Fri Sep 22 13:05:48 2023,600,The main experiment item,FALSE,FlankerTaskLab21.osexp,C:\Users\katjo\OneDrive\Desktop,FALSE,mono,FALSE,18,no,white,no,yes,768,legacy,33,79,C:/Users/katjo/OneDrive/Desktop/KJ-subject-4 68M.csv,legacy,Melodramatic Milgram,4.0.5,0,h,NA,h,h,NA,h,541,NA,86866,33505,NA,541,2,legacy,1024,2,48000,-16,experiment,HHHHH,4,even,88800,262817,NA,NA,320343,1933,229312,313645,1930,319843,321374,NA,321474,322015,321373,321474,Flanker Task Lab 2.1,107,64855,114,1024
93,93,568,568,#000000,legacy,legacy,legacy,incongruent,1,undefined,1,s,0,0,0,0,114,0,0,114,0,114,114,0,114,114,114,114,Fri Sep 22 13:05:48 2023,600,The main experiment item,FALSE,FlankerTaskLab21.osexp,C:\Users\katjo\OneDrive\Desktop,FALSE,mono,FALSE,18,no,white,no,yes,768,legacy,34,79,C:/Users/katjo/OneDrive/Desktop/KJ-subject-4 68M.csv,legacy,Melodramatic Milgram,4.0.5,0,s,NA,h,h,NA,s,571,NA,86866,33505,NA,571,2,legacy,1024,2,48000,-16,experiment,HHSHH,4,even,88800,262817,NA,NA,322022,1933,229312,313645,1930,319843,323060,NA,323160,323732,323059,323160,Flanker Task Lab 2.1,108,65426,115,1024
93,93,569,569,#000000,legacy,legacy,legacy,incongruent,1,undefined,1,h,0,0,0,0,115,0,0,115,0,115,115,0,115,115,115,115,Fri Sep 22 13:05:48 2023,600,The main experiment item,FALSE,FlankerTaskLab21.osexp,C:\Users\katjo\OneDrive\Desktop,FALSE,mono,FALSE,18,no,white,no,yes,768,legacy,35,79,C:/Users/katjo/OneDrive/Desktop/KJ-subject-4 68M.csv,legacy,Melodramatic Milgram,4.0.5,0,h,NA,h,h,NA,h,658,NA,86866,33505,NA,658,2,legacy,1024,2,48000,-16,experiment,SSHSS,4,even,88800,262817,NA,NA,323738,1933,229312,313645,1930,319843,324760,NA,324860,325519,324759,324860,Flanker Task Lab 2.1,109,66084,116,1024
94,94,569,569,#000000,legacy,legacy,legacy,incongruent,1,undefined,1,s,0,0,0,0,116,0,0,116,0,116,116,0,116,116,116,116,Fri Sep 22 13:05:48 2023,600,The main experiment item,FALSE,FlankerTaskLab21.osexp,C:\Users\katjo\OneDrive\Desktop,FALSE,mono,FALSE,18,no,white,no,yes,768,legacy,36,79,C:/Users/katjo/OneDrive/Desktop/KJ-subject-4 68M.csv,legacy,Melodramatic Milgram,4.0.5,0,s,NA,h,h,NA,s,509,NA,86866,33505,NA,509,2,legacy,1024,2,48000,-16,experiment,HHSHH,4,even,88800,262817,NA,NA,326026,1933,229312,313645,1930,325525,327049,NA,327150,327660,327049,327150,Flanker Task Lab 2.1,110,66593,117,1024
94,94,568,568,#000000,legacy,legacy,legacy,congruent,1,undefined,1,s,0,0,0,0,117,0,0,117,0,117,117,0,117,117,117,117,Fri Sep 22 13:05:48 2023,600,The main experiment item,FALSE,FlankerTaskLab21.osexp,C:\Users\katjo\OneDrive\Desktop,FALSE,mono,FALSE,18,no,white,no,yes,768,legacy,37,79,C:/Users/katjo/OneDrive/Desktop/KJ-subject-4 68M.csv,legacy,Melodramatic Milgram,4.0.5,0,s,NA,h,h,NA,s,444,NA,86866,33505,NA,444,2,legacy,1024,2,48000,-16,experiment,SSSSS,4,even,88800,262817,NA,NA,327686,1933,229312,313645,1930,325525,328726,NA,328827,329272,328726,328827,Flanker Task Lab 2.1,111,67037,118,1024
94,94,567,567,#000000,legacy,legacy,legacy,congruent,1,undefined,1,h,0,0,0,0,118,0,0,118,0,118,118,0,118,118,118,118,Fri Sep 22 13:05:48 2023,600,The main experiment item,FALSE,FlankerTaskLab21.osexp,C:\Users\katjo\OneDrive\Desktop,FALSE,mono,FALSE,18,no,white,no,yes,768,legacy,38,79,C:/Users/katjo/OneDrive/Desktop/KJ-subject-4 68M.csv,legacy,Melodramatic Milgram,4.0.5,0,h,NA,h,h,NA,h,533,NA,86866,33505,NA,533,2,legacy,1024,2,48000,-16,experiment,HHHHH,4,even,88800,262817,NA,NA,329285,1933,229312,313645,1930,325525,330321,NA,330422,330956,330320,330422,Flanker Task Lab 2.1,112,67570,119,1024
94,94,568,568,#000000,legacy,legacy,legacy,incongruent,1,undefined,1,s,0,0,0,0,119,0,0,119,0,119,119,0,119,119,119,119,Fri Sep 22 13:05:48 2023,600,The main experiment item,FALSE,FlankerTaskLab21.osexp,C:\Users\katjo\OneDrive\Desktop,FALSE,mono,FALSE,18,no,white,no,yes,768,legacy,39,79,C:/Users/katjo/OneDrive/Desktop/KJ-subject-4 68M.csv,legacy,Melodramatic Milgram,4.0.5,0,s,NA,h,h,NA,s,594,NA,86866,33505,NA,594,2,legacy,1024,2,48000,-16,experiment,HHSHH,4,even,88800,262817,NA,NA,330962,1933,229312,313645,1930,325525,331983,NA,332085,332680,331983,332084,Flanker Task Lab 2.1,113,68164,120,1024
93,93,567,567,#000000,legacy,legacy,legacy,incongruent,0,undefined,0,h,0,0,0,0,120,0,0,120,0,120,120,0,120,120,120,120,Fri Sep 22 13:05:48 2023,600,The main experiment item,FALSE,FlankerTaskLab21.osexp,C:\Users\katjo\OneDrive\Desktop,FALSE,mono,FALSE,18,no,white,no,yes,768,legacy,40,79,C:/Users/katjo/OneDrive/Desktop/KJ-subject-4 68M.csv,legacy,Melodramatic Milgram,4.0.5,0,s,NA,h,h,NA,s,454,NA,86866,33505,NA,454,2,legacy,1024,2,48000,-16,experiment,SSHSS,4,even,88800,262817,NA,NA,332686,1933,229312,313645,1930,325525,333708,NA,333808,334262,333708,333808,Flanker Task Lab 2.1,113,68618,121,1024
93,93,567,567,#000000,legacy,legacy,legacy,incongruent,1,undefined,1,h,0,0,0,0,121,0,0,121,0,121,121,0,121,121,121,121,Fri Sep 22 13:05:48 2023,600,The main experiment item,FALSE,FlankerTaskLab21.osexp,C:\Users\katjo\OneDrive\Desktop,FALSE,mono,FALSE,18,no,white,no,yes,768,legacy,41,79,C:/Users/katjo/OneDrive/Desktop/KJ-subject-4 68M.csv,legacy,Melodramatic Milgram,4.0.5,0,h,NA,h,h,NA,h,634,NA,86866,33505,NA,634,2,legacy,1024,2,48000,-16,experiment,SSHSS,4,even,88800,262817,NA,NA,334769,1933,229312,334269,1930,325525,335812,NA,335913,336548,335811,335913,Flanker Task Lab 2.1,114,69252,122,1024
93,93,567,567,#000000,legacy,legacy,legacy,incongruent,1,undefined,1,s,0,0,0,0,122,0,0,122,0,122,122,0,122,122,122,122,Fri Sep 22 13:05:48 2023,600,The main experiment item,FALSE,FlankerTaskLab21.osexp,C:\Users\katjo\OneDrive\Desktop,FALSE,mono,FALSE,18,no,white,no,yes,768,legacy,42,79,C:/Users/katjo/OneDrive/Desktop/KJ-subject-4 68M.csv,legacy,Melodramatic Milgram,4.0.5,0,s,NA,h,h,NA,s,586,NA,86866,33505,NA,586,2,legacy,1024,2,48000,-16,experiment,HHSHH,4,even,88800,262817,NA,NA,337055,1933,229312,334269,1930,336555,338076,NA,338176,338763,338076,338176,Flanker Task Lab 2.1,115,69838,123,1024
93,93,567,567,#000000,legacy,legacy,legacy,incongruent,1,undefined,1,s,0,0,0,0,123,0,0,123,0,123,123,0,123,123,123,123,Fri Sep 22 13:05:48 2023,600,The main experiment item,FALSE,FlankerTaskLab21.osexp,C:\Users\katjo\OneDrive\Desktop,FALSE,mono,FALSE,18,no,white,no,yes,768,legacy,43,79,C:/Users/katjo/OneDrive/Desktop/KJ-subject-4 68M.csv,legacy,Melodramatic Milgram,4.0.5,0,s,NA,h,h,NA,s,523,NA,86866,33505,NA,523,2,legacy,1024,2,48000,-16,experiment,HHSHH,4,even,88800,262817,NA,NA,338789,1933,229312,334269,1930,336555,339817,NA,339917,340441,339816,339917,Flanker Task Lab 2.1,116,70361,124,1024
92,92,566,566,#000000,legacy,legacy,legacy,congruent,0,undefined,0,h,0,0,0,0,124,0,0,124,0,124,124,0,124,124,124,124,Fri Sep 22 13:05:48 2023,600,The main experiment item,FALSE,FlankerTaskLab21.osexp,C:\Users\katjo\OneDrive\Desktop,FALSE,mono,FALSE,18,no,white,no,yes,768,legacy,44,79,C:/Users/katjo/OneDrive/Desktop/KJ-subject-4 68M.csv,legacy,Melodramatic Milgram,4.0.5,0,s,NA,h,h,NA,s,507,NA,86866,33505,NA,507,2,legacy,1024,2,48000,-16,experiment,HHHHH,4,even,88800,262817,NA,NA,340447,1933,229312,334269,1930,336555,341483,NA,341583,342091,341482,341583,Flanker Task Lab 2.1,116,70868,125,1024
92,92,567,567,#000000,legacy,legacy,legacy,incongruent,1,undefined,1,s,0,0,0,0,125,0,0,125,0,125,125,0,125,125,125,125,Fri Sep 22 13:05:48 2023,600,The main experiment item,FALSE,FlankerTaskLab21.osexp,C:\Users\katjo\OneDrive\Desktop,FALSE,mono,FALSE,18,no,white,no,yes,768,legacy,45,79,C:/Users/katjo/OneDrive/Desktop/KJ-subject-4 68M.csv,legacy,Melodramatic Milgram,4.0.5,0,s,NA,h,h,NA,s,688,NA,86866,33505,NA,688,2,legacy,1024,2,48000,-16,experiment,HHSHH,4,even,88800,262817,NA,NA,342617,1933,229312,342117,1930,336555,343644,NA,343745,344434,343644,343745,Flanker Task Lab 2.1,117,71556,126,1024
92,92,568,568,#000000,legacy,legacy,legacy,congruent,1,undefined,1,s,0,0,0,0,126,0,0,126,0,126,126,0,126,126,126,126,Fri Sep 22 13:05:48 2023,600,The main experiment item,FALSE,FlankerTaskLab21.osexp,C:\Users\katjo\OneDrive\Desktop,FALSE,mono,FALSE,18,no,white,no,yes,768,legacy,46,79,C:/Users/katjo/OneDrive/Desktop/KJ-subject-4 68M.csv,legacy,Melodramatic Milgram,4.0.5,0,s,NA,h,h,NA,s,595,NA,86866,33505,NA,595,2,legacy,1024,2,48000,-16,experiment,SSSSS,4,even,88800,262817,NA,NA,344942,1933,229312,342117,1930,344441,345985,NA,346085,346681,345984,346085,Flanker Task Lab 2.1,118,72151,127,1024
92,92,568,568,#000000,legacy,legacy,legacy,incongruent,1,undefined,1,h,0,0,0,0,127,0,0,127,0,127,127,0,127,127,127,127,Fri Sep 22 13:05:48 2023,600,The main experiment item,FALSE,FlankerTaskLab21.osexp,C:\Users\katjo\OneDrive\Desktop,FALSE,mono,FALSE,18,no,white,no,yes,768,legacy,47,79,C:/Users/katjo/OneDrive/Desktop/KJ-subject-4 68M.csv,legacy,Melodramatic Milgram,4.0.5,0,h,NA,h,h,NA,h,617,NA,86866,33505,NA,617,2,legacy,1024,2,48000,-16,experiment,SSHSS,4,even,88800,262817,NA,NA,346688,1933,229312,342117,1930,344441,347711,NA,347811,348429,347710,347811,Flanker Task Lab 2.1,119,72768,128,1024
93,93,567,567,#000000,legacy,legacy,legacy,congruent,1,undefined,1,s,0,0,0,0,128,0,0,128,0,128,128,0,128,128,128,128,Fri Sep 22 13:05:48 2023,600,The main experiment item,FALSE,FlankerTaskLab21.osexp,C:\Users\katjo\OneDrive\Desktop,FALSE,mono,FALSE,18,no,white,no,yes,768,legacy,48,79,C:/Users/katjo/OneDrive/Desktop/KJ-subject-4 68M.csv,legacy,Melodramatic Milgram,4.0.5,0,s,NA,h,h,NA,s,439,NA,86866,33505,NA,439,2,legacy,1024,2,48000,-16,experiment,SSSSS,4,even,88800,262817,NA,NA,348933,1933,229312,342117,1930,348433,349957,NA,350058,350497,349956,350057,Flanker Task Lab 2.1,120,73207,129,1024
93,93,567,567,#000000,legacy,legacy,legacy,congruent,1,undefined,1,h,0,0,0,0,129,0,0,129,0,129,129,0,129,129,129,129,Fri Sep 22 13:05:48 2023,600,The main experiment item,FALSE,FlankerTaskLab21.osexp,C:\Users\katjo\OneDrive\Desktop,FALSE,mono,FALSE,18,no,white,no,yes,768,legacy,49,79,C:/Users/katjo/OneDrive/Desktop/KJ-subject-4 68M.csv,legacy,Melodramatic Milgram,4.0.5,0,h,NA,h,h,NA,h,520,NA,86866,33505,NA,520,2,legacy,1024,2,48000,-16,experiment,HHHHH,4,even,88800,262817,NA,NA,350504,1933,229312,342117,1930,348433,351546,NA,351647,352168,351545,351647,Flanker Task Lab 2.1,121,73727,130,1024
93,93,566,566,#000000,legacy,legacy,legacy,congruent,1,undefined,1,h,0,0,0,0,130,0,0,130,0,130,130,0,130,130,130,130,Fri Sep 22 13:05:48 2023,600,The main experiment item,FALSE,FlankerTaskLab21.osexp,C:\Users\katjo\OneDrive\Desktop,FALSE,mono,FALSE,18,no,white,no,yes,768,legacy,50,79,C:/Users/katjo/OneDrive/Desktop/KJ-subject-4 68M.csv,legacy,Melodramatic Milgram,4.0.5,0,h,NA,h,h,NA,h,516,NA,86866,33505,NA,516,2,legacy,1024,2,48000,-16,experiment,HHHHH,4,even,88800,262817,NA,NA,352195,1933,229312,342117,1930,348433,353220,NA,353320,353836,353219,353320,Flanker Task Lab 2.1,122,74243,131,1024
93,93,567,567,#000000,legacy,legacy,legacy,incongruent,1,undefined,1,h,0,0,0,0,131,0,0,131,0,131,131,0,131,131,131,131,Fri Sep 22 13:05:48 2023,600,The main experiment item,FALSE,FlankerTaskLab21.osexp,C:\Users\katjo\OneDrive\Desktop,FALSE,mono,FALSE,18,no,white,no,yes,768,legacy,51,79,C:/Users/katjo/OneDrive/Desktop/KJ-subject-4 68M.csv,legacy,Melodramatic Milgram,4.0.5,0,h,NA,h,h,NA,h,620,NA,86866,33505,NA,620,2,legacy,1024,2,48000,-16,experiment,SSHSS,4,even,88800,262817,NA,NA,353838,1933,229312,342117,1930,348433,354862,NA,354963,355584,354861,354963,Flanker Task Lab 2.1,123,74863,132,1024
93,93,566,566,#000000,legacy,legacy,legacy,incongruent,1,undefined,1,s,0,0,0,0,132,0,0,132,0,132,132,0,132,132,132,132,Fri Sep 22 13:05:48 2023,600,The main experiment item,FALSE,FlankerTaskLab21.osexp,C:\Users\katjo\OneDrive\Desktop,FALSE,mono,FALSE,18,no,white,no,yes,768,legacy,52,79,C:/Users/katjo/OneDrive/Desktop/KJ-subject-4 68M.csv,legacy,Melodramatic Milgram,4.0.5,0,s,NA,h,h,NA,s,415,NA,86866,33505,NA,415,2,legacy,1024,2,48000,-16,experiment,HHSHH,4,even,88800,262817,NA,NA,356091,1933,229312,342117,1930,355591,357117,NA,357217,357633,357116,357217,Flanker Task Lab 2.1,124,75278,133,1024
92,92,564,564,#000000,legacy,legacy,legacy,incongruent,0,undefined,0,s,0,0,0,0,133,0,0,133,0,133,133,0,133,133,133,133,Fri Sep 22 13:05:48 2023,600,The main experiment item,FALSE,FlankerTaskLab21.osexp,C:\Users\katjo\OneDrive\Desktop,FALSE,mono,FALSE,18,no,white,no,yes,768,legacy,53,79,C:/Users/katjo/OneDrive/Desktop/KJ-subject-4 68M.csv,legacy,Melodramatic Milgram,4.0.5,0,h,NA,h,h,NA,h,377,NA,86866,33505,NA,377,2,legacy,1024,2,48000,-16,experiment,HHSHH,4,even,88800,262817,NA,NA,357639,1933,229312,342117,1930,355591,358660,NA,358761,359139,358658,358761,Flanker Task Lab 2.1,124,75655,134,1024
92,92,564,564,#000000,legacy,legacy,legacy,congruent,1,undefined,1,h,0,0,0,0,134,0,0,134,0,134,134,0,134,134,134,134,Fri Sep 22 13:05:48 2023,600,The main experiment item,FALSE,FlankerTaskLab21.osexp,C:\Users\katjo\OneDrive\Desktop,FALSE,mono,FALSE,18,no,white,no,yes,768,legacy,54,79,C:/Users/katjo/OneDrive/Desktop/KJ-subject-4 68M.csv,legacy,Melodramatic Milgram,4.0.5,0,h,NA,h,h,NA,h,493,NA,86866,33505,NA,493,2,legacy,1024,2,48000,-16,experiment,HHHHH,4,even,88800,262817,NA,NA,359646,1933,229312,359146,1930,355591,360667,NA,360767,361260,360666,360767,Flanker Task Lab 2.1,125,76148,135,1024
92,92,564,564,#000000,legacy,legacy,legacy,congruent,1,undefined,1,s,0,0,0,0,135,0,0,135,0,135,135,0,135,135,135,135,Fri Sep 22 13:05:48 2023,600,The main experiment item,FALSE,FlankerTaskLab21.osexp,C:\Users\katjo\OneDrive\Desktop,FALSE,mono,FALSE,18,no,white,no,yes,768,legacy,55,79,C:/Users/katjo/OneDrive/Desktop/KJ-subject-4 68M.csv,legacy,Melodramatic Milgram,4.0.5,0,s,NA,h,h,NA,s,597,NA,86866,33505,NA,597,2,legacy,1024,2,48000,-16,experiment,SSSSS,4,even,88800,262817,NA,NA,361267,1933,229312,359146,1930,355591,362290,NA,362391,362988,362290,362391,Flanker Task Lab 2.1,126,76745,136,1024
92,92,564,564,#000000,legacy,legacy,legacy,incongruent,1,undefined,1,s,0,0,0,0,136,0,0,136,0,136,136,0,136,136,136,136,Fri Sep 22 13:05:48 2023,600,The main experiment item,FALSE,FlankerTaskLab21.osexp,C:\Users\katjo\OneDrive\Desktop,FALSE,mono,FALSE,18,no,white,no,yes,768,legacy,56,79,C:/Users/katjo/OneDrive/Desktop/KJ-subject-4 68M.csv,legacy,Melodramatic Milgram,4.0.5,0,s,NA,h,h,NA,s,654,NA,86866,33505,NA,654,2,legacy,1024,2,48000,-16,experiment,HHSHH,4,even,88800,262817,NA,NA,363014,1933,229312,359146,1930,355591,364036,NA,364137,364792,364036,364137,Flanker Task Lab 2.1,127,77399,137,1024
92,92,564,564,#000000,legacy,legacy,legacy,congruent,1,undefined,1,s,0,0,0,0,137,0,0,137,0,137,137,0,137,137,137,137,Fri Sep 22 13:05:48 2023,600,The main experiment item,FALSE,FlankerTaskLab21.osexp,C:\Users\katjo\OneDrive\Desktop,FALSE,mono,FALSE,18,no,white,no,yes,768,legacy,57,79,C:/Users/katjo/OneDrive/Desktop/KJ-subject-4 68M.csv,legacy,Melodramatic Milgram,4.0.5,0,s,NA,h,h,NA,s,522,NA,86866,33505,NA,522,2,legacy,1024,2,48000,-16,experiment,SSSSS,4,even,88800,262817,NA,NA,365298,1933,229312,359146,1930,364798,366322,NA,366422,366944,366321,366422,Flanker Task Lab 2.1,128,77921,138,1024
92,92,564,564,#000000,legacy,legacy,legacy,congruent,1,undefined,1,h,0,0,0,0,138,0,0,138,0,138,138,0,138,138,138,138,Fri Sep 22 13:05:48 2023,600,The main experiment item,FALSE,FlankerTaskLab21.osexp,C:\Users\katjo\OneDrive\Desktop,FALSE,mono,FALSE,18,no,white,no,yes,768,legacy,58,79,C:/Users/katjo/OneDrive/Desktop/KJ-subject-4 68M.csv,legacy,Melodramatic Milgram,4.0.5,0,h,NA,h,h,NA,h,594,NA,86866,33505,NA,594,2,legacy,1024,2,48000,-16,experiment,HHHHH,4,even,88800,262817,NA,NA,366951,1933,229312,359146,1930,364798,367973,NA,368074,368669,367972,368073,Flanker Task Lab 2.1,129,78515,139,1024
92,92,563,563,#000000,legacy,legacy,legacy,congruent,1,undefined,1,h,0,0,0,0,139,0,0,139,0,139,139,0,139,139,139,139,Fri Sep 22 13:05:48 2023,600,The main experiment item,FALSE,FlankerTaskLab21.osexp,C:\Users\katjo\OneDrive\Desktop,FALSE,mono,FALSE,18,no,white,no,yes,768,legacy,59,79,C:/Users/katjo/OneDrive/Desktop/KJ-subject-4 68M.csv,legacy,Melodramatic Milgram,4.0.5,0,h,NA,h,h,NA,h,432,NA,86866,33505,NA,432,2,legacy,1024,2,48000,-16,experiment,HHHHH,4,even,88800,262817,NA,NA,368675,1933,229312,359146,1930,364798,369698,NA,369799,370232,369697,369799,Flanker Task Lab 2.1,130,78947,140,1024
92,92,563,563,#000000,legacy,legacy,legacy,congruent,1,undefined,1,h,0,0,0,0,140,0,0,140,0,140,140,0,140,140,140,140,Fri Sep 22 13:05:48 2023,600,The main experiment item,FALSE,FlankerTaskLab21.osexp,C:\Users\katjo\OneDrive\Desktop,FALSE,mono,FALSE,18,no,white,no,yes,768,legacy,60,79,C:/Users/katjo/OneDrive/Desktop/KJ-subject-4 68M.csv,legacy,Melodramatic Milgram,4.0.5,0,h,NA,h,h,NA,h,505,NA,86866,33505,NA,505,2,legacy,1024,2,48000,-16,experiment,HHHHH,4,even,88800,262817,NA,NA,370239,1933,229312,359146,1930,364798,371260,NA,371361,371867,371259,371361,Flanker Task Lab 2.1,131,79452,141,1024
92,92,562,562,#000000,legacy,legacy,legacy,congruent,1,undefined,1,s,0,0,0,0,141,0,0,141,0,141,141,0,141,141,141,141,Fri Sep 22 13:05:48 2023,600,The main experiment item,FALSE,FlankerTaskLab21.osexp,C:\Users\katjo\OneDrive\Desktop,FALSE,mono,FALSE,18,no,white,no,yes,768,legacy,61,79,C:/Users/katjo/OneDrive/Desktop/KJ-subject-4 68M.csv,legacy,Melodramatic Milgram,4.0.5,0,s,NA,h,h,NA,s,457,NA,86866,33505,NA,457,2,legacy,1024,2,48000,-16,experiment,SSSSS,4,even,88800,262817,NA,NA,371894,1933,229312,359146,1930,364798,372936,NA,373036,373493,372935,373036,Flanker Task Lab 2.1,132,79909,142,1024
93,93,562,562,#000000,legacy,legacy,legacy,incongruent,1,undefined,1,h,0,0,0,0,142,0,0,142,0,142,142,0,142,142,142,142,Fri Sep 22 13:05:48 2023,600,The main experiment item,FALSE,FlankerTaskLab21.osexp,C:\Users\katjo\OneDrive\Desktop,FALSE,mono,FALSE,18,no,white,no,yes,768,legacy,62,79,C:/Users/katjo/OneDrive/Desktop/KJ-subject-4 68M.csv,legacy,Melodramatic Milgram,4.0.5,0,h,NA,h,h,NA,h,579,NA,86866,33505,NA,579,2,legacy,1024,2,48000,-16,experiment,SSHSS,4,even,88800,262817,NA,NA,373500,1933,229312,359146,1930,364798,374522,NA,374623,375203,374521,374623,Flanker Task Lab 2.1,133,80488,143,1024
93,93,562,562,#000000,legacy,legacy,legacy,congruent,1,undefined,1,s,0,0,0,0,143,0,0,143,0,143,143,0,143,143,143,143,Fri Sep 22 13:05:48 2023,600,The main experiment item,FALSE,FlankerTaskLab21.osexp,C:\Users\katjo\OneDrive\Desktop,FALSE,mono,FALSE,18,no,white,no,yes,768,legacy,63,79,C:/Users/katjo/OneDrive/Desktop/KJ-subject-4 68M.csv,legacy,Melodramatic Milgram,4.0.5,0,s,NA,h,h,NA,s,487,NA,86866,33505,NA,487,2,legacy,1024,2,48000,-16,experiment,SSSSS,4,even,88800,262817,NA,NA,375210,1933,229312,359146,1930,364798,376242,NA,376343,376830,376241,376343,Flanker Task Lab 2.1,134,80975,144,1024
93,93,561,561,#000000,legacy,legacy,legacy,incongruent,1,undefined,1,h,0,0,0,0,144,0,0,144,0,144,144,0,144,144,144,144,Fri Sep 22 13:05:48 2023,600,The main experiment item,FALSE,FlankerTaskLab21.osexp,C:\Users\katjo\OneDrive\Desktop,FALSE,mono,FALSE,18,no,white,no,yes,768,legacy,64,79,C:/Users/katjo/OneDrive/Desktop/KJ-subject-4 68M.csv,legacy,Melodramatic Milgram,4.0.5,0,h,NA,h,h,NA,h,489,NA,86866,33505,NA,489,2,legacy,1024,2,48000,-16,experiment,SSHSS,4,even,88800,262817,NA,NA,376837,1933,229312,359146,1930,364798,377863,NA,377963,378453,377862,377963,Flanker Task Lab 2.1,135,81464,145,1024
93,93,560,560,#000000,legacy,legacy,legacy,congruent,1,undefined,1,s,0,0,0,0,145,0,0,145,0,145,145,0,145,145,145,145,Fri Sep 22 13:05:48 2023,600,The main experiment item,FALSE,FlankerTaskLab21.osexp,C:\Users\katjo\OneDrive\Desktop,FALSE,mono,FALSE,18,no,white,no,yes,768,legacy,65,79,C:/Users/katjo/OneDrive/Desktop/KJ-subject-4 68M.csv,legacy,Melodramatic Milgram,4.0.5,0,s,NA,h,h,NA,s,396,NA,86866,33505,NA,396,2,legacy,1024,2,48000,-16,experiment,SSSSS,4,even,88800,262817,NA,NA,378459,1933,229312,359146,1930,364798,379482,NA,379583,379980,379481,379583,Flanker Task Lab 2.1,136,81860,146,1024
92,92,559,559,#000000,legacy,legacy,legacy,congruent,0,undefined,0,s,0,0,0,0,146,0,0,146,0,146,146,0,146,146,146,146,Fri Sep 22 13:05:48 2023,600,The main experiment item,FALSE,FlankerTaskLab21.osexp,C:\Users\katjo\OneDrive\Desktop,FALSE,mono,FALSE,18,no,white,no,yes,768,legacy,66,79,C:/Users/katjo/OneDrive/Desktop/KJ-subject-4 68M.csv,legacy,Melodramatic Milgram,4.0.5,0,h,NA,h,h,NA,h,375,NA,86866,33505,NA,375,2,legacy,1024,2,48000,-16,experiment,SSSSS,4,even,88800,262817,NA,NA,379986,1933,229312,359146,1930,364798,381010,NA,381110,381486,381009,381110,Flanker Task Lab 2.1,136,82235,147,1024
92,92,558,558,#000000,legacy,legacy,legacy,incongruent,1,undefined,1,h,0,0,0,0,147,0,0,147,0,147,147,0,147,147,147,147,Fri Sep 22 13:05:48 2023,600,The main experiment item,FALSE,FlankerTaskLab21.osexp,C:\Users\katjo\OneDrive\Desktop,FALSE,mono,FALSE,18,no,white,no,yes,768,legacy,67,79,C:/Users/katjo/OneDrive/Desktop/KJ-subject-4 68M.csv,legacy,Melodramatic Milgram,4.0.5,0,h,NA,h,h,NA,h,470,NA,86866,33505,NA,470,2,legacy,1024,2,48000,-16,experiment,SSHSS,4,even,88800,262817,NA,NA,382012,1933,229312,381512,1930,364798,383034,NA,383135,383606,383033,383135,Flanker Task Lab 2.1,137,82705,148,1024
92,92,558,558,#000000,legacy,legacy,legacy,congruent,1,undefined,1,s,0,0,0,0,148,0,0,148,0,148,148,0,148,148,148,148,Fri Sep 22 13:05:48 2023,600,The main experiment item,FALSE,FlankerTaskLab21.osexp,C:\Users\katjo\OneDrive\Desktop,FALSE,mono,FALSE,18,no,white,no,yes,768,legacy,68,79,C:/Users/katjo/OneDrive/Desktop/KJ-subject-4 68M.csv,legacy,Melodramatic Milgram,4.0.5,0,s,NA,h,h,NA,s,538,NA,86866,33505,NA,538,2,legacy,1024,2,48000,-16,experiment,SSSSS,4,even,88800,262817,NA,NA,383613,1933,229312,381512,1930,364798,384655,NA,384756,385295,384654,384756,Flanker Task Lab 2.1,138,83243,149,1024
92,92,557,557,#000000,legacy,legacy,legacy,incongruent,0,undefined,0,h,0,0,0,0,149,0,0,149,0,149,149,0,149,149,149,149,Fri Sep 22 13:05:48 2023,600,The main experiment item,FALSE,FlankerTaskLab21.osexp,C:\Users\katjo\OneDrive\Desktop,FALSE,mono,FALSE,18,no,white,no,yes,768,legacy,69,79,C:/Users/katjo/OneDrive/Desktop/KJ-subject-4 68M.csv,legacy,Melodramatic Milgram,4.0.5,0,s,NA,h,h,NA,s,403,NA,86866,33505,NA,403,2,legacy,1024,2,48000,-16,experiment,SSHSS,4,even,88800,262817,NA,NA,385301,1933,229312,381512,1930,364798,386334,NA,386434,386838,386333,386434,Flanker Task Lab 2.1,138,83646,150,1024
92,92,558,558,#000000,legacy,legacy,legacy,incongruent,1,undefined,1,h,0,0,0,0,150,0,0,150,0,150,150,0,150,150,150,150,Fri Sep 22 13:05:48 2023,600,The main experiment item,FALSE,FlankerTaskLab21.osexp,C:\Users\katjo\OneDrive\Desktop,FALSE,mono,FALSE,18,no,white,no,yes,768,legacy,70,79,C:/Users/katjo/OneDrive/Desktop/KJ-subject-4 68M.csv,legacy,Melodramatic Milgram,4.0.5,0,h,NA,h,h,NA,h,659,NA,86866,33505,NA,659,2,legacy,1024,2,48000,-16,experiment,SSHSS,4,even,88800,262817,NA,NA,387345,1933,229312,386845,1930,364798,388374,NA,388475,389135,388373,388475,Flanker Task Lab 2.1,139,84305,151,1024
92,92,558,558,#000000,legacy,legacy,legacy,incongruent,1,undefined,1,s,0,0,0,0,151,0,0,151,0,151,151,0,151,151,151,151,Fri Sep 22 13:05:48 2023,600,The main experiment item,FALSE,FlankerTaskLab21.osexp,C:\Users\katjo\OneDrive\Desktop,FALSE,mono,FALSE,18,no,white,no,yes,768,legacy,71,79,C:/Users/katjo/OneDrive/Desktop/KJ-subject-4 68M.csv,legacy,Melodramatic Milgram,4.0.5,0,s,NA,h,h,NA,s,594,NA,86866,33505,NA,594,2,legacy,1024,2,48000,-16,experiment,HHSHH,4,even,88800,262817,NA,NA,389638,1933,229312,386845,1930,389138,390667,NA,390768,391363,390666,390768,Flanker Task Lab 2.1,140,84899,152,1024
92,92,558,558,#000000,legacy,legacy,legacy,incongruent,1,undefined,1,h,0,0,0,0,152,0,0,152,0,152,152,0,152,152,152,152,Fri Sep 22 13:05:48 2023,600,The main experiment item,FALSE,FlankerTaskLab21.osexp,C:\Users\katjo\OneDrive\Desktop,FALSE,mono,FALSE,18,no,white,no,yes,768,legacy,72,79,C:/Users/katjo/OneDrive/Desktop/KJ-subject-4 68M.csv,legacy,Melodramatic Milgram,4.0.5,0,h,NA,h,h,NA,h,563,NA,86866,33505,NA,563,2,legacy,1024,2,48000,-16,experiment,SSHSS,4,even,88800,262817,NA,NA,391370,1933,229312,386845,1930,389138,392395,NA,392495,393059,392394,392495,Flanker Task Lab 2.1,141,85462,153,1024
92,92,558,558,#000000,legacy,legacy,legacy,congruent,1,undefined,1,s,0,0,0,0,153,0,0,153,0,153,153,0,153,153,153,153,Fri Sep 22 13:05:48 2023,600,The main experiment item,FALSE,FlankerTaskLab21.osexp,C:\Users\katjo\OneDrive\Desktop,FALSE,mono,FALSE,18,no,white,no,yes,768,legacy,73,79,C:/Users/katjo/OneDrive/Desktop/KJ-subject-4 68M.csv,legacy,Melodramatic Milgram,4.0.5,0,s,NA,h,h,NA,s,539,NA,86866,33505,NA,539,2,legacy,1024,2,48000,-16,experiment,SSSSS,4,even,88800,262817,NA,NA,393065,1933,229312,386845,1930,389138,394087,NA,394188,394728,394086,394188,Flanker Task Lab 2.1,142,86001,154,1024
92,92,558,558,#000000,legacy,legacy,legacy,incongruent,1,undefined,1,h,0,0,0,0,154,0,0,154,0,154,154,0,154,154,154,154,Fri Sep 22 13:05:48 2023,600,The main experiment item,FALSE,FlankerTaskLab21.osexp,C:\Users\katjo\OneDrive\Desktop,FALSE,mono,FALSE,18,no,white,no,yes,768,legacy,74,79,C:/Users/katjo/OneDrive/Desktop/KJ-subject-4 68M.csv,legacy,Melodramatic Milgram,4.0.5,0,h,NA,h,h,NA,h,567,NA,86866,33505,NA,567,2,legacy,1024,2,48000,-16,experiment,SSHSS,4,even,88800,262817,NA,NA,394730,1933,229312,386845,1930,389138,395760,NA,395860,396428,395759,395860,Flanker Task Lab 2.1,143,86568,155,1024
92,92,557,557,#000000,legacy,legacy,legacy,congruent,1,undefined,1,s,0,0,0,0,155,0,0,155,0,155,155,0,155,155,155,155,Fri Sep 22 13:05:48 2023,600,The main experiment item,FALSE,FlankerTaskLab21.osexp,C:\Users\katjo\OneDrive\Desktop,FALSE,mono,FALSE,18,no,white,no,yes,768,legacy,75,79,C:/Users/katjo/OneDrive/Desktop/KJ-subject-4 68M.csv,legacy,Melodramatic Milgram,4.0.5,0,s,NA,h,h,NA,s,432,NA,86866,33505,NA,432,2,legacy,1024,2,48000,-16,experiment,SSSSS,4,even,88800,262817,NA,NA,396431,1933,229312,386845,1930,389138,397451,NA,397552,397985,397450,397551,Flanker Task Lab 2.1,144,87000,156,1024
92,92,556,556,#000000,legacy,legacy,legacy,congruent,1,undefined,1,s,0,0,0,0,156,0,0,156,0,156,156,0,156,156,156,156,Fri Sep 22 13:05:48 2023,600,The main experiment item,FALSE,FlankerTaskLab21.osexp,C:\Users\katjo\OneDrive\Desktop,FALSE,mono,FALSE,18,no,white,no,yes,768,legacy,76,79,C:/Users/katjo/OneDrive/Desktop/KJ-subject-4 68M.csv,legacy,Melodramatic Milgram,4.0.5,0,s,NA,h,h,NA,s,384,NA,86866,33505,NA,384,2,legacy,1024,2,48000,-16,experiment,SSSSS,4,even,88800,262817,NA,NA,398011,1933,229312,386845,1930,389138,399034,NA,399135,399520,399033,399135,Flanker Task Lab 2.1,145,87384,157,1024
91,91,555,555,#000000,legacy,legacy,legacy,incongruent,0,undefined,0,h,0,0,0,0,157,0,0,157,0,157,157,0,157,157,157,157,Fri Sep 22 13:05:48 2023,600,The main experiment item,FALSE,FlankerTaskLab21.osexp,C:\Users\katjo\OneDrive\Desktop,FALSE,mono,FALSE,18,no,white,no,yes,768,legacy,77,79,C:/Users/katjo/OneDrive/Desktop/KJ-subject-4 68M.csv,legacy,Melodramatic Milgram,4.0.5,0,s,NA,h,h,NA,s,377,NA,86866,33505,NA,377,2,legacy,1024,2,48000,-16,experiment,SSHSS,4,even,88800,262817,NA,NA,399546,1933,229312,386845,1930,389138,400566,NA,400666,401044,400566,400666,Flanker Task Lab 2.1,145,87761,158,1024
91,91,555,555,#000000,legacy,legacy,legacy,incongruent,1,undefined,1,h,0,0,0,0,158,0,0,158,0,158,158,0,158,158,158,158,Fri Sep 22 13:05:48 2023,600,The main experiment item,FALSE,FlankerTaskLab21.osexp,C:\Users\katjo\OneDrive\Desktop,FALSE,mono,FALSE,18,no,white,no,yes,768,legacy,78,79,C:/Users/katjo/OneDrive/Desktop/KJ-subject-4 68M.csv,legacy,Melodramatic Milgram,4.0.5,0,h,NA,h,h,NA,h,595,NA,86866,33505,NA,595,2,legacy,1024,2,48000,-16,experiment,SSHSS,4,even,88800,262817,NA,NA,401551,1933,229312,401051,1930,389138,402573,NA,402675,403271,402572,402674,Flanker Task Lab 2.1,146,88356,159,1024
91,91,555,555,#000000,legacy,legacy,legacy,congruent,1,undefined,1,s,0,0,0,0,159,0,0,159,0,159,159,0,159,159,159,159,Fri Sep 22 13:05:48 2023,600,The main experiment item,FALSE,FlankerTaskLab21.osexp,C:\Users\katjo\OneDrive\Desktop,FALSE,mono,FALSE,18,no,white,no,yes,768,legacy,79,79,C:/Users/katjo/OneDrive/Desktop/KJ-subject-4 68M.csv,legacy,Melodramatic Milgram,4.0.5,0,s,NA,h,h,NA,s,551,NA,86866,33505,NA,551,2,legacy,1024,2,48000,-16,experiment,SSSSS,4,even,88800,262817,NA,NA,403274,1933,229312,401051,1930,389138,404307,NA,404408,404959,404306,404408,Flanker Task Lab 2.1,147,88907,160,1024
91,91,555,555,#000000,legacy,legacy,legacy,congruent,1,undefined,1,h,0,0,0,0,160,0,0,160,0,160,160,0,160,160,160,160,Fri Sep 22 13:05:48 2023,300,The main experiment item,FALSE,FlankerTaskLab21.osexp,C:\Users\katjo\OneDrive\Desktop,FALSE,mono,FALSE,18,no,white,no,yes,768,legacy,0,79,C:/Users/katjo/OneDrive/Desktop/KJ-subject-4 68M.csv,legacy,Melodramatic Milgram,4.0.5,0,h,NA,h,h,h,h,535,NA,86866,33505,13923,535,2,legacy,1024,2,48000,-16,experiment,HHHHH,4,even,88800,262817,419911,NA,404985,1933,229312,401051,1930,389138,419938,405987,420039,420575,419937,420038,Flanker Task Lab 2.1,148,89442,161,1024
91,91,561,561,#000000,legacy,legacy,legacy,incongruent,0,undefined,0,h,0,0,0,0,161,0,0,161,0,161,161,0,161,161,161,161,Fri Sep 22 13:05:48 2023,300,The main experiment item,FALSE,FlankerTaskLab21.osexp,C:\Users\katjo\OneDrive\Desktop,FALSE,mono,FALSE,18,no,white,no,yes,768,legacy,1,79,C:/Users/katjo/OneDrive/Desktop/KJ-subject-4 68M.csv,legacy,Melodramatic Milgram,4.0.5,0,None,NA,h,h,h,None,1500,NA,86866,33505,13923,1500,2,legacy,1024,2,48000,-16,experiment,SSHSS,4,even,88800,262817,419911,NA,421081,1933,229312,401051,1930,420581,422105,405987,422206,423706,422104,422206,Flanker Task Lab 2.1,148,90942,162,1024
91,91,561,561,#000000,legacy,legacy,legacy,incongruent,1,undefined,1,h,0,0,0,0,162,0,0,162,0,162,162,0,162,162,162,162,Fri Sep 22 13:05:48 2023,300,The main experiment item,FALSE,FlankerTaskLab21.osexp,C:\Users\katjo\OneDrive\Desktop,FALSE,mono,FALSE,18,no,white,no,yes,768,legacy,2,79,C:/Users/katjo/OneDrive/Desktop/KJ-subject-4 68M.csv,legacy,Melodramatic Milgram,4.0.5,0,h,NA,h,h,h,h,537,NA,86866,33505,13923,537,2,legacy,1024,2,48000,-16,experiment,SSHSS,4,even,88800,262817,419911,NA,424713,1933,229312,423713,1930,424213,425737,405987,425838,426376,425736,425838,Flanker Task Lab 2.1,149,91479,163,1024
91,91,560,560,#000000,legacy,legacy,legacy,incongruent,1,undefined,1,h,0,0,0,0,163,0,0,163,0,163,163,0,163,163,163,163,Fri Sep 22 13:05:48 2023,300,The main experiment item,FALSE,FlankerTaskLab21.osexp,C:\Users\katjo\OneDrive\Desktop,FALSE,mono,FALSE,18,no,white,no,yes,768,legacy,3,79,C:/Users/katjo/OneDrive/Desktop/KJ-subject-4 68M.csv,legacy,Melodramatic Milgram,4.0.5,0,h,NA,h,h,h,h,409,NA,86866,33505,13923,409,2,legacy,1024,2,48000,-16,experiment,SSHSS,4,even,88800,262817,419911,NA,426878,1933,229312,423713,1930,426378,427902,405987,428002,428412,427901,428002,Flanker Task Lab 2.1,150,91888,164,1024
91,91,559,559,#000000,legacy,legacy,legacy,congruent,1,undefined,1,h,0,0,0,0,164,0,0,164,0,164,164,0,164,164,164,164,Fri Sep 22 13:05:48 2023,300,The main experiment item,FALSE,FlankerTaskLab21.osexp,C:\Users\katjo\OneDrive\Desktop,FALSE,mono,FALSE,18,no,white,no,yes,768,legacy,4,79,C:/Users/katjo/OneDrive/Desktop/KJ-subject-4 68M.csv,legacy,Melodramatic Milgram,4.0.5,0,h,NA,h,h,h,h,448,NA,86866,33505,13923,448,2,legacy,1024,2,48000,-16,experiment,HHHHH,4,even,88800,262817,419911,NA,428939,1933,229312,423713,1930,428438,429967,405987,430069,430518,429966,430068,Flanker Task Lab 2.1,151,92336,165,1024
90,90,558,558,#000000,legacy,legacy,legacy,incongruent,0,undefined,0,h,0,0,0,0,165,0,0,165,0,165,165,0,165,165,165,165,Fri Sep 22 13:05:48 2023,300,The main experiment item,FALSE,FlankerTaskLab21.osexp,C:\Users\katjo\OneDrive\Desktop,FALSE,mono,FALSE,18,no,white,no,yes,768,legacy,5,79,C:/Users/katjo/OneDrive/Desktop/KJ-subject-4 68M.csv,legacy,Melodramatic Milgram,4.0.5,0,s,NA,h,h,h,s,406,NA,86866,33505,13923,406,2,legacy,1024,2,48000,-16,experiment,SSHSS,4,even,88800,262817,419911,NA,431025,1933,229312,423713,1930,430525,432047,405987,432148,432555,432046,432148,Flanker Task Lab 2.1,151,92742,166,1024
91,91,558,558,#000000,legacy,legacy,legacy,congruent,1,undefined,1,s,0,0,0,0,166,0,0,166,0,166,166,0,166,166,166,166,Fri Sep 22 13:05:48 2023,300,The main experiment item,FALSE,FlankerTaskLab21.osexp,C:\Users\katjo\OneDrive\Desktop,FALSE,mono,FALSE,18,no,white,no,yes,768,legacy,6,79,C:/Users/katjo/OneDrive/Desktop/KJ-subject-4 68M.csv,legacy,Melodramatic Milgram,4.0.5,0,s,NA,h,h,h,s,472,NA,86866,33505,13923,472,2,legacy,1024,2,48000,-16,experiment,SSSSS,4,even,88800,262817,419911,NA,433562,1933,229312,432562,1930,433062,434584,405987,434685,435158,434583,434685,Flanker Task Lab 2.1,152,93214,167,1024
