"acc","accuracy","average_response_time","avg_rt","background","canvas_backend","clock_backend","color_backend","condition","correct","correct_instructions","correct_keyboard_response","correct_response","count_Block1","count_Block2","count_Block3","count_Faster","count_Finish","count_ISI","count_errorFeedback","count_experiment","count_fixation","count_instruction3","count_instructions","count_instructions2","count_keyboard_response","count_new_logger","count_new_sequence","count_stimulus","datetime","deadline","description","disable_garbage_collection","experiment_file","experiment_path","font_bold","font_family","font_italic","font_size","font_underline","foreground","form_clicks","fullscreen","height","keyboard_backend","live_row","live_row_Block1","logfile","mouse_backend","opensesame_codename","opensesame_version","repeat_cycle","response","response_Finish","response_instruction3","response_instructions","response_instructions2","response_keyboard_response","response_time","response_time_Finish","response_time_instruction3","response_time_instructions","response_time_instructions2","response_time_keyboard_response","round_decimals","sampler_backend","sound_buf_size","sound_channels","sound_freq","sound_sample_size","start","stimulus","subject_nr","subject_parity","time_Block1","time_Block2","time_Block3","time_Faster","time_Finish","time_ISI","time_errorFeedback","time_experiment","time_fixation","time_instruction3","time_instructions","time_instructions2","time_keyboard_response","time_new_logger","time_new_sequence","time_stimulus","title","total_correct","total_response_time","total_responses","width"
"100","100","758","758","#3d3846","legacy","legacy","legacy","incongruent","1","undefined","1","h","0","0","0","0","0","0","0","0","0","0","0","0","0","0","0","0","Fri Sep 15 15:34:49 2023","1500","The main experiment item","True","ewm FlankerTask3.edited .osexp","/Users/izzymcgibbon/Desktop/College/Tarleton State /2023 /Fall /Stats /2.1 ","False","mono","False","18","no","white","no","yes","768","legacy","0","0","/Users/izzymcgibbon/Desktop/College/Tarleton State /2023 /Fall /Stats /2.1 /EWM-subject-2.csv","legacy","Melodramatic Milgram","4.0.5","0","h","NA","NA","h","NA","h","758.0","NA","NA","8352","NA","758","2","legacy","1024","2","48000","-16","experiment","SSHSS","2","even","10651","NA","NA","NA","NA","NA","NA","2197","10706","NA","2292","NA","10810","11572","10701","10809","FlankerTask.3","1","758.0","1","1024"
"100","100","685","685","#3d3846","legacy","legacy","legacy","incongruent","1","undefined","1","h","0","0","0","1","0","1","1","0","1","0","0","0","1","1","1","1","Fri Sep 15 15:34:49 2023","1500","The main experiment item","True","ewm FlankerTask3.edited .osexp","/Users/izzymcgibbon/Desktop/College/Tarleton State /2023 /Fall /Stats /2.1 ","False","mono","False","18","no","white","no","yes","768","legacy","1","1","/Users/izzymcgibbon/Desktop/College/Tarleton State /2023 /Fall /Stats /2.1 /EWM-subject-2.csv","legacy","Melodramatic Milgram","4.0.5","0","h","NA","NA","h","NA","h","613.0","NA","NA","8352","NA","613","2","legacy","1024","2","48000","-16","experiment","SSHSS","2","even","10651","NA","NA","NA","NA","11578","NA","2197","12619","NA","2292","NA","12722","13336","12617","12722","FlankerTask.3","2","1371.0","2","1024"
"100","100","636","636","#3d3846","legacy","legacy","legacy","congruent","1","undefined","1","s","0","0","0","2","0","2","2","0","2","0","0","0","2","2","2","2","Fri Sep 15 15:34:49 2023","1500","The main experiment item","True","ewm FlankerTask3.edited .osexp","/Users/izzymcgibbon/Desktop/College/Tarleton State /2023 /Fall /Stats /2.1 ","False","mono","False","18","no","white","no","yes","768","legacy","2","2","/Users/izzymcgibbon/Desktop/College/Tarleton State /2023 /Fall /Stats /2.1 /EWM-subject-2.csv","legacy","Melodramatic Milgram","4.0.5","0","s","NA","NA","h","NA","s","539.0","NA","NA","8352","NA","539","2","legacy","1024","2","48000","-16","experiment","HHSHH","2","even","10651","NA","NA","NA","NA","13339","NA","2197","14374","NA","2292","NA","14477","15017","14372","14477","FlankerTask.3","3","1910.0","3","1024"
"100","100","589","589","#3d3846","legacy","legacy","legacy","incongruent","1","undefined","1","h","0","0","0","3","0","3","3","0","3","0","0","0","3","3","3","3","Fri Sep 15 15:34:49 2023","1500","The main experiment item","True","ewm FlankerTask3.edited .osexp","/Users/izzymcgibbon/Desktop/College/Tarleton State /2023 /Fall /Stats /2.1 ","False","mono","False","18","no","white","no","yes","768","legacy","3","3","/Users/izzymcgibbon/Desktop/College/Tarleton State /2023 /Fall /Stats /2.1 /EWM-subject-2.csv","legacy","Melodramatic Milgram","4.0.5","0","h","NA","NA","h","NA","h","448.0","NA","NA","8352","NA","448","2","legacy","1024","2","48000","-16","experiment","HHHHH","2","even","10651","NA","NA","NA","NA","15020","NA","2197","16061","NA","2292","NA","16163","16612","16059","16163","FlankerTask.3","4","2358.0","4","1024"
"100","100","556","556","#3d3846","legacy","legacy","legacy","congruent","1","undefined","1","s","0","0","0","4","0","4","4","0","4","0","0","0","4","4","4","4","Fri Sep 15 15:34:49 2023","1500","The main experiment item","True","ewm FlankerTask3.edited .osexp","/Users/izzymcgibbon/Desktop/College/Tarleton State /2023 /Fall /Stats /2.1 ","False","mono","False","18","no","white","no","yes","768","legacy","4","4","/Users/izzymcgibbon/Desktop/College/Tarleton State /2023 /Fall /Stats /2.1 /EWM-subject-2.csv","legacy","Melodramatic Milgram","4.0.5","0","s","NA","NA","h","NA","s","425.0","NA","NA","8352","NA","425","2","legacy","1024","2","48000","-16","experiment","HHSHH","2","even","10651","NA","NA","NA","NA","16614","NA","2197","17656","NA","2292","NA","17759","18185","17653","17759","FlankerTask.3","5","2783.0","5","1024"
"100","100","532","532","#3d3846","legacy","legacy","legacy","incongruent","1","undefined","1","h","0","0","0","5","0","5","5","0","5","0","0","0","5","5","5","5","Fri Sep 15 15:34:49 2023","1500","The main experiment item","True","ewm FlankerTask3.edited .osexp","/Users/izzymcgibbon/Desktop/College/Tarleton State /2023 /Fall /Stats /2.1 ","False","mono","False","18","no","white","no","yes","768","legacy","5","5","/Users/izzymcgibbon/Desktop/College/Tarleton State /2023 /Fall /Stats /2.1 /EWM-subject-2.csv","legacy","Melodramatic Milgram","4.0.5","0","h","NA","NA","h","NA","h","410.0","NA","NA","8352","NA","410","2","legacy","1024","2","48000","-16","experiment","SSHSS","2","even","10651","NA","NA","NA","NA","18188","NA","2197","19229","NA","2292","NA","19331","19742","19227","19331","FlankerTask.3","6","3193.0","6","1024"
"100","100","503","503","#3d3846","legacy","legacy","legacy","congruent","1","undefined","1","s","0","0","0","6","0","6","6","0","6","0","0","0","6","6","6","6","Fri Sep 15 15:34:49 2023","1500","The main experiment item","True","ewm FlankerTask3.edited .osexp","/Users/izzymcgibbon/Desktop/College/Tarleton State /2023 /Fall /Stats /2.1 ","False","mono","False","18","no","white","no","yes","768","legacy","6","6","/Users/izzymcgibbon/Desktop/College/Tarleton State /2023 /Fall /Stats /2.1 /EWM-subject-2.csv","legacy","Melodramatic Milgram","4.0.5","0","s","NA","NA","h","NA","s","333.0","NA","NA","8352","NA","333","2","legacy","1024","2","48000","-16","experiment","SSSSS","2","even","10651","NA","NA","NA","NA","19745","NA","2197","20787","NA","2292","NA","20890","21224","20785","20890","FlankerTask.3","7","3526.0","7","1024"
"100","100","489","489","#3d3846","legacy","legacy","legacy","incongruent","1","undefined","1","h","0","0","0","7","0","7","7","0","7","0","0","0","7","7","7","7","Fri Sep 15 15:34:49 2023","1500","The main experiment item","True","ewm FlankerTask3.edited .osexp","/Users/izzymcgibbon/Desktop/College/Tarleton State /2023 /Fall /Stats /2.1 ","False","mono","False","18","no","white","no","yes","768","legacy","7","7","/Users/izzymcgibbon/Desktop/College/Tarleton State /2023 /Fall /Stats /2.1 /EWM-subject-2.csv","legacy","Melodramatic Milgram","4.0.5","0","h","NA","NA","h","NA","h","386.0","NA","NA","8352","NA","386","2","legacy","1024","2","48000","-16","experiment","HHHHH","2","even","10651","NA","NA","NA","NA","21227","NA","2197","22269","NA","2292","NA","22371","22758","22266","22371","FlankerTask.3","8","3912.0","8","1024"
"100","100","474","474","#3d3846","legacy","legacy","legacy","congruent","1","undefined","1","s","0","0","0","8","0","8","8","0","8","0","0","0","8","8","8","8","Fri Sep 15 15:34:49 2023","1500","The main experiment item","True","ewm FlankerTask3.edited .osexp","/Users/izzymcgibbon/Desktop/College/Tarleton State /2023 /Fall /Stats /2.1 ","False","mono","False","18","no","white","no","yes","768","legacy","8","8","/Users/izzymcgibbon/Desktop/College/Tarleton State /2023 /Fall /Stats /2.1 /EWM-subject-2.csv","legacy","Melodramatic Milgram","4.0.5","0","s","NA","NA","h","NA","s","361.0","NA","NA","8352","NA","361","2","legacy","1024","2","48000","-16","experiment","SSSSS","2","even","10651","NA","NA","NA","NA","22760","NA","2197","23804","NA","2292","NA","23906","24268","23802","23906","FlankerTask.3","9","4273.0","9","1024"
"100","100","472","472","#3d3846","legacy","legacy","legacy","incongruent","1","undefined","1","h","0","0","0","9","0","9","9","0","9","0","0","0","9","9","9","9","Fri Sep 15 15:34:49 2023","1500","The main experiment item","True","ewm FlankerTask3.edited .osexp","/Users/izzymcgibbon/Desktop/College/Tarleton State /2023 /Fall /Stats /2.1 ","False","mono","False","18","no","white","no","yes","768","legacy","9","9","/Users/izzymcgibbon/Desktop/College/Tarleton State /2023 /Fall /Stats /2.1 /EWM-subject-2.csv","legacy","Melodramatic Milgram","4.0.5","0","h","NA","NA","h","NA","h","449.0","NA","NA","8352","NA","449","2","legacy","1024","2","48000","-16","experiment","SSHSS","2","even","10651","NA","NA","NA","NA","24271","NA","2197","25315","NA","2292","NA","25417","25867","25313","25417","FlankerTask.3","10","4722.0","10","1024"
"100","100","466","466","#3d3846","legacy","legacy","legacy","congruent","1","undefined","1","s","0","0","0","10","0","10","10","0","10","0","0","0","10","10","10","10","Fri Sep 15 15:34:49 2023","1500","The main experiment item","True","ewm FlankerTask3.edited .osexp","/Users/izzymcgibbon/Desktop/College/Tarleton State /2023 /Fall /Stats /2.1 ","False","mono","False","18","no","white","no","yes","768","legacy","10","10","/Users/izzymcgibbon/Desktop/College/Tarleton State /2023 /Fall /Stats /2.1 /EWM-subject-2.csv","legacy","Melodramatic Milgram","4.0.5","0","s","NA","NA","h","NA","s","407.0","NA","NA","8352","NA","407","2","legacy","1024","2","48000","-16","experiment","SSSSS","2","even","10651","NA","NA","NA","NA","25870","NA","2197","26903","NA","2292","NA","27006","27414","26901","27006","FlankerTask.3","11","5129.0","11","1024"
"100","100","465","465","#3d3846","legacy","legacy","legacy","congruent","1","undefined","1","s","0","0","0","11","0","11","11","0","11","0","0","0","11","11","11","11","Fri Sep 15 15:34:49 2023","1500","The main experiment item","True","ewm FlankerTask3.edited .osexp","/Users/izzymcgibbon/Desktop/College/Tarleton State /2023 /Fall /Stats /2.1 ","False","mono","False","18","no","white","no","yes","768","legacy","11","11","/Users/izzymcgibbon/Desktop/College/Tarleton State /2023 /Fall /Stats /2.1 /EWM-subject-2.csv","legacy","Melodramatic Milgram","4.0.5","0","s","NA","NA","h","NA","s","455.0","NA","NA","8352","NA","455","2","legacy","1024","2","48000","-16","experiment","HHSHH","2","even","10651","NA","NA","NA","NA","27417","NA","2197","28454","NA","2292","NA","28556","29012","28451","28556","FlankerTask.3","12","5584.0","12","1024"
"100","100","457","457","#3d3846","legacy","legacy","legacy","congruent","1","undefined","1","s","0","0","0","12","0","12","12","0","12","0","0","0","12","12","12","12","Fri Sep 15 15:34:49 2023","1500","The main experiment item","True","ewm FlankerTask3.edited .osexp","/Users/izzymcgibbon/Desktop/College/Tarleton State /2023 /Fall /Stats /2.1 ","False","mono","False","18","no","white","no","yes","768","legacy","12","12","/Users/izzymcgibbon/Desktop/College/Tarleton State /2023 /Fall /Stats /2.1 /EWM-subject-2.csv","legacy","Melodramatic Milgram","4.0.5","0","s","NA","NA","h","NA","s","363.0","NA","NA","8352","NA","363","2","legacy","1024","2","48000","-16","experiment","HHSHH","2","even","10651","NA","NA","NA","NA","29015","NA","2197","30056","NA","2292","NA","30159","30523","30054","30158","FlankerTask.3","13","5947.0","13","1024"
"100","100","457","457","#3d3846","legacy","legacy","legacy","incongruent","1","undefined","1","h","0","0","0","13","0","13","13","0","13","0","0","0","13","13","13","13","Fri Sep 15 15:34:49 2023","1500","The main experiment item","True","ewm FlankerTask3.edited .osexp","/Users/izzymcgibbon/Desktop/College/Tarleton State /2023 /Fall /Stats /2.1 ","False","mono","False","18","no","white","no","yes","768","legacy","13","13","/Users/izzymcgibbon/Desktop/College/Tarleton State /2023 /Fall /Stats /2.1 /EWM-subject-2.csv","legacy","Melodramatic Milgram","4.0.5","0","h","NA","NA","h","NA","h","455.0","NA","NA","8352","NA","455","2","legacy","1024","2","48000","-16","experiment","SSHSS","2","even","10651","NA","NA","NA","NA","30526","NA","2197","31566","NA","2292","NA","31668","32124","31564","31668","FlankerTask.3","14","6402.0","14","1024"
"100","100","456","456","#3d3846","legacy","legacy","legacy","congruent","1","undefined","1","s","0","0","0","14","0","14","14","0","14","0","0","0","14","14","14","14","Fri Sep 15 15:34:49 2023","1500","The main experiment item","True","ewm FlankerTask3.edited .osexp","/Users/izzymcgibbon/Desktop/College/Tarleton State /2023 /Fall /Stats /2.1 ","False","mono","False","18","no","white","no","yes","768","legacy","14","14","/Users/izzymcgibbon/Desktop/College/Tarleton State /2023 /Fall /Stats /2.1 /EWM-subject-2.csv","legacy","Melodramatic Milgram","4.0.5","0","s","NA","NA","h","NA","s","450.0","NA","NA","8352","NA","450","2","legacy","1024","2","48000","-16","experiment","HHSHH","2","even","10651","NA","NA","NA","NA","32126","NA","2197","33168","NA","2292","NA","33271","33721","33166","33270","FlankerTask.3","15","6852.0","15","1024"
"100","100","452","452","#3d3846","legacy","legacy","legacy","congruent","1","undefined","1","s","0","0","0","15","0","15","15","0","15","0","0","0","15","15","15","15","Fri Sep 15 15:34:49 2023","1500","The main experiment item","True","ewm FlankerTask3.edited .osexp","/Users/izzymcgibbon/Desktop/College/Tarleton State /2023 /Fall /Stats /2.1 ","False","mono","False","18","no","white","no","yes","768","legacy","15","15","/Users/izzymcgibbon/Desktop/College/Tarleton State /2023 /Fall /Stats /2.1 /EWM-subject-2.csv","legacy","Melodramatic Milgram","4.0.5","0","s","NA","NA","h","NA","s","394.0","NA","NA","8352","NA","394","2","legacy","1024","2","48000","-16","experiment","SSSSS","2","even","10651","NA","NA","NA","NA","33724","NA","2197","34767","NA","2292","NA","34869","35263","34765","34869","FlankerTask.3","16","7246.0","16","1024"
"100","100","458","458","#3d3846","legacy","legacy","legacy","congruent","1","undefined","1","s","0","0","0","16","0","16","16","0","16","0","0","0","16","16","16","16","Fri Sep 15 15:34:49 2023","1500","The main experiment item","True","ewm FlankerTask3.edited .osexp","/Users/izzymcgibbon/Desktop/College/Tarleton State /2023 /Fall /Stats /2.1 ","False","mono","False","18","no","white","no","yes","768","legacy","16","16","/Users/izzymcgibbon/Desktop/College/Tarleton State /2023 /Fall /Stats /2.1 /EWM-subject-2.csv","legacy","Melodramatic Milgram","4.0.5","0","s","NA","NA","h","NA","s","542.0","NA","NA","8352","NA","542","2","legacy","1024","2","48000","-16","experiment","HHSHH","2","even","10651","NA","NA","NA","NA","35267","NA","2197","36317","NA","2292","NA","36420","36962","36315","36419","FlankerTask.3","17","7788.0","17","1024"
"94","94","452","452","#3d3846","legacy","legacy","legacy","incongruent","0","undefined","0","h","0","0","0","17","0","17","17","0","17","0","0","0","17","17","17","17","Fri Sep 15 15:34:49 2023","1500","The main experiment item","True","ewm FlankerTask3.edited .osexp","/Users/izzymcgibbon/Desktop/College/Tarleton State /2023 /Fall /Stats /2.1 ","False","mono","False","18","no","white","no","yes","768","legacy","17","17","/Users/izzymcgibbon/Desktop/College/Tarleton State /2023 /Fall /Stats /2.1 /EWM-subject-2.csv","legacy","Melodramatic Milgram","4.0.5","0","s","NA","NA","h","NA","s","363.0","NA","NA","8352","NA","363","2","legacy","1024","2","48000","-16","experiment","SSHSS","2","even","10651","NA","NA","NA","NA","36966","NA","2197","37999","NA","2292","NA","38101","38464","37997","38101","FlankerTask.3","17","8151.0","18","1024"
"94","94","454","454","#3d3846","legacy","legacy","legacy","incongruent","1","undefined","1","h","0","0","0","18","0","18","18","0","18","0","0","0","18","18","18","18","Fri Sep 15 15:34:49 2023","1500","The main experiment item","True","ewm FlankerTask3.edited .osexp","/Users/izzymcgibbon/Desktop/College/Tarleton State /2023 /Fall /Stats /2.1 ","False","mono","False","18","no","white","no","yes","768","legacy","18","18","/Users/izzymcgibbon/Desktop/College/Tarleton State /2023 /Fall /Stats /2.1 /EWM-subject-2.csv","legacy","Melodramatic Milgram","4.0.5","0","h","NA","NA","h","NA","h","479.0","NA","NA","8352","NA","479","2","legacy","1024","2","48000","-16","experiment","SSHSS","2","even","10651","NA","NA","NA","NA","38970","38467","2197","40004","NA","2292","NA","40106","40585","40002","40106","FlankerTask.3","18","8630.0","19","1024"
"95","95","457","457","#3d3846","legacy","legacy","legacy","incongruent","1","undefined","1","h","0","0","0","19","0","19","19","0","19","0","0","0","19","19","19","19","Fri Sep 15 15:34:49 2023","1500","The main experiment item","True","ewm FlankerTask3.edited .osexp","/Users/izzymcgibbon/Desktop/College/Tarleton State /2023 /Fall /Stats /2.1 ","False","mono","False","18","no","white","no","yes","768","legacy","19","19","/Users/izzymcgibbon/Desktop/College/Tarleton State /2023 /Fall /Stats /2.1 /EWM-subject-2.csv","legacy","Melodramatic Milgram","4.0.5","0","h","NA","NA","h","NA","h","524.0","NA","NA","8352","NA","524","2","legacy","1024","2","48000","-16","experiment","HHHHH","2","even","10651","NA","NA","NA","NA","40589","38467","2197","41626","NA","2292","NA","41728","42252","41624","41728","FlankerTask.3","19","9154.0","20","1024"
"95","95","455","455","#3d3846","legacy","legacy","legacy","congruent","1","undefined","1","s","0","0","0","20","0","20","20","0","20","0","0","0","20","20","20","20","Fri Sep 15 15:34:49 2023","1500","The main experiment item","True","ewm FlankerTask3.edited .osexp","/Users/izzymcgibbon/Desktop/College/Tarleton State /2023 /Fall /Stats /2.1 ","False","mono","False","18","no","white","no","yes","768","legacy","20","20","/Users/izzymcgibbon/Desktop/College/Tarleton State /2023 /Fall /Stats /2.1 /EWM-subject-2.csv","legacy","Melodramatic Milgram","4.0.5","0","s","NA","NA","h","NA","s","416.0","NA","NA","8352","NA","416","2","legacy","1024","2","48000","-16","experiment","SSSSS","2","even","10651","NA","NA","NA","NA","42255","38467","2197","43295","NA","2292","NA","43398","43815","43294","43397","FlankerTask.3","20","9570.0","21","1024"
"95","95","459","459","#3d3846","legacy","legacy","legacy","congruent","1","undefined","1","s","0","0","0","21","0","21","21","0","21","0","0","0","21","21","21","21","Fri Sep 15 15:34:49 2023","1500","The main experiment item","True","ewm FlankerTask3.edited .osexp","/Users/izzymcgibbon/Desktop/College/Tarleton State /2023 /Fall /Stats /2.1 ","False","mono","False","18","no","white","no","yes","768","legacy","21","21","/Users/izzymcgibbon/Desktop/College/Tarleton State /2023 /Fall /Stats /2.1 /EWM-subject-2.csv","legacy","Melodramatic Milgram","4.0.5","0","s","NA","NA","h","NA","s","540.0","NA","NA","8352","NA","540","2","legacy","1024","2","48000","-16","experiment","HHSHH","2","even","10651","NA","NA","NA","NA","43819","38467","2197","44858","NA","2292","NA","44960","45501","44856","44960","FlankerTask.3","21","10110.0","22","1024"
"95","95","463","463","#3d3846","legacy","legacy","legacy","incongruent","1","undefined","1","h","0","0","0","22","0","22","22","0","22","0","0","0","22","22","22","22","Fri Sep 15 15:34:49 2023","1500","The main experiment item","True","ewm FlankerTask3.edited .osexp","/Users/izzymcgibbon/Desktop/College/Tarleton State /2023 /Fall /Stats /2.1 ","False","mono","False","18","no","white","no","yes","768","legacy","22","22","/Users/izzymcgibbon/Desktop/College/Tarleton State /2023 /Fall /Stats /2.1 /EWM-subject-2.csv","legacy","Melodramatic Milgram","4.0.5","0","h","NA","NA","h","NA","h","549.0","NA","NA","8352","NA","549","2","legacy","1024","2","48000","-16","experiment","SSHSS","2","even","10651","NA","NA","NA","NA","45504","38467","2197","46545","NA","2292","NA","46647","47197","46543","46647","FlankerTask.3","22","10659.0","23","1024"
"95","95","466","466","#3d3846","legacy","legacy","legacy","congruent","1","undefined","1","s","0","0","0","23","0","23","23","0","23","0","0","0","23","23","23","23","Fri Sep 15 15:34:49 2023","1500","The main experiment item","True","ewm FlankerTask3.edited .osexp","/Users/izzymcgibbon/Desktop/College/Tarleton State /2023 /Fall /Stats /2.1 ","False","mono","False","18","no","white","no","yes","768","legacy","23","23","/Users/izzymcgibbon/Desktop/College/Tarleton State /2023 /Fall /Stats /2.1 /EWM-subject-2.csv","legacy","Melodramatic Milgram","4.0.5","0","s","NA","NA","h","NA","s","543.0","NA","NA","8352","NA","543","2","legacy","1024","2","48000","-16","experiment","SSSSS","2","even","10651","NA","NA","NA","NA","47200","38467","2197","48240","NA","2292","NA","48344","48888","48239","48343","FlankerTask.3","23","11202.0","24","1024"
"96","96","469","469","#3d3846","legacy","legacy","legacy","congruent","1","undefined","1","s","0","0","0","24","0","24","24","0","24","0","0","0","24","24","24","24","Fri Sep 15 15:34:49 2023","1500","The main experiment item","True","ewm FlankerTask3.edited .osexp","/Users/izzymcgibbon/Desktop/College/Tarleton State /2023 /Fall /Stats /2.1 ","False","mono","False","18","no","white","no","yes","768","legacy","24","24","/Users/izzymcgibbon/Desktop/College/Tarleton State /2023 /Fall /Stats /2.1 /EWM-subject-2.csv","legacy","Melodramatic Milgram","4.0.5","0","s","NA","NA","h","NA","s","524.0","NA","NA","8352","NA","524","2","legacy","1024","2","48000","-16","experiment","HHSHH","2","even","10651","NA","NA","NA","NA","48891","38467","2197","49937","NA","2292","NA","50040","50565","49935","50039","FlankerTask.3","24","11726.0","25","1024"
"96","96","467","467","#3d3846","legacy","legacy","legacy","congruent","1","undefined","1","s","0","0","0","25","0","25","25","0","25","0","0","0","25","25","25","25","Fri Sep 15 15:34:49 2023","1500","The main experiment item","True","ewm FlankerTask3.edited .osexp","/Users/izzymcgibbon/Desktop/College/Tarleton State /2023 /Fall /Stats /2.1 ","False","mono","False","18","no","white","no","yes","768","legacy","25","25","/Users/izzymcgibbon/Desktop/College/Tarleton State /2023 /Fall /Stats /2.1 /EWM-subject-2.csv","legacy","Melodramatic Milgram","4.0.5","0","s","NA","NA","h","NA","s","429.0","NA","NA","8352","NA","429","2","legacy","1024","2","48000","-16","experiment","HHSHH","2","even","10651","NA","NA","NA","NA","50568","38467","2197","51602","NA","2292","NA","51705","52135","51601","51704","FlankerTask.3","25","12155.0","26","1024"
"96","96","467","467","#3d3846","legacy","legacy","legacy","congruent","1","undefined","1","s","0","0","0","26","0","26","26","0","26","0","0","0","26","26","26","26","Fri Sep 15 15:34:49 2023","1500","The main experiment item","True","ewm FlankerTask3.edited .osexp","/Users/izzymcgibbon/Desktop/College/Tarleton State /2023 /Fall /Stats /2.1 ","False","mono","False","18","no","white","no","yes","768","legacy","26","26","/Users/izzymcgibbon/Desktop/College/Tarleton State /2023 /Fall /Stats /2.1 /EWM-subject-2.csv","legacy","Melodramatic Milgram","4.0.5","0","s","NA","NA","h","NA","s","460.0","NA","NA","8352","NA","460","2","legacy","1024","2","48000","-16","experiment","SSSSS","2","even","10651","NA","NA","NA","NA","52138","38467","2197","53173","NA","2292","NA","53276","53737","53172","53276","FlankerTask.3","26","12615.0","27","1024"
"96","96","466","466","#3d3846","legacy","legacy","legacy","congruent","1","undefined","1","s","0","0","0","27","0","27","27","0","27","0","0","0","27","27","27","27","Fri Sep 15 15:34:49 2023","1500","The main experiment item","True","ewm FlankerTask3.edited .osexp","/Users/izzymcgibbon/Desktop/College/Tarleton State /2023 /Fall /Stats /2.1 ","False","mono","False","18","no","white","no","yes","768","legacy","27","27","/Users/izzymcgibbon/Desktop/College/Tarleton State /2023 /Fall /Stats /2.1 /EWM-subject-2.csv","legacy","Melodramatic Milgram","4.0.5","0","s","NA","NA","h","NA","s","440.0","NA","NA","8352","NA","440","2","legacy","1024","2","48000","-16","experiment","HHSHH","2","even","10651","NA","NA","NA","NA","53740","38467","2197","54780","NA","2292","NA","54883","55324","54778","54882","FlankerTask.3","27","13055.0","28","1024"
"96","96","467","467","#3d3846","legacy","legacy","legacy","incongruent","1","undefined","1","h","0","0","0","28","0","28","28","0","28","0","0","0","28","28","28","28","Fri Sep 15 15:34:49 2023","1500","The main experiment item","True","ewm FlankerTask3.edited .osexp","/Users/izzymcgibbon/Desktop/College/Tarleton State /2023 /Fall /Stats /2.1 ","False","mono","False","18","no","white","no","yes","768","legacy","28","28","/Users/izzymcgibbon/Desktop/College/Tarleton State /2023 /Fall /Stats /2.1 /EWM-subject-2.csv","legacy","Melodramatic Milgram","4.0.5","0","h","NA","NA","h","NA","h","490.0","NA","NA","8352","NA","490","2","legacy","1024","2","48000","-16","experiment","SSHSS","2","even","10651","NA","NA","NA","NA","55327","38467","2197","56367","NA","2292","NA","56469","56960","56365","56469","FlankerTask.3","28","13545.0","29","1024"
"96","96","470","470","#3d3846","legacy","legacy","legacy","incongruent","1","undefined","1","h","0","0","0","29","0","29","29","0","29","0","0","0","29","29","29","29","Fri Sep 15 15:34:49 2023","1500","The main experiment item","True","ewm FlankerTask3.edited .osexp","/Users/izzymcgibbon/Desktop/College/Tarleton State /2023 /Fall /Stats /2.1 ","False","mono","False","18","no","white","no","yes","768","legacy","29","29","/Users/izzymcgibbon/Desktop/College/Tarleton State /2023 /Fall /Stats /2.1 /EWM-subject-2.csv","legacy","Melodramatic Milgram","4.0.5","0","h","NA","NA","h","NA","h","558.0","NA","NA","8352","NA","558","2","legacy","1024","2","48000","-16","experiment","HHHHH","2","even","10651","NA","NA","NA","NA","56963","38467","2197","58003","NA","2292","NA","58104","58663","58001","58104","FlankerTask.3","29","14103.0","30","1024"
"96","96","468","468","#3d3846","legacy","legacy","legacy","congruent","1","undefined","1","s","0","0","0","30","0","30","30","0","30","0","0","0","30","30","30","30","Fri Sep 15 15:34:49 2023","1500","The main experiment item","True","ewm FlankerTask3.edited .osexp","/Users/izzymcgibbon/Desktop/College/Tarleton State /2023 /Fall /Stats /2.1 ","False","mono","False","18","no","white","no","yes","768","legacy","30","30","/Users/izzymcgibbon/Desktop/College/Tarleton State /2023 /Fall /Stats /2.1 /EWM-subject-2.csv","legacy","Melodramatic Milgram","4.0.5","0","s","NA","NA","h","NA","s","407.0","NA","NA","8352","NA","407","2","legacy","1024","2","48000","-16","experiment","HHSHH","2","even","10651","NA","NA","NA","NA","58666","38467","2197","59706","NA","2292","NA","59808","60216","59703","59808","FlankerTask.3","30","14510.0","31","1024"
"96","96","467","467","#3d3846","legacy","legacy","legacy","congruent","1","undefined","1","s","0","0","0","31","0","31","31","0","31","0","0","0","31","31","31","31","Fri Sep 15 15:34:49 2023","1500","The main experiment item","True","ewm FlankerTask3.edited .osexp","/Users/izzymcgibbon/Desktop/College/Tarleton State /2023 /Fall /Stats /2.1 ","False","mono","False","18","no","white","no","yes","768","legacy","31","31","/Users/izzymcgibbon/Desktop/College/Tarleton State /2023 /Fall /Stats /2.1 /EWM-subject-2.csv","legacy","Melodramatic Milgram","4.0.5","0","s","NA","NA","h","NA","s","454.0","NA","NA","8352","NA","454","2","legacy","1024","2","48000","-16","experiment","HHSHH","2","even","10651","NA","NA","NA","NA","60218","38467","2197","61268","NA","2292","NA","61370","61824","61266","61370","FlankerTask.3","31","14964.0","32","1024"
"96","96","466","466","#3d3846","legacy","legacy","legacy","congruent","1","undefined","1","s","0","0","0","32","0","32","32","0","32","0","0","0","32","32","32","32","Fri Sep 15 15:34:49 2023","1500","The main experiment item","True","ewm FlankerTask3.edited .osexp","/Users/izzymcgibbon/Desktop/College/Tarleton State /2023 /Fall /Stats /2.1 ","False","mono","False","18","no","white","no","yes","768","legacy","32","32","/Users/izzymcgibbon/Desktop/College/Tarleton State /2023 /Fall /Stats /2.1 /EWM-subject-2.csv","legacy","Melodramatic Milgram","4.0.5","0","s","NA","NA","h","NA","s","446.0","NA","NA","8352","NA","446","2","legacy","1024","2","48000","-16","experiment","HHSHH","2","even","10651","NA","NA","NA","NA","61828","38467","2197","62860","NA","2292","NA","62962","63408","62859","62962","FlankerTask.3","32","15410.0","33","1024"
"97","97","471","471","#3d3846","legacy","legacy","legacy","incongruent","1","undefined","1","h","0","0","0","33","0","33","33","0","33","0","0","0","33","33","33","33","Fri Sep 15 15:34:49 2023","1500","The main experiment item","True","ewm FlankerTask3.edited .osexp","/Users/izzymcgibbon/Desktop/College/Tarleton State /2023 /Fall /Stats /2.1 ","False","mono","False","18","no","white","no","yes","768","legacy","33","33","/Users/izzymcgibbon/Desktop/College/Tarleton State /2023 /Fall /Stats /2.1 /EWM-subject-2.csv","legacy","Melodramatic Milgram","4.0.5","0","h","NA","NA","h","NA","h","615.0","NA","NA","8352","NA","615","2","legacy","1024","2","48000","-16","experiment","SSHSS","2","even","10651","NA","NA","NA","NA","63412","38467","2197","64446","NA","2292","NA","64548","65163","64444","64548","FlankerTask.3","33","16025.0","34","1024"
"94","94","473","473","#3d3846","legacy","legacy","legacy","incongruent","0","undefined","0","h","0","0","0","34","0","34","34","0","34","0","0","0","34","34","34","34","Fri Sep 15 15:34:49 2023","1500","The main experiment item","True","ewm FlankerTask3.edited .osexp","/Users/izzymcgibbon/Desktop/College/Tarleton State /2023 /Fall /Stats /2.1 ","False","mono","False","18","no","white","no","yes","768","legacy","34","34","/Users/izzymcgibbon/Desktop/College/Tarleton State /2023 /Fall /Stats /2.1 /EWM-subject-2.csv","legacy","Melodramatic Milgram","4.0.5","0","s","NA","NA","h","NA","s","536.0","NA","NA","8352","NA","536","2","legacy","1024","2","48000","-16","experiment","HHHHH","2","even","10651","NA","NA","NA","NA","65167","38467","2197","66207","NA","2292","NA","66309","66846","66205","66309","FlankerTask.3","33","16561.0","35","1024"
"94","94","473","473","#3d3846","legacy","legacy","legacy","congruent","1","undefined","1","s","0","0","0","35","0","35","35","0","35","0","0","0","35","35","35","35","Fri Sep 15 15:34:49 2023","1500","The main experiment item","True","ewm FlankerTask3.edited .osexp","/Users/izzymcgibbon/Desktop/College/Tarleton State /2023 /Fall /Stats /2.1 ","False","mono","False","18","no","white","no","yes","768","legacy","35","35","/Users/izzymcgibbon/Desktop/College/Tarleton State /2023 /Fall /Stats /2.1 /EWM-subject-2.csv","legacy","Melodramatic Milgram","4.0.5","0","s","NA","NA","h","NA","s","469.0","NA","NA","8352","NA","469","2","legacy","1024","2","48000","-16","experiment","HHSHH","2","even","10651","NA","NA","NA","NA","67353","66849","2197","68394","NA","2292","NA","68496","68966","68392","68496","FlankerTask.3","34","17030.0","36","1024"
"94","94","471","471","#3d3846","legacy","legacy","legacy","incongruent","1","undefined","1","h","0","0","0","36","0","36","36","0","36","0","0","0","36","36","36","36","Fri Sep 15 15:34:49 2023","1500","The main experiment item","True","ewm FlankerTask3.edited .osexp","/Users/izzymcgibbon/Desktop/College/Tarleton State /2023 /Fall /Stats /2.1 ","False","mono","False","18","no","white","no","yes","768","legacy","36","36","/Users/izzymcgibbon/Desktop/College/Tarleton State /2023 /Fall /Stats /2.1 /EWM-subject-2.csv","legacy","Melodramatic Milgram","4.0.5","0","h","NA","NA","h","NA","h","417.0","NA","NA","8352","NA","417","2","legacy","1024","2","48000","-16","experiment","HHHHH","2","even","10651","NA","NA","NA","NA","68970","66849","2197","70010","NA","2292","NA","70112","70530","70008","70112","FlankerTask.3","35","17447.0","37","1024"
"94","94","467","467","#3d3846","legacy","legacy","legacy","congruent","1","undefined","1","s","0","0","0","37","0","37","37","0","37","0","0","0","37","37","37","37","Fri Sep 15 15:34:49 2023","1500","The main experiment item","True","ewm FlankerTask3.edited .osexp","/Users/izzymcgibbon/Desktop/College/Tarleton State /2023 /Fall /Stats /2.1 ","False","mono","False","18","no","white","no","yes","768","legacy","37","37","/Users/izzymcgibbon/Desktop/College/Tarleton State /2023 /Fall /Stats /2.1 /EWM-subject-2.csv","legacy","Melodramatic Milgram","4.0.5","0","s","NA","NA","h","NA","s","332.0","NA","NA","8352","NA","332","2","legacy","1024","2","48000","-16","experiment","SSSSS","2","even","10651","NA","NA","NA","NA","70534","66849","2197","71574","NA","2292","NA","71677","72010","71572","71676","FlankerTask.3","36","17779.0","38","1024"
"94","94","466","466","#3d3846","legacy","legacy","legacy","incongruent","1","undefined","1","h","0","0","0","38","0","38","38","0","38","0","0","0","38","38","38","38","Fri Sep 15 15:34:49 2023","1500","The main experiment item","True","ewm FlankerTask3.edited .osexp","/Users/izzymcgibbon/Desktop/College/Tarleton State /2023 /Fall /Stats /2.1 ","False","mono","False","18","no","white","no","yes","768","legacy","38","38","/Users/izzymcgibbon/Desktop/College/Tarleton State /2023 /Fall /Stats /2.1 /EWM-subject-2.csv","legacy","Melodramatic Milgram","4.0.5","0","h","NA","NA","h","NA","h","425.0","NA","NA","8352","NA","425","2","legacy","1024","2","48000","-16","experiment","HHHHH","2","even","10651","NA","NA","NA","NA","72013","66849","2197","73054","NA","2292","NA","73156","73582","73052","73156","FlankerTask.3","37","18204.0","39","1024"
"95","95","464","464","#3d3846","legacy","legacy","legacy","incongruent","1","undefined","1","h","0","0","0","39","0","39","39","0","39","0","0","0","39","39","39","39","Fri Sep 15 15:34:49 2023","1500","The main experiment item","True","ewm FlankerTask3.edited .osexp","/Users/izzymcgibbon/Desktop/College/Tarleton State /2023 /Fall /Stats /2.1 ","False","mono","False","18","no","white","no","yes","768","legacy","39","39","/Users/izzymcgibbon/Desktop/College/Tarleton State /2023 /Fall /Stats /2.1 /EWM-subject-2.csv","legacy","Melodramatic Milgram","4.0.5","0","h","NA","NA","h","NA","h","372.0","NA","NA","8352","NA","372","2","legacy","1024","2","48000","-16","experiment","HHHHH","2","even","10651","NA","NA","NA","NA","73585","66849","2197","74628","NA","2292","NA","74730","75103","74626","74730","FlankerTask.3","38","18576.0","40","1024"
"95","95","464","464","#3d3846","legacy","legacy","legacy","congruent","1","undefined","1","s","0","0","0","40","0","40","40","0","40","0","0","0","40","40","40","40","Fri Sep 15 15:34:49 2023","1500","The main experiment item","True","ewm FlankerTask3.edited .osexp","/Users/izzymcgibbon/Desktop/College/Tarleton State /2023 /Fall /Stats /2.1 ","False","mono","False","18","no","white","no","yes","768","legacy","40","40","/Users/izzymcgibbon/Desktop/College/Tarleton State /2023 /Fall /Stats /2.1 /EWM-subject-2.csv","legacy","Melodramatic Milgram","4.0.5","0","s","NA","NA","h","NA","s","467.0","NA","NA","8352","NA","467","2","legacy","1024","2","48000","-16","experiment","HHSHH","2","even","10651","NA","NA","NA","NA","75106","66849","2197","76139","NA","2292","NA","76241","76709","76138","76241","FlankerTask.3","39","19043.0","41","1024"
"95","95","465","465","#3d3846","legacy","legacy","legacy","incongruent","1","undefined","1","h","0","0","0","41","0","41","41","0","41","0","0","0","41","41","41","41","Fri Sep 15 15:34:49 2023","1500","The main experiment item","True","ewm FlankerTask3.edited .osexp","/Users/izzymcgibbon/Desktop/College/Tarleton State /2023 /Fall /Stats /2.1 ","False","mono","False","18","no","white","no","yes","768","legacy","41","41","/Users/izzymcgibbon/Desktop/College/Tarleton State /2023 /Fall /Stats /2.1 /EWM-subject-2.csv","legacy","Melodramatic Milgram","4.0.5","0","h","NA","NA","h","NA","h","525.0","NA","NA","8352","NA","525","2","legacy","1024","2","48000","-16","experiment","SSHSS","2","even","10651","NA","NA","NA","NA","76712","66849","2197","77747","NA","2292","NA","77850","78376","77746","77850","FlankerTask.3","40","19568.0","42","1024"
"95","95","466","466","#3d3846","legacy","legacy","legacy","incongruent","1","undefined","1","h","0","0","0","42","0","42","42","0","42","0","0","0","42","42","42","42","Fri Sep 15 15:34:49 2023","1500","The main experiment item","True","ewm FlankerTask3.edited .osexp","/Users/izzymcgibbon/Desktop/College/Tarleton State /2023 /Fall /Stats /2.1 ","False","mono","False","18","no","white","no","yes","768","legacy","42","42","/Users/izzymcgibbon/Desktop/College/Tarleton State /2023 /Fall /Stats /2.1 /EWM-subject-2.csv","legacy","Melodramatic Milgram","4.0.5","0","h","NA","NA","h","NA","h","485.0","NA","NA","8352","NA","485","2","legacy","1024","2","48000","-16","experiment","HHHHH","2","even","10651","NA","NA","NA","NA","78379","66849","2197","79419","NA","2292","NA","79521","80007","79417","79521","FlankerTask.3","41","20053.0","43","1024"
"95","95","466","466","#3d3846","legacy","legacy","legacy","congruent","1","undefined","1","s","0","0","0","43","0","43","43","0","43","0","0","0","43","43","43","43","Fri Sep 15 15:34:49 2023","1500","The main experiment item","True","ewm FlankerTask3.edited .osexp","/Users/izzymcgibbon/Desktop/College/Tarleton State /2023 /Fall /Stats /2.1 ","False","mono","False","18","no","white","no","yes","768","legacy","43","43","/Users/izzymcgibbon/Desktop/College/Tarleton State /2023 /Fall /Stats /2.1 /EWM-subject-2.csv","legacy","Melodramatic Milgram","4.0.5","0","s","NA","NA","h","NA","s","462.0","NA","NA","8352","NA","462","2","legacy","1024","2","48000","-16","experiment","SSSSS","2","even","10651","NA","NA","NA","NA","80009","66849","2197","81049","NA","2292","NA","81151","81614","81047","81151","FlankerTask.3","42","20515.0","44","1024"
"95","95","465","465","#3d3846","legacy","legacy","legacy","incongruent","1","undefined","1","h","0","0","0","44","0","44","44","0","44","0","0","0","44","44","44","44","Fri Sep 15 15:34:49 2023","1500","The main experiment item","True","ewm FlankerTask3.edited .osexp","/Users/izzymcgibbon/Desktop/College/Tarleton State /2023 /Fall /Stats /2.1 ","False","mono","False","18","no","white","no","yes","768","legacy","44","44","/Users/izzymcgibbon/Desktop/College/Tarleton State /2023 /Fall /Stats /2.1 /EWM-subject-2.csv","legacy","Melodramatic Milgram","4.0.5","0","h","NA","NA","h","NA","h","421.0","NA","NA","8352","NA","421","2","legacy","1024","2","48000","-16","experiment","SSHSS","2","even","10651","NA","NA","NA","NA","81617","66849","2197","82657","NA","2292","NA","82760","83182","82655","82760","FlankerTask.3","43","20936.0","45","1024"
"95","95","466","466","#3d3846","legacy","legacy","legacy","incongruent","1","undefined","1","h","0","0","0","45","0","45","45","0","45","0","0","0","45","45","45","45","Fri Sep 15 15:34:49 2023","1500","The main experiment item","True","ewm FlankerTask3.edited .osexp","/Users/izzymcgibbon/Desktop/College/Tarleton State /2023 /Fall /Stats /2.1 ","False","mono","False","18","no","white","no","yes","768","legacy","45","45","/Users/izzymcgibbon/Desktop/College/Tarleton State /2023 /Fall /Stats /2.1 /EWM-subject-2.csv","legacy","Melodramatic Milgram","4.0.5","0","h","NA","NA","h","NA","h","543.0","NA","NA","8352","NA","543","2","legacy","1024","2","48000","-16","experiment","SSHSS","2","even","10651","NA","NA","NA","NA","83185","66849","2197","84226","NA","2292","NA","84329","84873","84224","84328","FlankerTask.3","44","21479.0","46","1024"
"95","95","465","465","#3d3846","legacy","legacy","legacy","incongruent","1","undefined","1","h","0","0","0","46","0","46","46","0","46","0","0","0","46","46","46","46","Fri Sep 15 15:34:49 2023","1500","The main experiment item","True","ewm FlankerTask3.edited .osexp","/Users/izzymcgibbon/Desktop/College/Tarleton State /2023 /Fall /Stats /2.1 ","False","mono","False","18","no","white","no","yes","768","legacy","46","46","/Users/izzymcgibbon/Desktop/College/Tarleton State /2023 /Fall /Stats /2.1 /EWM-subject-2.csv","legacy","Melodramatic Milgram","4.0.5","0","h","NA","NA","h","NA","h","402.0","NA","NA","8352","NA","402","2","legacy","1024","2","48000","-16","experiment","SSHSS","2","even","10651","NA","NA","NA","NA","84876","66849","2197","85941","NA","2292","NA","86043","86446","85939","86043","FlankerTask.3","45","21881.0","47","1024"
"95","95","465","465","#3d3846","legacy","legacy","legacy","incongruent","1","undefined","1","h","0","0","0","47","0","47","47","0","47","0","0","0","47","47","47","47","Fri Sep 15 15:34:49 2023","1500","The main experiment item","True","ewm FlankerTask3.edited .osexp","/Users/izzymcgibbon/Desktop/College/Tarleton State /2023 /Fall /Stats /2.1 ","False","mono","False","18","no","white","no","yes","768","legacy","47","47","/Users/izzymcgibbon/Desktop/College/Tarleton State /2023 /Fall /Stats /2.1 /EWM-subject-2.csv","legacy","Melodramatic Milgram","4.0.5","0","h","NA","NA","h","NA","h","470.0","NA","NA","8352","NA","470","2","legacy","1024","2","48000","-16","experiment","HHHHH","2","even","10651","NA","NA","NA","NA","86449","66849","2197","87481","NA","2292","NA","87584","88055","87478","87584","FlankerTask.3","46","22351.0","48","1024"
"95","95","465","465","#3d3846","legacy","legacy","legacy","congruent","1","undefined","1","s","0","0","0","48","0","48","48","0","48","0","0","0","48","48","48","48","Fri Sep 15 15:34:49 2023","1500","The main experiment item","True","ewm FlankerTask3.edited .osexp","/Users/izzymcgibbon/Desktop/College/Tarleton State /2023 /Fall /Stats /2.1 ","False","mono","False","18","no","white","no","yes","768","legacy","48","48","/Users/izzymcgibbon/Desktop/College/Tarleton State /2023 /Fall /Stats /2.1 /EWM-subject-2.csv","legacy","Melodramatic Milgram","4.0.5","0","s","NA","NA","h","NA","s","454.0","NA","NA","8352","NA","454","2","legacy","1024","2","48000","-16","experiment","HHSHH","2","even","10651","NA","NA","NA","NA","88058","66849","2197","89092","NA","2292","NA","89194","89649","89091","89194","FlankerTask.3","47","22805.0","49","1024"
"96","96","464","464","#3d3846","legacy","legacy","legacy","incongruent","1","undefined","1","h","0","0","0","49","0","49","49","0","49","0","0","0","49","49","49","49","Fri Sep 15 15:34:49 2023","1500","The main experiment item","True","ewm FlankerTask3.edited .osexp","/Users/izzymcgibbon/Desktop/College/Tarleton State /2023 /Fall /Stats /2.1 ","False","mono","False","18","no","white","no","yes","768","legacy","49","49","/Users/izzymcgibbon/Desktop/College/Tarleton State /2023 /Fall /Stats /2.1 /EWM-subject-2.csv","legacy","Melodramatic Milgram","4.0.5","0","h","NA","NA","h","NA","h","437.0","NA","NA","8352","NA","437","2","legacy","1024","2","48000","-16","experiment","SSHSS","2","even","10651","NA","NA","NA","NA","89651","66849","2197","90691","NA","2292","NA","90793","91231","90689","90793","FlankerTask.3","48","23242.0","50","1024"
"96","96","467","467","#3d3846","legacy","legacy","legacy","congruent","1","undefined","1","s","0","0","0","50","0","50","50","0","50","0","0","0","50","50","50","50","Fri Sep 15 15:34:49 2023","1500","The main experiment item","True","ewm FlankerTask3.edited .osexp","/Users/izzymcgibbon/Desktop/College/Tarleton State /2023 /Fall /Stats /2.1 ","False","mono","False","18","no","white","no","yes","768","legacy","50","50","/Users/izzymcgibbon/Desktop/College/Tarleton State /2023 /Fall /Stats /2.1 /EWM-subject-2.csv","legacy","Melodramatic Milgram","4.0.5","0","s","NA","NA","h","NA","s","583.0","NA","NA","8352","NA","583","2","legacy","1024","2","48000","-16","experiment","HHSHH","2","even","10651","NA","NA","NA","NA","91234","66849","2197","92274","NA","2292","NA","92376","92959","92273","92376","FlankerTask.3","49","23825.0","51","1024"
"96","96","467","467","#3d3846","legacy","legacy","legacy","congruent","1","undefined","1","s","0","0","0","51","0","51","51","0","51","0","0","0","51","51","51","51","Fri Sep 15 15:34:49 2023","1500","The main experiment item","True","ewm FlankerTask3.edited .osexp","/Users/izzymcgibbon/Desktop/College/Tarleton State /2023 /Fall /Stats /2.1 ","False","mono","False","18","no","white","no","yes","768","legacy","51","51","/Users/izzymcgibbon/Desktop/College/Tarleton State /2023 /Fall /Stats /2.1 /EWM-subject-2.csv","legacy","Melodramatic Milgram","4.0.5","0","s","NA","NA","h","NA","s","510.0","NA","NA","8352","NA","510","2","legacy","1024","2","48000","-16","experiment","SSSSS","2","even","10651","NA","NA","NA","NA","92962","66849","2197","94003","NA","2292","NA","94105","94616","94000","94105","FlankerTask.3","50","24335.0","52","1024"
"96","96","467","467","#3d3846","legacy","legacy","legacy","incongruent","1","undefined","1","h","0","0","0","52","0","52","52","0","52","0","0","0","52","52","52","52","Fri Sep 15 15:34:49 2023","1500","The main experiment item","True","ewm FlankerTask3.edited .osexp","/Users/izzymcgibbon/Desktop/College/Tarleton State /2023 /Fall /Stats /2.1 ","False","mono","False","18","no","white","no","yes","768","legacy","52","52","/Users/izzymcgibbon/Desktop/College/Tarleton State /2023 /Fall /Stats /2.1 /EWM-subject-2.csv","legacy","Melodramatic Milgram","4.0.5","0","h","NA","NA","h","NA","h","431.0","NA","NA","8352","NA","431","2","legacy","1024","2","48000","-16","experiment","HHHHH","2","even","10651","NA","NA","NA","NA","94619","66849","2197","95659","NA","2292","NA","95762","96194","95657","95762","FlankerTask.3","51","24766.0","53","1024"
"96","96","472","472","#3d3846","legacy","legacy","legacy","congruent","1","undefined","1","s","0","0","0","53","0","53","53","0","53","0","0","0","53","53","53","53","Fri Sep 15 15:34:49 2023","1500","The main experiment item","True","ewm FlankerTask3.edited .osexp","/Users/izzymcgibbon/Desktop/College/Tarleton State /2023 /Fall /Stats /2.1 ","False","mono","False","18","no","white","no","yes","768","legacy","53","53","/Users/izzymcgibbon/Desktop/College/Tarleton State /2023 /Fall /Stats /2.1 /EWM-subject-2.csv","legacy","Melodramatic Milgram","4.0.5","0","s","NA","NA","h","NA","s","728.0","NA","NA","8352","NA","728","2","legacy","1024","2","48000","-16","experiment","SSSSS","2","even","10651","NA","NA","NA","NA","96197","66849","2197","97237","NA","2292","NA","97339","98068","97236","97339","FlankerTask.3","52","25494.0","54","1024"
"94","94","490","490","#3d3846","legacy","legacy","legacy","congruent","0","undefined","0","s","0","0","0","54","0","54","54","0","54","0","0","0","54","54","54","54","Fri Sep 15 15:34:49 2023","1500","The main experiment item","True","ewm FlankerTask3.edited .osexp","/Users/izzymcgibbon/Desktop/College/Tarleton State /2023 /Fall /Stats /2.1 ","False","mono","False","18","no","white","no","yes","768","legacy","54","54","/Users/izzymcgibbon/Desktop/College/Tarleton State /2023 /Fall /Stats /2.1 /EWM-subject-2.csv","legacy","Melodramatic Milgram","4.0.5","0","None","NA","NA","h","NA","None","1500.0","NA","NA","8352","NA","1500","2","legacy","1024","2","48000","-16","experiment","HHSHH","2","even","10651","NA","NA","NA","NA","98071","66849","2197","99117","NA","2292","NA","99219","100719","99115","99219","FlankerTask.3","52","26994.0","55","1024"
"94","94","493","493","#3d3846","legacy","legacy","legacy","congruent","1","undefined","1","s","0","0","0","55","0","55","55","0","55","0","0","0","55","55","55","55","Fri Sep 15 15:34:49 2023","1500","The main experiment item","True","ewm FlankerTask3.edited .osexp","/Users/izzymcgibbon/Desktop/College/Tarleton State /2023 /Fall /Stats /2.1 ","False","mono","False","18","no","white","no","yes","768","legacy","55","55","/Users/izzymcgibbon/Desktop/College/Tarleton State /2023 /Fall /Stats /2.1 /EWM-subject-2.csv","legacy","Melodramatic Milgram","4.0.5","0","s","NA","NA","h","NA","s","652.0","NA","NA","8352","NA","652","2","legacy","1024","2","48000","-16","experiment","HHSHH","2","even","10651","NA","NA","NA","NA","101225","100722","2197","102258","NA","2292","NA","102360","103013","102256","102360","FlankerTask.3","53","27646.0","56","1024"
"94","94","493","493","#3d3846","legacy","legacy","legacy","incongruent","1","undefined","1","h","0","0","0","56","0","56","56","0","56","0","0","0","56","56","56","56","Fri Sep 15 15:34:49 2023","1500","The main experiment item","True","ewm FlankerTask3.edited .osexp","/Users/izzymcgibbon/Desktop/College/Tarleton State /2023 /Fall /Stats /2.1 ","False","mono","False","18","no","white","no","yes","768","legacy","56","56","/Users/izzymcgibbon/Desktop/College/Tarleton State /2023 /Fall /Stats /2.1 /EWM-subject-2.csv","legacy","Melodramatic Milgram","4.0.5","0","h","NA","NA","h","NA","h","458.0","NA","NA","8352","NA","458","2","legacy","1024","2","48000","-16","experiment","HHHHH","2","even","10651","NA","NA","NA","NA","103016","100722","2197","104051","NA","2292","NA","104154","104613","104050","104154","FlankerTask.3","54","28104.0","57","1024"
"94","94","491","491","#3d3846","legacy","legacy","legacy","congruent","1","undefined","1","s","0","0","0","57","0","57","57","0","57","0","0","0","57","57","57","57","Fri Sep 15 15:34:49 2023","1500","The main experiment item","True","ewm FlankerTask3.edited .osexp","/Users/izzymcgibbon/Desktop/College/Tarleton State /2023 /Fall /Stats /2.1 ","False","mono","False","18","no","white","no","yes","768","legacy","57","57","/Users/izzymcgibbon/Desktop/College/Tarleton State /2023 /Fall /Stats /2.1 /EWM-subject-2.csv","legacy","Melodramatic Milgram","4.0.5","0","s","NA","NA","h","NA","s","387.0","NA","NA","8352","NA","387","2","legacy","1024","2","48000","-16","experiment","SSSSS","2","even","10651","NA","NA","NA","NA","104616","100722","2197","105656","NA","2292","NA","105759","106147","105654","105759","FlankerTask.3","55","28491.0","58","1024"
"94","94","493","493","#3d3846","legacy","legacy","legacy","congruent","1","undefined","1","s","0","0","0","58","0","58","58","0","58","0","0","0","58","58","58","58","Fri Sep 15 15:34:49 2023","1500","The main experiment item","True","ewm FlankerTask3.edited .osexp","/Users/izzymcgibbon/Desktop/College/Tarleton State /2023 /Fall /Stats /2.1 ","False","mono","False","18","no","white","no","yes","768","legacy","58","58","/Users/izzymcgibbon/Desktop/College/Tarleton State /2023 /Fall /Stats /2.1 /EWM-subject-2.csv","legacy","Melodramatic Milgram","4.0.5","0","s","NA","NA","h","NA","s","625.0","NA","NA","8352","NA","625","2","legacy","1024","2","48000","-16","experiment","SSSSS","2","even","10651","NA","NA","NA","NA","106150","100722","2197","107190","NA","2292","NA","107293","107919","107188","107292","FlankerTask.3","56","29116.0","59","1024"
"95","95","491","491","#3d3846","legacy","legacy","legacy","congruent","1","undefined","1","s","0","0","0","59","0","59","59","0","59","0","0","0","59","59","59","59","Fri Sep 15 15:34:49 2023","1500","The main experiment item","True","ewm FlankerTask3.edited .osexp","/Users/izzymcgibbon/Desktop/College/Tarleton State /2023 /Fall /Stats /2.1 ","False","mono","False","18","no","white","no","yes","768","legacy","59","59","/Users/izzymcgibbon/Desktop/College/Tarleton State /2023 /Fall /Stats /2.1 /EWM-subject-2.csv","legacy","Melodramatic Milgram","4.0.5","0","s","NA","NA","h","NA","s","382.0","NA","NA","8352","NA","382","2","legacy","1024","2","48000","-16","experiment","SSSSS","2","even","10651","NA","NA","NA","NA","107922","100722","2197","108962","NA","2292","NA","109064","109447","108960","109064","FlankerTask.3","57","29498.0","60","1024"
"95","95","495","495","#3d3846","legacy","legacy","legacy","congruent","1","undefined","1","s","0","0","0","60","0","60","60","0","60","0","0","0","60","60","60","60","Fri Sep 15 15:34:49 2023","1500","The main experiment item","True","ewm FlankerTask3.edited .osexp","/Users/izzymcgibbon/Desktop/College/Tarleton State /2023 /Fall /Stats /2.1 ","False","mono","False","18","no","white","no","yes","768","legacy","60","60","/Users/izzymcgibbon/Desktop/College/Tarleton State /2023 /Fall /Stats /2.1 /EWM-subject-2.csv","legacy","Melodramatic Milgram","4.0.5","0","s","NA","NA","h","NA","s","718.0","NA","NA","8352","NA","718","2","legacy","1024","2","48000","-16","experiment","SSSSS","2","even","10651","NA","NA","NA","NA","109450","100722","2197","110489","NA","2292","NA","110592","111311","110488","110592","FlankerTask.3","58","30216.0","61","1024"
"95","95","500","500","#3d3846","legacy","legacy","legacy","congruent","1","undefined","1","s","0","0","0","61","0","61","61","0","61","0","0","0","61","61","61","61","Fri Sep 15 15:34:49 2023","1500","The main experiment item","True","ewm FlankerTask3.edited .osexp","/Users/izzymcgibbon/Desktop/College/Tarleton State /2023 /Fall /Stats /2.1 ","False","mono","False","18","no","white","no","yes","768","legacy","61","61","/Users/izzymcgibbon/Desktop/College/Tarleton State /2023 /Fall /Stats /2.1 /EWM-subject-2.csv","legacy","Melodramatic Milgram","4.0.5","0","s","NA","NA","h","NA","s","803.0","NA","NA","8352","NA","803","2","legacy","1024","2","48000","-16","experiment","SSSSS","2","even","10651","NA","NA","NA","NA","111314","100722","2197","112364","NA","2292","NA","112467","113271","112361","112466","FlankerTask.3","59","31019.0","62","1024"
"95","95","502","502","#3d3846","legacy","legacy","legacy","incongruent","1","undefined","1","h","0","0","0","62","0","62","62","0","62","0","0","0","62","62","62","62","Fri Sep 15 15:34:49 2023","1500","The main experiment item","True","ewm FlankerTask3.edited .osexp","/Users/izzymcgibbon/Desktop/College/Tarleton State /2023 /Fall /Stats /2.1 ","False","mono","False","18","no","white","no","yes","768","legacy","62","62","/Users/izzymcgibbon/Desktop/College/Tarleton State /2023 /Fall /Stats /2.1 /EWM-subject-2.csv","legacy","Melodramatic Milgram","4.0.5","0","h","NA","NA","h","NA","h","630.0","NA","NA","8352","NA","630","2","legacy","1024","2","48000","-16","experiment","SSHSS","2","even","10651","NA","NA","NA","NA","113273","100722","2197","114306","NA","2292","NA","114408","115039","114304","114408","FlankerTask.3","60","31649.0","63","1024"
"95","95","503","503","#3d3846","legacy","legacy","legacy","congruent","1","undefined","1","s","0","0","0","63","0","63","63","0","63","0","0","0","63","63","63","63","Fri Sep 15 15:34:49 2023","1500","The main experiment item","True","ewm FlankerTask3.edited .osexp","/Users/izzymcgibbon/Desktop/College/Tarleton State /2023 /Fall /Stats /2.1 ","False","mono","False","18","no","white","no","yes","768","legacy","63","63","/Users/izzymcgibbon/Desktop/College/Tarleton State /2023 /Fall /Stats /2.1 /EWM-subject-2.csv","legacy","Melodramatic Milgram","4.0.5","0","s","NA","NA","h","NA","s","556.0","NA","NA","8352","NA","556","2","legacy","1024","2","48000","-16","experiment","SSSSS","2","even","10651","NA","NA","NA","NA","115042","100722","2197","116078","NA","2292","NA","116180","116737","116075","116180","FlankerTask.3","61","32205.0","64","1024"
"95","95","503","503","#3d3846","legacy","legacy","legacy","incongruent","1","undefined","1","h","0","0","0","64","0","64","64","0","64","0","0","0","64","64","64","64","Fri Sep 15 15:34:49 2023","1500","The main experiment item","True","ewm FlankerTask3.edited .osexp","/Users/izzymcgibbon/Desktop/College/Tarleton State /2023 /Fall /Stats /2.1 ","False","mono","False","18","no","white","no","yes","768","legacy","64","64","/Users/izzymcgibbon/Desktop/College/Tarleton State /2023 /Fall /Stats /2.1 /EWM-subject-2.csv","legacy","Melodramatic Milgram","4.0.5","0","h","NA","NA","h","NA","h","552.0","NA","NA","8352","NA","552","2","legacy","1024","2","48000","-16","experiment","HHHHH","2","even","10651","NA","NA","NA","NA","116740","100722","2197","117788","NA","2292","NA","117890","118443","117779","117890","FlankerTask.3","62","32757.0","65","1024"
"95","95","504","504","#3d3846","legacy","legacy","legacy","incongruent","1","undefined","1","h","0","0","0","65","0","65","65","0","65","0","0","0","65","65","65","65","Fri Sep 15 15:34:49 2023","1500","The main experiment item","True","ewm FlankerTask3.edited .osexp","/Users/izzymcgibbon/Desktop/College/Tarleton State /2023 /Fall /Stats /2.1 ","False","mono","False","18","no","white","no","yes","768","legacy","65","65","/Users/izzymcgibbon/Desktop/College/Tarleton State /2023 /Fall /Stats /2.1 /EWM-subject-2.csv","legacy","Melodramatic Milgram","4.0.5","0","h","NA","NA","h","NA","h","521.0","NA","NA","8352","NA","521","2","legacy","1024","2","48000","-16","experiment","HHHHH","2","even","10651","NA","NA","NA","NA","118446","100722","2197","119486","NA","2292","NA","119589","120111","119485","119589","FlankerTask.3","63","33278.0","66","1024"
"95","95","502","502","#3d3846","legacy","legacy","legacy","incongruent","1","undefined","1","h","0","0","0","66","0","66","66","0","66","0","0","0","66","66","66","66","Fri Sep 15 15:34:49 2023","1500","The main experiment item","True","ewm FlankerTask3.edited .osexp","/Users/izzymcgibbon/Desktop/College/Tarleton State /2023 /Fall /Stats /2.1 ","False","mono","False","18","no","white","no","yes","768","legacy","66","66","/Users/izzymcgibbon/Desktop/College/Tarleton State /2023 /Fall /Stats /2.1 /EWM-subject-2.csv","legacy","Melodramatic Milgram","4.0.5","0","h","NA","NA","h","NA","h","384.0","NA","NA","8352","NA","384","2","legacy","1024","2","48000","-16","experiment","HHHHH","2","even","10651","NA","NA","NA","NA","120114","100722","2197","121157","NA","2292","NA","121260","121644","121155","121259","FlankerTask.3","64","33662.0","67","1024"
"95","95","503","503","#3d3846","legacy","legacy","legacy","congruent","1","undefined","1","s","0","0","0","67","0","67","67","0","67","0","0","0","67","67","67","67","Fri Sep 15 15:34:49 2023","1500","The main experiment item","True","ewm FlankerTask3.edited .osexp","/Users/izzymcgibbon/Desktop/College/Tarleton State /2023 /Fall /Stats /2.1 ","False","mono","False","18","no","white","no","yes","768","legacy","67","67","/Users/izzymcgibbon/Desktop/College/Tarleton State /2023 /Fall /Stats /2.1 /EWM-subject-2.csv","legacy","Melodramatic Milgram","4.0.5","0","s","NA","NA","h","NA","s","584.0","NA","NA","8352","NA","584","2","legacy","1024","2","48000","-16","experiment","HHSHH","2","even","10651","NA","NA","NA","NA","121647","100722","2197","122688","NA","2292","NA","122790","123375","122686","122790","FlankerTask.3","65","34246.0","68","1024"
"94","94","518","518","#3d3846","legacy","legacy","legacy","incongruent","0","undefined","0","h","0","0","0","68","0","68","68","0","68","0","0","0","68","68","68","68","Fri Sep 15 15:34:49 2023","1500","The main experiment item","True","ewm FlankerTask3.edited .osexp","/Users/izzymcgibbon/Desktop/College/Tarleton State /2023 /Fall /Stats /2.1 ","False","mono","False","18","no","white","no","yes","768","legacy","68","68","/Users/izzymcgibbon/Desktop/College/Tarleton State /2023 /Fall /Stats /2.1 /EWM-subject-2.csv","legacy","Melodramatic Milgram","4.0.5","0","None","NA","NA","h","NA","None","1500.0","NA","NA","8352","NA","1500","2","legacy","1024","2","48000","-16","experiment","HHHHH","2","even","10651","NA","NA","NA","NA","123379","100722","2197","124417","NA","2292","NA","124519","126019","124415","124519","FlankerTask.3","65","35746.0","69","1024"
"92","92","515","515","#3d3846","legacy","legacy","legacy","incongruent","0","undefined","0","h","0","0","0","69","0","69","69","0","69","0","0","0","69","69","69","69","Fri Sep 15 15:34:49 2023","1500","The main experiment item","True","ewm FlankerTask3.edited .osexp","/Users/izzymcgibbon/Desktop/College/Tarleton State /2023 /Fall /Stats /2.1 ","False","mono","False","18","no","white","no","yes","768","legacy","69","69","/Users/izzymcgibbon/Desktop/College/Tarleton State /2023 /Fall /Stats /2.1 /EWM-subject-2.csv","legacy","Melodramatic Milgram","4.0.5","0","s","NA","NA","h","NA","s","347.0","NA","NA","8352","NA","347","2","legacy","1024","2","48000","-16","experiment","SSHSS","2","even","10651","NA","NA","NA","NA","126525","126023","2197","127570","NA","2292","NA","127673","128021","127569","127672","FlankerTask.3","65","36093.0","70","1024"
"92","92","513","513","#3d3846","legacy","legacy","legacy","incongruent","1","undefined","1","h","0","0","0","70","0","70","70","0","70","0","0","0","70","70","70","70","Fri Sep 15 15:34:49 2023","1500","The main experiment item","True","ewm FlankerTask3.edited .osexp","/Users/izzymcgibbon/Desktop/College/Tarleton State /2023 /Fall /Stats /2.1 ","False","mono","False","18","no","white","no","yes","768","legacy","70","70","/Users/izzymcgibbon/Desktop/College/Tarleton State /2023 /Fall /Stats /2.1 /EWM-subject-2.csv","legacy","Melodramatic Milgram","4.0.5","0","h","NA","NA","h","NA","h","388.0","NA","NA","8352","NA","388","2","legacy","1024","2","48000","-16","experiment","HHHHH","2","even","10651","NA","NA","NA","NA","128526","128024","2197","129560","NA","2292","NA","129662","130051","129558","129662","FlankerTask.3","66","36481.0","71","1024"
"93","93","511","511","#3d3846","legacy","legacy","legacy","congruent","1","undefined","1","s","0","0","0","71","0","71","71","0","71","0","0","0","71","71","71","71","Fri Sep 15 15:34:49 2023","1500","The main experiment item","True","ewm FlankerTask3.edited .osexp","/Users/izzymcgibbon/Desktop/College/Tarleton State /2023 /Fall /Stats /2.1 ","False","mono","False","18","no","white","no","yes","768","legacy","71","71","/Users/izzymcgibbon/Desktop/College/Tarleton State /2023 /Fall /Stats /2.1 /EWM-subject-2.csv","legacy","Melodramatic Milgram","4.0.5","0","s","NA","NA","h","NA","s","333.0","NA","NA","8352","NA","333","2","legacy","1024","2","48000","-16","experiment","SSSSS","2","even","10651","NA","NA","NA","NA","130054","128024","2197","131089","NA","2292","NA","131192","131526","131087","131191","FlankerTask.3","67","36814.0","72","1024"
"93","93","510","510","#3d3846","legacy","legacy","legacy","incongruent","1","undefined","1","h","0","0","0","72","0","72","72","0","72","0","0","0","72","72","72","72","Fri Sep 15 15:34:49 2023","1500","The main experiment item","True","ewm FlankerTask3.edited .osexp","/Users/izzymcgibbon/Desktop/College/Tarleton State /2023 /Fall /Stats /2.1 ","False","mono","False","18","no","white","no","yes","768","legacy","72","72","/Users/izzymcgibbon/Desktop/College/Tarleton State /2023 /Fall /Stats /2.1 /EWM-subject-2.csv","legacy","Melodramatic Milgram","4.0.5","0","h","NA","NA","h","NA","h","441.0","NA","NA","8352","NA","441","2","legacy","1024","2","48000","-16","experiment","SSHSS","2","even","10651","NA","NA","NA","NA","131529","128024","2197","132569","NA","2292","NA","132671","133113","132567","132671","FlankerTask.3","68","37255.0","73","1024"
"93","93","508","508","#3d3846","legacy","legacy","legacy","incongruent","1","undefined","1","h","0","0","0","73","0","73","73","0","73","0","0","0","73","73","73","73","Fri Sep 15 15:34:49 2023","1500","The main experiment item","True","ewm FlankerTask3.edited .osexp","/Users/izzymcgibbon/Desktop/College/Tarleton State /2023 /Fall /Stats /2.1 ","False","mono","False","18","no","white","no","yes","768","legacy","73","73","/Users/izzymcgibbon/Desktop/College/Tarleton State /2023 /Fall /Stats /2.1 /EWM-subject-2.csv","legacy","Melodramatic Milgram","4.0.5","0","h","NA","NA","h","NA","h","382.0","NA","NA","8352","NA","382","2","legacy","1024","2","48000","-16","experiment","SSHSS","2","even","10651","NA","NA","NA","NA","133116","128024","2197","134157","NA","2292","NA","134259","134642","134155","134259","FlankerTask.3","69","37637.0","74","1024"
"93","93","506","506","#3d3846","legacy","legacy","legacy","congruent","1","undefined","1","s","0","0","0","74","0","74","74","0","74","0","0","0","74","74","74","74","Fri Sep 15 15:34:49 2023","1500","The main experiment item","True","ewm FlankerTask3.edited .osexp","/Users/izzymcgibbon/Desktop/College/Tarleton State /2023 /Fall /Stats /2.1 ","False","mono","False","18","no","white","no","yes","768","legacy","74","74","/Users/izzymcgibbon/Desktop/College/Tarleton State /2023 /Fall /Stats /2.1 /EWM-subject-2.csv","legacy","Melodramatic Milgram","4.0.5","0","s","NA","NA","h","NA","s","335.0","NA","NA","8352","NA","335","2","legacy","1024","2","48000","-16","experiment","SSSSS","2","even","10651","NA","NA","NA","NA","134645","128024","2197","135685","NA","2292","NA","135788","136124","135683","135787","FlankerTask.3","70","37972.0","75","1024"
"93","93","504","504","#3d3846","legacy","legacy","legacy","incongruent","1","undefined","1","h","0","0","0","75","0","75","75","0","75","0","0","0","75","75","75","75","Fri Sep 15 15:34:49 2023","1500","The main experiment item","True","ewm FlankerTask3.edited .osexp","/Users/izzymcgibbon/Desktop/College/Tarleton State /2023 /Fall /Stats /2.1 ","False","mono","False","18","no","white","no","yes","768","legacy","75","75","/Users/izzymcgibbon/Desktop/College/Tarleton State /2023 /Fall /Stats /2.1 /EWM-subject-2.csv","legacy","Melodramatic Milgram","4.0.5","0","h","NA","NA","h","NA","h","385.0","NA","NA","8352","NA","385","2","legacy","1024","2","48000","-16","experiment","HHHHH","2","even","10651","NA","NA","NA","NA","136127","128024","2197","137168","NA","2292","NA","137271","137657","137166","137270","FlankerTask.3","71","38357.0","76","1024"
"93","93","502","502","#3d3846","legacy","legacy","legacy","incongruent","1","undefined","1","h","0","0","0","76","0","76","76","0","76","0","0","0","76","76","76","76","Fri Sep 15 15:34:49 2023","1500","The main experiment item","True","ewm FlankerTask3.edited .osexp","/Users/izzymcgibbon/Desktop/College/Tarleton State /2023 /Fall /Stats /2.1 ","False","mono","False","18","no","white","no","yes","768","legacy","76","76","/Users/izzymcgibbon/Desktop/College/Tarleton State /2023 /Fall /Stats /2.1 /EWM-subject-2.csv","legacy","Melodramatic Milgram","4.0.5","0","h","NA","NA","h","NA","h","365.0","NA","NA","8352","NA","365","2","legacy","1024","2","48000","-16","experiment","HHHHH","2","even","10651","NA","NA","NA","NA","137660","128024","2197","138707","NA","2292","NA","138810","139176","138705","138809","FlankerTask.3","72","38722.0","77","1024"
"93","93","501","501","#3d3846","legacy","legacy","legacy","incongruent","1","undefined","1","h","0","0","0","77","0","77","77","0","77","0","0","0","77","77","77","77","Fri Sep 15 15:34:49 2023","1500","The main experiment item","True","ewm FlankerTask3.edited .osexp","/Users/izzymcgibbon/Desktop/College/Tarleton State /2023 /Fall /Stats /2.1 ","False","mono","False","18","no","white","no","yes","768","legacy","77","77","/Users/izzymcgibbon/Desktop/College/Tarleton State /2023 /Fall /Stats /2.1 /EWM-subject-2.csv","legacy","Melodramatic Milgram","4.0.5","0","h","NA","NA","h","NA","h","428.0","NA","NA","8352","NA","428","2","legacy","1024","2","48000","-16","experiment","HHHHH","2","even","10651","NA","NA","NA","NA","139179","128024","2197","140212","NA","2292","NA","140314","140743","140210","140314","FlankerTask.3","73","39150.0","78","1024"
"93","93","500","500","#3d3846","legacy","legacy","legacy","congruent","1","undefined","1","s","0","0","0","78","0","78","78","0","78","0","0","0","78","78","78","78","Fri Sep 15 15:34:49 2023","1500","The main experiment item","True","ewm FlankerTask3.edited .osexp","/Users/izzymcgibbon/Desktop/College/Tarleton State /2023 /Fall /Stats /2.1 ","False","mono","False","18","no","white","no","yes","768","legacy","78","78","/Users/izzymcgibbon/Desktop/College/Tarleton State /2023 /Fall /Stats /2.1 /EWM-subject-2.csv","legacy","Melodramatic Milgram","4.0.5","0","s","NA","NA","h","NA","s","382.0","NA","NA","8352","NA","382","2","legacy","1024","2","48000","-16","experiment","SSSSS","2","even","10651","NA","NA","NA","NA","140746","128024","2197","141781","NA","2292","NA","141883","142266","141779","141883","FlankerTask.3","74","39532.0","79","1024"
"93","93","498","498","#3d3846","legacy","legacy","legacy","incongruent","1","undefined","1","h","0","0","0","79","0","79","79","0","79","0","0","0","79","79","79","79","Fri Sep 15 15:34:49 2023","1500","The main experiment item","True","ewm FlankerTask3.edited .osexp","/Users/izzymcgibbon/Desktop/College/Tarleton State /2023 /Fall /Stats /2.1 ","False","mono","False","18","no","white","no","yes","768","legacy","79","79","/Users/izzymcgibbon/Desktop/College/Tarleton State /2023 /Fall /Stats /2.1 /EWM-subject-2.csv","legacy","Melodramatic Milgram","4.0.5","0","h","NA","NA","h","NA","h","325.0","NA","NA","8352","NA","325","2","legacy","1024","2","48000","-16","experiment","SSHSS","2","even","10651","NA","NA","NA","NA","142269","128024","2197","143309","NA","2292","NA","143411","143737","143307","143411","FlankerTask.3","75","39857.0","80","1024"
"93","93","499","499","#3d3846","legacy","legacy","legacy","congruent","1","undefined","1","s","0","0","0","80","0","80","80","0","80","0","0","0","80","80","80","80","Fri Sep 15 15:34:49 2023","600","The main experiment item","True","ewm FlankerTask3.edited .osexp","/Users/izzymcgibbon/Desktop/College/Tarleton State /2023 /Fall /Stats /2.1 ","False","mono","False","18","no","white","no","yes","768","legacy","0","79","/Users/izzymcgibbon/Desktop/College/Tarleton State /2023 /Fall /Stats /2.1 /EWM-subject-2.csv","legacy","Melodramatic Milgram","4.0.5","0","s","NA","NA","h","h","s","576.0","NA","NA","8352","7003","576","2","legacy","1024","2","48000","-16","experiment","SSSSS","2","even","10651","151747","NA","NA","NA","143739","128024","2197","151785","NA","2292","144743","151888","152465","151782","151888","FlankerTask.3","76","40433.0","81","1024"
"93","93","498","498","#3d3846","legacy","legacy","legacy","congruent","1","undefined","1","s","0","0","0","81","0","81","81","0","81","0","0","0","81","81","81","81","Fri Sep 15 15:34:49 2023","600","The main experiment item","True","ewm FlankerTask3.edited .osexp","/Users/izzymcgibbon/Desktop/College/Tarleton State /2023 /Fall /Stats /2.1 ","False","mono","False","18","no","white","no","yes","768","legacy","1","79","/Users/izzymcgibbon/Desktop/College/Tarleton State /2023 /Fall /Stats /2.1 /EWM-subject-2.csv","legacy","Melodramatic Milgram","4.0.5","0","s","NA","NA","h","h","s","483.0","NA","NA","8352","7003","483","2","legacy","1024","2","48000","-16","experiment","HHSHH","2","even","10651","151747","NA","NA","NA","152469","128024","2197","153502","NA","2292","144743","153604","154088","153501","153604","FlankerTask.3","77","40916.0","82","1024"
"93","93","499","499","#3d3846","legacy","legacy","legacy","incongruent","1","undefined","1","h","0","0","0","82","0","82","82","0","82","0","0","0","82","82","82","82","Fri Sep 15 15:34:49 2023","600","The main experiment item","True","ewm FlankerTask3.edited .osexp","/Users/izzymcgibbon/Desktop/College/Tarleton State /2023 /Fall /Stats /2.1 ","False","mono","False","18","no","white","no","yes","768","legacy","2","79","/Users/izzymcgibbon/Desktop/College/Tarleton State /2023 /Fall /Stats /2.1 /EWM-subject-2.csv","legacy","Melodramatic Milgram","4.0.5","0","h","NA","NA","h","h","h","541.0","NA","NA","8352","7003","541","2","legacy","1024","2","48000","-16","experiment","HHHHH","2","even","10651","151747","NA","NA","NA","154091","128024","2197","155128","NA","2292","144743","155230","155772","155126","155230","FlankerTask.3","78","41457.0","83","1024"
"94","94","502","502","#3d3846","legacy","legacy","legacy","incongruent","1","undefined","1","h","0","0","0","83","0","83","83","0","83","0","0","0","83","83","83","83","Fri Sep 15 15:34:49 2023","600","The main experiment item","True","ewm FlankerTask3.edited .osexp","/Users/izzymcgibbon/Desktop/College/Tarleton State /2023 /Fall /Stats /2.1 ","False","mono","False","18","no","white","no","yes","768","legacy","3","79","/Users/izzymcgibbon/Desktop/College/Tarleton State /2023 /Fall /Stats /2.1 /EWM-subject-2.csv","legacy","Melodramatic Milgram","4.0.5","0","h","NA","NA","h","h","h","789.0","NA","NA","8352","7003","789","2","legacy","1024","2","48000","-16","experiment","SSHSS","2","even","10651","151747","NA","NA","NA","155775","128024","2197","156815","NA","2292","144743","156918","157708","156814","156917","FlankerTask.3","79","42246.0","84","1024"
"94","94","501","501","#3d3846","legacy","legacy","legacy","incongruent","1","undefined","1","h","0","0","0","84","0","84","84","0","84","0","0","0","84","84","84","84","Fri Sep 15 15:34:49 2023","600","The main experiment item","True","ewm FlankerTask3.edited .osexp","/Users/izzymcgibbon/Desktop/College/Tarleton State /2023 /Fall /Stats /2.1 ","False","mono","False","18","no","white","no","yes","768","legacy","4","79","/Users/izzymcgibbon/Desktop/College/Tarleton State /2023 /Fall /Stats /2.1 /EWM-subject-2.csv","legacy","Melodramatic Milgram","4.0.5","0","h","NA","NA","h","h","h","343.0","NA","NA","8352","7003","343","2","legacy","1024","2","48000","-16","experiment","HHHHH","2","even","10651","151747","NA","157711","NA","158215","128024","2197","159254","NA","2292","144743","159356","159700","159253","159356","FlankerTask.3","80","42589.0","85","1024"
"93","93","498","498","#3d3846","legacy","legacy","legacy","incongruent","0","undefined","0","h","0","0","0","85","0","85","85","0","85","0","0","0","85","85","85","85","Fri Sep 15 15:34:49 2023","600","The main experiment item","True","ewm FlankerTask3.edited .osexp","/Users/izzymcgibbon/Desktop/College/Tarleton State /2023 /Fall /Stats /2.1 ","False","mono","False","18","no","white","no","yes","768","legacy","5","79","/Users/izzymcgibbon/Desktop/College/Tarleton State /2023 /Fall /Stats /2.1 /EWM-subject-2.csv","legacy","Melodramatic Milgram","4.0.5","0","s","NA","NA","h","h","s","244.0","NA","NA","8352","7003","244","2","legacy","1024","2","48000","-16","experiment","SSHSS","2","even","10651","151747","NA","157711","NA","159703","128024","2197","160743","NA","2292","144743","160845","161090","160741","160845","FlankerTask.3","80","42833.0","86","1024"
"93","93","497","497","#3d3846","legacy","legacy","legacy","congruent","1","undefined","1","s","0","0","0","86","0","86","86","0","86","0","0","0","86","86","86","86","Fri Sep 15 15:34:49 2023","600","The main experiment item","True","ewm FlankerTask3.edited .osexp","/Users/izzymcgibbon/Desktop/College/Tarleton State /2023 /Fall /Stats /2.1 ","False","mono","False","18","no","white","no","yes","768","legacy","6","79","/Users/izzymcgibbon/Desktop/College/Tarleton State /2023 /Fall /Stats /2.1 /EWM-subject-2.csv","legacy","Melodramatic Milgram","4.0.5","0","s","NA","NA","h","h","s","435.0","NA","NA","8352","7003","435","2","legacy","1024","2","48000","-16","experiment","SSSSS","2","even","10651","151747","NA","157711","NA","161595","161093","2197","162635","NA","2292","144743","162737","163173","162633","162737","FlankerTask.3","81","43268.0","87","1024"
"93","93","495","495","#3d3846","legacy","legacy","legacy","incongruent","1","undefined","1","h","0","0","0","87","0","87","87","0","87","0","0","0","87","87","87","87","Fri Sep 15 15:34:49 2023","600","The main experiment item","True","ewm FlankerTask3.edited .osexp","/Users/izzymcgibbon/Desktop/College/Tarleton State /2023 /Fall /Stats /2.1 ","False","mono","False","18","no","white","no","yes","768","legacy","7","79","/Users/izzymcgibbon/Desktop/College/Tarleton State /2023 /Fall /Stats /2.1 /EWM-subject-2.csv","legacy","Melodramatic Milgram","4.0.5","0","h","NA","NA","h","h","h","337.0","NA","NA","8352","7003","337","2","legacy","1024","2","48000","-16","experiment","HHHHH","2","even","10651","151747","NA","157711","NA","163176","161093","2197","164217","NA","2292","144743","164320","164658","164215","164319","FlankerTask.3","82","43605.0","88","1024"
"93","93","494","494","#3d3846","legacy","legacy","legacy","congruent","1","undefined","1","s","0","0","0","88","0","88","88","0","88","0","0","0","88","88","88","88","Fri Sep 15 15:34:49 2023","600","The main experiment item","True","ewm FlankerTask3.edited .osexp","/Users/izzymcgibbon/Desktop/College/Tarleton State /2023 /Fall /Stats /2.1 ","False","mono","False","18","no","white","no","yes","768","legacy","8","79","/Users/izzymcgibbon/Desktop/College/Tarleton State /2023 /Fall /Stats /2.1 /EWM-subject-2.csv","legacy","Melodramatic Milgram","4.0.5","0","s","NA","NA","h","h","s","399.0","NA","NA","8352","7003","399","2","legacy","1024","2","48000","-16","experiment","SSSSS","2","even","10651","151747","NA","157711","NA","164662","161093","2197","165706","NA","2292","144743","165808","166209","165704","165808","FlankerTask.3","83","44004.0","89","1024"
"93","93","492","492","#3d3846","legacy","legacy","legacy","congruent","1","undefined","1","s","0","0","0","89","0","89","89","0","89","0","0","0","89","89","89","89","Fri Sep 15 15:34:49 2023","600","The main experiment item","True","ewm FlankerTask3.edited .osexp","/Users/izzymcgibbon/Desktop/College/Tarleton State /2023 /Fall /Stats /2.1 ","False","mono","False","18","no","white","no","yes","768","legacy","9","79","/Users/izzymcgibbon/Desktop/College/Tarleton State /2023 /Fall /Stats /2.1 /EWM-subject-2.csv","legacy","Melodramatic Milgram","4.0.5","0","s","NA","NA","h","h","s","357.0","NA","NA","8352","7003","357","2","legacy","1024","2","48000","-16","experiment","HHSHH","2","even","10651","151747","NA","157711","NA","166211","161093","2197","167244","NA","2292","144743","167347","167706","167243","167346","FlankerTask.3","84","44361.0","90","1024"
"93","93","491","491","#3d3846","legacy","legacy","legacy","incongruent","1","undefined","1","h","0","0","0","90","0","90","90","0","90","0","0","0","90","90","90","90","Fri Sep 15 15:34:49 2023","600","The main experiment item","True","ewm FlankerTask3.edited .osexp","/Users/izzymcgibbon/Desktop/College/Tarleton State /2023 /Fall /Stats /2.1 ","False","mono","False","18","no","white","no","yes","768","legacy","10","79","/Users/izzymcgibbon/Desktop/College/Tarleton State /2023 /Fall /Stats /2.1 /EWM-subject-2.csv","legacy","Melodramatic Milgram","4.0.5","0","h","NA","NA","h","h","h","367.0","NA","NA","8352","7003","367","2","legacy","1024","2","48000","-16","experiment","SSHSS","2","even","10651","151747","NA","157711","NA","167708","161093","2197","168744","NA","2292","144743","168846","169214","168742","168846","FlankerTask.3","85","44728.0","91","1024"
"93","93","491","491","#3d3846","legacy","legacy","legacy","incongruent","1","undefined","1","h","0","0","0","91","0","91","91","0","91","0","0","0","91","91","91","91","Fri Sep 15 15:34:49 2023","600","The main experiment item","True","ewm FlankerTask3.edited .osexp","/Users/izzymcgibbon/Desktop/College/Tarleton State /2023 /Fall /Stats /2.1 ","False","mono","False","18","no","white","no","yes","768","legacy","11","79","/Users/izzymcgibbon/Desktop/College/Tarleton State /2023 /Fall /Stats /2.1 /EWM-subject-2.csv","legacy","Melodramatic Milgram","4.0.5","0","h","NA","NA","h","h","h","534.0","NA","NA","8352","7003","534","2","legacy","1024","2","48000","-16","experiment","SSHSS","2","even","10651","151747","NA","157711","NA","169217","161093","2197","170258","NA","2292","144743","170361","170896","170256","170361","FlankerTask.3","86","45262.0","92","1024"
"93","93","490","490","#3d3846","legacy","legacy","legacy","congruent","1","undefined","1","s","0","0","0","92","0","92","92","0","92","0","0","0","92","92","92","92","Fri Sep 15 15:34:49 2023","600","The main experiment item","True","ewm FlankerTask3.edited .osexp","/Users/izzymcgibbon/Desktop/College/Tarleton State /2023 /Fall /Stats /2.1 ","False","mono","False","18","no","white","no","yes","768","legacy","12","79","/Users/izzymcgibbon/Desktop/College/Tarleton State /2023 /Fall /Stats /2.1 /EWM-subject-2.csv","legacy","Melodramatic Milgram","4.0.5","0","s","NA","NA","h","h","s","383.0","NA","NA","8352","7003","383","2","legacy","1024","2","48000","-16","experiment","SSSSS","2","even","10651","151747","NA","157711","NA","170899","161093","2197","171939","NA","2292","144743","172041","172425","171937","172041","FlankerTask.3","87","45645.0","93","1024"
"93","93","489","489","#3d3846","legacy","legacy","legacy","congruent","1","undefined","1","s","0","0","0","93","0","93","93","0","93","0","0","0","93","93","93","93","Fri Sep 15 15:34:49 2023","600","The main experiment item","True","ewm FlankerTask3.edited .osexp","/Users/izzymcgibbon/Desktop/College/Tarleton State /2023 /Fall /Stats /2.1 ","False","mono","False","18","no","white","no","yes","768","legacy","13","79","/Users/izzymcgibbon/Desktop/College/Tarleton State /2023 /Fall /Stats /2.1 /EWM-subject-2.csv","legacy","Melodramatic Milgram","4.0.5","0","s","NA","NA","h","h","s","377.0","NA","NA","8352","7003","377","2","legacy","1024","2","48000","-16","experiment","SSSSS","2","even","10651","151747","NA","157711","NA","172429","161093","2197","173469","NA","2292","144743","173571","173949","173467","173571","FlankerTask.3","88","46022.0","94","1024"
"93","93","488","488","#3d3846","legacy","legacy","legacy","congruent","1","undefined","1","s","0","0","0","94","0","94","94","0","94","0","0","0","94","94","94","94","Fri Sep 15 15:34:49 2023","600","The main experiment item","True","ewm FlankerTask3.edited .osexp","/Users/izzymcgibbon/Desktop/College/Tarleton State /2023 /Fall /Stats /2.1 ","False","mono","False","18","no","white","no","yes","768","legacy","14","79","/Users/izzymcgibbon/Desktop/College/Tarleton State /2023 /Fall /Stats /2.1 /EWM-subject-2.csv","legacy","Melodramatic Milgram","4.0.5","0","s","NA","NA","h","h","s","412.0","NA","NA","8352","7003","412","2","legacy","1024","2","48000","-16","experiment","SSSSS","2","even","10651","151747","NA","157711","NA","173952","161093","2197","174993","NA","2292","144743","175095","175508","174991","175095","FlankerTask.3","89","46434.0","95","1024"
"93","93","487","487","#3d3846","legacy","legacy","legacy","congruent","1","undefined","1","s","0","0","0","95","0","95","95","0","95","0","0","0","95","95","95","95","Fri Sep 15 15:34:49 2023","600","The main experiment item","True","ewm FlankerTask3.edited .osexp","/Users/izzymcgibbon/Desktop/College/Tarleton State /2023 /Fall /Stats /2.1 ","False","mono","False","18","no","white","no","yes","768","legacy","15","79","/Users/izzymcgibbon/Desktop/College/Tarleton State /2023 /Fall /Stats /2.1 /EWM-subject-2.csv","legacy","Melodramatic Milgram","4.0.5","0","s","NA","NA","h","h","s","345.0","NA","NA","8352","7003","345","2","legacy","1024","2","48000","-16","experiment","HHSHH","2","even","10651","151747","NA","157711","NA","175511","161093","2197","176560","NA","2292","144743","176663","177009","176558","176662","FlankerTask.3","90","46779.0","96","1024"
"93","93","485","485","#3d3846","legacy","legacy","legacy","congruent","1","undefined","1","s","0","0","0","96","0","96","96","0","96","0","0","0","96","96","96","96","Fri Sep 15 15:34:49 2023","600","The main experiment item","True","ewm FlankerTask3.edited .osexp","/Users/izzymcgibbon/Desktop/College/Tarleton State /2023 /Fall /Stats /2.1 ","False","mono","False","18","no","white","no","yes","768","legacy","16","79","/Users/izzymcgibbon/Desktop/College/Tarleton State /2023 /Fall /Stats /2.1 /EWM-subject-2.csv","legacy","Melodramatic Milgram","4.0.5","0","s","NA","NA","h","h","s","308.0","NA","NA","8352","7003","308","2","legacy","1024","2","48000","-16","experiment","HHSHH","2","even","10651","151747","NA","157711","NA","177011","161093","2197","178044","NA","2292","144743","178146","178455","178043","178146","FlankerTask.3","91","47087.0","97","1024"
"93","93","483","483","#3d3846","legacy","legacy","legacy","congruent","1","undefined","1","s","0","0","0","97","0","97","97","0","97","0","0","0","97","97","97","97","Fri Sep 15 15:34:49 2023","600","The main experiment item","True","ewm FlankerTask3.edited .osexp","/Users/izzymcgibbon/Desktop/College/Tarleton State /2023 /Fall /Stats /2.1 ","False","mono","False","18","no","white","no","yes","768","legacy","17","79","/Users/izzymcgibbon/Desktop/College/Tarleton State /2023 /Fall /Stats /2.1 /EWM-subject-2.csv","legacy","Melodramatic Milgram","4.0.5","0","s","NA","NA","h","h","s","314.0","NA","NA","8352","7003","314","2","legacy","1024","2","48000","-16","experiment","HHSHH","2","even","10651","151747","NA","157711","NA","178457","161093","2197","179492","NA","2292","144743","179594","179909","179490","179594","FlankerTask.3","92","47401.0","98","1024"
"92","92","481","481","#3d3846","legacy","legacy","legacy","incongruent","0","undefined","0","h","0","0","0","98","0","98","98","0","98","0","0","0","98","98","98","98","Fri Sep 15 15:34:49 2023","600","The main experiment item","True","ewm FlankerTask3.edited .osexp","/Users/izzymcgibbon/Desktop/College/Tarleton State /2023 /Fall /Stats /2.1 ","False","mono","False","18","no","white","no","yes","768","legacy","18","79","/Users/izzymcgibbon/Desktop/College/Tarleton State /2023 /Fall /Stats /2.1 /EWM-subject-2.csv","legacy","Melodramatic Milgram","4.0.5","0","s","NA","NA","h","h","s","267.0","NA","NA","8352","7003","267","2","legacy","1024","2","48000","-16","experiment","SSHSS","2","even","10651","151747","NA","157711","NA","179912","161093","2197","180952","NA","2292","144743","181054","181322","180950","181054","FlankerTask.3","92","47668.0","99","1024"
"93","93","480","480","#3d3846","legacy","legacy","legacy","congruent","1","undefined","1","s","0","0","0","99","0","99","99","0","99","0","0","0","99","99","99","99","Fri Sep 15 15:34:49 2023","600","The main experiment item","True","ewm FlankerTask3.edited .osexp","/Users/izzymcgibbon/Desktop/College/Tarleton State /2023 /Fall /Stats /2.1 ","False","mono","False","18","no","white","no","yes","768","legacy","19","79","/Users/izzymcgibbon/Desktop/College/Tarleton State /2023 /Fall /Stats /2.1 /EWM-subject-2.csv","legacy","Melodramatic Milgram","4.0.5","0","s","NA","NA","h","h","s","401.0","NA","NA","8352","7003","401","2","legacy","1024","2","48000","-16","experiment","SSSSS","2","even","10651","151747","NA","157711","NA","181827","181325","2197","182867","NA","2292","144743","182969","183371","182865","182969","FlankerTask.3","93","48069.0","100","1024"
"93","93","479","479","#3d3846","legacy","legacy","legacy","incongruent","1","undefined","1","h","0","0","0","100","0","100","100","0","100","0","0","0","100","100","100","100","Fri Sep 15 15:34:49 2023","600","The main experiment item","True","ewm FlankerTask3.edited .osexp","/Users/izzymcgibbon/Desktop/College/Tarleton State /2023 /Fall /Stats /2.1 ","False","mono","False","18","no","white","no","yes","768","legacy","20","79","/Users/izzymcgibbon/Desktop/College/Tarleton State /2023 /Fall /Stats /2.1 /EWM-subject-2.csv","legacy","Melodramatic Milgram","4.0.5","0","h","NA","NA","h","h","h","368.0","NA","NA","8352","7003","368","2","legacy","1024","2","48000","-16","experiment","HHHHH","2","even","10651","151747","NA","157711","NA","183374","181325","2197","184414","NA","2292","144743","184516","184885","184413","184516","FlankerTask.3","94","48437.0","101","1024"
"93","93","478","478","#3d3846","legacy","legacy","legacy","congruent","1","undefined","1","s","0","0","0","101","0","101","101","0","101","0","0","0","101","101","101","101","Fri Sep 15 15:34:49 2023","600","The main experiment item","True","ewm FlankerTask3.edited .osexp","/Users/izzymcgibbon/Desktop/College/Tarleton State /2023 /Fall /Stats /2.1 ","False","mono","False","18","no","white","no","yes","768","legacy","21","79","/Users/izzymcgibbon/Desktop/College/Tarleton State /2023 /Fall /Stats /2.1 /EWM-subject-2.csv","legacy","Melodramatic Milgram","4.0.5","0","s","NA","NA","h","h","s","400.0","NA","NA","8352","7003","400","2","legacy","1024","2","48000","-16","experiment","SSSSS","2","even","10651","151747","NA","157711","NA","184888","181325","2197","185928","NA","2292","144743","186031","186432","185926","186030","FlankerTask.3","95","48837.0","102","1024"
"93","93","478","478","#3d3846","legacy","legacy","legacy","congruent","1","undefined","1","s","0","0","0","102","0","102","102","0","102","0","0","0","102","102","102","102","Fri Sep 15 15:34:49 2023","600","The main experiment item","True","ewm FlankerTask3.edited .osexp","/Users/izzymcgibbon/Desktop/College/Tarleton State /2023 /Fall /Stats /2.1 ","False","mono","False","18","no","white","no","yes","768","legacy","22","79","/Users/izzymcgibbon/Desktop/College/Tarleton State /2023 /Fall /Stats /2.1 /EWM-subject-2.csv","legacy","Melodramatic Milgram","4.0.5","0","s","NA","NA","h","h","s","407.0","NA","NA","8352","7003","407","2","legacy","1024","2","48000","-16","experiment","SSSSS","2","even","10651","151747","NA","157711","NA","186435","181325","2197","187477","NA","2292","144743","187579","187987","187475","187579","FlankerTask.3","96","49244.0","103","1024"
"92","92","476","476","#3d3846","legacy","legacy","legacy","incongruent","0","undefined","0","h","0","0","0","103","0","103","103","0","103","0","0","0","103","103","103","103","Fri Sep 15 15:34:49 2023","600","The main experiment item","True","ewm FlankerTask3.edited .osexp","/Users/izzymcgibbon/Desktop/College/Tarleton State /2023 /Fall /Stats /2.1 ","False","mono","False","18","no","white","no","yes","768","legacy","23","79","/Users/izzymcgibbon/Desktop/College/Tarleton State /2023 /Fall /Stats /2.1 /EWM-subject-2.csv","legacy","Melodramatic Milgram","4.0.5","0","s","NA","NA","h","h","s","332.0","NA","NA","8352","7003","332","2","legacy","1024","2","48000","-16","experiment","SSHSS","2","even","10651","151747","NA","157711","NA","187990","181325","2197","189036","NA","2292","144743","189138","189471","189034","189138","FlankerTask.3","96","49576.0","104","1024"
"92","92","475","475","#3d3846","legacy","legacy","legacy","congruent","1","undefined","1","s","0","0","0","104","0","104","104","0","104","0","0","0","104","104","104","104","Fri Sep 15 15:34:49 2023","600","The main experiment item","True","ewm FlankerTask3.edited .osexp","/Users/izzymcgibbon/Desktop/College/Tarleton State /2023 /Fall /Stats /2.1 ","False","mono","False","18","no","white","no","yes","768","legacy","24","79","/Users/izzymcgibbon/Desktop/College/Tarleton State /2023 /Fall /Stats /2.1 /EWM-subject-2.csv","legacy","Melodramatic Milgram","4.0.5","0","s","NA","NA","h","h","s","340.0","NA","NA","8352","7003","340","2","legacy","1024","2","48000","-16","experiment","SSSSS","2","even","10651","151747","NA","157711","NA","189977","189474","2197","191010","NA","2292","144743","191112","191454","191009","191112","FlankerTask.3","97","49916.0","105","1024"
"92","92","473","473","#3d3846","legacy","legacy","legacy","congruent","1","undefined","1","s","0","0","0","105","0","105","105","0","105","0","0","0","105","105","105","105","Fri Sep 15 15:34:49 2023","600","The main experiment item","True","ewm FlankerTask3.edited .osexp","/Users/izzymcgibbon/Desktop/College/Tarleton State /2023 /Fall /Stats /2.1 ","False","mono","False","18","no","white","no","yes","768","legacy","25","79","/Users/izzymcgibbon/Desktop/College/Tarleton State /2023 /Fall /Stats /2.1 /EWM-subject-2.csv","legacy","Melodramatic Milgram","4.0.5","0","s","NA","NA","h","h","s","318.0","NA","NA","8352","7003","318","2","legacy","1024","2","48000","-16","experiment","SSSSS","2","even","10651","151747","NA","157711","NA","191457","189474","2197","192493","NA","2292","144743","192595","192915","192491","192595","FlankerTask.3","98","50234.0","106","1024"
"92","92","473","473","#3d3846","legacy","legacy","legacy","incongruent","1","undefined","1","h","0","0","0","106","0","106","106","0","106","0","0","0","106","106","106","106","Fri Sep 15 15:34:49 2023","600","The main experiment item","True","ewm FlankerTask3.edited .osexp","/Users/izzymcgibbon/Desktop/College/Tarleton State /2023 /Fall /Stats /2.1 ","False","mono","False","18","no","white","no","yes","768","legacy","26","79","/Users/izzymcgibbon/Desktop/College/Tarleton State /2023 /Fall /Stats /2.1 /EWM-subject-2.csv","legacy","Melodramatic Milgram","4.0.5","0","h","NA","NA","h","h","h","440.0","NA","NA","8352","7003","440","2","legacy","1024","2","48000","-16","experiment","SSHSS","2","even","10651","151747","NA","157711","NA","192917","189474","2197","193957","NA","2292","144743","194059","194500","193955","194059","FlankerTask.3","99","50674.0","107","1024"
"91","91","472","472","#3d3846","legacy","legacy","legacy","congruent","0","undefined","0","s","0","0","0","107","0","107","107","0","107","0","0","0","107","107","107","107","Fri Sep 15 15:34:49 2023","600","The main experiment item","True","ewm FlankerTask3.edited .osexp","/Users/izzymcgibbon/Desktop/College/Tarleton State /2023 /Fall /Stats /2.1 ","False","mono","False","18","no","white","no","yes","768","legacy","27","79","/Users/izzymcgibbon/Desktop/College/Tarleton State /2023 /Fall /Stats /2.1 /EWM-subject-2.csv","legacy","Melodramatic Milgram","4.0.5","0","h","NA","NA","h","h","h","365.0","NA","NA","8352","7003","365","2","legacy","1024","2","48000","-16","experiment","HHSHH","2","even","10651","151747","NA","157711","NA","194503","189474","2197","195544","NA","2292","144743","195647","196013","195543","195646","FlankerTask.3","99","51039.0","108","1024"
"91","91","472","472","#3d3846","legacy","legacy","legacy","incongruent","1","undefined","1","h","0","0","0","108","0","108","108","0","108","0","0","0","108","108","108","108","Fri Sep 15 15:34:49 2023","600","The main experiment item","True","ewm FlankerTask3.edited .osexp","/Users/izzymcgibbon/Desktop/College/Tarleton State /2023 /Fall /Stats /2.1 ","False","mono","False","18","no","white","no","yes","768","legacy","28","79","/Users/izzymcgibbon/Desktop/College/Tarleton State /2023 /Fall /Stats /2.1 /EWM-subject-2.csv","legacy","Melodramatic Milgram","4.0.5","0","h","NA","NA","h","h","h","442.0","NA","NA","8352","7003","442","2","legacy","1024","2","48000","-16","experiment","HHHHH","2","even","10651","151747","NA","157711","NA","196519","196016","2197","197559","NA","2292","144743","197661","198105","197557","197661","FlankerTask.3","100","51481.0","109","1024"
"90","90","470","470","#3d3846","legacy","legacy","legacy","incongruent","0","undefined","0","h","0","0","0","109","0","109","109","0","109","0","0","0","109","109","109","109","Fri Sep 15 15:34:49 2023","600","The main experiment item","True","ewm FlankerTask3.edited .osexp","/Users/izzymcgibbon/Desktop/College/Tarleton State /2023 /Fall /Stats /2.1 ","False","mono","False","18","no","white","no","yes","768","legacy","29","79","/Users/izzymcgibbon/Desktop/College/Tarleton State /2023 /Fall /Stats /2.1 /EWM-subject-2.csv","legacy","Melodramatic Milgram","4.0.5","0","s","NA","NA","h","h","s","322.0","NA","NA","8352","7003","322","2","legacy","1024","2","48000","-16","experiment","SSHSS","2","even","10651","151747","NA","157711","NA","198108","196016","2197","199148","NA","2292","144743","199250","199573","199146","199250","FlankerTask.3","100","51803.0","110","1024"
"90","90","470","470","#3d3846","legacy","legacy","legacy","congruent","1","undefined","1","s","0","0","0","110","0","110","110","0","110","0","0","0","110","110","110","110","Fri Sep 15 15:34:49 2023","600","The main experiment item","True","ewm FlankerTask3.edited .osexp","/Users/izzymcgibbon/Desktop/College/Tarleton State /2023 /Fall /Stats /2.1 ","False","mono","False","18","no","white","no","yes","768","legacy","30","79","/Users/izzymcgibbon/Desktop/College/Tarleton State /2023 /Fall /Stats /2.1 /EWM-subject-2.csv","legacy","Melodramatic Milgram","4.0.5","0","s","NA","NA","h","h","s","457.0","NA","NA","8352","7003","457","2","legacy","1024","2","48000","-16","experiment","HHSHH","2","even","10651","151747","NA","157711","NA","200078","199576","2197","201128","NA","2292","144743","201230","201688","201126","201230","FlankerTask.3","101","52260.0","111","1024"
"91","91","470","470","#3d3846","legacy","legacy","legacy","congruent","1","undefined","1","s","0","0","0","111","0","111","111","0","111","0","0","0","111","111","111","111","Fri Sep 15 15:34:49 2023","600","The main experiment item","True","ewm FlankerTask3.edited .osexp","/Users/izzymcgibbon/Desktop/College/Tarleton State /2023 /Fall /Stats /2.1 ","False","mono","False","18","no","white","no","yes","768","legacy","31","79","/Users/izzymcgibbon/Desktop/College/Tarleton State /2023 /Fall /Stats /2.1 /EWM-subject-2.csv","legacy","Melodramatic Milgram","4.0.5","0","s","NA","NA","h","h","s","406.0","NA","NA","8352","7003","406","2","legacy","1024","2","48000","-16","experiment","HHSHH","2","even","10651","151747","NA","157711","NA","201691","199576","2197","202724","NA","2292","144743","202826","203233","202722","202826","FlankerTask.3","102","52666.0","112","1024"
"91","91","469","469","#3d3846","legacy","legacy","legacy","congruent","1","undefined","1","s","0","0","0","112","0","112","112","0","112","0","0","0","112","112","112","112","Fri Sep 15 15:34:49 2023","600","The main experiment item","True","ewm FlankerTask3.edited .osexp","/Users/izzymcgibbon/Desktop/College/Tarleton State /2023 /Fall /Stats /2.1 ","False","mono","False","18","no","white","no","yes","768","legacy","32","79","/Users/izzymcgibbon/Desktop/College/Tarleton State /2023 /Fall /Stats /2.1 /EWM-subject-2.csv","legacy","Melodramatic Milgram","4.0.5","0","s","NA","NA","h","h","s","435.0","NA","NA","8352","7003","435","2","legacy","1024","2","48000","-16","experiment","HHSHH","2","even","10651","151747","NA","157711","NA","203236","199576","2197","204271","NA","2292","144743","204373","204809","204269","204373","FlankerTask.3","103","53101.0","113","1024"
"91","91","469","469","#3d3846","legacy","legacy","legacy","congruent","1","undefined","1","s","0","0","0","113","0","113","113","0","113","0","0","0","113","113","113","113","Fri Sep 15 15:34:49 2023","600","The main experiment item","True","ewm FlankerTask3.edited .osexp","/Users/izzymcgibbon/Desktop/College/Tarleton State /2023 /Fall /Stats /2.1 ","False","mono","False","18","no","white","no","yes","768","legacy","33","79","/Users/izzymcgibbon/Desktop/College/Tarleton State /2023 /Fall /Stats /2.1 /EWM-subject-2.csv","legacy","Melodramatic Milgram","4.0.5","0","s","NA","NA","h","h","s","450.0","NA","NA","8352","7003","450","2","legacy","1024","2","48000","-16","experiment","HHSHH","2","even","10651","151747","NA","157711","NA","204812","199576","2197","205852","NA","2292","144743","205954","206405","205850","205954","FlankerTask.3","104","53551.0","114","1024"
"91","91","469","469","#3d3846","legacy","legacy","legacy","incongruent","1","undefined","1","h","0","0","0","114","0","114","114","0","114","0","0","0","114","114","114","114","Fri Sep 15 15:34:49 2023","600","The main experiment item","True","ewm FlankerTask3.edited .osexp","/Users/izzymcgibbon/Desktop/College/Tarleton State /2023 /Fall /Stats /2.1 ","False","mono","False","18","no","white","no","yes","768","legacy","34","79","/Users/izzymcgibbon/Desktop/College/Tarleton State /2023 /Fall /Stats /2.1 /EWM-subject-2.csv","legacy","Melodramatic Milgram","4.0.5","0","h","NA","NA","h","h","h","418.0","NA","NA","8352","7003","418","2","legacy","1024","2","48000","-16","experiment","HHHHH","2","even","10651","151747","NA","157711","NA","206408","199576","2197","207448","NA","2292","144743","207551","207970","207446","207550","FlankerTask.3","105","53969.0","115","1024"
