"acc","accuracy","average_response_time","avg_rt","background","canvas_backend","clock_backend","color_backend","condition","correct","correct_Instructions1","correct_keyboard_response","correct_response","count_Faster","count_Finish","count_ISI","count_Instructions1","count_Instructions2","count_Instructions3","count_block1","count_block2","count_block3","count_errorFeedback","count_experiment","count_fixation","count_keyboard_response","count_logger","count_sequence","count_stimulus","datetime","deadline","description","disable_garbage_collection","experiment_file","experiment_path","font_bold","font_family","font_italic","font_size","font_underline","foreground","form_clicks","fullscreen","height","keyboard_backend","live_row","live_row_block1","logfile","mouse_backend","opensesame_codename","opensesame_version","repeat_cycle","response","response_Finish","response_Instructions1","response_Instructions2","response_Instructions3","response_keyboard_response","response_time","response_time_Finish","response_time_Instructions1","response_time_Instructions2","response_time_Instructions3","response_time_keyboard_response","round_decimals","sampler_backend","sound_buf_size","sound_channels","sound_freq","sound_sample_size","start","stimulus","subject_nr","subject_parity","time_Faster","time_Finish","time_ISI","time_Instructions1","time_Instructions2","time_Instructions3","time_block1","time_block2","time_block3","time_errorFeedback","time_experiment","time_fixation","time_keyboard_response","time_logger","time_sequence","time_stimulus","title","total_correct","total_response_time","total_responses","width"
"100","100","1380","1380","black","legacy","legacy","legacy","congruent","1","undefined","1","h","0","0","0","0","0","0","0","0","0","0","0","0","0","0","0","0","Sat Sep 23 12:45:41 2023","1500","The main experiment item","True","FlankerTask.osexp","/Users/baileymcwhirter/Downloads","False","mono","False","18","no","white","no","yes","768","legacy","0","0","/Users/baileymcwhirter/Downloads/BMsubject-4.csv","legacy","Melodramatic Milgram","4.0.5","0","h","NA","h","NA","NA","h","1380.0","NA","45743","NA","NA","1380","2","legacy","1024","2","48000","-16","experiment","HHHHH","4","even","NA","NA","NA","1130","NA","NA","46880","NA","NA","NA","1081","46919","47022","48408","46915","47022","Flanker Task","1","1380.0","1","1024"
"50","50","907","907","black","legacy","legacy","legacy","incongruent","0","undefined","0","h","1","0","1","0","0","0","0","0","0","1","0","1","1","1","1","1","Sat Sep 23 12:45:41 2023","1500","The main experiment item","True","FlankerTask.osexp","/Users/baileymcwhirter/Downloads","False","mono","False","18","no","white","no","yes","768","legacy","1","1","/Users/baileymcwhirter/Downloads/BMsubject-4.csv","legacy","Melodramatic Milgram","4.0.5","0","s","NA","h","NA","NA","s","434.0","NA","45743","NA","NA","434","2","legacy","1024","2","48000","-16","experiment","SSHSS","4","even","NA","NA","48414","1130","NA","NA","46880","NA","NA","NA","1081","49448","49550","49984","49446","49550","Flanker Task","1","1814.0","2","1024"
"66","66","994","994","black","legacy","legacy","legacy","congruent","1","undefined","1","h","2","0","2","0","0","0","0","0","0","2","0","2","2","2","2","2","Sat Sep 23 12:45:41 2023","1500","The main experiment item","True","FlankerTask.osexp","/Users/baileymcwhirter/Downloads","False","mono","False","18","no","white","no","yes","768","legacy","2","2","/Users/baileymcwhirter/Downloads/BMsubject-4.csv","legacy","Melodramatic Milgram","4.0.5","0","h","NA","h","NA","NA","h","1170.0","NA","45743","NA","NA","1170","2","legacy","1024","2","48000","-16","experiment","HHHHH","4","even","NA","NA","50489","1130","NA","NA","46880","NA","NA","49987","1081","51526","51629","52800","51525","51629","Flanker Task","2","2984.0","3","1024"
"75","75","906","906","black","legacy","legacy","legacy","congruent","1","undefined","1","h","3","0","3","0","0","0","0","0","0","3","0","3","3","3","3","3","Sat Sep 23 12:45:41 2023","1500","The main experiment item","True","FlankerTask.osexp","/Users/baileymcwhirter/Downloads","False","mono","False","18","no","white","no","yes","768","legacy","3","3","/Users/baileymcwhirter/Downloads/BMsubject-4.csv","legacy","Melodramatic Milgram","4.0.5","0","h","NA","h","NA","NA","h","640.0","NA","45743","NA","NA","640","2","legacy","1024","2","48000","-16","experiment","HHHHH","4","even","NA","NA","52802","1130","NA","NA","46880","NA","NA","49987","1081","53837","53939","54580","53834","53939","Flanker Task","3","3624.0","4","1024"
"80","80","867","867","black","legacy","legacy","legacy","congruent","1","undefined","1","s","4","0","4","0","0","0","0","0","0","4","0","4","4","4","4","4","Sat Sep 23 12:45:41 2023","1500","The main experiment item","True","FlankerTask.osexp","/Users/baileymcwhirter/Downloads","False","mono","False","18","no","white","no","yes","768","legacy","4","4","/Users/baileymcwhirter/Downloads/BMsubject-4.csv","legacy","Melodramatic Milgram","4.0.5","0","s","NA","h","NA","NA","s","714.0","NA","45743","NA","NA","714","2","legacy","1024","2","48000","-16","experiment","SSSSS","4","even","NA","NA","54582","1130","NA","NA","46880","NA","NA","49987","1081","55616","55718","56432","55614","55718","Flanker Task","4","4338.0","5","1024"
"83","83","889","889","black","legacy","legacy","legacy","congruent","1","undefined","1","h","5","0","5","0","0","0","0","0","0","5","0","5","5","5","5","5","Sat Sep 23 12:45:41 2023","1500","The main experiment item","True","FlankerTask.osexp","/Users/baileymcwhirter/Downloads","False","mono","False","18","no","white","no","yes","768","legacy","5","5","/Users/baileymcwhirter/Downloads/BMsubject-4.csv","legacy","Melodramatic Milgram","4.0.5","0","h","NA","h","NA","NA","h","1000.0","NA","45743","NA","NA","1000","2","legacy","1024","2","48000","-16","experiment","HHHHH","4","even","NA","NA","56435","1130","NA","NA","46880","NA","NA","49987","1081","57478","57580","58580","57476","57580","Flanker Task","5","5338.0","6","1024"
"85","85","872","872","black","legacy","legacy","legacy","incongruent","1","undefined","1","s","6","0","6","0","0","0","0","0","0","6","0","6","6","6","6","6","Sat Sep 23 12:45:41 2023","1500","The main experiment item","True","FlankerTask.osexp","/Users/baileymcwhirter/Downloads","False","mono","False","18","no","white","no","yes","768","legacy","6","6","/Users/baileymcwhirter/Downloads/BMsubject-4.csv","legacy","Melodramatic Milgram","4.0.5","0","s","NA","h","NA","NA","s","771.0","NA","45743","NA","NA","771","2","legacy","1024","2","48000","-16","experiment","HHSHH","4","even","NA","NA","58583","1130","NA","NA","46880","NA","NA","49987","1081","59621","59723","60495","59619","59723","Flanker Task","6","6109.0","7","1024"
"87","87","849","849","black","legacy","legacy","legacy","congruent","1","undefined","1","h","7","0","7","0","0","0","0","0","0","7","0","7","7","7","7","7","Sat Sep 23 12:45:41 2023","1500","The main experiment item","True","FlankerTask.osexp","/Users/baileymcwhirter/Downloads","False","mono","False","18","no","white","no","yes","768","legacy","7","7","/Users/baileymcwhirter/Downloads/BMsubject-4.csv","legacy","Melodramatic Milgram","4.0.5","0","h","NA","h","NA","NA","h","689.0","NA","45743","NA","NA","689","2","legacy","1024","2","48000","-16","experiment","HHHHH","4","even","NA","NA","60498","1130","NA","NA","46880","NA","NA","49987","1081","61533","61635","62325","61531","61635","Flanker Task","7","6798.0","8","1024"
"88","88","839","839","black","legacy","legacy","legacy","incongruent","1","undefined","1","s","8","0","8","0","0","0","0","0","0","8","0","8","8","8","8","8","Sat Sep 23 12:45:41 2023","1500","The main experiment item","True","FlankerTask.osexp","/Users/baileymcwhirter/Downloads","False","mono","False","18","no","white","no","yes","768","legacy","8","8","/Users/baileymcwhirter/Downloads/BMsubject-4.csv","legacy","Melodramatic Milgram","4.0.5","0","s","NA","h","NA","NA","s","759.0","NA","45743","NA","NA","759","2","legacy","1024","2","48000","-16","experiment","HHSHH","4","even","NA","NA","62327","1130","NA","NA","46880","NA","NA","49987","1081","63357","63459","64219","63355","63459","Flanker Task","8","7557.0","9","1024"
"90","90","834","834","black","legacy","legacy","legacy","congruent","1","undefined","1","s","9","0","9","0","0","0","0","0","0","9","0","9","9","9","9","9","Sat Sep 23 12:45:41 2023","1500","The main experiment item","True","FlankerTask.osexp","/Users/baileymcwhirter/Downloads","False","mono","False","18","no","white","no","yes","768","legacy","9","9","/Users/baileymcwhirter/Downloads/BMsubject-4.csv","legacy","Melodramatic Milgram","4.0.5","0","s","NA","h","NA","NA","s","784.0","NA","45743","NA","NA","784","2","legacy","1024","2","48000","-16","experiment","SSSSS","4","even","NA","NA","64222","1130","NA","NA","46880","NA","NA","49987","1081","65252","65354","66139","65250","65354","Flanker Task","9","8341.0","10","1024"
"90","90","796","796","black","legacy","legacy","legacy","incongruent","1","undefined","1","s","10","0","10","0","0","0","0","0","0","10","0","10","10","10","10","10","Sat Sep 23 12:45:41 2023","1500","The main experiment item","True","FlankerTask.osexp","/Users/baileymcwhirter/Downloads","False","mono","False","18","no","white","no","yes","768","legacy","10","10","/Users/baileymcwhirter/Downloads/BMsubject-4.csv","legacy","Melodramatic Milgram","4.0.5","0","s","NA","h","NA","NA","s","415.0","NA","45743","NA","NA","415","2","legacy","1024","2","48000","-16","experiment","HHSHH","4","even","NA","NA","66141","1130","NA","NA","46880","NA","NA","49987","1081","67168","67270","67686","67166","67270","Flanker Task","10","8756.0","11","1024"
"91","91","766","766","black","legacy","legacy","legacy","congruent","1","undefined","1","s","11","0","11","0","0","0","0","0","0","11","0","11","11","11","11","11","Sat Sep 23 12:45:41 2023","1500","The main experiment item","True","FlankerTask.osexp","/Users/baileymcwhirter/Downloads","False","mono","False","18","no","white","no","yes","768","legacy","11","11","/Users/baileymcwhirter/Downloads/BMsubject-4.csv","legacy","Melodramatic Milgram","4.0.5","0","s","NA","h","NA","NA","s","447.0","NA","45743","NA","NA","447","2","legacy","1024","2","48000","-16","experiment","SSSSS","4","even","NA","NA","67688","1130","NA","NA","46880","NA","NA","49987","1081","68722","68824","69272","68720","68824","Flanker Task","11","9203.0","12","1024"
"92","92","744","744","black","legacy","legacy","legacy","congruent","1","undefined","1","h","12","0","12","0","0","0","0","0","0","12","0","12","12","12","12","12","Sat Sep 23 12:45:41 2023","1500","The main experiment item","True","FlankerTask.osexp","/Users/baileymcwhirter/Downloads","False","mono","False","18","no","white","no","yes","768","legacy","12","12","/Users/baileymcwhirter/Downloads/BMsubject-4.csv","legacy","Melodramatic Milgram","4.0.5","0","h","NA","h","NA","NA","h","469.0","NA","45743","NA","NA","469","2","legacy","1024","2","48000","-16","experiment","HHHHH","4","even","NA","NA","69274","1130","NA","NA","46880","NA","NA","49987","1081","70304","70406","70876","70302","70405","Flanker Task","12","9672.0","13","1024"
"92","92","737","737","black","legacy","legacy","legacy","congruent","1","undefined","1","s","13","0","13","0","0","0","0","0","0","13","0","13","13","13","13","13","Sat Sep 23 12:45:41 2023","1500","The main experiment item","True","FlankerTask.osexp","/Users/baileymcwhirter/Downloads","False","mono","False","18","no","white","no","yes","768","legacy","13","13","/Users/baileymcwhirter/Downloads/BMsubject-4.csv","legacy","Melodramatic Milgram","4.0.5","0","s","NA","h","NA","NA","s","655.0","NA","45743","NA","NA","655","2","legacy","1024","2","48000","-16","experiment","SSSSS","4","even","NA","NA","70878","1130","NA","NA","46880","NA","NA","49987","1081","71910","72012","72668","71908","72012","Flanker Task","13","10327.0","14","1024"
"93","93","731","731","black","legacy","legacy","legacy","incongruent","1","undefined","1","s","14","0","14","0","0","0","0","0","0","14","0","14","14","14","14","14","Sat Sep 23 12:45:41 2023","1500","The main experiment item","True","FlankerTask.osexp","/Users/baileymcwhirter/Downloads","False","mono","False","18","no","white","no","yes","768","legacy","14","14","/Users/baileymcwhirter/Downloads/BMsubject-4.csv","legacy","Melodramatic Milgram","4.0.5","0","s","NA","h","NA","NA","s","649.0","NA","45743","NA","NA","649","2","legacy","1024","2","48000","-16","experiment","HHSHH","4","even","NA","NA","72670","1130","NA","NA","46880","NA","NA","49987","1081","73703","73805","74454","73701","73805","Flanker Task","14","10976.0","15","1024"
"93","93","720","720","black","legacy","legacy","legacy","incongruent","1","undefined","1","h","15","0","15","0","0","0","0","0","0","15","0","15","15","15","15","15","Sat Sep 23 12:45:41 2023","1500","The main experiment item","True","FlankerTask.osexp","/Users/baileymcwhirter/Downloads","False","mono","False","18","no","white","no","yes","768","legacy","15","15","/Users/baileymcwhirter/Downloads/BMsubject-4.csv","legacy","Melodramatic Milgram","4.0.5","0","h","NA","h","NA","NA","h","544.0","NA","45743","NA","NA","544","2","legacy","1024","2","48000","-16","experiment","SSHSS","4","even","NA","NA","74457","1130","NA","NA","46880","NA","NA","49987","1081","75495","75598","76143","75493","75598","Flanker Task","15","11520.0","16","1024"
"88","88","714","714","black","legacy","legacy","legacy","congruent","0","undefined","0","h","16","0","16","0","0","0","0","0","0","16","0","16","16","16","16","16","Sat Sep 23 12:45:41 2023","1500","The main experiment item","True","FlankerTask.osexp","/Users/baileymcwhirter/Downloads","False","mono","False","18","no","white","no","yes","768","legacy","16","16","/Users/baileymcwhirter/Downloads/BMsubject-4.csv","legacy","Melodramatic Milgram","4.0.5","0","s","NA","h","NA","NA","s","625.0","NA","45743","NA","NA","625","2","legacy","1024","2","48000","-16","experiment","HHHHH","4","even","NA","NA","76145","1130","NA","NA","46880","NA","NA","49987","1081","77178","77280","77905","77176","77280","Flanker Task","15","12145.0","17","1024"
"88","88","705","705","black","legacy","legacy","legacy","congruent","1","undefined","1","h","17","0","17","0","0","0","0","0","0","17","0","17","17","17","17","17","Sat Sep 23 12:45:41 2023","1500","The main experiment item","True","FlankerTask.osexp","/Users/baileymcwhirter/Downloads","False","mono","False","18","no","white","no","yes","768","legacy","17","17","/Users/baileymcwhirter/Downloads/BMsubject-4.csv","legacy","Melodramatic Milgram","4.0.5","0","h","NA","h","NA","NA","h","561.0","NA","45743","NA","NA","561","2","legacy","1024","2","48000","-16","experiment","HHHHH","4","even","NA","NA","78412","1130","NA","NA","46880","NA","NA","77908","1081","79448","79550","80111","79446","79550","Flanker Task","16","12706.0","18","1024"
"89","89","698","698","black","legacy","legacy","legacy","incongruent","1","undefined","1","s","18","0","18","0","0","0","0","0","0","18","0","18","18","18","18","18","Sat Sep 23 12:45:41 2023","1500","The main experiment item","True","FlankerTask.osexp","/Users/baileymcwhirter/Downloads","False","mono","False","18","no","white","no","yes","768","legacy","18","18","/Users/baileymcwhirter/Downloads/BMsubject-4.csv","legacy","Melodramatic Milgram","4.0.5","0","s","NA","h","NA","NA","s","573.0","NA","45743","NA","NA","573","2","legacy","1024","2","48000","-16","experiment","HHSHH","4","even","NA","NA","80114","1130","NA","NA","46880","NA","NA","77908","1081","81153","81256","81829","81151","81256","Flanker Task","17","13279.0","19","1024"
"90","90","693","693","black","legacy","legacy","legacy","incongruent","1","undefined","1","h","19","0","19","0","0","0","0","0","0","19","0","19","19","19","19","19","Sat Sep 23 12:45:41 2023","1500","The main experiment item","True","FlankerTask.osexp","/Users/baileymcwhirter/Downloads","False","mono","False","18","no","white","no","yes","768","legacy","19","19","/Users/baileymcwhirter/Downloads/BMsubject-4.csv","legacy","Melodramatic Milgram","4.0.5","0","h","NA","h","NA","NA","h","591.0","NA","45743","NA","NA","591","2","legacy","1024","2","48000","-16","experiment","SSHSS","4","even","NA","NA","81832","1130","NA","NA","46880","NA","NA","77908","1081","82876","82979","83570","82874","82979","Flanker Task","18","13870.0","20","1024"
"90","90","679","679","black","legacy","legacy","legacy","congruent","1","undefined","1","s","20","0","20","0","0","0","0","0","0","20","0","20","20","20","20","20","Sat Sep 23 12:45:41 2023","1500","The main experiment item","True","FlankerTask.osexp","/Users/baileymcwhirter/Downloads","False","mono","False","18","no","white","no","yes","768","legacy","20","20","/Users/baileymcwhirter/Downloads/BMsubject-4.csv","legacy","Melodramatic Milgram","4.0.5","0","s","NA","h","NA","NA","s","405.0","NA","45743","NA","NA","405","2","legacy","1024","2","48000","-16","experiment","SSSSS","4","even","NA","NA","83573","1130","NA","NA","46880","NA","NA","77908","1081","84610","84712","85117","84607","84712","Flanker Task","19","14275.0","21","1024"
"90","90","672","672","black","legacy","legacy","legacy","congruent","1","undefined","1","h","21","0","21","0","0","0","0","0","0","21","0","21","21","21","21","21","Sat Sep 23 12:45:41 2023","1500","The main experiment item","True","FlankerTask.osexp","/Users/baileymcwhirter/Downloads","False","mono","False","18","no","white","no","yes","768","legacy","21","21","/Users/baileymcwhirter/Downloads/BMsubject-4.csv","legacy","Melodramatic Milgram","4.0.5","0","h","NA","h","NA","NA","h","526.0","NA","45743","NA","NA","526","2","legacy","1024","2","48000","-16","experiment","HHHHH","4","even","NA","NA","85120","1130","NA","NA","46880","NA","NA","77908","1081","86161","86263","86790","86158","86263","Flanker Task","20","14801.0","22","1024"
"91","91","666","666","black","legacy","legacy","legacy","incongruent","1","undefined","1","s","22","0","22","0","0","0","0","0","0","22","0","22","22","22","22","22","Sat Sep 23 12:45:41 2023","1500","The main experiment item","True","FlankerTask.osexp","/Users/baileymcwhirter/Downloads","False","mono","False","18","no","white","no","yes","768","legacy","22","22","/Users/baileymcwhirter/Downloads/BMsubject-4.csv","legacy","Melodramatic Milgram","4.0.5","0","s","NA","h","NA","NA","s","533.0","NA","45743","NA","NA","533","2","legacy","1024","2","48000","-16","experiment","HHSHH","4","even","NA","NA","86793","1130","NA","NA","46880","NA","NA","77908","1081","87820","87922","88456","87818","87922","Flanker Task","21","15334.0","23","1024"
"91","91","657","657","black","legacy","legacy","legacy","congruent","1","undefined","1","s","23","0","23","0","0","0","0","0","0","23","0","23","23","23","23","23","Sat Sep 23 12:45:41 2023","1500","The main experiment item","True","FlankerTask.osexp","/Users/baileymcwhirter/Downloads","False","mono","False","18","no","white","no","yes","768","legacy","23","23","/Users/baileymcwhirter/Downloads/BMsubject-4.csv","legacy","Melodramatic Milgram","4.0.5","0","s","NA","h","NA","NA","s","435.0","NA","45743","NA","NA","435","2","legacy","1024","2","48000","-16","experiment","SSSSS","4","even","NA","NA","88459","1130","NA","NA","46880","NA","NA","77908","1081","89491","89594","90030","89489","89594","Flanker Task","22","15769.0","24","1024"
"92","92","647","647","black","legacy","legacy","legacy","congruent","1","undefined","1","s","24","0","24","0","0","0","0","0","0","24","0","24","24","24","24","24","Sat Sep 23 12:45:41 2023","1500","The main experiment item","True","FlankerTask.osexp","/Users/baileymcwhirter/Downloads","False","mono","False","18","no","white","no","yes","768","legacy","24","24","/Users/baileymcwhirter/Downloads/BMsubject-4.csv","legacy","Melodramatic Milgram","4.0.5","0","s","NA","h","NA","NA","s","409.0","NA","45743","NA","NA","409","2","legacy","1024","2","48000","-16","experiment","SSSSS","4","even","NA","NA","90033","1130","NA","NA","46880","NA","NA","77908","1081","91070","91171","91581","91068","91171","Flanker Task","23","16178.0","25","1024"
"92","92","642","642","black","legacy","legacy","legacy","incongruent","1","undefined","1","s","25","0","25","0","0","0","0","0","0","25","0","25","25","25","25","25","Sat Sep 23 12:45:41 2023","1500","The main experiment item","True","FlankerTask.osexp","/Users/baileymcwhirter/Downloads","False","mono","False","18","no","white","no","yes","768","legacy","25","25","/Users/baileymcwhirter/Downloads/BMsubject-4.csv","legacy","Melodramatic Milgram","4.0.5","0","s","NA","h","NA","NA","s","526.0","NA","45743","NA","NA","526","2","legacy","1024","2","48000","-16","experiment","HHSHH","4","even","NA","NA","91584","1130","NA","NA","46880","NA","NA","77908","1081","92611","92713","93240","92609","92713","Flanker Task","24","16704.0","26","1024"
"92","92","635","635","black","legacy","legacy","legacy","congruent","1","undefined","1","s","26","0","26","0","0","0","0","0","0","26","0","26","26","26","26","26","Sat Sep 23 12:45:41 2023","1500","The main experiment item","True","FlankerTask.osexp","/Users/baileymcwhirter/Downloads","False","mono","False","18","no","white","no","yes","768","legacy","26","26","/Users/baileymcwhirter/Downloads/BMsubject-4.csv","legacy","Melodramatic Milgram","4.0.5","0","s","NA","h","NA","NA","s","453.0","NA","45743","NA","NA","453","2","legacy","1024","2","48000","-16","experiment","SSSSS","4","even","NA","NA","93242","1130","NA","NA","46880","NA","NA","77908","1081","94276","94380","94834","94274","94380","Flanker Task","25","17157.0","27","1024"
"92","92","630","630","black","legacy","legacy","legacy","congruent","1","undefined","1","h","27","0","27","0","0","0","0","0","0","27","0","27","27","27","27","27","Sat Sep 23 12:45:41 2023","1500","The main experiment item","True","FlankerTask.osexp","/Users/baileymcwhirter/Downloads","False","mono","False","18","no","white","no","yes","768","legacy","27","27","/Users/baileymcwhirter/Downloads/BMsubject-4.csv","legacy","Melodramatic Milgram","4.0.5","0","h","NA","h","NA","NA","h","499.0","NA","45743","NA","NA","499","2","legacy","1024","2","48000","-16","experiment","HHHHH","4","even","NA","NA","94836","1130","NA","NA","46880","NA","NA","77908","1081","95865","95967","96467","95863","95967","Flanker Task","26","17656.0","28","1024"
"93","93","623","623","black","legacy","legacy","legacy","congruent","1","undefined","1","s","28","0","28","0","0","0","0","0","0","28","0","28","28","28","28","28","Sat Sep 23 12:45:41 2023","1500","The main experiment item","True","FlankerTask.osexp","/Users/baileymcwhirter/Downloads","False","mono","False","18","no","white","no","yes","768","legacy","28","28","/Users/baileymcwhirter/Downloads/BMsubject-4.csv","legacy","Melodramatic Milgram","4.0.5","0","s","NA","h","NA","NA","s","422.0","NA","45743","NA","NA","422","2","legacy","1024","2","48000","-16","experiment","SSSSS","4","even","NA","NA","96469","1130","NA","NA","46880","NA","NA","77908","1081","97501","97604","98027","97499","97604","Flanker Task","27","18078.0","29","1024"
"93","93","621","621","black","legacy","legacy","legacy","incongruent","1","undefined","1","h","29","0","29","0","0","0","0","0","0","29","0","29","29","29","29","29","Sat Sep 23 12:45:41 2023","1500","The main experiment item","True","FlankerTask.osexp","/Users/baileymcwhirter/Downloads","False","mono","False","18","no","white","no","yes","768","legacy","29","29","/Users/baileymcwhirter/Downloads/BMsubject-4.csv","legacy","Melodramatic Milgram","4.0.5","0","h","NA","h","NA","NA","h","580.0","NA","45743","NA","NA","580","2","legacy","1024","2","48000","-16","experiment","SSHSS","4","even","NA","NA","98029","1130","NA","NA","46880","NA","NA","77908","1081","99056","99159","99740","99055","99159","Flanker Task","28","18658.0","30","1024"
"90","90","614","614","black","legacy","legacy","legacy","incongruent","0","undefined","0","h","30","0","30","0","0","0","0","0","0","30","0","30","30","30","30","30","Sat Sep 23 12:45:41 2023","1500","The main experiment item","True","FlankerTask.osexp","/Users/baileymcwhirter/Downloads","False","mono","False","18","no","white","no","yes","768","legacy","30","30","/Users/baileymcwhirter/Downloads/BMsubject-4.csv","legacy","Melodramatic Milgram","4.0.5","0","s","NA","h","NA","NA","s","377.0","NA","45743","NA","NA","377","2","legacy","1024","2","48000","-16","experiment","SSHSS","4","even","NA","NA","99742","1130","NA","NA","46880","NA","NA","77908","1081","100767","100869","101247","100765","100869","Flanker Task","28","19035.0","31","1024"
"90","90","608","608","black","legacy","legacy","legacy","incongruent","1","undefined","1","s","31","0","31","0","0","0","0","0","0","31","0","31","31","31","31","31","Sat Sep 23 12:45:41 2023","1500","The main experiment item","True","FlankerTask.osexp","/Users/baileymcwhirter/Downloads","False","mono","False","18","no","white","no","yes","768","legacy","31","31","/Users/baileymcwhirter/Downloads/BMsubject-4.csv","legacy","Melodramatic Milgram","4.0.5","0","s","NA","h","NA","NA","s","422.0","NA","45743","NA","NA","422","2","legacy","1024","2","48000","-16","experiment","HHSHH","4","even","NA","NA","101750","1130","NA","NA","46880","NA","NA","101249","1081","102776","102878","103301","102774","102878","Flanker Task","29","19457.0","32","1024"
"90","90","604","604","black","legacy","legacy","legacy","incongruent","1","undefined","1","h","32","0","32","0","0","0","0","0","0","32","0","32","32","32","32","32","Sat Sep 23 12:45:41 2023","1500","The main experiment item","True","FlankerTask.osexp","/Users/baileymcwhirter/Downloads","False","mono","False","18","no","white","no","yes","768","legacy","32","32","/Users/baileymcwhirter/Downloads/BMsubject-4.csv","legacy","Melodramatic Milgram","4.0.5","0","h","NA","h","NA","NA","h","481.0","NA","45743","NA","NA","481","2","legacy","1024","2","48000","-16","experiment","SSHSS","4","even","NA","NA","103303","1130","NA","NA","46880","NA","NA","101249","1081","104335","104439","104920","104333","104438","Flanker Task","30","19938.0","33","1024"
"91","91","603","603","black","legacy","legacy","legacy","congruent","1","undefined","1","s","33","0","33","0","0","0","0","0","0","33","0","33","33","33","33","33","Sat Sep 23 12:45:41 2023","1500","The main experiment item","True","FlankerTask.osexp","/Users/baileymcwhirter/Downloads","False","mono","False","18","no","white","no","yes","768","legacy","33","33","/Users/baileymcwhirter/Downloads/BMsubject-4.csv","legacy","Melodramatic Milgram","4.0.5","0","s","NA","h","NA","NA","s","568.0","NA","45743","NA","NA","568","2","legacy","1024","2","48000","-16","experiment","SSSSS","4","even","NA","NA","104923","1130","NA","NA","46880","NA","NA","101249","1081","105952","106056","106624","105950","106056","Flanker Task","31","20506.0","34","1024"
"91","91","600","600","black","legacy","legacy","legacy","incongruent","1","undefined","1","s","34","0","34","0","0","0","0","0","0","34","0","34","34","34","34","34","Sat Sep 23 12:45:41 2023","1500","The main experiment item","True","FlankerTask.osexp","/Users/baileymcwhirter/Downloads","False","mono","False","18","no","white","no","yes","768","legacy","34","34","/Users/baileymcwhirter/Downloads/BMsubject-4.csv","legacy","Melodramatic Milgram","4.0.5","0","s","NA","h","NA","NA","s","518.0","NA","45743","NA","NA","518","2","legacy","1024","2","48000","-16","experiment","HHSHH","4","even","NA","NA","106627","1130","NA","NA","46880","NA","NA","101249","1081","107654","107756","108274","107652","107756","Flanker Task","32","21024.0","35","1024"
"91","91","597","597","black","legacy","legacy","legacy","congruent","1","undefined","1","s","35","0","35","0","0","0","0","0","0","35","0","35","35","35","35","35","Sat Sep 23 12:45:41 2023","1500","The main experiment item","True","FlankerTask.osexp","/Users/baileymcwhirter/Downloads","False","mono","False","18","no","white","no","yes","768","legacy","35","35","/Users/baileymcwhirter/Downloads/BMsubject-4.csv","legacy","Melodramatic Milgram","4.0.5","0","s","NA","h","NA","NA","s","475.0","NA","45743","NA","NA","475","2","legacy","1024","2","48000","-16","experiment","SSSSS","4","even","NA","NA","108277","1130","NA","NA","46880","NA","NA","101249","1081","109309","109413","109888","109307","109413","Flanker Task","33","21499.0","36","1024"
"91","91","595","595","black","legacy","legacy","legacy","incongruent","1","undefined","1","s","36","0","36","0","0","0","0","0","0","36","0","36","36","36","36","36","Sat Sep 23 12:45:41 2023","1500","The main experiment item","True","FlankerTask.osexp","/Users/baileymcwhirter/Downloads","False","mono","False","18","no","white","no","yes","768","legacy","36","36","/Users/baileymcwhirter/Downloads/BMsubject-4.csv","legacy","Melodramatic Milgram","4.0.5","0","s","NA","h","NA","NA","s","539.0","NA","45743","NA","NA","539","2","legacy","1024","2","48000","-16","experiment","HHSHH","4","even","NA","NA","109891","1130","NA","NA","46880","NA","NA","101249","1081","110919","111023","111562","110917","111023","Flanker Task","34","22038.0","37","1024"
"89","89","591","591","black","legacy","legacy","legacy","incongruent","0","undefined","0","h","37","0","37","0","0","0","0","0","0","37","0","37","37","37","37","37","Sat Sep 23 12:45:41 2023","1500","The main experiment item","True","FlankerTask.osexp","/Users/baileymcwhirter/Downloads","False","mono","False","18","no","white","no","yes","768","legacy","37","37","/Users/baileymcwhirter/Downloads/BMsubject-4.csv","legacy","Melodramatic Milgram","4.0.5","0","s","NA","h","NA","NA","s","431.0","NA","45743","NA","NA","431","2","legacy","1024","2","48000","-16","experiment","SSHSS","4","even","NA","NA","111565","1130","NA","NA","46880","NA","NA","101249","1081","112593","112696","113127","112591","112696","Flanker Task","34","22469.0","38","1024"
"89","89","590","590","black","legacy","legacy","legacy","incongruent","1","undefined","1","h","38","0","38","0","0","0","0","0","0","38","0","38","38","38","38","38","Sat Sep 23 12:45:41 2023","1500","The main experiment item","True","FlankerTask.osexp","/Users/baileymcwhirter/Downloads","False","mono","False","18","no","white","no","yes","768","legacy","38","38","/Users/baileymcwhirter/Downloads/BMsubject-4.csv","legacy","Melodramatic Milgram","4.0.5","0","h","NA","h","NA","NA","h","549.0","NA","45743","NA","NA","549","2","legacy","1024","2","48000","-16","experiment","SSHSS","4","even","NA","NA","113635","1130","NA","NA","46880","NA","NA","113130","1081","114663","114767","115317","114661","114767","Flanker Task","35","23018.0","39","1024"
"90","90","588","588","black","legacy","legacy","legacy","incongruent","1","undefined","1","s","39","0","39","0","0","0","0","0","0","39","0","39","39","39","39","39","Sat Sep 23 12:45:41 2023","1500","The main experiment item","True","FlankerTask.osexp","/Users/baileymcwhirter/Downloads","False","mono","False","18","no","white","no","yes","768","legacy","39","39","/Users/baileymcwhirter/Downloads/BMsubject-4.csv","legacy","Melodramatic Milgram","4.0.5","0","s","NA","h","NA","NA","s","516.0","NA","45743","NA","NA","516","2","legacy","1024","2","48000","-16","experiment","HHSHH","4","even","NA","NA","115320","1130","NA","NA","46880","NA","NA","113130","1081","116351","116456","116973","116349","116455","Flanker Task","36","23534.0","40","1024"
"90","90","586","586","black","legacy","legacy","legacy","incongruent","1","undefined","1","h","40","0","40","0","0","0","0","0","0","40","0","40","40","40","40","40","Sat Sep 23 12:45:41 2023","1500","The main experiment item","True","FlankerTask.osexp","/Users/baileymcwhirter/Downloads","False","mono","False","18","no","white","no","yes","768","legacy","40","40","/Users/baileymcwhirter/Downloads/BMsubject-4.csv","legacy","Melodramatic Milgram","4.0.5","0","h","NA","h","NA","NA","h","531.0","NA","45743","NA","NA","531","2","legacy","1024","2","48000","-16","experiment","SSHSS","4","even","NA","NA","116976","1130","NA","NA","46880","NA","NA","113130","1081","118001","118103","118635","117999","118103","Flanker Task","37","24065.0","41","1024"
"90","90","590","590","black","legacy","legacy","legacy","incongruent","1","undefined","1","h","41","0","41","0","0","0","0","0","0","41","0","41","41","41","41","41","Sat Sep 23 12:45:41 2023","1500","The main experiment item","True","FlankerTask.osexp","/Users/baileymcwhirter/Downloads","False","mono","False","18","no","white","no","yes","768","legacy","41","41","/Users/baileymcwhirter/Downloads/BMsubject-4.csv","legacy","Melodramatic Milgram","4.0.5","0","h","NA","h","NA","NA","h","736.0","NA","45743","NA","NA","736","2","legacy","1024","2","48000","-16","experiment","SSHSS","4","even","NA","NA","118637","1130","NA","NA","46880","NA","NA","113130","1081","119666","119769","120506","119663","119769","Flanker Task","38","24801.0","42","1024"
"90","90","588","588","black","legacy","legacy","legacy","incongruent","1","undefined","1","h","42","0","42","0","0","0","0","0","0","42","0","42","42","42","42","42","Sat Sep 23 12:45:41 2023","1500","The main experiment item","True","FlankerTask.osexp","/Users/baileymcwhirter/Downloads","False","mono","False","18","no","white","no","yes","768","legacy","42","42","/Users/baileymcwhirter/Downloads/BMsubject-4.csv","legacy","Melodramatic Milgram","4.0.5","0","h","NA","h","NA","NA","h","515.0","NA","45743","NA","NA","515","2","legacy","1024","2","48000","-16","experiment","SSHSS","4","even","NA","NA","120508","1130","NA","NA","46880","NA","NA","113130","1081","121541","121645","122161","121539","121645","Flanker Task","39","25316.0","43","1024"
"90","90","590","590","black","legacy","legacy","legacy","congruent","1","undefined","1","h","43","0","43","0","0","0","0","0","0","43","0","43","43","43","43","43","Sat Sep 23 12:45:41 2023","1500","The main experiment item","True","FlankerTask.osexp","/Users/baileymcwhirter/Downloads","False","mono","False","18","no","white","no","yes","768","legacy","43","43","/Users/baileymcwhirter/Downloads/BMsubject-4.csv","legacy","Melodramatic Milgram","4.0.5","0","h","NA","h","NA","NA","h","660.0","NA","45743","NA","NA","660","2","legacy","1024","2","48000","-16","experiment","HHHHH","4","even","NA","NA","122163","1130","NA","NA","46880","NA","NA","113130","1081","123189","123292","123953","123187","123292","Flanker Task","40","25976.0","44","1024"
"91","91","589","589","black","legacy","legacy","legacy","incongruent","1","undefined","1","h","44","0","44","0","0","0","0","0","0","44","0","44","44","44","44","44","Sat Sep 23 12:45:41 2023","1500","The main experiment item","True","FlankerTask.osexp","/Users/baileymcwhirter/Downloads","False","mono","False","18","no","white","no","yes","768","legacy","44","44","/Users/baileymcwhirter/Downloads/BMsubject-4.csv","legacy","Melodramatic Milgram","4.0.5","0","h","NA","h","NA","NA","h","539.0","NA","45743","NA","NA","539","2","legacy","1024","2","48000","-16","experiment","SSHSS","4","even","NA","NA","123955","1130","NA","NA","46880","NA","NA","113130","1081","124985","125088","125628","124983","125088","Flanker Task","41","26515.0","45","1024"
"91","91","587","587","black","legacy","legacy","legacy","incongruent","1","undefined","1","s","45","0","45","0","0","0","0","0","0","45","0","45","45","45","45","45","Sat Sep 23 12:45:41 2023","1500","The main experiment item","True","FlankerTask.osexp","/Users/baileymcwhirter/Downloads","False","mono","False","18","no","white","no","yes","768","legacy","45","45","/Users/baileymcwhirter/Downloads/BMsubject-4.csv","legacy","Melodramatic Milgram","4.0.5","0","s","NA","h","NA","NA","s","489.0","NA","45743","NA","NA","489","2","legacy","1024","2","48000","-16","experiment","HHSHH","4","even","NA","NA","125630","1130","NA","NA","46880","NA","NA","113130","1081","126655","126757","127247","126653","126757","Flanker Task","42","27004.0","46","1024"
"91","91","584","584","black","legacy","legacy","legacy","congruent","1","undefined","1","h","46","0","46","0","0","0","0","0","0","46","0","46","46","46","46","46","Sat Sep 23 12:45:41 2023","1500","The main experiment item","True","FlankerTask.osexp","/Users/baileymcwhirter/Downloads","False","mono","False","18","no","white","no","yes","768","legacy","46","46","/Users/baileymcwhirter/Downloads/BMsubject-4.csv","legacy","Melodramatic Milgram","4.0.5","0","h","NA","h","NA","NA","h","480.0","NA","45743","NA","NA","480","2","legacy","1024","2","48000","-16","experiment","HHHHH","4","even","NA","NA","127249","1130","NA","NA","46880","NA","NA","113130","1081","128278","128379","128860","128276","128379","Flanker Task","43","27484.0","47","1024"
"91","91","583","583","black","legacy","legacy","legacy","congruent","1","undefined","1","h","47","0","47","0","0","0","0","0","0","47","0","47","47","47","47","47","Sat Sep 23 12:45:41 2023","1500","The main experiment item","True","FlankerTask.osexp","/Users/baileymcwhirter/Downloads","False","mono","False","18","no","white","no","yes","768","legacy","47","47","/Users/baileymcwhirter/Downloads/BMsubject-4.csv","legacy","Melodramatic Milgram","4.0.5","0","h","NA","h","NA","NA","h","529.0","NA","45743","NA","NA","529","2","legacy","1024","2","48000","-16","experiment","HHHHH","4","even","NA","NA","128862","1130","NA","NA","46880","NA","NA","113130","1081","129887","129989","130519","129885","129989","Flanker Task","44","28013.0","48","1024"
"91","91","580","580","black","legacy","legacy","legacy","congruent","1","undefined","1","s","48","0","48","0","0","0","0","0","0","48","0","48","48","48","48","48","Sat Sep 23 12:45:41 2023","1500","The main experiment item","True","FlankerTask.osexp","/Users/baileymcwhirter/Downloads","False","mono","False","18","no","white","no","yes","768","legacy","48","48","/Users/baileymcwhirter/Downloads/BMsubject-4.csv","legacy","Melodramatic Milgram","4.0.5","0","s","NA","h","NA","NA","s","454.0","NA","45743","NA","NA","454","2","legacy","1024","2","48000","-16","experiment","SSSSS","4","even","NA","NA","130521","1130","NA","NA","46880","NA","NA","113130","1081","131553","131657","132111","131551","131657","Flanker Task","45","28467.0","49","1024"
"92","92","579","579","black","legacy","legacy","legacy","incongruent","1","undefined","1","h","49","0","49","0","0","0","0","0","0","49","0","49","49","49","49","49","Sat Sep 23 12:45:41 2023","1500","The main experiment item","True","FlankerTask.osexp","/Users/baileymcwhirter/Downloads","False","mono","False","18","no","white","no","yes","768","legacy","49","49","/Users/baileymcwhirter/Downloads/BMsubject-4.csv","legacy","Melodramatic Milgram","4.0.5","0","h","NA","h","NA","NA","h","531.0","NA","45743","NA","NA","531","2","legacy","1024","2","48000","-16","experiment","SSHSS","4","even","NA","NA","132114","1130","NA","NA","46880","NA","NA","113130","1081","133144","133247","133778","133142","133247","Flanker Task","46","28998.0","50","1024"
"92","92","581","581","black","legacy","legacy","legacy","incongruent","1","undefined","1","s","50","0","50","0","0","0","0","0","0","50","0","50","50","50","50","50","Sat Sep 23 12:45:41 2023","1500","The main experiment item","True","FlankerTask.osexp","/Users/baileymcwhirter/Downloads","False","mono","False","18","no","white","no","yes","768","legacy","50","50","/Users/baileymcwhirter/Downloads/BMsubject-4.csv","legacy","Melodramatic Milgram","4.0.5","0","s","NA","h","NA","NA","s","645.0","NA","45743","NA","NA","645","2","legacy","1024","2","48000","-16","experiment","HHSHH","4","even","NA","NA","133781","1130","NA","NA","46880","NA","NA","113130","1081","134806","134908","135553","134805","134908","Flanker Task","47","29643.0","51","1024"
"92","92","578","578","black","legacy","legacy","legacy","incongruent","1","undefined","1","h","51","0","51","0","0","0","0","0","0","51","0","51","51","51","51","51","Sat Sep 23 12:45:41 2023","1500","The main experiment item","True","FlankerTask.osexp","/Users/baileymcwhirter/Downloads","False","mono","False","18","no","white","no","yes","768","legacy","51","51","/Users/baileymcwhirter/Downloads/BMsubject-4.csv","legacy","Melodramatic Milgram","4.0.5","0","h","NA","h","NA","NA","h","452.0","NA","45743","NA","NA","452","2","legacy","1024","2","48000","-16","experiment","SSHSS","4","even","NA","NA","135556","1130","NA","NA","46880","NA","NA","113130","1081","136585","136687","137139","136583","136687","Flanker Task","48","30095.0","52","1024"
"92","92","576","576","black","legacy","legacy","legacy","congruent","1","undefined","1","s","52","0","52","0","0","0","0","0","0","52","0","52","52","52","52","52","Sat Sep 23 12:45:41 2023","1500","The main experiment item","True","FlankerTask.osexp","/Users/baileymcwhirter/Downloads","False","mono","False","18","no","white","no","yes","768","legacy","52","52","/Users/baileymcwhirter/Downloads/BMsubject-4.csv","legacy","Melodramatic Milgram","4.0.5","0","s","NA","h","NA","NA","s","459.0","NA","45743","NA","NA","459","2","legacy","1024","2","48000","-16","experiment","SSSSS","4","even","NA","NA","137142","1130","NA","NA","46880","NA","NA","113130","1081","138169","138271","138730","138167","138271","Flanker Task","49","30554.0","53","1024"
"92","92","575","575","black","legacy","legacy","legacy","incongruent","1","undefined","1","s","53","0","53","0","0","0","0","0","0","53","0","53","53","53","53","53","Sat Sep 23 12:45:41 2023","1500","The main experiment item","True","FlankerTask.osexp","/Users/baileymcwhirter/Downloads","False","mono","False","18","no","white","no","yes","768","legacy","53","53","/Users/baileymcwhirter/Downloads/BMsubject-4.csv","legacy","Melodramatic Milgram","4.0.5","0","s","NA","h","NA","NA","s","528.0","NA","45743","NA","NA","528","2","legacy","1024","2","48000","-16","experiment","HHSHH","4","even","NA","NA","138733","1130","NA","NA","46880","NA","NA","113130","1081","139760","139863","140392","139758","139863","Flanker Task","50","31082.0","54","1024"
"92","92","573","573","black","legacy","legacy","legacy","congruent","1","undefined","1","s","54","0","54","0","0","0","0","0","0","54","0","54","54","54","54","54","Sat Sep 23 12:45:41 2023","1500","The main experiment item","True","FlankerTask.osexp","/Users/baileymcwhirter/Downloads","False","mono","False","18","no","white","no","yes","768","legacy","54","54","/Users/baileymcwhirter/Downloads/BMsubject-4.csv","legacy","Melodramatic Milgram","4.0.5","0","s","NA","h","NA","NA","s","475.0","NA","45743","NA","NA","475","2","legacy","1024","2","48000","-16","experiment","SSSSS","4","even","NA","NA","140395","1130","NA","NA","46880","NA","NA","113130","1081","141420","141522","141998","141418","141522","Flanker Task","51","31557.0","55","1024"
"92","92","571","571","black","legacy","legacy","legacy","congruent","1","undefined","1","s","55","0","55","0","0","0","0","0","0","55","0","55","55","55","55","55","Sat Sep 23 12:45:41 2023","1500","The main experiment item","True","FlankerTask.osexp","/Users/baileymcwhirter/Downloads","False","mono","False","18","no","white","no","yes","768","legacy","55","55","/Users/baileymcwhirter/Downloads/BMsubject-4.csv","legacy","Melodramatic Milgram","4.0.5","0","s","NA","h","NA","NA","s","458.0","NA","45743","NA","NA","458","2","legacy","1024","2","48000","-16","experiment","SSSSS","4","even","NA","NA","142001","1130","NA","NA","46880","NA","NA","113130","1081","143026","143128","143587","143024","143127","Flanker Task","52","32015.0","56","1024"
"92","92","569","569","black","legacy","legacy","legacy","incongruent","1","undefined","1","s","56","0","56","0","0","0","0","0","0","56","0","56","56","56","56","56","Sat Sep 23 12:45:41 2023","1500","The main experiment item","True","FlankerTask.osexp","/Users/baileymcwhirter/Downloads","False","mono","False","18","no","white","no","yes","768","legacy","56","56","/Users/baileymcwhirter/Downloads/BMsubject-4.csv","legacy","Melodramatic Milgram","4.0.5","0","s","NA","h","NA","NA","s","457.0","NA","45743","NA","NA","457","2","legacy","1024","2","48000","-16","experiment","HHSHH","4","even","NA","NA","143589","1130","NA","NA","46880","NA","NA","113130","1081","144618","144722","145180","144616","144722","Flanker Task","53","32472.0","57","1024"
"93","93","567","567","black","legacy","legacy","legacy","incongruent","1","undefined","1","h","57","0","57","0","0","0","0","0","0","57","0","57","57","57","57","57","Sat Sep 23 12:45:41 2023","1500","The main experiment item","True","FlankerTask.osexp","/Users/baileymcwhirter/Downloads","False","mono","False","18","no","white","no","yes","768","legacy","57","57","/Users/baileymcwhirter/Downloads/BMsubject-4.csv","legacy","Melodramatic Milgram","4.0.5","0","h","NA","h","NA","NA","h","440.0","NA","45743","NA","NA","440","2","legacy","1024","2","48000","-16","experiment","SSHSS","4","even","NA","NA","145182","1130","NA","NA","46880","NA","NA","113130","1081","146208","146310","146751","146205","146310","Flanker Task","54","32912.0","58","1024"
"93","93","566","566","black","legacy","legacy","legacy","congruent","1","undefined","1","h","58","0","58","0","0","0","0","0","0","58","0","58","58","58","58","58","Sat Sep 23 12:45:41 2023","1500","The main experiment item","True","FlankerTask.osexp","/Users/baileymcwhirter/Downloads","False","mono","False","18","no","white","no","yes","768","legacy","58","58","/Users/baileymcwhirter/Downloads/BMsubject-4.csv","legacy","Melodramatic Milgram","4.0.5","0","h","NA","h","NA","NA","h","518.0","NA","45743","NA","NA","518","2","legacy","1024","2","48000","-16","experiment","HHHHH","4","even","NA","NA","146753","1130","NA","NA","46880","NA","NA","113130","1081","147781","147884","148403","147779","147884","Flanker Task","55","33430.0","59","1024"
"93","93","564","564","black","legacy","legacy","legacy","incongruent","1","undefined","1","h","59","0","59","0","0","0","0","0","0","59","0","59","59","59","59","59","Sat Sep 23 12:45:41 2023","1500","The main experiment item","True","FlankerTask.osexp","/Users/baileymcwhirter/Downloads","False","mono","False","18","no","white","no","yes","768","legacy","59","59","/Users/baileymcwhirter/Downloads/BMsubject-4.csv","legacy","Melodramatic Milgram","4.0.5","0","h","NA","h","NA","NA","h","438.0","NA","45743","NA","NA","438","2","legacy","1024","2","48000","-16","experiment","SSHSS","4","even","NA","NA","148405","1130","NA","NA","46880","NA","NA","113130","1081","149436","149539","149978","149433","149539","Flanker Task","56","33868.0","60","1024"
"93","93","561","561","black","legacy","legacy","legacy","congruent","1","undefined","1","h","60","0","60","0","0","0","0","0","0","60","0","60","60","60","60","60","Sat Sep 23 12:45:41 2023","1500","The main experiment item","True","FlankerTask.osexp","/Users/baileymcwhirter/Downloads","False","mono","False","18","no","white","no","yes","768","legacy","60","60","/Users/baileymcwhirter/Downloads/BMsubject-4.csv","legacy","Melodramatic Milgram","4.0.5","0","h","NA","h","NA","NA","h","413.0","NA","45743","NA","NA","413","2","legacy","1024","2","48000","-16","experiment","HHHHH","4","even","NA","NA","149980","1130","NA","NA","46880","NA","NA","113130","1081","151014","151119","151533","151012","151118","Flanker Task","57","34281.0","61","1024"
"93","93","560","560","black","legacy","legacy","legacy","incongruent","1","undefined","1","s","61","0","61","0","0","0","0","0","0","61","0","61","61","61","61","61","Sat Sep 23 12:45:41 2023","1500","The main experiment item","True","FlankerTask.osexp","/Users/baileymcwhirter/Downloads","False","mono","False","18","no","white","no","yes","768","legacy","61","61","/Users/baileymcwhirter/Downloads/BMsubject-4.csv","legacy","Melodramatic Milgram","4.0.5","0","s","NA","h","NA","NA","s","452.0","NA","45743","NA","NA","452","2","legacy","1024","2","48000","-16","experiment","HHSHH","4","even","NA","NA","151535","1130","NA","NA","46880","NA","NA","113130","1081","152563","152665","153117","152558","152665","Flanker Task","58","34733.0","62","1024"
"93","93","558","558","black","legacy","legacy","legacy","incongruent","1","undefined","1","h","62","0","62","0","0","0","0","0","0","62","0","62","62","62","62","62","Sat Sep 23 12:45:41 2023","1500","The main experiment item","True","FlankerTask.osexp","/Users/baileymcwhirter/Downloads","False","mono","False","18","no","white","no","yes","768","legacy","62","62","/Users/baileymcwhirter/Downloads/BMsubject-4.csv","legacy","Melodramatic Milgram","4.0.5","0","h","NA","h","NA","NA","h","482.0","NA","45743","NA","NA","482","2","legacy","1024","2","48000","-16","experiment","SSHSS","4","even","NA","NA","153120","1130","NA","NA","46880","NA","NA","113130","1081","154146","154248","154730","154143","154248","Flanker Task","59","35215.0","63","1024"
"93","93","556","556","black","legacy","legacy","legacy","congruent","1","undefined","1","s","63","0","63","0","0","0","0","0","0","63","0","63","63","63","63","63","Sat Sep 23 12:45:41 2023","1500","The main experiment item","True","FlankerTask.osexp","/Users/baileymcwhirter/Downloads","False","mono","False","18","no","white","no","yes","768","legacy","63","63","/Users/baileymcwhirter/Downloads/BMsubject-4.csv","legacy","Melodramatic Milgram","4.0.5","0","s","NA","h","NA","NA","s","388.0","NA","45743","NA","NA","388","2","legacy","1024","2","48000","-16","experiment","SSSSS","4","even","NA","NA","154733","1130","NA","NA","46880","NA","NA","113130","1081","155761","155865","156253","155758","155864","Flanker Task","60","35603.0","64","1024"
"93","93","555","555","black","legacy","legacy","legacy","incongruent","1","undefined","1","h","64","0","64","0","0","0","0","0","0","64","0","64","64","64","64","64","Sat Sep 23 12:45:41 2023","1500","The main experiment item","True","FlankerTask.osexp","/Users/baileymcwhirter/Downloads","False","mono","False","18","no","white","no","yes","768","legacy","64","64","/Users/baileymcwhirter/Downloads/BMsubject-4.csv","legacy","Melodramatic Milgram","4.0.5","0","h","NA","h","NA","NA","h","491.0","NA","45743","NA","NA","491","2","legacy","1024","2","48000","-16","experiment","SSHSS","4","even","NA","NA","156256","1130","NA","NA","46880","NA","NA","113130","1081","157285","157388","157880","157282","157388","Flanker Task","61","36094.0","65","1024"
"93","93","551","551","black","legacy","legacy","legacy","congruent","1","undefined","1","s","65","0","65","0","0","0","0","0","0","65","0","65","65","65","65","65","Sat Sep 23 12:45:41 2023","1500","The main experiment item","True","FlankerTask.osexp","/Users/baileymcwhirter/Downloads","False","mono","False","18","no","white","no","yes","768","legacy","65","65","/Users/baileymcwhirter/Downloads/BMsubject-4.csv","legacy","Melodramatic Milgram","4.0.5","0","s","NA","h","NA","NA","s","330.0","NA","45743","NA","NA","330","2","legacy","1024","2","48000","-16","experiment","SSSSS","4","even","NA","NA","157883","1130","NA","NA","46880","NA","NA","113130","1081","158910","159012","159343","158907","159011","Flanker Task","62","36424.0","66","1024"
"94","94","550","550","black","legacy","legacy","legacy","congruent","1","undefined","1","h","66","0","66","0","0","0","0","0","0","66","0","66","66","66","66","66","Sat Sep 23 12:45:41 2023","1500","The main experiment item","True","FlankerTask.osexp","/Users/baileymcwhirter/Downloads","False","mono","False","18","no","white","no","yes","768","legacy","66","66","/Users/baileymcwhirter/Downloads/BMsubject-4.csv","legacy","Melodramatic Milgram","4.0.5","0","h","NA","h","NA","NA","h","492.0","NA","45743","NA","NA","492","2","legacy","1024","2","48000","-16","experiment","HHHHH","4","even","NA","NA","159345","1130","NA","NA","46880","NA","NA","113130","1081","160375","160479","160971","160373","160479","Flanker Task","63","36916.0","67","1024"
"94","94","548","548","black","legacy","legacy","legacy","incongruent","1","undefined","1","s","67","0","67","0","0","0","0","0","0","67","0","67","67","67","67","67","Sat Sep 23 12:45:41 2023","1500","The main experiment item","True","FlankerTask.osexp","/Users/baileymcwhirter/Downloads","False","mono","False","18","no","white","no","yes","768","legacy","67","67","/Users/baileymcwhirter/Downloads/BMsubject-4.csv","legacy","Melodramatic Milgram","4.0.5","0","s","NA","h","NA","NA","s","397.0","NA","45743","NA","NA","397","2","legacy","1024","2","48000","-16","experiment","HHSHH","4","even","NA","NA","160974","1130","NA","NA","46880","NA","NA","113130","1081","162006","162110","162507","162003","162109","Flanker Task","64","37313.0","68","1024"
"94","94","547","547","black","legacy","legacy","legacy","incongruent","1","undefined","1","s","68","0","68","0","0","0","0","0","0","68","0","68","68","68","68","68","Sat Sep 23 12:45:41 2023","1500","The main experiment item","True","FlankerTask.osexp","/Users/baileymcwhirter/Downloads","False","mono","False","18","no","white","no","yes","768","legacy","68","68","/Users/baileymcwhirter/Downloads/BMsubject-4.csv","legacy","Melodramatic Milgram","4.0.5","0","s","NA","h","NA","NA","s","483.0","NA","45743","NA","NA","483","2","legacy","1024","2","48000","-16","experiment","HHSHH","4","even","NA","NA","162510","1130","NA","NA","46880","NA","NA","113130","1081","163537","163639","164122","163535","163639","Flanker Task","65","37796.0","69","1024"
"94","94","547","547","black","legacy","legacy","legacy","incongruent","1","undefined","1","h","69","0","69","0","0","0","0","0","0","69","0","69","69","69","69","69","Sat Sep 23 12:45:41 2023","1500","The main experiment item","True","FlankerTask.osexp","/Users/baileymcwhirter/Downloads","False","mono","False","18","no","white","no","yes","768","legacy","69","69","/Users/baileymcwhirter/Downloads/BMsubject-4.csv","legacy","Melodramatic Milgram","4.0.5","0","h","NA","h","NA","NA","h","496.0","NA","45743","NA","NA","496","2","legacy","1024","2","48000","-16","experiment","SSHSS","4","even","NA","NA","164125","1130","NA","NA","46880","NA","NA","113130","1081","165153","165256","165753","165151","165256","Flanker Task","66","38292.0","70","1024"
"94","94","545","545","black","legacy","legacy","legacy","incongruent","1","undefined","1","s","70","0","70","0","0","0","0","0","0","70","0","70","70","70","70","70","Sat Sep 23 12:45:41 2023","1500","The main experiment item","True","FlankerTask.osexp","/Users/baileymcwhirter/Downloads","False","mono","False","18","no","white","no","yes","768","legacy","70","70","/Users/baileymcwhirter/Downloads/BMsubject-4.csv","legacy","Melodramatic Milgram","4.0.5","0","s","NA","h","NA","NA","s","446.0","NA","45743","NA","NA","446","2","legacy","1024","2","48000","-16","experiment","HHSHH","4","even","NA","NA","165755","1130","NA","NA","46880","NA","NA","113130","1081","166787","166891","167338","166784","166890","Flanker Task","67","38738.0","71","1024"
"94","94","543","543","black","legacy","legacy","legacy","congruent","1","undefined","1","h","71","0","71","0","0","0","0","0","0","71","0","71","71","71","71","71","Sat Sep 23 12:45:41 2023","1500","The main experiment item","True","FlankerTask.osexp","/Users/baileymcwhirter/Downloads","False","mono","False","18","no","white","no","yes","768","legacy","71","71","/Users/baileymcwhirter/Downloads/BMsubject-4.csv","legacy","Melodramatic Milgram","4.0.5","0","h","NA","h","NA","NA","h","374.0","NA","45743","NA","NA","374","2","legacy","1024","2","48000","-16","experiment","HHHHH","4","even","NA","NA","167341","1130","NA","NA","46880","NA","NA","113130","1081","168369","168472","168847","168365","168471","Flanker Task","68","39112.0","72","1024"
"94","94","540","540","black","legacy","legacy","legacy","congruent","1","undefined","1","s","72","0","72","0","0","0","0","0","0","72","0","72","72","72","72","72","Sat Sep 23 12:45:41 2023","1500","The main experiment item","True","FlankerTask.osexp","/Users/baileymcwhirter/Downloads","False","mono","False","18","no","white","no","yes","768","legacy","72","72","/Users/baileymcwhirter/Downloads/BMsubject-4.csv","legacy","Melodramatic Milgram","4.0.5","0","s","NA","h","NA","NA","s","356.0","NA","45743","NA","NA","356","2","legacy","1024","2","48000","-16","experiment","SSSSS","4","even","NA","NA","168849","1130","NA","NA","46880","NA","NA","113130","1081","169887","169989","170346","169884","169989","Flanker Task","69","39468.0","73","1024"
"94","94","538","538","black","legacy","legacy","legacy","congruent","1","undefined","1","h","73","0","73","0","0","0","0","0","0","73","0","73","73","73","73","73","Sat Sep 23 12:45:41 2023","1500","The main experiment item","True","FlankerTask.osexp","/Users/baileymcwhirter/Downloads","False","mono","False","18","no","white","no","yes","768","legacy","73","73","/Users/baileymcwhirter/Downloads/BMsubject-4.csv","legacy","Melodramatic Milgram","4.0.5","0","h","NA","h","NA","NA","h","382.0","NA","45743","NA","NA","382","2","legacy","1024","2","48000","-16","experiment","HHHHH","4","even","NA","NA","170348","1130","NA","NA","46880","NA","NA","113130","1081","171375","171477","171860","171373","171477","Flanker Task","70","39850.0","74","1024"
"94","94","538","538","black","legacy","legacy","legacy","congruent","1","undefined","1","h","74","0","74","0","0","0","0","0","0","74","0","74","74","74","74","74","Sat Sep 23 12:45:41 2023","1500","The main experiment item","True","FlankerTask.osexp","/Users/baileymcwhirter/Downloads","False","mono","False","18","no","white","no","yes","768","legacy","74","74","/Users/baileymcwhirter/Downloads/BMsubject-4.csv","legacy","Melodramatic Milgram","4.0.5","0","h","NA","h","NA","NA","h","503.0","NA","45743","NA","NA","503","2","legacy","1024","2","48000","-16","experiment","HHHHH","4","even","NA","NA","171862","1130","NA","NA","46880","NA","NA","113130","1081","172889","172991","173495","172886","172991","Flanker Task","71","40353.0","75","1024"
"94","94","538","538","black","legacy","legacy","legacy","incongruent","1","undefined","1","h","75","0","75","0","0","0","0","0","0","75","0","75","75","75","75","75","Sat Sep 23 12:45:41 2023","1500","The main experiment item","True","FlankerTask.osexp","/Users/baileymcwhirter/Downloads","False","mono","False","18","no","white","no","yes","768","legacy","75","75","/Users/baileymcwhirter/Downloads/BMsubject-4.csv","legacy","Melodramatic Milgram","4.0.5","0","h","NA","h","NA","NA","h","589.0","NA","45743","NA","NA","589","2","legacy","1024","2","48000","-16","experiment","SSHSS","4","even","NA","NA","173497","1130","NA","NA","46880","NA","NA","113130","1081","174525","174627","175216","174522","174627","Flanker Task","72","40942.0","76","1024"
"94","94","536","536","black","legacy","legacy","legacy","congruent","1","undefined","1","s","76","0","76","0","0","0","0","0","0","76","0","76","76","76","76","76","Sat Sep 23 12:45:41 2023","1500","The main experiment item","True","FlankerTask.osexp","/Users/baileymcwhirter/Downloads","False","mono","False","18","no","white","no","yes","768","legacy","76","76","/Users/baileymcwhirter/Downloads/BMsubject-4.csv","legacy","Melodramatic Milgram","4.0.5","0","s","NA","h","NA","NA","s","349.0","NA","45743","NA","NA","349","2","legacy","1024","2","48000","-16","experiment","SSSSS","4","even","NA","NA","175219","1130","NA","NA","46880","NA","NA","113130","1081","176253","176355","176704","176247","176355","Flanker Task","73","41291.0","77","1024"
"94","94","535","535","black","legacy","legacy","legacy","incongruent","1","undefined","1","s","77","0","77","0","0","0","0","0","0","77","0","77","77","77","77","77","Sat Sep 23 12:45:41 2023","1500","The main experiment item","True","FlankerTask.osexp","/Users/baileymcwhirter/Downloads","False","mono","False","18","no","white","no","yes","768","legacy","77","77","/Users/baileymcwhirter/Downloads/BMsubject-4.csv","legacy","Melodramatic Milgram","4.0.5","0","s","NA","h","NA","NA","s","463.0","NA","45743","NA","NA","463","2","legacy","1024","2","48000","-16","experiment","HHSHH","4","even","NA","NA","176707","1130","NA","NA","46880","NA","NA","113130","1081","177737","177839","178303","177732","177839","Flanker Task","74","41754.0","78","1024"
"94","94","532","532","black","legacy","legacy","legacy","congruent","1","undefined","1","h","78","0","78","0","0","0","0","0","0","78","0","78","78","78","78","78","Sat Sep 23 12:45:41 2023","1500","The main experiment item","True","FlankerTask.osexp","/Users/baileymcwhirter/Downloads","False","mono","False","18","no","white","no","yes","768","legacy","78","78","/Users/baileymcwhirter/Downloads/BMsubject-4.csv","legacy","Melodramatic Milgram","4.0.5","0","h","NA","h","NA","NA","h","345.0","NA","45743","NA","NA","345","2","legacy","1024","2","48000","-16","experiment","HHHHH","4","even","NA","NA","178305","1130","NA","NA","46880","NA","NA","113130","1081","179334","179437","179783","179331","179437","Flanker Task","75","42099.0","79","1024"
"95","95","531","531","black","legacy","legacy","legacy","congruent","1","undefined","1","s","79","0","79","0","0","0","0","0","0","79","0","79","79","79","79","79","Sat Sep 23 12:45:41 2023","1500","The main experiment item","True","FlankerTask.osexp","/Users/baileymcwhirter/Downloads","False","mono","False","18","no","white","no","yes","768","legacy","79","79","/Users/baileymcwhirter/Downloads/BMsubject-4.csv","legacy","Melodramatic Milgram","4.0.5","0","s","NA","h","NA","NA","s","429.0","NA","45743","NA","NA","429","2","legacy","1024","2","48000","-16","experiment","SSSSS","4","even","NA","NA","179785","1130","NA","NA","46880","NA","NA","113130","1081","180811","180913","181343","180808","180913","Flanker Task","76","42528.0","80","1024"
"95","95","531","531","black","legacy","legacy","legacy","congruent","1","undefined","1","s","80","0","80","0","0","0","0","0","0","80","0","80","80","80","80","80","Sat Sep 23 12:45:41 2023","600","The main experiment item","True","FlankerTask.osexp","/Users/baileymcwhirter/Downloads","False","mono","False","18","no","white","no","yes","768","legacy","0","79","/Users/baileymcwhirter/Downloads/BMsubject-4.csv","legacy","Melodramatic Milgram","4.0.5","0","s","NA","h","h","NA","s","552.0","NA","45743","36626","NA","552","2","legacy","1024","2","48000","-16","experiment","SSSSS","4","even","NA","NA","181345","1130","182352","NA","46880","218979","NA","113130","1081","219015","219116","219668","219013","219116","Flanker Task","77","43080.0","81","1024"
"95","95","534","534","black","legacy","legacy","legacy","incongruent","1","undefined","1","s","81","0","81","0","0","0","0","0","0","81","0","81","81","81","81","81","Sat Sep 23 12:45:41 2023","600","The main experiment item","True","FlankerTask.osexp","/Users/baileymcwhirter/Downloads","False","mono","False","18","no","white","no","yes","768","legacy","1","79","/Users/baileymcwhirter/Downloads/BMsubject-4.csv","legacy","Melodramatic Milgram","4.0.5","0","s","NA","h","h","NA","s","742.0","NA","45743","36626","NA","742","2","legacy","1024","2","48000","-16","experiment","HHSHH","4","even","NA","NA","219671","1130","182352","NA","46880","218979","NA","113130","1081","220708","220812","221555","220705","220812","Flanker Task","78","43822.0","82","1024"
"95","95","533","533","black","legacy","legacy","legacy","incongruent","1","undefined","1","h","82","0","82","0","0","0","0","0","0","82","0","82","82","82","82","82","Sat Sep 23 12:45:41 2023","600","The main experiment item","True","FlankerTask.osexp","/Users/baileymcwhirter/Downloads","False","mono","False","18","no","white","no","yes","768","legacy","2","79","/Users/baileymcwhirter/Downloads/BMsubject-4.csv","legacy","Melodramatic Milgram","4.0.5","0","h","NA","h","h","NA","h","486.0","NA","45743","36626","NA","486","2","legacy","1024","2","48000","-16","experiment","SSHSS","4","even","221557","NA","222059","1130","182352","NA","46880","218979","NA","113130","1081","223085","223187","223674","223083","223187","Flanker Task","79","44308.0","83","1024"
"95","95","533","533","black","legacy","legacy","legacy","incongruent","1","undefined","1","h","83","0","83","0","0","0","0","0","0","83","0","83","83","83","83","83","Sat Sep 23 12:45:41 2023","600","The main experiment item","True","FlankerTask.osexp","/Users/baileymcwhirter/Downloads","False","mono","False","18","no","white","no","yes","768","legacy","3","79","/Users/baileymcwhirter/Downloads/BMsubject-4.csv","legacy","Melodramatic Milgram","4.0.5","0","h","NA","h","h","NA","h","523.0","NA","45743","36626","NA","523","2","legacy","1024","2","48000","-16","experiment","SSHSS","4","even","221557","NA","223676","1130","182352","NA","46880","218979","NA","113130","1081","224709","224813","225337","224707","224813","Flanker Task","80","44831.0","84","1024"
"95","95","532","532","black","legacy","legacy","legacy","incongruent","1","undefined","1","s","84","0","84","0","0","0","0","0","0","84","0","84","84","84","84","84","Sat Sep 23 12:45:41 2023","600","The main experiment item","True","FlankerTask.osexp","/Users/baileymcwhirter/Downloads","False","mono","False","18","no","white","no","yes","768","legacy","4","79","/Users/baileymcwhirter/Downloads/BMsubject-4.csv","legacy","Melodramatic Milgram","4.0.5","0","s","NA","h","h","NA","s","398.0","NA","45743","36626","NA","398","2","legacy","1024","2","48000","-16","experiment","HHSHH","4","even","221557","NA","225340","1130","182352","NA","46880","218979","NA","113130","1081","226372","226477","226876","226370","226477","Flanker Task","81","45229.0","85","1024"
"95","95","531","531","black","legacy","legacy","legacy","incongruent","1","undefined","1","h","85","0","85","0","0","0","0","0","0","85","0","85","85","85","85","85","Sat Sep 23 12:45:41 2023","600","The main experiment item","True","FlankerTask.osexp","/Users/baileymcwhirter/Downloads","False","mono","False","18","no","white","no","yes","768","legacy","5","79","/Users/baileymcwhirter/Downloads/BMsubject-4.csv","legacy","Melodramatic Milgram","4.0.5","0","h","NA","h","h","NA","h","491.0","NA","45743","36626","NA","491","2","legacy","1024","2","48000","-16","experiment","SSHSS","4","even","221557","NA","226879","1130","182352","NA","46880","218979","NA","113130","1081","227904","228006","228498","227902","228006","Flanker Task","82","45720.0","86","1024"
"94","94","531","531","black","legacy","legacy","legacy","congruent","0","undefined","0","h","86","0","86","0","0","0","0","0","0","86","0","86","86","86","86","86","Sat Sep 23 12:45:41 2023","600","The main experiment item","True","FlankerTask.osexp","/Users/baileymcwhirter/Downloads","False","mono","False","18","no","white","no","yes","768","legacy","6","79","/Users/baileymcwhirter/Downloads/BMsubject-4.csv","legacy","Melodramatic Milgram","4.0.5","0","s","NA","h","h","NA","s","497.0","NA","45743","36626","NA","497","2","legacy","1024","2","48000","-16","experiment","HHHHH","4","even","221557","NA","228500","1130","182352","NA","46880","218979","NA","113130","1081","229525","229627","230125","229523","229627","Flanker Task","82","46217.0","87","1024"
"94","94","530","530","black","legacy","legacy","legacy","incongruent","1","undefined","1","s","87","0","87","0","0","0","0","0","0","87","0","87","87","87","87","87","Sat Sep 23 12:45:41 2023","600","The main experiment item","True","FlankerTask.osexp","/Users/baileymcwhirter/Downloads","False","mono","False","18","no","white","no","yes","768","legacy","7","79","/Users/baileymcwhirter/Downloads/BMsubject-4.csv","legacy","Melodramatic Milgram","4.0.5","0","s","NA","h","h","NA","s","491.0","NA","45743","36626","NA","491","2","legacy","1024","2","48000","-16","experiment","HHSHH","4","even","221557","NA","230631","1130","182352","NA","46880","218979","NA","230127","1081","231661","231763","232255","231659","231763","Flanker Task","83","46708.0","88","1024"
"94","94","529","529","black","legacy","legacy","legacy","congruent","1","undefined","1","h","88","0","88","0","0","0","0","0","0","88","0","88","88","88","88","88","Sat Sep 23 12:45:41 2023","600","The main experiment item","True","FlankerTask.osexp","/Users/baileymcwhirter/Downloads","False","mono","False","18","no","white","no","yes","768","legacy","8","79","/Users/baileymcwhirter/Downloads/BMsubject-4.csv","legacy","Melodramatic Milgram","4.0.5","0","h","NA","h","h","NA","h","388.0","NA","45743","36626","NA","388","2","legacy","1024","2","48000","-16","experiment","HHHHH","4","even","221557","NA","232258","1130","182352","NA","46880","218979","NA","230127","1081","233286","233389","233778","233283","233389","Flanker Task","84","47096.0","89","1024"
"94","94","527","527","black","legacy","legacy","legacy","congruent","1","undefined","1","s","89","0","89","0","0","0","0","0","0","89","0","89","89","89","89","89","Sat Sep 23 12:45:41 2023","600","The main experiment item","True","FlankerTask.osexp","/Users/baileymcwhirter/Downloads","False","mono","False","18","no","white","no","yes","768","legacy","9","79","/Users/baileymcwhirter/Downloads/BMsubject-4.csv","legacy","Melodramatic Milgram","4.0.5","0","s","NA","h","h","NA","s","373.0","NA","45743","36626","NA","373","2","legacy","1024","2","48000","-16","experiment","SSSSS","4","even","221557","NA","233781","1130","182352","NA","46880","218979","NA","230127","1081","234806","234908","235282","234804","234908","Flanker Task","85","47469.0","90","1024"
"94","94","525","525","black","legacy","legacy","legacy","congruent","1","undefined","1","h","90","0","90","0","0","0","0","0","0","90","0","90","90","90","90","90","Sat Sep 23 12:45:41 2023","600","The main experiment item","True","FlankerTask.osexp","/Users/baileymcwhirter/Downloads","False","mono","False","18","no","white","no","yes","768","legacy","10","79","/Users/baileymcwhirter/Downloads/BMsubject-4.csv","legacy","Melodramatic Milgram","4.0.5","0","h","NA","h","h","NA","h","339.0","NA","45743","36626","NA","339","2","legacy","1024","2","48000","-16","experiment","HHHHH","4","even","221557","NA","235285","1130","182352","NA","46880","218979","NA","230127","1081","236310","236412","236752","236308","236412","Flanker Task","86","47808.0","91","1024"
"94","94","524","524","black","legacy","legacy","legacy","incongruent","1","undefined","1","s","91","0","91","0","0","0","0","0","0","91","0","91","91","91","91","91","Sat Sep 23 12:45:41 2023","600","The main experiment item","True","FlankerTask.osexp","/Users/baileymcwhirter/Downloads","False","mono","False","18","no","white","no","yes","768","legacy","11","79","/Users/baileymcwhirter/Downloads/BMsubject-4.csv","legacy","Melodramatic Milgram","4.0.5","0","s","NA","h","h","NA","s","408.0","NA","45743","36626","NA","408","2","legacy","1024","2","48000","-16","experiment","HHSHH","4","even","221557","NA","236755","1130","182352","NA","46880","218979","NA","230127","1081","237785","237889","238298","237783","237889","Flanker Task","87","48216.0","92","1024"
"94","94","522","522","black","legacy","legacy","legacy","congruent","1","undefined","1","h","92","0","92","0","0","0","0","0","0","92","0","92","92","92","92","92","Sat Sep 23 12:45:41 2023","600","The main experiment item","True","FlankerTask.osexp","/Users/baileymcwhirter/Downloads","False","mono","False","18","no","white","no","yes","768","legacy","12","79","/Users/baileymcwhirter/Downloads/BMsubject-4.csv","legacy","Melodramatic Milgram","4.0.5","0","h","NA","h","h","NA","h","356.0","NA","45743","36626","NA","356","2","legacy","1024","2","48000","-16","experiment","HHHHH","4","even","221557","NA","238301","1130","182352","NA","46880","218979","NA","230127","1081","239331","239435","239792","239329","239435","Flanker Task","88","48572.0","93","1024"
"94","94","521","521","black","legacy","legacy","legacy","incongruent","1","undefined","1","h","93","0","93","0","0","0","0","0","0","93","0","93","93","93","93","93","Sat Sep 23 12:45:41 2023","600","The main experiment item","True","FlankerTask.osexp","/Users/baileymcwhirter/Downloads","False","mono","False","18","no","white","no","yes","768","legacy","13","79","/Users/baileymcwhirter/Downloads/BMsubject-4.csv","legacy","Melodramatic Milgram","4.0.5","0","h","NA","h","h","NA","h","488.0","NA","45743","36626","NA","488","2","legacy","1024","2","48000","-16","experiment","SSHSS","4","even","221557","NA","239795","1130","182352","NA","46880","218979","NA","230127","1081","240820","240922","241411","240818","240922","Flanker Task","89","49060.0","94","1024"
"94","94","522","522","black","legacy","legacy","legacy","incongruent","1","undefined","1","h","94","0","94","0","0","0","0","0","0","94","0","94","94","94","94","94","Sat Sep 23 12:45:41 2023","600","The main experiment item","True","FlankerTask.osexp","/Users/baileymcwhirter/Downloads","False","mono","False","18","no","white","no","yes","768","legacy","14","79","/Users/baileymcwhirter/Downloads/BMsubject-4.csv","legacy","Melodramatic Milgram","4.0.5","0","h","NA","h","h","NA","h","530.0","NA","45743","36626","NA","530","2","legacy","1024","2","48000","-16","experiment","SSHSS","4","even","221557","NA","241414","1130","182352","NA","46880","218979","NA","230127","1081","242441","242543","243074","242439","242543","Flanker Task","90","49590.0","95","1024"
"94","94","521","521","black","legacy","legacy","legacy","congruent","1","undefined","1","h","95","0","95","0","0","0","0","0","0","95","0","95","95","95","95","95","Sat Sep 23 12:45:41 2023","600","The main experiment item","True","FlankerTask.osexp","/Users/baileymcwhirter/Downloads","False","mono","False","18","no","white","no","yes","768","legacy","15","79","/Users/baileymcwhirter/Downloads/BMsubject-4.csv","legacy","Melodramatic Milgram","4.0.5","0","h","NA","h","h","NA","h","510.0","NA","45743","36626","NA","510","2","legacy","1024","2","48000","-16","experiment","HHHHH","4","even","221557","NA","243076","1130","182352","NA","46880","218979","NA","230127","1081","244113","244215","244726","244111","244215","Flanker Task","91","50100.0","96","1024"
"94","94","520","520","black","legacy","legacy","legacy","congruent","1","undefined","1","s","96","0","96","0","0","0","0","0","0","96","0","96","96","96","96","96","Sat Sep 23 12:45:41 2023","600","The main experiment item","True","FlankerTask.osexp","/Users/baileymcwhirter/Downloads","False","mono","False","18","no","white","no","yes","768","legacy","16","79","/Users/baileymcwhirter/Downloads/BMsubject-4.csv","legacy","Melodramatic Milgram","4.0.5","0","s","NA","h","h","NA","s","380.0","NA","45743","36626","NA","380","2","legacy","1024","2","48000","-16","experiment","SSSSS","4","even","221557","NA","244729","1130","182352","NA","46880","218979","NA","230127","1081","245765","245868","246249","245763","245868","Flanker Task","92","50480.0","97","1024"
"94","94","519","519","black","legacy","legacy","legacy","incongruent","1","undefined","1","h","97","0","97","0","0","0","0","0","0","97","0","97","97","97","97","97","Sat Sep 23 12:45:41 2023","600","The main experiment item","True","FlankerTask.osexp","/Users/baileymcwhirter/Downloads","False","mono","False","18","no","white","no","yes","768","legacy","17","79","/Users/baileymcwhirter/Downloads/BMsubject-4.csv","legacy","Melodramatic Milgram","4.0.5","0","h","NA","h","h","NA","h","408.0","NA","45743","36626","NA","408","2","legacy","1024","2","48000","-16","experiment","SSHSS","4","even","221557","NA","246251","1130","182352","NA","46880","218979","NA","230127","1081","247288","247391","247800","247286","247391","Flanker Task","93","50888.0","98","1024"
"94","94","518","518","black","legacy","legacy","legacy","congruent","1","undefined","1","s","98","0","98","0","0","0","0","0","0","98","0","98","98","98","98","98","Sat Sep 23 12:45:41 2023","600","The main experiment item","True","FlankerTask.osexp","/Users/baileymcwhirter/Downloads","False","mono","False","18","no","white","no","yes","768","legacy","18","79","/Users/baileymcwhirter/Downloads/BMsubject-4.csv","legacy","Melodramatic Milgram","4.0.5","0","s","NA","h","h","NA","s","424.0","NA","45743","36626","NA","424","2","legacy","1024","2","48000","-16","experiment","SSSSS","4","even","221557","NA","247802","1130","182352","NA","46880","218979","NA","230127","1081","248836","248938","249363","248833","248938","Flanker Task","94","51312.0","99","1024"
"95","95","517","517","black","legacy","legacy","legacy","congruent","1","undefined","1","s","99","0","99","0","0","0","0","0","0","99","0","99","99","99","99","99","Sat Sep 23 12:45:41 2023","600","The main experiment item","True","FlankerTask.osexp","/Users/baileymcwhirter/Downloads","False","mono","False","18","no","white","no","yes","768","legacy","19","79","/Users/baileymcwhirter/Downloads/BMsubject-4.csv","legacy","Melodramatic Milgram","4.0.5","0","s","NA","h","h","NA","s","440.0","NA","45743","36626","NA","440","2","legacy","1024","2","48000","-16","experiment","SSSSS","4","even","221557","NA","249366","1130","182352","NA","46880","218979","NA","230127","1081","250401","250503","250944","250398","250503","Flanker Task","95","51752.0","100","1024"
"95","95","517","517","black","legacy","legacy","legacy","congruent","1","undefined","1","h","100","0","100","0","0","0","0","0","0","100","0","100","100","100","100","100","Sat Sep 23 12:45:41 2023","600","The main experiment item","True","FlankerTask.osexp","/Users/baileymcwhirter/Downloads","False","mono","False","18","no","white","no","yes","768","legacy","20","79","/Users/baileymcwhirter/Downloads/BMsubject-4.csv","legacy","Melodramatic Milgram","4.0.5","0","h","NA","h","h","NA","h","465.0","NA","45743","36626","NA","465","2","legacy","1024","2","48000","-16","experiment","HHHHH","4","even","221557","NA","250946","1130","182352","NA","46880","218979","NA","230127","1081","251986","252089","252555","251984","252089","Flanker Task","96","52217.0","101","1024"
"95","95","516","516","black","legacy","legacy","legacy","incongruent","1","undefined","1","s","101","0","101","0","0","0","0","0","0","101","0","101","101","101","101","101","Sat Sep 23 12:45:41 2023","600","The main experiment item","True","FlankerTask.osexp","/Users/baileymcwhirter/Downloads","False","mono","False","18","no","white","no","yes","768","legacy","21","79","/Users/baileymcwhirter/Downloads/BMsubject-4.csv","legacy","Melodramatic Milgram","4.0.5","0","s","NA","h","h","NA","s","451.0","NA","45743","36626","NA","451","2","legacy","1024","2","48000","-16","experiment","HHSHH","4","even","221557","NA","252557","1130","182352","NA","46880","218979","NA","230127","1081","253590","253692","254144","253588","253692","Flanker Task","97","52668.0","102","1024"
"94","94","514","514","black","legacy","legacy","legacy","incongruent","0","undefined","0","s","102","0","102","0","0","0","0","0","0","102","0","102","102","102","102","102","Sat Sep 23 12:45:41 2023","600","The main experiment item","True","FlankerTask.osexp","/Users/baileymcwhirter/Downloads","False","mono","False","18","no","white","no","yes","768","legacy","22","79","/Users/baileymcwhirter/Downloads/BMsubject-4.csv","legacy","Melodramatic Milgram","4.0.5","0","h","NA","h","h","NA","h","369.0","NA","45743","36626","NA","369","2","legacy","1024","2","48000","-16","experiment","HHSHH","4","even","221557","NA","254146","1130","182352","NA","46880","218979","NA","230127","1081","255177","255279","255649","255175","255279","Flanker Task","97","53037.0","103","1024"
"94","94","515","515","black","legacy","legacy","legacy","incongruent","1","undefined","1","h","103","0","103","0","0","0","0","0","0","103","0","103","103","103","103","103","Sat Sep 23 12:45:41 2023","600","The main experiment item","True","FlankerTask.osexp","/Users/baileymcwhirter/Downloads","False","mono","False","18","no","white","no","yes","768","legacy","23","79","/Users/baileymcwhirter/Downloads/BMsubject-4.csv","legacy","Melodramatic Milgram","4.0.5","0","h","NA","h","h","NA","h","540.0","NA","45743","36626","NA","540","2","legacy","1024","2","48000","-16","experiment","SSHSS","4","even","221557","NA","256156","1130","182352","NA","46880","218979","NA","255651","1081","257186","257288","257829","257184","257288","Flanker Task","98","53577.0","104","1024"
"94","94","515","515","black","legacy","legacy","legacy","incongruent","1","undefined","1","h","104","0","104","0","0","0","0","0","0","104","0","104","104","104","104","104","Sat Sep 23 12:45:41 2023","600","The main experiment item","True","FlankerTask.osexp","/Users/baileymcwhirter/Downloads","False","mono","False","18","no","white","no","yes","768","legacy","24","79","/Users/baileymcwhirter/Downloads/BMsubject-4.csv","legacy","Melodramatic Milgram","4.0.5","0","h","NA","h","h","NA","h","517.0","NA","45743","36626","NA","517","2","legacy","1024","2","48000","-16","experiment","SSHSS","4","even","221557","NA","257832","1130","182352","NA","46880","218979","NA","255651","1081","258859","258961","259479","258857","258961","Flanker Task","99","54094.0","105","1024"
"94","94","514","514","black","legacy","legacy","legacy","congruent","1","undefined","1","h","105","0","105","0","0","0","0","0","0","105","0","105","105","105","105","105","Sat Sep 23 12:45:41 2023","600","The main experiment item","True","FlankerTask.osexp","/Users/baileymcwhirter/Downloads","False","mono","False","18","no","white","no","yes","768","legacy","25","79","/Users/baileymcwhirter/Downloads/BMsubject-4.csv","legacy","Melodramatic Milgram","4.0.5","0","h","NA","h","h","NA","h","447.0","NA","45743","36626","NA","447","2","legacy","1024","2","48000","-16","experiment","HHHHH","4","even","221557","NA","259482","1130","182352","NA","46880","218979","NA","255651","1081","260510","260612","261060","260508","260611","Flanker Task","100","54541.0","106","1024"
"93","93","513","513","black","legacy","legacy","legacy","incongruent","0","undefined","0","h","106","0","106","0","0","0","0","0","0","106","0","106","106","106","106","106","Sat Sep 23 12:45:41 2023","600","The main experiment item","True","FlankerTask.osexp","/Users/baileymcwhirter/Downloads","False","mono","False","18","no","white","no","yes","768","legacy","26","79","/Users/baileymcwhirter/Downloads/BMsubject-4.csv","legacy","Melodramatic Milgram","4.0.5","0","s","NA","h","h","NA","s","431.0","NA","45743","36626","NA","431","2","legacy","1024","2","48000","-16","experiment","SSHSS","4","even","221557","NA","261063","1130","182352","NA","46880","218979","NA","255651","1081","262091","262194","262626","262089","262194","Flanker Task","100","54972.0","107","1024"
"93","93","513","513","black","legacy","legacy","legacy","incongruent","1","undefined","1","s","107","0","107","0","0","0","0","0","0","107","0","107","107","107","107","107","Sat Sep 23 12:45:41 2023","600","The main experiment item","True","FlankerTask.osexp","/Users/baileymcwhirter/Downloads","False","mono","False","18","no","white","no","yes","768","legacy","27","79","/Users/baileymcwhirter/Downloads/BMsubject-4.csv","legacy","Melodramatic Milgram","4.0.5","0","s","NA","h","h","NA","s","527.0","NA","45743","36626","NA","527","2","legacy","1024","2","48000","-16","experiment","HHSHH","4","even","221557","NA","263130","1130","182352","NA","46880","218979","NA","262628","1081","264157","264260","264788","264155","264260","Flanker Task","101","55499.0","108","1024"
"93","93","513","513","black","legacy","legacy","legacy","congruent","1","undefined","1","h","108","0","108","0","0","0","0","0","0","108","0","108","108","108","108","108","Sat Sep 23 12:45:41 2023","600","The main experiment item","True","FlankerTask.osexp","/Users/baileymcwhirter/Downloads","False","mono","False","18","no","white","no","yes","768","legacy","28","79","/Users/baileymcwhirter/Downloads/BMsubject-4.csv","legacy","Melodramatic Milgram","4.0.5","0","h","NA","h","h","NA","h","438.0","NA","45743","36626","NA","438","2","legacy","1024","2","48000","-16","experiment","HHHHH","4","even","221557","NA","264791","1130","182352","NA","46880","218979","NA","262628","1081","265819","265921","266360","265817","265921","Flanker Task","102","55937.0","109","1024"
"93","93","512","512","black","legacy","legacy","legacy","congruent","1","undefined","1","h","109","0","109","0","0","0","0","0","0","109","0","109","109","109","109","109","Sat Sep 23 12:45:41 2023","600","The main experiment item","True","FlankerTask.osexp","/Users/baileymcwhirter/Downloads","False","mono","False","18","no","white","no","yes","768","legacy","29","79","/Users/baileymcwhirter/Downloads/BMsubject-4.csv","legacy","Melodramatic Milgram","4.0.5","0","h","NA","h","h","NA","h","440.0","NA","45743","36626","NA","440","2","legacy","1024","2","48000","-16","experiment","HHHHH","4","even","221557","NA","266363","1130","182352","NA","46880","218979","NA","262628","1081","267401","267505","267946","267398","267505","Flanker Task","103","56377.0","110","1024"
"93","93","512","512","black","legacy","legacy","legacy","congruent","1","undefined","1","h","110","0","110","0","0","0","0","0","0","110","0","110","110","110","110","110","Sat Sep 23 12:45:41 2023","600","The main experiment item","True","FlankerTask.osexp","/Users/baileymcwhirter/Downloads","False","mono","False","18","no","white","no","yes","768","legacy","30","79","/Users/baileymcwhirter/Downloads/BMsubject-4.csv","legacy","Melodramatic Milgram","4.0.5","0","h","NA","h","h","NA","h","479.0","NA","45743","36626","NA","479","2","legacy","1024","2","48000","-16","experiment","HHHHH","4","even","221557","NA","267949","1130","182352","NA","46880","218979","NA","262628","1081","268976","269081","269561","268974","269081","Flanker Task","104","56856.0","111","1024"
"93","93","512","512","black","legacy","legacy","legacy","incongruent","1","undefined","1","h","111","0","111","0","0","0","0","0","0","111","0","111","111","111","111","111","Sat Sep 23 12:45:41 2023","600","The main experiment item","True","FlankerTask.osexp","/Users/baileymcwhirter/Downloads","False","mono","False","18","no","white","no","yes","768","legacy","31","79","/Users/baileymcwhirter/Downloads/BMsubject-4.csv","legacy","Melodramatic Milgram","4.0.5","0","h","NA","h","h","NA","h","530.0","NA","45743","36626","NA","530","2","legacy","1024","2","48000","-16","experiment","SSHSS","4","even","221557","NA","269563","1130","182352","NA","46880","218979","NA","262628","1081","270589","270691","271222","270587","270691","Flanker Task","105","57386.0","112","1024"
"93","93","511","511","black","legacy","legacy","legacy","congruent","1","undefined","1","s","112","0","112","0","0","0","0","0","0","112","0","112","112","112","112","112","Sat Sep 23 12:45:41 2023","600","The main experiment item","True","FlankerTask.osexp","/Users/baileymcwhirter/Downloads","False","mono","False","18","no","white","no","yes","768","legacy","32","79","/Users/baileymcwhirter/Downloads/BMsubject-4.csv","legacy","Melodramatic Milgram","4.0.5","0","s","NA","h","h","NA","s","406.0","NA","45743","36626","NA","406","2","legacy","1024","2","48000","-16","experiment","SSSSS","4","even","221557","NA","271224","1130","182352","NA","46880","218979","NA","262628","1081","272254","272358","272765","272252","272358","Flanker Task","106","57792.0","113","1024"
"93","93","511","511","black","legacy","legacy","legacy","congruent","1","undefined","1","s","113","0","113","0","0","0","0","0","0","113","0","113","113","113","113","113","Sat Sep 23 12:45:41 2023","600","The main experiment item","True","FlankerTask.osexp","/Users/baileymcwhirter/Downloads","False","mono","False","18","no","white","no","yes","768","legacy","33","79","/Users/baileymcwhirter/Downloads/BMsubject-4.csv","legacy","Melodramatic Milgram","4.0.5","0","s","NA","h","h","NA","s","486.0","NA","45743","36626","NA","486","2","legacy","1024","2","48000","-16","experiment","SSSSS","4","even","221557","NA","272768","1130","182352","NA","46880","218979","NA","262628","1081","273804","273908","274395","273802","273908","Flanker Task","107","58278.0","114","1024"
"93","93","510","510","black","legacy","legacy","legacy","congruent","1","undefined","1","s","114","0","114","0","0","0","0","0","0","114","0","114","114","114","114","114","Sat Sep 23 12:45:41 2023","600","The main experiment item","True","FlankerTask.osexp","/Users/baileymcwhirter/Downloads","False","mono","False","18","no","white","no","yes","768","legacy","34","79","/Users/baileymcwhirter/Downloads/BMsubject-4.csv","legacy","Melodramatic Milgram","4.0.5","0","s","NA","h","h","NA","s","437.0","NA","45743","36626","NA","437","2","legacy","1024","2","48000","-16","experiment","SSSSS","4","even","221557","NA","274397","1130","182352","NA","46880","218979","NA","262628","1081","275424","275527","275965","275421","275527","Flanker Task","108","58715.0","115","1024"
"93","93","510","510","black","legacy","legacy","legacy","incongruent","0","undefined","0","h","115","0","115","0","0","0","0","0","0","115","0","115","115","115","115","115","Sat Sep 23 12:45:41 2023","600","The main experiment item","True","FlankerTask.osexp","/Users/baileymcwhirter/Downloads","False","mono","False","18","no","white","no","yes","768","legacy","35","79","/Users/baileymcwhirter/Downloads/BMsubject-4.csv","legacy","Melodramatic Milgram","4.0.5","0","s","NA","h","h","NA","s","448.0","NA","45743","36626","NA","448","2","legacy","1024","2","48000","-16","experiment","SSHSS","4","even","221557","NA","275967","1130","182352","NA","46880","218979","NA","262628","1081","276997","277101","277550","276995","277101","Flanker Task","108","59163.0","116","1024"
"93","93","509","509","black","legacy","legacy","legacy","congruent","1","undefined","1","s","116","0","116","0","0","0","0","0","0","116","0","116","116","116","116","116","Sat Sep 23 12:45:41 2023","600","The main experiment item","True","FlankerTask.osexp","/Users/baileymcwhirter/Downloads","False","mono","False","18","no","white","no","yes","768","legacy","36","79","/Users/baileymcwhirter/Downloads/BMsubject-4.csv","legacy","Melodramatic Milgram","4.0.5","0","s","NA","h","h","NA","s","417.0","NA","45743","36626","NA","417","2","legacy","1024","2","48000","-16","experiment","SSSSS","4","even","221557","NA","278058","1130","182352","NA","46880","218979","NA","277553","1081","279084","279187","279606","279082","279187","Flanker Task","109","59580.0","117","1024"
"93","93","507","507","black","legacy","legacy","legacy","congruent","1","undefined","1","h","117","0","117","0","0","0","0","0","0","117","0","117","117","117","117","117","Sat Sep 23 12:45:41 2023","600","The main experiment item","True","FlankerTask.osexp","/Users/baileymcwhirter/Downloads","False","mono","False","18","no","white","no","yes","768","legacy","37","79","/Users/baileymcwhirter/Downloads/BMsubject-4.csv","legacy","Melodramatic Milgram","4.0.5","0","h","NA","h","h","NA","h","341.0","NA","45743","36626","NA","341","2","legacy","1024","2","48000","-16","experiment","HHHHH","4","even","221557","NA","279608","1130","182352","NA","46880","218979","NA","277553","1081","280638","280742","281085","280636","280742","Flanker Task","110","59921.0","118","1024"
"93","93","507","507","black","legacy","legacy","legacy","congruent","1","undefined","1","s","118","0","118","0","0","0","0","0","0","118","0","118","118","118","118","118","Sat Sep 23 12:45:41 2023","600","The main experiment item","True","FlankerTask.osexp","/Users/baileymcwhirter/Downloads","False","mono","False","18","no","white","no","yes","768","legacy","38","79","/Users/baileymcwhirter/Downloads/BMsubject-4.csv","legacy","Melodramatic Milgram","4.0.5","0","s","NA","h","h","NA","s","440.0","NA","45743","36626","NA","440","2","legacy","1024","2","48000","-16","experiment","SSSSS","4","even","221557","NA","281087","1130","182352","NA","46880","218979","NA","277553","1081","282113","282215","282656","282111","282215","Flanker Task","111","60361.0","119","1024"
"93","93","506","506","black","legacy","legacy","legacy","congruent","1","undefined","1","s","119","0","119","0","0","0","0","0","0","119","0","119","119","119","119","119","Sat Sep 23 12:45:41 2023","600","The main experiment item","True","FlankerTask.osexp","/Users/baileymcwhirter/Downloads","False","mono","False","18","no","white","no","yes","768","legacy","39","79","/Users/baileymcwhirter/Downloads/BMsubject-4.csv","legacy","Melodramatic Milgram","4.0.5","0","s","NA","h","h","NA","s","423.0","NA","45743","36626","NA","423","2","legacy","1024","2","48000","-16","experiment","SSSSS","4","even","221557","NA","282658","1130","182352","NA","46880","218979","NA","277553","1081","283686","283790","284215","283684","283790","Flanker Task","112","60784.0","120","1024"
"93","93","506","506","black","legacy","legacy","legacy","incongruent","1","undefined","1","h","120","0","120","0","0","0","0","0","0","120","0","120","120","120","120","120","Sat Sep 23 12:45:41 2023","600","The main experiment item","True","FlankerTask.osexp","/Users/baileymcwhirter/Downloads","False","mono","False","18","no","white","no","yes","768","legacy","40","79","/Users/baileymcwhirter/Downloads/BMsubject-4.csv","legacy","Melodramatic Milgram","4.0.5","0","h","NA","h","h","NA","h","508.0","NA","45743","36626","NA","508","2","legacy","1024","2","48000","-16","experiment","SSHSS","4","even","221557","NA","284217","1130","182352","NA","46880","218979","NA","277553","1081","285242","285344","285854","285240","285344","Flanker Task","113","61292.0","121","1024"
"93","93","505","505","black","legacy","legacy","legacy","incongruent","1","undefined","1","s","121","0","121","0","0","0","0","0","0","121","0","121","121","121","121","121","Sat Sep 23 12:45:41 2023","600","The main experiment item","True","FlankerTask.osexp","/Users/baileymcwhirter/Downloads","False","mono","False","18","no","white","no","yes","768","legacy","41","79","/Users/baileymcwhirter/Downloads/BMsubject-4.csv","legacy","Melodramatic Milgram","4.0.5","0","s","NA","h","h","NA","s","430.0","NA","45743","36626","NA","430","2","legacy","1024","2","48000","-16","experiment","HHSHH","4","even","221557","NA","285856","1130","182352","NA","46880","218979","NA","277553","1081","286889","286994","287425","286887","286993","Flanker Task","114","61722.0","122","1024"
"93","93","505","505","black","legacy","legacy","legacy","congruent","1","undefined","1","s","122","0","122","0","0","0","0","0","0","122","0","122","122","122","122","122","Sat Sep 23 12:45:41 2023","600","The main experiment item","True","FlankerTask.osexp","/Users/baileymcwhirter/Downloads","False","mono","False","18","no","white","no","yes","768","legacy","42","79","/Users/baileymcwhirter/Downloads/BMsubject-4.csv","legacy","Melodramatic Milgram","4.0.5","0","s","NA","h","h","NA","s","440.0","NA","45743","36626","NA","440","2","legacy","1024","2","48000","-16","experiment","SSSSS","4","even","221557","NA","287428","1130","182352","NA","46880","218979","NA","277553","1081","288454","288556","288997","288452","288556","Flanker Task","115","62162.0","123","1024"
"93","93","505","505","black","legacy","legacy","legacy","congruent","1","undefined","1","s","123","0","123","0","0","0","0","0","0","123","0","123","123","123","123","123","Sat Sep 23 12:45:41 2023","600","The main experiment item","True","FlankerTask.osexp","/Users/baileymcwhirter/Downloads","False","mono","False","18","no","white","no","yes","768","legacy","43","79","/Users/baileymcwhirter/Downloads/BMsubject-4.csv","legacy","Melodramatic Milgram","4.0.5","0","s","NA","h","h","NA","s","466.0","NA","45743","36626","NA","466","2","legacy","1024","2","48000","-16","experiment","SSSSS","4","even","221557","NA","289000","1130","182352","NA","46880","218979","NA","277553","1081","290026","290128","290595","290023","290127","Flanker Task","116","62628.0","124","1024"
"93","93","504","504","black","legacy","legacy","legacy","congruent","1","undefined","1","h","124","0","124","0","0","0","0","0","0","124","0","124","124","124","124","124","Sat Sep 23 12:45:41 2023","600","The main experiment item","True","FlankerTask.osexp","/Users/baileymcwhirter/Downloads","False","mono","False","18","no","white","no","yes","768","legacy","44","79","/Users/baileymcwhirter/Downloads/BMsubject-4.csv","legacy","Melodramatic Milgram","4.0.5","0","h","NA","h","h","NA","h","440.0","NA","45743","36626","NA","440","2","legacy","1024","2","48000","-16","experiment","HHHHH","4","even","221557","NA","290598","1130","182352","NA","46880","218979","NA","277553","1081","291633","291735","292176","291628","291735","Flanker Task","117","63068.0","125","1024"
"93","93","504","504","black","legacy","legacy","legacy","incongruent","1","undefined","1","s","125","0","125","0","0","0","0","0","0","125","0","125","125","125","125","125","Sat Sep 23 12:45:41 2023","600","The main experiment item","True","FlankerTask.osexp","/Users/baileymcwhirter/Downloads","False","mono","False","18","no","white","no","yes","768","legacy","45","79","/Users/baileymcwhirter/Downloads/BMsubject-4.csv","legacy","Melodramatic Milgram","4.0.5","0","s","NA","h","h","NA","s","440.0","NA","45743","36626","NA","440","2","legacy","1024","2","48000","-16","experiment","HHSHH","4","even","221557","NA","292179","1130","182352","NA","46880","218979","NA","277553","1081","293205","293307","293748","293202","293306","Flanker Task","118","63508.0","126","1024"
"93","93","504","504","black","legacy","legacy","legacy","incongruent","1","undefined","1","s","126","0","126","0","0","0","0","0","0","126","0","126","126","126","126","126","Sat Sep 23 12:45:41 2023","600","The main experiment item","True","FlankerTask.osexp","/Users/baileymcwhirter/Downloads","False","mono","False","18","no","white","no","yes","768","legacy","46","79","/Users/baileymcwhirter/Downloads/BMsubject-4.csv","legacy","Melodramatic Milgram","4.0.5","0","s","NA","h","h","NA","s","513.0","NA","45743","36626","NA","513","2","legacy","1024","2","48000","-16","experiment","HHSHH","4","even","221557","NA","293751","1130","182352","NA","46880","218979","NA","277553","1081","294775","294877","295391","294773","294877","Flanker Task","119","64021.0","127","1024"
"93","93","503","503","black","legacy","legacy","legacy","congruent","1","undefined","1","s","127","0","127","0","0","0","0","0","0","127","0","127","127","127","127","127","Sat Sep 23 12:45:41 2023","600","The main experiment item","True","FlankerTask.osexp","/Users/baileymcwhirter/Downloads","False","mono","False","18","no","white","no","yes","768","legacy","47","79","/Users/baileymcwhirter/Downloads/BMsubject-4.csv","legacy","Melodramatic Milgram","4.0.5","0","s","NA","h","h","NA","s","389.0","NA","45743","36626","NA","389","2","legacy","1024","2","48000","-16","experiment","SSSSS","4","even","221557","NA","295394","1130","182352","NA","46880","218979","NA","277553","1081","296421","296523","296913","296419","296523","Flanker Task","120","64410.0","128","1024"
"93","93","502","502","black","legacy","legacy","legacy","incongruent","1","undefined","1","h","128","0","128","0","0","0","0","0","0","128","0","128","128","128","128","128","Sat Sep 23 12:45:41 2023","600","The main experiment item","True","FlankerTask.osexp","/Users/baileymcwhirter/Downloads","False","mono","False","18","no","white","no","yes","768","legacy","48","79","/Users/baileymcwhirter/Downloads/BMsubject-4.csv","legacy","Melodramatic Milgram","4.0.5","0","h","NA","h","h","NA","h","423.0","NA","45743","36626","NA","423","2","legacy","1024","2","48000","-16","experiment","SSHSS","4","even","221557","NA","296915","1130","182352","NA","46880","218979","NA","277553","1081","297940","298042","298466","297938","298042","Flanker Task","121","64833.0","129","1024"
"93","93","501","501","black","legacy","legacy","legacy","incongruent","0","undefined","0","h","129","0","129","0","0","0","0","0","0","129","0","129","129","129","129","129","Sat Sep 23 12:45:41 2023","600","The main experiment item","True","FlankerTask.osexp","/Users/baileymcwhirter/Downloads","False","mono","False","18","no","white","no","yes","768","legacy","49","79","/Users/baileymcwhirter/Downloads/BMsubject-4.csv","legacy","Melodramatic Milgram","4.0.5","0","s","NA","h","h","NA","s","336.0","NA","45743","36626","NA","336","2","legacy","1024","2","48000","-16","experiment","SSHSS","4","even","221557","NA","298469","1130","182352","NA","46880","218979","NA","277553","1081","299500","299602","299939","299498","299602","Flanker Task","121","65169.0","130","1024"
