"acc","accuracy","average_response_time","avg_rt","background","canvas_backend","clock_backend","color_backend","condition","correct","correct_instructions1","correct_keyboard_response","correct_response","count_block1","count_block2","count_block3","count_errorFeedback","count_experiment","count_faster","count_finish","count_fixation","count_getting_started","count_instructions1","count_instructions2","count_instructions3","count_isi","count_keyboard_response","count_logger","count_sequence","count_stimulus","count_welcome","datetime","deadline","description","disable_garbage_collection","experiment_file","experiment_path","font_bold","font_family","font_italic","font_size","font_underline","foreground","form_clicks","fullscreen","height","keyboard_backend","live_row","live_row_block1","logfile","mouse_backend","opensesame_codename","opensesame_version","repeat_cycle","response","response_finish","response_instructions1","response_instructions2","response_instructions3","response_keyboard_response","response_time","response_time_finish","response_time_instructions1","response_time_instructions2","response_time_instructions3","response_time_keyboard_response","response_time_welcome","response_welcome","round_decimals","sampler_backend","sound_buf_size","sound_channels","sound_freq","sound_sample_size","start","stimulus","subject_nr","subject_parity","time_block1","time_block2","time_block3","time_errorFeedback","time_experiment","time_faster","time_finish","time_fixation","time_getting_started","time_instructions1","time_instructions2","time_instructions3","time_isi","time_keyboard_response","time_logger","time_sequence","time_stimulus","time_welcome","title","total_correct","total_response_time","total_responses","width"
"100","100","455","455","#3d3846","legacy","legacy","legacy","congruent","1","undefined","1","s","0","0","0","0","0","0","0","0","0","0","0","0","0","0","0","0","0","0","Wed Sep 20 14:00:27 2023","1500","The main experiment item","False","FlankerTask23.osexp","/Users/keelihatcher/Desktop/Tarleton M.D./Advanced Quantitative Methods & Experimental Design","False","mono","False","18","no","white","no","yes","768","legacy","0","0","/Users/keelihatcher/Desktop/Tarleton M.D./Advanced Quantitative Methods & Experimental Design/KT-subject-3.csv","legacy","Melodramatic Milgram","4.0.5","0","s","NA","s","NA","NA","s","455.0","NA","3690","NA","NA","455","NA","NA","2","legacy","1024","2","48000","-16","experiment","SSSSS","3","odd","4992","NA","NA","NA","1220","NA","NA","5021","NA","1289","NA","NA","NA","5124","5589","5017","5124","NA","Flanker Task","1","455.0","1","1024"
"100","100","385","385","#3d3846","legacy","legacy","legacy","incongruent","1","undefined","1","s","0","0","0","1","0","1","0","1","0","0","0","0","1","1","1","1","1","0","Wed Sep 20 14:00:27 2023","1500","The main experiment item","False","FlankerTask23.osexp","/Users/keelihatcher/Desktop/Tarleton M.D./Advanced Quantitative Methods & Experimental Design","False","mono","False","18","no","white","no","yes","768","legacy","1","1","/Users/keelihatcher/Desktop/Tarleton M.D./Advanced Quantitative Methods & Experimental Design/KT-subject-3.csv","legacy","Melodramatic Milgram","4.0.5","0","s","NA","s","NA","NA","s","316.0","NA","3690","NA","NA","316","NA","NA","2","legacy","1024","2","48000","-16","experiment","HHSHH","3","odd","4992","NA","NA","NA","1220","NA","NA","6643","NA","1289","NA","NA","5592","6747","7063","6639","6746","NA","Flanker Task","2","771.0","2","1024"
"100","100","375","375","#3d3846","legacy","legacy","legacy","incongruent","1","undefined","1","h","0","0","0","2","0","2","0","2","0","0","0","0","2","2","2","2","2","0","Wed Sep 20 14:00:27 2023","1500","The main experiment item","False","FlankerTask23.osexp","/Users/keelihatcher/Desktop/Tarleton M.D./Advanced Quantitative Methods & Experimental Design","False","mono","False","18","no","white","no","yes","768","legacy","2","2","/Users/keelihatcher/Desktop/Tarleton M.D./Advanced Quantitative Methods & Experimental Design/KT-subject-3.csv","legacy","Melodramatic Milgram","4.0.5","0","h","NA","s","NA","NA","h","354.0","NA","3690","NA","NA","354","NA","NA","2","legacy","1024","2","48000","-16","experiment","SSHSS","3","odd","4992","NA","NA","NA","1220","NA","NA","8101","NA","1289","NA","NA","7065","8203","8557","8098","8203","NA","Flanker Task","3","1125.0","3","1024"
"75","75","362","362","#3d3846","legacy","legacy","legacy","incongruent","0","undefined","0","h","0","0","0","3","0","3","0","3","0","0","0","0","3","3","3","3","3","0","Wed Sep 20 14:00:27 2023","1500","The main experiment item","False","FlankerTask23.osexp","/Users/keelihatcher/Desktop/Tarleton M.D./Advanced Quantitative Methods & Experimental Design","False","mono","False","18","no","white","no","yes","768","legacy","3","3","/Users/keelihatcher/Desktop/Tarleton M.D./Advanced Quantitative Methods & Experimental Design/KT-subject-3.csv","legacy","Melodramatic Milgram","4.0.5","0","s","NA","s","NA","NA","s","323.0","NA","3690","NA","NA","323","NA","NA","2","legacy","1024","2","48000","-16","experiment","SSHSS","3","odd","4992","NA","NA","NA","1220","NA","NA","9613","NA","1289","NA","NA","8560","9717","10040","9606","9717","NA","Flanker Task","3","1448.0","4","1024"
"60","60","353","353","#3d3846","legacy","legacy","legacy","incongruent","0","undefined","0","h","0","0","0","4","0","4","0","4","0","0","0","0","4","4","4","4","4","0","Wed Sep 20 14:00:27 2023","1500","The main experiment item","False","FlankerTask23.osexp","/Users/keelihatcher/Desktop/Tarleton M.D./Advanced Quantitative Methods & Experimental Design","False","mono","False","18","no","white","no","yes","768","legacy","4","4","/Users/keelihatcher/Desktop/Tarleton M.D./Advanced Quantitative Methods & Experimental Design/KT-subject-3.csv","legacy","Melodramatic Milgram","4.0.5","0","s","NA","s","NA","NA","s","317.0","NA","3690","NA","NA","317","NA","NA","2","legacy","1024","2","48000","-16","experiment","SSHSS","3","odd","4992","NA","NA","10042","1220","NA","NA","11596","NA","1289","NA","NA","10546","11700","12018","11590","11700","NA","Flanker Task","3","1765.0","5","1024"
"66","66","359","359","#3d3846","legacy","legacy","legacy","congruent","1","undefined","1","h","0","0","0","5","0","5","0","5","0","0","0","0","5","5","5","5","5","0","Wed Sep 20 14:00:27 2023","1500","The main experiment item","False","FlankerTask23.osexp","/Users/keelihatcher/Desktop/Tarleton M.D./Advanced Quantitative Methods & Experimental Design","False","mono","False","18","no","white","no","yes","768","legacy","5","5","/Users/keelihatcher/Desktop/Tarleton M.D./Advanced Quantitative Methods & Experimental Design/KT-subject-3.csv","legacy","Melodramatic Milgram","4.0.5","0","h","NA","s","NA","NA","h","393.0","NA","3690","NA","NA","393","NA","NA","2","legacy","1024","2","48000","-16","experiment","HHHHH","3","odd","4992","NA","NA","12020","1220","NA","NA","13571","NA","1289","NA","NA","12524","13675","14069","13568","13675","NA","Flanker Task","4","2158.0","6","1024"
"71","71","354","354","#3d3846","legacy","legacy","legacy","incongruent","1","undefined","1","s","0","0","0","6","0","6","0","6","0","0","0","0","6","6","6","6","6","0","Wed Sep 20 14:00:27 2023","1500","The main experiment item","False","FlankerTask23.osexp","/Users/keelihatcher/Desktop/Tarleton M.D./Advanced Quantitative Methods & Experimental Design","False","mono","False","18","no","white","no","yes","768","legacy","6","6","/Users/keelihatcher/Desktop/Tarleton M.D./Advanced Quantitative Methods & Experimental Design/KT-subject-3.csv","legacy","Melodramatic Milgram","4.0.5","0","s","NA","s","NA","NA","s","326.0","NA","3690","NA","NA","326","NA","NA","2","legacy","1024","2","48000","-16","experiment","HHSHH","3","odd","4992","NA","NA","12020","1220","NA","NA","15120","NA","1289","NA","NA","14071","15224","15551","15117","15224","NA","Flanker Task","5","2484.0","7","1024"
"75","75","353","353","#3d3846","legacy","legacy","legacy","incongruent","1","undefined","1","h","0","0","0","7","0","7","0","7","0","0","0","0","7","7","7","7","7","0","Wed Sep 20 14:00:27 2023","1500","The main experiment item","False","FlankerTask23.osexp","/Users/keelihatcher/Desktop/Tarleton M.D./Advanced Quantitative Methods & Experimental Design","False","mono","False","18","no","white","no","yes","768","legacy","7","7","/Users/keelihatcher/Desktop/Tarleton M.D./Advanced Quantitative Methods & Experimental Design/KT-subject-3.csv","legacy","Melodramatic Milgram","4.0.5","0","h","NA","s","NA","NA","h","344.0","NA","3690","NA","NA","344","NA","NA","2","legacy","1024","2","48000","-16","experiment","SSHSS","3","odd","4992","NA","NA","12020","1220","NA","NA","16601","NA","1289","NA","NA","15553","16704","17048","16598","16704","NA","Flanker Task","6","2828.0","8","1024"
"77","77","347","347","#3d3846","legacy","legacy","legacy","congruent","1","undefined","1","s","0","0","0","8","0","8","0","8","0","0","0","0","8","8","8","8","8","0","Wed Sep 20 14:00:27 2023","1500","The main experiment item","False","FlankerTask23.osexp","/Users/keelihatcher/Desktop/Tarleton M.D./Advanced Quantitative Methods & Experimental Design","False","mono","False","18","no","white","no","yes","768","legacy","8","8","/Users/keelihatcher/Desktop/Tarleton M.D./Advanced Quantitative Methods & Experimental Design/KT-subject-3.csv","legacy","Melodramatic Milgram","4.0.5","0","s","NA","s","NA","NA","s","299.0","NA","3690","NA","NA","299","NA","NA","2","legacy","1024","2","48000","-16","experiment","SSSSS","3","odd","4992","NA","NA","12020","1220","NA","NA","18100","NA","1289","NA","NA","17051","18204","18503","18096","18203","NA","Flanker Task","7","3127.0","9","1024"
"80","80","342","342","#3d3846","legacy","legacy","legacy","congruent","1","undefined","1","h","0","0","0","9","0","9","0","9","0","0","0","0","9","9","9","9","9","0","Wed Sep 20 14:00:27 2023","1500","The main experiment item","False","FlankerTask23.osexp","/Users/keelihatcher/Desktop/Tarleton M.D./Advanced Quantitative Methods & Experimental Design","False","mono","False","18","no","white","no","yes","768","legacy","9","9","/Users/keelihatcher/Desktop/Tarleton M.D./Advanced Quantitative Methods & Experimental Design/KT-subject-3.csv","legacy","Melodramatic Milgram","4.0.5","0","h","NA","s","NA","NA","h","293.0","NA","3690","NA","NA","293","NA","NA","2","legacy","1024","2","48000","-16","experiment","HHHHH","3","odd","4992","NA","NA","12020","1220","NA","NA","19554","NA","1289","NA","NA","18506","19657","19951","19551","19657","NA","Flanker Task","8","3420.0","10","1024"
"81","81","343","343","#3d3846","legacy","legacy","legacy","congruent","1","undefined","1","s","0","0","0","10","0","10","0","10","0","0","0","0","10","10","10","10","10","0","Wed Sep 20 14:00:27 2023","1500","The main experiment item","False","FlankerTask23.osexp","/Users/keelihatcher/Desktop/Tarleton M.D./Advanced Quantitative Methods & Experimental Design","False","mono","False","18","no","white","no","yes","768","legacy","10","10","/Users/keelihatcher/Desktop/Tarleton M.D./Advanced Quantitative Methods & Experimental Design/KT-subject-3.csv","legacy","Melodramatic Milgram","4.0.5","0","s","NA","s","NA","NA","s","361.0","NA","3690","NA","NA","361","NA","NA","2","legacy","1024","2","48000","-16","experiment","SSSSS","3","odd","4992","NA","NA","12020","1220","NA","NA","21002","NA","1289","NA","NA","19953","21105","21466","20998","21105","NA","Flanker Task","9","3781.0","11","1024"
"83","83","342","342","#3d3846","legacy","legacy","legacy","congruent","1","undefined","1","h","0","0","0","11","0","11","0","11","0","0","0","0","11","11","11","11","11","0","Wed Sep 20 14:00:27 2023","1500","The main experiment item","False","FlankerTask23.osexp","/Users/keelihatcher/Desktop/Tarleton M.D./Advanced Quantitative Methods & Experimental Design","False","mono","False","18","no","white","no","yes","768","legacy","11","11","/Users/keelihatcher/Desktop/Tarleton M.D./Advanced Quantitative Methods & Experimental Design/KT-subject-3.csv","legacy","Melodramatic Milgram","4.0.5","0","h","NA","s","NA","NA","h","331.0","NA","3690","NA","NA","331","NA","NA","2","legacy","1024","2","48000","-16","experiment","HHHHH","3","odd","4992","NA","NA","12020","1220","NA","NA","22517","NA","1289","NA","NA","21469","22621","22952","22515","22621","NA","Flanker Task","10","4112.0","12","1024"
"84","84","341","341","#3d3846","legacy","legacy","legacy","congruent","1","undefined","1","h","0","0","0","12","0","12","0","12","0","0","0","0","12","12","12","12","12","0","Wed Sep 20 14:00:27 2023","1500","The main experiment item","False","FlankerTask23.osexp","/Users/keelihatcher/Desktop/Tarleton M.D./Advanced Quantitative Methods & Experimental Design","False","mono","False","18","no","white","no","yes","768","legacy","12","12","/Users/keelihatcher/Desktop/Tarleton M.D./Advanced Quantitative Methods & Experimental Design/KT-subject-3.csv","legacy","Melodramatic Milgram","4.0.5","0","h","NA","s","NA","NA","h","328.0","NA","3690","NA","NA","328","NA","NA","2","legacy","1024","2","48000","-16","experiment","HHHHH","3","odd","4992","NA","NA","12020","1220","NA","NA","24004","NA","1289","NA","NA","22954","24107","24435","24000","24107","NA","Flanker Task","11","4440.0","13","1024"
"85","85","344","344","#3d3846","legacy","legacy","legacy","congruent","1","undefined","1","h","0","0","0","13","0","13","0","13","0","0","0","0","13","13","13","13","13","0","Wed Sep 20 14:00:27 2023","1500","The main experiment item","False","FlankerTask23.osexp","/Users/keelihatcher/Desktop/Tarleton M.D./Advanced Quantitative Methods & Experimental Design","False","mono","False","18","no","white","no","yes","768","legacy","13","13","/Users/keelihatcher/Desktop/Tarleton M.D./Advanced Quantitative Methods & Experimental Design/KT-subject-3.csv","legacy","Melodramatic Milgram","4.0.5","0","h","NA","s","NA","NA","h","389.0","NA","3690","NA","NA","389","NA","NA","2","legacy","1024","2","48000","-16","experiment","HHHHH","3","odd","4992","NA","NA","12020","1220","NA","NA","25487","NA","1289","NA","NA","24438","25591","25981","25483","25591","NA","Flanker Task","12","4829.0","14","1024"
"80","80","342","342","#3d3846","legacy","legacy","legacy","incongruent","0","undefined","0","h","0","0","0","14","0","14","0","14","0","0","0","0","14","14","14","14","14","0","Wed Sep 20 14:00:27 2023","1500","The main experiment item","False","FlankerTask23.osexp","/Users/keelihatcher/Desktop/Tarleton M.D./Advanced Quantitative Methods & Experimental Design","False","mono","False","18","no","white","no","yes","768","legacy","14","14","/Users/keelihatcher/Desktop/Tarleton M.D./Advanced Quantitative Methods & Experimental Design/KT-subject-3.csv","legacy","Melodramatic Milgram","4.0.5","0","s","NA","s","NA","NA","s","307.0","NA","3690","NA","NA","307","NA","NA","2","legacy","1024","2","48000","-16","experiment","SSHSS","3","odd","4992","NA","NA","12020","1220","NA","NA","27031","NA","1289","NA","NA","25983","27135","27443","27028","27135","NA","Flanker Task","12","5136.0","15","1024"
"81","81","350","350","#3d3846","legacy","legacy","legacy","incongruent","1","undefined","1","h","0","0","0","15","0","15","0","15","0","0","0","0","15","15","15","15","15","0","Wed Sep 20 14:00:27 2023","1500","The main experiment item","False","FlankerTask23.osexp","/Users/keelihatcher/Desktop/Tarleton M.D./Advanced Quantitative Methods & Experimental Design","False","mono","False","18","no","white","no","yes","768","legacy","15","15","/Users/keelihatcher/Desktop/Tarleton M.D./Advanced Quantitative Methods & Experimental Design/KT-subject-3.csv","legacy","Melodramatic Milgram","4.0.5","0","h","NA","s","NA","NA","h","465.0","NA","3690","NA","NA","465","NA","NA","2","legacy","1024","2","48000","-16","experiment","SSHSS","3","odd","4992","NA","NA","27445","1220","NA","NA","28998","NA","1289","NA","NA","27948","29101","29567","28994","29101","NA","Flanker Task","13","5601.0","16","1024"
"82","82","355","355","#3d3846","legacy","legacy","legacy","incongruent","1","undefined","1","s","0","0","0","16","0","16","0","16","0","0","0","0","16","16","16","16","16","0","Wed Sep 20 14:00:27 2023","1500","The main experiment item","False","FlankerTask23.osexp","/Users/keelihatcher/Desktop/Tarleton M.D./Advanced Quantitative Methods & Experimental Design","False","mono","False","18","no","white","no","yes","768","legacy","16","16","/Users/keelihatcher/Desktop/Tarleton M.D./Advanced Quantitative Methods & Experimental Design/KT-subject-3.csv","legacy","Melodramatic Milgram","4.0.5","0","s","NA","s","NA","NA","s","442.0","NA","3690","NA","NA","442","NA","NA","2","legacy","1024","2","48000","-16","experiment","HHSHH","3","odd","4992","NA","NA","27445","1220","NA","NA","30618","NA","1289","NA","NA","29570","30721","31164","30615","30721","NA","Flanker Task","14","6043.0","17","1024"
"83","83","352","352","#3d3846","legacy","legacy","legacy","congruent","1","undefined","1","h","0","0","0","17","0","17","0","17","0","0","0","0","17","17","17","17","17","0","Wed Sep 20 14:00:27 2023","1500","The main experiment item","False","FlankerTask23.osexp","/Users/keelihatcher/Desktop/Tarleton M.D./Advanced Quantitative Methods & Experimental Design","False","mono","False","18","no","white","no","yes","768","legacy","17","17","/Users/keelihatcher/Desktop/Tarleton M.D./Advanced Quantitative Methods & Experimental Design/KT-subject-3.csv","legacy","Melodramatic Milgram","4.0.5","0","h","NA","s","NA","NA","h","310.0","NA","3690","NA","NA","310","NA","NA","2","legacy","1024","2","48000","-16","experiment","HHHHH","3","odd","4992","NA","NA","27445","1220","NA","NA","32211","NA","1289","NA","NA","31166","32315","32626","32208","32315","NA","Flanker Task","15","6353.0","18","1024"
"78","78","351","351","#3d3846","legacy","legacy","legacy","incongruent","0","undefined","0","s","0","0","0","18","0","18","0","18","0","0","0","0","18","18","18","18","18","0","Wed Sep 20 14:00:27 2023","1500","The main experiment item","False","FlankerTask23.osexp","/Users/keelihatcher/Desktop/Tarleton M.D./Advanced Quantitative Methods & Experimental Design","False","mono","False","18","no","white","no","yes","768","legacy","18","18","/Users/keelihatcher/Desktop/Tarleton M.D./Advanced Quantitative Methods & Experimental Design/KT-subject-3.csv","legacy","Melodramatic Milgram","4.0.5","0","h","NA","s","NA","NA","h","326.0","NA","3690","NA","NA","326","NA","NA","2","legacy","1024","2","48000","-16","experiment","HHSHH","3","odd","4992","NA","NA","27445","1220","NA","NA","33671","NA","1289","NA","NA","32628","33774","34100","33668","33774","NA","Flanker Task","15","6679.0","19","1024"
"80","80","356","356","#3d3846","legacy","legacy","legacy","congruent","1","undefined","1","s","0","0","0","19","0","19","0","19","0","0","0","0","19","19","19","19","19","0","Wed Sep 20 14:00:27 2023","1500","The main experiment item","False","FlankerTask23.osexp","/Users/keelihatcher/Desktop/Tarleton M.D./Advanced Quantitative Methods & Experimental Design","False","mono","False","18","no","white","no","yes","768","legacy","19","19","/Users/keelihatcher/Desktop/Tarleton M.D./Advanced Quantitative Methods & Experimental Design/KT-subject-3.csv","legacy","Melodramatic Milgram","4.0.5","0","s","NA","s","NA","NA","s","453.0","NA","3690","NA","NA","453","NA","NA","2","legacy","1024","2","48000","-16","experiment","SSSSS","3","odd","4992","NA","NA","34102","1220","NA","NA","35648","NA","1289","NA","NA","34606","35751","36205","35645","35751","NA","Flanker Task","16","7132.0","20","1024"
"80","80","356","356","#3d3846","legacy","legacy","legacy","incongruent","1","undefined","1","h","0","0","0","20","0","20","0","20","0","0","0","0","20","20","20","20","20","0","Wed Sep 20 14:00:27 2023","1500","The main experiment item","False","FlankerTask23.osexp","/Users/keelihatcher/Desktop/Tarleton M.D./Advanced Quantitative Methods & Experimental Design","False","mono","False","18","no","white","no","yes","768","legacy","20","20","/Users/keelihatcher/Desktop/Tarleton M.D./Advanced Quantitative Methods & Experimental Design/KT-subject-3.csv","legacy","Melodramatic Milgram","4.0.5","0","h","NA","s","NA","NA","h","355.0","NA","3690","NA","NA","355","NA","NA","2","legacy","1024","2","48000","-16","experiment","SSHSS","3","odd","4992","NA","NA","34102","1220","NA","NA","37250","NA","1289","NA","NA","36207","37353","37708","37247","37353","NA","Flanker Task","17","7487.0","21","1024"
"81","81","356","356","#3d3846","legacy","legacy","legacy","congruent","1","undefined","1","h","0","0","0","21","0","21","0","21","0","0","0","0","21","21","21","21","21","0","Wed Sep 20 14:00:27 2023","1500","The main experiment item","False","FlankerTask23.osexp","/Users/keelihatcher/Desktop/Tarleton M.D./Advanced Quantitative Methods & Experimental Design","False","mono","False","18","no","white","no","yes","768","legacy","21","21","/Users/keelihatcher/Desktop/Tarleton M.D./Advanced Quantitative Methods & Experimental Design/KT-subject-3.csv","legacy","Melodramatic Milgram","4.0.5","0","h","NA","s","NA","NA","h","359.0","NA","3690","NA","NA","359","NA","NA","2","legacy","1024","2","48000","-16","experiment","HHHHH","3","odd","4992","NA","NA","34102","1220","NA","NA","38752","NA","1289","NA","NA","37711","38855","39215","38749","38855","NA","Flanker Task","18","7846.0","22","1024"
"82","82","357","357","#3d3846","legacy","legacy","legacy","incongruent","1","undefined","1","s","0","0","0","22","0","22","0","22","0","0","0","0","22","22","22","22","22","0","Wed Sep 20 14:00:27 2023","1500","The main experiment item","False","FlankerTask23.osexp","/Users/keelihatcher/Desktop/Tarleton M.D./Advanced Quantitative Methods & Experimental Design","False","mono","False","18","no","white","no","yes","768","legacy","22","22","/Users/keelihatcher/Desktop/Tarleton M.D./Advanced Quantitative Methods & Experimental Design/KT-subject-3.csv","legacy","Melodramatic Milgram","4.0.5","0","s","NA","s","NA","NA","s","368.0","NA","3690","NA","NA","368","NA","NA","2","legacy","1024","2","48000","-16","experiment","HHSHH","3","odd","4992","NA","NA","34102","1220","NA","NA","40258","NA","1289","NA","NA","39217","40362","40730","40255","40362","NA","Flanker Task","19","8214.0","23","1024"
"83","83","360","360","#3d3846","legacy","legacy","legacy","congruent","1","undefined","1","s","0","0","0","23","0","23","0","23","0","0","0","0","23","23","23","23","23","0","Wed Sep 20 14:00:27 2023","1500","The main experiment item","False","FlankerTask23.osexp","/Users/keelihatcher/Desktop/Tarleton M.D./Advanced Quantitative Methods & Experimental Design","False","mono","False","18","no","white","no","yes","768","legacy","23","23","/Users/keelihatcher/Desktop/Tarleton M.D./Advanced Quantitative Methods & Experimental Design/KT-subject-3.csv","legacy","Melodramatic Milgram","4.0.5","0","s","NA","s","NA","NA","s","439.0","NA","3690","NA","NA","439","NA","NA","2","legacy","1024","2","48000","-16","experiment","SSSSS","3","odd","4992","NA","NA","34102","1220","NA","NA","41780","NA","1289","NA","NA","40734","41883","42323","41777","41883","NA","Flanker Task","20","8653.0","24","1024"
"84","84","366","366","#3d3846","legacy","legacy","legacy","incongruent","1","undefined","1","s","0","0","0","24","0","24","0","24","0","0","0","0","24","24","24","24","24","0","Wed Sep 20 14:00:27 2023","1500","The main experiment item","False","FlankerTask23.osexp","/Users/keelihatcher/Desktop/Tarleton M.D./Advanced Quantitative Methods & Experimental Design","False","mono","False","18","no","white","no","yes","768","legacy","24","24","/Users/keelihatcher/Desktop/Tarleton M.D./Advanced Quantitative Methods & Experimental Design/KT-subject-3.csv","legacy","Melodramatic Milgram","4.0.5","0","s","NA","s","NA","NA","s","504.0","NA","3690","NA","NA","504","NA","NA","2","legacy","1024","2","48000","-16","experiment","HHSHH","3","odd","4992","NA","NA","34102","1220","NA","NA","43365","NA","1289","NA","NA","42325","43468","43973","43363","43468","NA","Flanker Task","21","9157.0","25","1024"
"84","84","366","366","#3d3846","legacy","legacy","legacy","incongruent","1","undefined","1","h","0","0","0","25","0","25","0","25","0","0","0","0","25","25","25","25","25","0","Wed Sep 20 14:00:27 2023","1500","The main experiment item","False","FlankerTask23.osexp","/Users/keelihatcher/Desktop/Tarleton M.D./Advanced Quantitative Methods & Experimental Design","False","mono","False","18","no","white","no","yes","768","legacy","25","25","/Users/keelihatcher/Desktop/Tarleton M.D./Advanced Quantitative Methods & Experimental Design/KT-subject-3.csv","legacy","Melodramatic Milgram","4.0.5","0","h","NA","s","NA","NA","h","377.0","NA","3690","NA","NA","377","NA","NA","2","legacy","1024","2","48000","-16","experiment","SSHSS","3","odd","4992","NA","NA","34102","1220","NA","NA","45014","NA","1289","NA","NA","43974","45118","45496","45011","45117","NA","Flanker Task","22","9534.0","26","1024"
"85","85","364","364","#3d3846","legacy","legacy","legacy","congruent","1","undefined","1","s","0","0","0","26","0","26","0","26","0","0","0","0","26","26","26","26","26","0","Wed Sep 20 14:00:27 2023","1500","The main experiment item","False","FlankerTask23.osexp","/Users/keelihatcher/Desktop/Tarleton M.D./Advanced Quantitative Methods & Experimental Design","False","mono","False","18","no","white","no","yes","768","legacy","26","26","/Users/keelihatcher/Desktop/Tarleton M.D./Advanced Quantitative Methods & Experimental Design/KT-subject-3.csv","legacy","Melodramatic Milgram","4.0.5","0","s","NA","s","NA","NA","s","310.0","NA","3690","NA","NA","310","NA","NA","2","legacy","1024","2","48000","-16","experiment","SSSSS","3","odd","4992","NA","NA","34102","1220","NA","NA","46540","NA","1289","NA","NA","45498","46643","46954","46536","46643","NA","Flanker Task","23","9844.0","27","1024"
"85","85","364","364","#3d3846","legacy","legacy","legacy","incongruent","1","undefined","1","s","0","0","0","27","0","27","0","27","0","0","0","0","27","27","27","27","27","0","Wed Sep 20 14:00:27 2023","1500","The main experiment item","False","FlankerTask23.osexp","/Users/keelihatcher/Desktop/Tarleton M.D./Advanced Quantitative Methods & Experimental Design","False","mono","False","18","no","white","no","yes","768","legacy","27","27","/Users/keelihatcher/Desktop/Tarleton M.D./Advanced Quantitative Methods & Experimental Design/KT-subject-3.csv","legacy","Melodramatic Milgram","4.0.5","0","s","NA","s","NA","NA","s","348.0","NA","3690","NA","NA","348","NA","NA","2","legacy","1024","2","48000","-16","experiment","HHSHH","3","odd","4992","NA","NA","34102","1220","NA","NA","47998","NA","1289","NA","NA","46956","48101","48450","47996","48101","NA","Flanker Task","24","10192.0","28","1024"
"86","86","365","365","#3d3846","legacy","legacy","legacy","incongruent","1","undefined","1","s","0","0","0","28","0","28","0","28","0","0","0","0","28","28","28","28","28","0","Wed Sep 20 14:00:27 2023","1500","The main experiment item","False","FlankerTask23.osexp","/Users/keelihatcher/Desktop/Tarleton M.D./Advanced Quantitative Methods & Experimental Design","False","mono","False","18","no","white","no","yes","768","legacy","28","28","/Users/keelihatcher/Desktop/Tarleton M.D./Advanced Quantitative Methods & Experimental Design/KT-subject-3.csv","legacy","Melodramatic Milgram","4.0.5","0","s","NA","s","NA","NA","s","421.0","NA","3690","NA","NA","421","NA","NA","2","legacy","1024","2","48000","-16","experiment","HHSHH","3","odd","4992","NA","NA","34102","1220","NA","NA","49495","NA","1289","NA","NA","48452","49598","50020","49492","49598","NA","Flanker Task","25","10613.0","29","1024"
"86","86","364","364","#3d3846","legacy","legacy","legacy","incongruent","1","undefined","1","h","0","0","0","29","0","29","0","29","0","0","0","0","29","29","29","29","29","0","Wed Sep 20 14:00:27 2023","1500","The main experiment item","False","FlankerTask23.osexp","/Users/keelihatcher/Desktop/Tarleton M.D./Advanced Quantitative Methods & Experimental Design","False","mono","False","18","no","white","no","yes","768","legacy","29","29","/Users/keelihatcher/Desktop/Tarleton M.D./Advanced Quantitative Methods & Experimental Design/KT-subject-3.csv","legacy","Melodramatic Milgram","4.0.5","0","h","NA","s","NA","NA","h","325.0","NA","3690","NA","NA","325","NA","NA","2","legacy","1024","2","48000","-16","experiment","SSHSS","3","odd","4992","NA","NA","34102","1220","NA","NA","51062","NA","1289","NA","NA","50022","51165","51491","51059","51165","NA","Flanker Task","26","10938.0","30","1024"
"83","83","364","364","#3d3846","legacy","legacy","legacy","incongruent","0","undefined","0","h","0","0","0","30","0","30","0","30","0","0","0","0","30","30","30","30","30","0","Wed Sep 20 14:00:27 2023","1500","The main experiment item","False","FlankerTask23.osexp","/Users/keelihatcher/Desktop/Tarleton M.D./Advanced Quantitative Methods & Experimental Design","False","mono","False","18","no","white","no","yes","768","legacy","30","30","/Users/keelihatcher/Desktop/Tarleton M.D./Advanced Quantitative Methods & Experimental Design/KT-subject-3.csv","legacy","Melodramatic Milgram","4.0.5","0","s","NA","s","NA","NA","s","355.0","NA","3690","NA","NA","355","NA","NA","2","legacy","1024","2","48000","-16","experiment","SSHSS","3","odd","4992","NA","NA","34102","1220","NA","NA","52534","NA","1289","NA","NA","51493","52638","52994","52531","52638","NA","Flanker Task","26","11293.0","31","1024"
"84","84","364","364","#3d3846","legacy","legacy","legacy","congruent","1","undefined","1","s","0","0","0","31","0","31","0","31","0","0","0","0","31","31","31","31","31","0","Wed Sep 20 14:00:27 2023","1500","The main experiment item","False","FlankerTask23.osexp","/Users/keelihatcher/Desktop/Tarleton M.D./Advanced Quantitative Methods & Experimental Design","False","mono","False","18","no","white","no","yes","768","legacy","31","31","/Users/keelihatcher/Desktop/Tarleton M.D./Advanced Quantitative Methods & Experimental Design/KT-subject-3.csv","legacy","Melodramatic Milgram","4.0.5","0","s","NA","s","NA","NA","s","384.0","NA","3690","NA","NA","384","NA","NA","2","legacy","1024","2","48000","-16","experiment","SSSSS","3","odd","4992","NA","NA","52996","1220","NA","NA","54543","NA","1289","NA","NA","53500","54646","55030","54540","54646","NA","Flanker Task","27","11677.0","32","1024"
"84","84","365","365","#3d3846","legacy","legacy","legacy","incongruent","1","undefined","1","s","0","0","0","32","0","32","0","32","0","0","0","0","32","32","32","32","32","0","Wed Sep 20 14:00:27 2023","1500","The main experiment item","False","FlankerTask23.osexp","/Users/keelihatcher/Desktop/Tarleton M.D./Advanced Quantitative Methods & Experimental Design","False","mono","False","18","no","white","no","yes","768","legacy","32","32","/Users/keelihatcher/Desktop/Tarleton M.D./Advanced Quantitative Methods & Experimental Design/KT-subject-3.csv","legacy","Melodramatic Milgram","4.0.5","0","s","NA","s","NA","NA","s","378.0","NA","3690","NA","NA","378","NA","NA","2","legacy","1024","2","48000","-16","experiment","HHSHH","3","odd","4992","NA","NA","52996","1220","NA","NA","56074","NA","1289","NA","NA","55032","56177","56556","56071","56177","NA","Flanker Task","28","12055.0","33","1024"
"85","85","366","366","#3d3846","legacy","legacy","legacy","congruent","1","undefined","1","s","0","0","0","33","0","33","0","33","0","0","0","0","33","33","33","33","33","0","Wed Sep 20 14:00:27 2023","1500","The main experiment item","False","FlankerTask23.osexp","/Users/keelihatcher/Desktop/Tarleton M.D./Advanced Quantitative Methods & Experimental Design","False","mono","False","18","no","white","no","yes","768","legacy","33","33","/Users/keelihatcher/Desktop/Tarleton M.D./Advanced Quantitative Methods & Experimental Design/KT-subject-3.csv","legacy","Melodramatic Milgram","4.0.5","0","s","NA","s","NA","NA","s","405.0","NA","3690","NA","NA","405","NA","NA","2","legacy","1024","2","48000","-16","experiment","SSSSS","3","odd","4992","NA","NA","52996","1220","NA","NA","57596","NA","1289","NA","NA","56558","57699","58105","57593","57699","NA","Flanker Task","29","12460.0","34","1024"
"85","85","368","368","#3d3846","legacy","legacy","legacy","incongruent","1","undefined","1","s","0","0","0","34","0","34","0","34","0","0","0","0","34","34","34","34","34","0","Wed Sep 20 14:00:27 2023","1500","The main experiment item","False","FlankerTask23.osexp","/Users/keelihatcher/Desktop/Tarleton M.D./Advanced Quantitative Methods & Experimental Design","False","mono","False","18","no","white","no","yes","768","legacy","34","34","/Users/keelihatcher/Desktop/Tarleton M.D./Advanced Quantitative Methods & Experimental Design/KT-subject-3.csv","legacy","Melodramatic Milgram","4.0.5","0","s","NA","s","NA","NA","s","420.0","NA","3690","NA","NA","420","NA","NA","2","legacy","1024","2","48000","-16","experiment","HHSHH","3","odd","4992","NA","NA","52996","1220","NA","NA","59149","NA","1289","NA","NA","58108","59252","59673","59146","59252","NA","Flanker Task","30","12880.0","35","1024"
"86","86","365","365","#3d3846","legacy","legacy","legacy","congruent","1","undefined","1","h","0","0","0","35","0","35","0","35","0","0","0","0","35","35","35","35","35","0","Wed Sep 20 14:00:27 2023","1500","The main experiment item","False","FlankerTask23.osexp","/Users/keelihatcher/Desktop/Tarleton M.D./Advanced Quantitative Methods & Experimental Design","False","mono","False","18","no","white","no","yes","768","legacy","35","35","/Users/keelihatcher/Desktop/Tarleton M.D./Advanced Quantitative Methods & Experimental Design/KT-subject-3.csv","legacy","Melodramatic Milgram","4.0.5","0","h","NA","s","NA","NA","h","292.0","NA","3690","NA","NA","292","NA","NA","2","legacy","1024","2","48000","-16","experiment","HHHHH","3","odd","4992","NA","NA","52996","1220","NA","NA","60717","NA","1289","NA","NA","59675","60820","61113","60713","60820","NA","Flanker Task","31","13172.0","36","1024"
"86","86","365","365","#3d3846","legacy","legacy","legacy","congruent","1","undefined","1","s","0","0","0","36","0","36","0","36","0","0","0","0","36","36","36","36","36","0","Wed Sep 20 14:00:27 2023","1500","The main experiment item","False","FlankerTask23.osexp","/Users/keelihatcher/Desktop/Tarleton M.D./Advanced Quantitative Methods & Experimental Design","False","mono","False","18","no","white","no","yes","768","legacy","36","36","/Users/keelihatcher/Desktop/Tarleton M.D./Advanced Quantitative Methods & Experimental Design/KT-subject-3.csv","legacy","Melodramatic Milgram","4.0.5","0","s","NA","s","NA","NA","s","338.0","NA","3690","NA","NA","338","NA","NA","2","legacy","1024","2","48000","-16","experiment","SSSSS","3","odd","4992","NA","NA","52996","1220","NA","NA","62160","NA","1289","NA","NA","61115","62264","62603","62156","62264","NA","Flanker Task","32","13510.0","37","1024"
"86","86","365","365","#3d3846","legacy","legacy","legacy","incongruent","1","undefined","1","s","0","0","0","37","0","37","0","37","0","0","0","0","37","37","37","37","37","0","Wed Sep 20 14:00:27 2023","1500","The main experiment item","False","FlankerTask23.osexp","/Users/keelihatcher/Desktop/Tarleton M.D./Advanced Quantitative Methods & Experimental Design","False","mono","False","18","no","white","no","yes","768","legacy","37","37","/Users/keelihatcher/Desktop/Tarleton M.D./Advanced Quantitative Methods & Experimental Design/KT-subject-3.csv","legacy","Melodramatic Milgram","4.0.5","0","s","NA","s","NA","NA","s","392.0","NA","3690","NA","NA","392","NA","NA","2","legacy","1024","2","48000","-16","experiment","HHSHH","3","odd","4992","NA","NA","52996","1220","NA","NA","63651","NA","1289","NA","NA","62604","63754","64147","63647","63754","NA","Flanker Task","33","13902.0","38","1024"
"87","87","364","364","#3d3846","legacy","legacy","legacy","congruent","1","undefined","1","h","0","0","0","38","0","38","0","38","0","0","0","0","38","38","38","38","38","0","Wed Sep 20 14:00:27 2023","1500","The main experiment item","False","FlankerTask23.osexp","/Users/keelihatcher/Desktop/Tarleton M.D./Advanced Quantitative Methods & Experimental Design","False","mono","False","18","no","white","no","yes","768","legacy","38","38","/Users/keelihatcher/Desktop/Tarleton M.D./Advanced Quantitative Methods & Experimental Design/KT-subject-3.csv","legacy","Melodramatic Milgram","4.0.5","0","h","NA","s","NA","NA","h","322.0","NA","3690","NA","NA","322","NA","NA","2","legacy","1024","2","48000","-16","experiment","HHHHH","3","odd","4992","NA","NA","52996","1220","NA","NA","65191","NA","1289","NA","NA","64149","65294","65617","65188","65294","NA","Flanker Task","34","14224.0","39","1024"
"87","87","362","362","#3d3846","legacy","legacy","legacy","congruent","1","undefined","1","s","0","0","0","39","0","39","0","39","0","0","0","0","39","39","39","39","39","0","Wed Sep 20 14:00:27 2023","1500","The main experiment item","False","FlankerTask23.osexp","/Users/keelihatcher/Desktop/Tarleton M.D./Advanced Quantitative Methods & Experimental Design","False","mono","False","18","no","white","no","yes","768","legacy","39","39","/Users/keelihatcher/Desktop/Tarleton M.D./Advanced Quantitative Methods & Experimental Design/KT-subject-3.csv","legacy","Melodramatic Milgram","4.0.5","0","s","NA","s","NA","NA","s","292.0","NA","3690","NA","NA","292","NA","NA","2","legacy","1024","2","48000","-16","experiment","SSSSS","3","odd","4992","NA","NA","52996","1220","NA","NA","66660","NA","1289","NA","NA","65619","66763","67055","66657","66763","NA","Flanker Task","35","14516.0","40","1024"
"87","87","362","362","#3d3846","legacy","legacy","legacy","congruent","1","undefined","1","h","0","0","0","40","0","40","0","40","0","0","0","0","40","40","40","40","40","0","Wed Sep 20 14:00:27 2023","1500","The main experiment item","False","FlankerTask23.osexp","/Users/keelihatcher/Desktop/Tarleton M.D./Advanced Quantitative Methods & Experimental Design","False","mono","False","18","no","white","no","yes","768","legacy","40","40","/Users/keelihatcher/Desktop/Tarleton M.D./Advanced Quantitative Methods & Experimental Design/KT-subject-3.csv","legacy","Melodramatic Milgram","4.0.5","0","h","NA","s","NA","NA","h","350.0","NA","3690","NA","NA","350","NA","NA","2","legacy","1024","2","48000","-16","experiment","HHHHH","3","odd","4992","NA","NA","52996","1220","NA","NA","68097","NA","1289","NA","NA","67058","68200","68551","68094","68200","NA","Flanker Task","36","14866.0","41","1024"
"88","88","363","363","#3d3846","legacy","legacy","legacy","congruent","1","undefined","1","s","0","0","0","41","0","41","0","41","0","0","0","0","41","41","41","41","41","0","Wed Sep 20 14:00:27 2023","1500","The main experiment item","False","FlankerTask23.osexp","/Users/keelihatcher/Desktop/Tarleton M.D./Advanced Quantitative Methods & Experimental Design","False","mono","False","18","no","white","no","yes","768","legacy","41","41","/Users/keelihatcher/Desktop/Tarleton M.D./Advanced Quantitative Methods & Experimental Design/KT-subject-3.csv","legacy","Melodramatic Milgram","4.0.5","0","s","NA","s","NA","NA","s","395.0","NA","3690","NA","NA","395","NA","NA","2","legacy","1024","2","48000","-16","experiment","SSSSS","3","odd","4992","NA","NA","52996","1220","NA","NA","69596","NA","1289","NA","NA","68553","69700","70095","69590","69699","NA","Flanker Task","37","15261.0","42","1024"
"88","88","365","365","#3d3846","legacy","legacy","legacy","incongruent","1","undefined","1","s","0","0","0","42","0","42","0","42","0","0","0","0","42","42","42","42","42","0","Wed Sep 20 14:00:27 2023","1500","The main experiment item","False","FlankerTask23.osexp","/Users/keelihatcher/Desktop/Tarleton M.D./Advanced Quantitative Methods & Experimental Design","False","mono","False","18","no","white","no","yes","768","legacy","42","42","/Users/keelihatcher/Desktop/Tarleton M.D./Advanced Quantitative Methods & Experimental Design/KT-subject-3.csv","legacy","Melodramatic Milgram","4.0.5","0","s","NA","s","NA","NA","s","445.0","NA","3690","NA","NA","445","NA","NA","2","legacy","1024","2","48000","-16","experiment","HHSHH","3","odd","4992","NA","NA","52996","1220","NA","NA","71139","NA","1289","NA","NA","70097","71243","71689","71136","71243","NA","Flanker Task","38","15706.0","43","1024"
"86","86","366","366","#3d3846","legacy","legacy","legacy","incongruent","0","undefined","0","h","0","0","0","43","0","43","0","43","0","0","0","0","43","43","43","43","43","0","Wed Sep 20 14:00:27 2023","1500","The main experiment item","False","FlankerTask23.osexp","/Users/keelihatcher/Desktop/Tarleton M.D./Advanced Quantitative Methods & Experimental Design","False","mono","False","18","no","white","no","yes","768","legacy","43","43","/Users/keelihatcher/Desktop/Tarleton M.D./Advanced Quantitative Methods & Experimental Design/KT-subject-3.csv","legacy","Melodramatic Milgram","4.0.5","0","s","NA","s","NA","NA","s","399.0","NA","3690","NA","NA","399","NA","NA","2","legacy","1024","2","48000","-16","experiment","SSHSS","3","odd","4992","NA","NA","52996","1220","NA","NA","72730","NA","1289","NA","NA","71691","72833","73232","72727","72833","NA","Flanker Task","38","16105.0","44","1024"
"86","86","367","367","#3d3846","legacy","legacy","legacy","congruent","1","undefined","1","s","0","0","0","44","0","44","0","44","0","0","0","0","44","44","44","44","44","0","Wed Sep 20 14:00:27 2023","1500","The main experiment item","False","FlankerTask23.osexp","/Users/keelihatcher/Desktop/Tarleton M.D./Advanced Quantitative Methods & Experimental Design","False","mono","False","18","no","white","no","yes","768","legacy","44","44","/Users/keelihatcher/Desktop/Tarleton M.D./Advanced Quantitative Methods & Experimental Design/KT-subject-3.csv","legacy","Melodramatic Milgram","4.0.5","0","s","NA","s","NA","NA","s","421.0","NA","3690","NA","NA","421","NA","NA","2","legacy","1024","2","48000","-16","experiment","SSSSS","3","odd","4992","NA","NA","73236","1220","NA","NA","74783","NA","1289","NA","NA","73739","74886","75307","74780","74886","NA","Flanker Task","39","16526.0","45","1024"
"86","86","367","367","#3d3846","legacy","legacy","legacy","congruent","1","undefined","1","h","0","0","0","45","0","45","0","45","0","0","0","0","45","45","45","45","45","0","Wed Sep 20 14:00:27 2023","1500","The main experiment item","False","FlankerTask23.osexp","/Users/keelihatcher/Desktop/Tarleton M.D./Advanced Quantitative Methods & Experimental Design","False","mono","False","18","no","white","no","yes","768","legacy","45","45","/Users/keelihatcher/Desktop/Tarleton M.D./Advanced Quantitative Methods & Experimental Design/KT-subject-3.csv","legacy","Melodramatic Milgram","4.0.5","0","h","NA","s","NA","NA","h","370.0","NA","3690","NA","NA","370","NA","NA","2","legacy","1024","2","48000","-16","experiment","HHHHH","3","odd","4992","NA","NA","73236","1220","NA","NA","76354","NA","1289","NA","NA","75310","76457","76827","76351","76457","NA","Flanker Task","40","16896.0","46","1024"
"87","87","365","365","#3d3846","legacy","legacy","legacy","incongruent","1","undefined","1","s","0","0","0","46","0","46","0","46","0","0","0","0","46","46","46","46","46","0","Wed Sep 20 14:00:27 2023","1500","The main experiment item","False","FlankerTask23.osexp","/Users/keelihatcher/Desktop/Tarleton M.D./Advanced Quantitative Methods & Experimental Design","False","mono","False","18","no","white","no","yes","768","legacy","46","46","/Users/keelihatcher/Desktop/Tarleton M.D./Advanced Quantitative Methods & Experimental Design/KT-subject-3.csv","legacy","Melodramatic Milgram","4.0.5","0","s","NA","s","NA","NA","s","275.0","NA","3690","NA","NA","275","NA","NA","2","legacy","1024","2","48000","-16","experiment","HHSHH","3","odd","4992","NA","NA","73236","1220","NA","NA","77871","NA","1289","NA","NA","76830","77974","78250","77867","77974","NA","Flanker Task","41","17171.0","47","1024"
"87","87","365","365","#3d3846","legacy","legacy","legacy","congruent","1","undefined","1","s","0","0","0","47","0","47","0","47","0","0","0","0","47","47","47","47","47","0","Wed Sep 20 14:00:27 2023","1500","The main experiment item","False","FlankerTask23.osexp","/Users/keelihatcher/Desktop/Tarleton M.D./Advanced Quantitative Methods & Experimental Design","False","mono","False","18","no","white","no","yes","768","legacy","47","47","/Users/keelihatcher/Desktop/Tarleton M.D./Advanced Quantitative Methods & Experimental Design/KT-subject-3.csv","legacy","Melodramatic Milgram","4.0.5","0","s","NA","s","NA","NA","s","390.0","NA","3690","NA","NA","390","NA","NA","2","legacy","1024","2","48000","-16","experiment","SSSSS","3","odd","4992","NA","NA","73236","1220","NA","NA","79295","NA","1289","NA","NA","78252","79399","79790","79292","79399","NA","Flanker Task","42","17561.0","48","1024"
"87","87","365","365","#3d3846","legacy","legacy","legacy","incongruent","1","undefined","1","h","0","0","0","48","0","48","0","48","0","0","0","0","48","48","48","48","48","0","Wed Sep 20 14:00:27 2023","1500","The main experiment item","False","FlankerTask23.osexp","/Users/keelihatcher/Desktop/Tarleton M.D./Advanced Quantitative Methods & Experimental Design","False","mono","False","18","no","white","no","yes","768","legacy","48","48","/Users/keelihatcher/Desktop/Tarleton M.D./Advanced Quantitative Methods & Experimental Design/KT-subject-3.csv","legacy","Melodramatic Milgram","4.0.5","0","h","NA","s","NA","NA","h","331.0","NA","3690","NA","NA","331","NA","NA","2","legacy","1024","2","48000","-16","experiment","SSHSS","3","odd","4992","NA","NA","73236","1220","NA","NA","80835","NA","1289","NA","NA","79792","80939","81271","80832","80939","NA","Flanker Task","43","17892.0","49","1024"
"88","88","364","364","#3d3846","legacy","legacy","legacy","congruent","1","undefined","1","s","0","0","0","49","0","49","0","49","0","0","0","0","49","49","49","49","49","0","Wed Sep 20 14:00:27 2023","1500","The main experiment item","False","FlankerTask23.osexp","/Users/keelihatcher/Desktop/Tarleton M.D./Advanced Quantitative Methods & Experimental Design","False","mono","False","18","no","white","no","yes","768","legacy","49","49","/Users/keelihatcher/Desktop/Tarleton M.D./Advanced Quantitative Methods & Experimental Design/KT-subject-3.csv","legacy","Melodramatic Milgram","4.0.5","0","s","NA","s","NA","NA","s","345.0","NA","3690","NA","NA","345","NA","NA","2","legacy","1024","2","48000","-16","experiment","SSSSS","3","odd","4992","NA","NA","73236","1220","NA","NA","82316","NA","1289","NA","NA","81273","82420","82766","82312","82419","NA","Flanker Task","44","18237.0","50","1024"
"86","86","364","364","#3d3846","legacy","legacy","legacy","incongruent","0","undefined","0","h","0","0","0","50","0","50","0","50","0","0","0","0","50","50","50","50","50","0","Wed Sep 20 14:00:27 2023","1500","The main experiment item","False","FlankerTask23.osexp","/Users/keelihatcher/Desktop/Tarleton M.D./Advanced Quantitative Methods & Experimental Design","False","mono","False","18","no","white","no","yes","768","legacy","50","50","/Users/keelihatcher/Desktop/Tarleton M.D./Advanced Quantitative Methods & Experimental Design/KT-subject-3.csv","legacy","Melodramatic Milgram","4.0.5","0","s","NA","s","NA","NA","s","359.0","NA","3690","NA","NA","359","NA","NA","2","legacy","1024","2","48000","-16","experiment","SSHSS","3","odd","4992","NA","NA","73236","1220","NA","NA","83806","NA","1289","NA","NA","82768","83910","84269","83803","83910","NA","Flanker Task","44","18596.0","51","1024"
"86","86","363","363","#3d3846","legacy","legacy","legacy","congruent","1","undefined","1","s","0","0","0","51","0","51","0","51","0","0","0","0","51","51","51","51","51","0","Wed Sep 20 14:00:27 2023","1500","The main experiment item","False","FlankerTask23.osexp","/Users/keelihatcher/Desktop/Tarleton M.D./Advanced Quantitative Methods & Experimental Design","False","mono","False","18","no","white","no","yes","768","legacy","51","51","/Users/keelihatcher/Desktop/Tarleton M.D./Advanced Quantitative Methods & Experimental Design/KT-subject-3.csv","legacy","Melodramatic Milgram","4.0.5","0","s","NA","s","NA","NA","s","297.0","NA","3690","NA","NA","297","NA","NA","2","legacy","1024","2","48000","-16","experiment","SSSSS","3","odd","4992","NA","NA","84271","1220","NA","NA","85817","NA","1289","NA","NA","84776","85920","86218","85814","85920","NA","Flanker Task","45","18893.0","52","1024"
"86","86","364","364","#3d3846","legacy","legacy","legacy","congruent","1","undefined","1","s","0","0","0","52","0","52","0","52","0","0","0","0","52","52","52","52","52","0","Wed Sep 20 14:00:27 2023","1500","The main experiment item","False","FlankerTask23.osexp","/Users/keelihatcher/Desktop/Tarleton M.D./Advanced Quantitative Methods & Experimental Design","False","mono","False","18","no","white","no","yes","768","legacy","52","52","/Users/keelihatcher/Desktop/Tarleton M.D./Advanced Quantitative Methods & Experimental Design/KT-subject-3.csv","legacy","Melodramatic Milgram","4.0.5","0","s","NA","s","NA","NA","s","423.0","NA","3690","NA","NA","423","NA","NA","2","legacy","1024","2","48000","-16","experiment","SSSSS","3","odd","4992","NA","NA","84271","1220","NA","NA","87263","NA","1289","NA","NA","86220","87365","87789","87261","87365","NA","Flanker Task","46","19316.0","53","1024"
"87","87","365","365","#3d3846","legacy","legacy","legacy","incongruent","1","undefined","1","s","0","0","0","53","0","53","0","53","0","0","0","0","53","53","53","53","53","0","Wed Sep 20 14:00:27 2023","1500","The main experiment item","False","FlankerTask23.osexp","/Users/keelihatcher/Desktop/Tarleton M.D./Advanced Quantitative Methods & Experimental Design","False","mono","False","18","no","white","no","yes","768","legacy","53","53","/Users/keelihatcher/Desktop/Tarleton M.D./Advanced Quantitative Methods & Experimental Design/KT-subject-3.csv","legacy","Melodramatic Milgram","4.0.5","0","s","NA","s","NA","NA","s","417.0","NA","3690","NA","NA","417","NA","NA","2","legacy","1024","2","48000","-16","experiment","HHSHH","3","odd","4992","NA","NA","84271","1220","NA","NA","88839","NA","1289","NA","NA","87791","88943","89361","88837","88943","NA","Flanker Task","47","19733.0","54","1024"
"87","87","364","364","#3d3846","legacy","legacy","legacy","incongruent","1","undefined","1","h","0","0","0","54","0","54","0","54","0","0","0","0","54","54","54","54","54","0","Wed Sep 20 14:00:27 2023","1500","The main experiment item","False","FlankerTask23.osexp","/Users/keelihatcher/Desktop/Tarleton M.D./Advanced Quantitative Methods & Experimental Design","False","mono","False","18","no","white","no","yes","768","legacy","54","54","/Users/keelihatcher/Desktop/Tarleton M.D./Advanced Quantitative Methods & Experimental Design/KT-subject-3.csv","legacy","Melodramatic Milgram","4.0.5","0","h","NA","s","NA","NA","h","336.0","NA","3690","NA","NA","336","NA","NA","2","legacy","1024","2","48000","-16","experiment","SSHSS","3","odd","4992","NA","NA","84271","1220","NA","NA","90404","NA","1289","NA","NA","89363","90507","90844","90401","90507","NA","Flanker Task","48","20069.0","55","1024"
"87","87","365","365","#3d3846","legacy","legacy","legacy","incongruent","1","undefined","1","s","0","0","0","55","0","55","0","55","0","0","0","0","55","55","55","55","55","0","Wed Sep 20 14:00:27 2023","1500","The main experiment item","False","FlankerTask23.osexp","/Users/keelihatcher/Desktop/Tarleton M.D./Advanced Quantitative Methods & Experimental Design","False","mono","False","18","no","white","no","yes","768","legacy","55","55","/Users/keelihatcher/Desktop/Tarleton M.D./Advanced Quantitative Methods & Experimental Design/KT-subject-3.csv","legacy","Melodramatic Milgram","4.0.5","0","s","NA","s","NA","NA","s","391.0","NA","3690","NA","NA","391","NA","NA","2","legacy","1024","2","48000","-16","experiment","HHSHH","3","odd","4992","NA","NA","84271","1220","NA","NA","91887","NA","1289","NA","NA","90846","91990","92381","91884","91990","NA","Flanker Task","49","20460.0","56","1024"
"85","85","363","363","#3d3846","legacy","legacy","legacy","incongruent","0","undefined","0","s","0","0","0","56","0","56","0","56","0","0","0","0","56","56","56","56","56","0","Wed Sep 20 14:00:27 2023","1500","The main experiment item","False","FlankerTask23.osexp","/Users/keelihatcher/Desktop/Tarleton M.D./Advanced Quantitative Methods & Experimental Design","False","mono","False","18","no","white","no","yes","768","legacy","56","56","/Users/keelihatcher/Desktop/Tarleton M.D./Advanced Quantitative Methods & Experimental Design/KT-subject-3.csv","legacy","Melodramatic Milgram","4.0.5","0","h","NA","s","NA","NA","h","259.0","NA","3690","NA","NA","259","NA","NA","2","legacy","1024","2","48000","-16","experiment","HHSHH","3","odd","4992","NA","NA","84271","1220","NA","NA","93421","NA","1289","NA","NA","92384","93524","93784","93418","93524","NA","Flanker Task","49","20719.0","57","1024"
"86","86","364","364","#3d3846","legacy","legacy","legacy","incongruent","1","undefined","1","s","0","0","0","57","0","57","0","57","0","0","0","0","57","57","57","57","57","0","Wed Sep 20 14:00:27 2023","1500","The main experiment item","False","FlankerTask23.osexp","/Users/keelihatcher/Desktop/Tarleton M.D./Advanced Quantitative Methods & Experimental Design","False","mono","False","18","no","white","no","yes","768","legacy","57","57","/Users/keelihatcher/Desktop/Tarleton M.D./Advanced Quantitative Methods & Experimental Design/KT-subject-3.csv","legacy","Melodramatic Milgram","4.0.5","0","s","NA","s","NA","NA","s","420.0","NA","3690","NA","NA","420","NA","NA","2","legacy","1024","2","48000","-16","experiment","HHSHH","3","odd","4992","NA","NA","93786","1220","NA","NA","95331","NA","1289","NA","NA","94290","95434","95855","95328","95434","NA","Flanker Task","50","21139.0","58","1024"
"86","86","365","365","#3d3846","legacy","legacy","legacy","incongruent","1","undefined","1","s","0","0","0","58","0","58","0","58","0","0","0","0","58","58","58","58","58","0","Wed Sep 20 14:00:27 2023","1500","The main experiment item","False","FlankerTask23.osexp","/Users/keelihatcher/Desktop/Tarleton M.D./Advanced Quantitative Methods & Experimental Design","False","mono","False","18","no","white","no","yes","768","legacy","58","58","/Users/keelihatcher/Desktop/Tarleton M.D./Advanced Quantitative Methods & Experimental Design/KT-subject-3.csv","legacy","Melodramatic Milgram","4.0.5","0","s","NA","s","NA","NA","s","443.0","NA","3690","NA","NA","443","NA","NA","2","legacy","1024","2","48000","-16","experiment","HHSHH","3","odd","4992","NA","NA","93786","1220","NA","NA","96897","NA","1289","NA","NA","95857","97001","97444","96894","97000","NA","Flanker Task","51","21582.0","59","1024"
"86","86","365","365","#3d3846","legacy","legacy","legacy","incongruent","1","undefined","1","h","0","0","0","59","0","59","0","59","0","0","0","0","59","59","59","59","59","0","Wed Sep 20 14:00:27 2023","1500","The main experiment item","False","FlankerTask23.osexp","/Users/keelihatcher/Desktop/Tarleton M.D./Advanced Quantitative Methods & Experimental Design","False","mono","False","18","no","white","no","yes","768","legacy","59","59","/Users/keelihatcher/Desktop/Tarleton M.D./Advanced Quantitative Methods & Experimental Design/KT-subject-3.csv","legacy","Melodramatic Milgram","4.0.5","0","h","NA","s","NA","NA","h","334.0","NA","3690","NA","NA","334","NA","NA","2","legacy","1024","2","48000","-16","experiment","SSHSS","3","odd","4992","NA","NA","93786","1220","NA","NA","98485","NA","1289","NA","NA","97446","98589","98924","98483","98589","NA","Flanker Task","52","21916.0","60","1024"
"86","86","363","363","#3d3846","legacy","legacy","legacy","congruent","1","undefined","1","s","0","0","0","60","0","60","0","60","0","0","0","0","60","60","60","60","60","0","Wed Sep 20 14:00:27 2023","1500","The main experiment item","False","FlankerTask23.osexp","/Users/keelihatcher/Desktop/Tarleton M.D./Advanced Quantitative Methods & Experimental Design","False","mono","False","18","no","white","no","yes","768","legacy","60","60","/Users/keelihatcher/Desktop/Tarleton M.D./Advanced Quantitative Methods & Experimental Design/KT-subject-3.csv","legacy","Melodramatic Milgram","4.0.5","0","s","NA","s","NA","NA","s","250.0","NA","3690","NA","NA","250","NA","NA","2","legacy","1024","2","48000","-16","experiment","SSSSS","3","odd","4992","NA","NA","93786","1220","NA","NA","99970","NA","1289","NA","NA","98926","100073","100324","99966","100073","NA","Flanker Task","53","22166.0","61","1024"
"87","87","362","362","#3d3846","legacy","legacy","legacy","congruent","1","undefined","1","h","0","0","0","61","0","61","0","61","0","0","0","0","61","61","61","61","61","0","Wed Sep 20 14:00:27 2023","1500","The main experiment item","False","FlankerTask23.osexp","/Users/keelihatcher/Desktop/Tarleton M.D./Advanced Quantitative Methods & Experimental Design","False","mono","False","18","no","white","no","yes","768","legacy","61","61","/Users/keelihatcher/Desktop/Tarleton M.D./Advanced Quantitative Methods & Experimental Design/KT-subject-3.csv","legacy","Melodramatic Milgram","4.0.5","0","h","NA","s","NA","NA","h","302.0","NA","3690","NA","NA","302","NA","NA","2","legacy","1024","2","48000","-16","experiment","HHHHH","3","odd","4992","NA","NA","93786","1220","NA","NA","101370","NA","1289","NA","NA","100326","101473","101776","101367","101473","NA","Flanker Task","54","22468.0","62","1024"
"85","85","361","361","#3d3846","legacy","legacy","legacy","congruent","0","undefined","0","h","0","0","0","62","0","62","0","62","0","0","0","0","62","62","62","62","62","0","Wed Sep 20 14:00:27 2023","1500","The main experiment item","False","FlankerTask23.osexp","/Users/keelihatcher/Desktop/Tarleton M.D./Advanced Quantitative Methods & Experimental Design","False","mono","False","18","no","white","no","yes","768","legacy","62","62","/Users/keelihatcher/Desktop/Tarleton M.D./Advanced Quantitative Methods & Experimental Design/KT-subject-3.csv","legacy","Melodramatic Milgram","4.0.5","0","s","NA","s","NA","NA","s","283.0","NA","3690","NA","NA","283","NA","NA","2","legacy","1024","2","48000","-16","experiment","HHHHH","3","odd","4992","NA","NA","93786","1220","NA","NA","102819","NA","1289","NA","NA","101778","102922","103206","102815","102922","NA","Flanker Task","54","22751.0","63","1024"
"84","84","361","361","#3d3846","legacy","legacy","legacy","incongruent","0","undefined","0","h","0","0","0","63","0","63","0","63","0","0","0","0","63","63","63","63","63","0","Wed Sep 20 14:00:27 2023","1500","The main experiment item","False","FlankerTask23.osexp","/Users/keelihatcher/Desktop/Tarleton M.D./Advanced Quantitative Methods & Experimental Design","False","mono","False","18","no","white","no","yes","768","legacy","63","63","/Users/keelihatcher/Desktop/Tarleton M.D./Advanced Quantitative Methods & Experimental Design/KT-subject-3.csv","legacy","Melodramatic Milgram","4.0.5","0","s","NA","s","NA","NA","s","392.0","NA","3690","NA","NA","392","NA","NA","2","legacy","1024","2","48000","-16","experiment","SSHSS","3","odd","4992","NA","NA","103208","1220","NA","NA","104750","NA","1289","NA","NA","103711","104853","105246","104747","104853","NA","Flanker Task","54","23143.0","64","1024"
"84","84","364","364","#3d3846","legacy","legacy","legacy","congruent","1","undefined","1","h","0","0","0","64","0","64","0","64","0","0","0","0","64","64","64","64","64","0","Wed Sep 20 14:00:27 2023","1500","The main experiment item","False","FlankerTask23.osexp","/Users/keelihatcher/Desktop/Tarleton M.D./Advanced Quantitative Methods & Experimental Design","False","mono","False","18","no","white","no","yes","768","legacy","64","64","/Users/keelihatcher/Desktop/Tarleton M.D./Advanced Quantitative Methods & Experimental Design/KT-subject-3.csv","legacy","Melodramatic Milgram","4.0.5","0","h","NA","s","NA","NA","h","546.0","NA","3690","NA","NA","546","NA","NA","2","legacy","1024","2","48000","-16","experiment","HHHHH","3","odd","4992","NA","NA","105249","1220","NA","NA","106791","NA","1289","NA","NA","105752","106895","107442","106788","106895","NA","Flanker Task","55","23689.0","65","1024"
"84","84","363","363","#3d3846","legacy","legacy","legacy","congruent","1","undefined","1","s","0","0","0","65","0","65","0","65","0","0","0","0","65","65","65","65","65","0","Wed Sep 20 14:00:27 2023","1500","The main experiment item","False","FlankerTask23.osexp","/Users/keelihatcher/Desktop/Tarleton M.D./Advanced Quantitative Methods & Experimental Design","False","mono","False","18","no","white","no","yes","768","legacy","65","65","/Users/keelihatcher/Desktop/Tarleton M.D./Advanced Quantitative Methods & Experimental Design/KT-subject-3.csv","legacy","Melodramatic Milgram","4.0.5","0","s","NA","s","NA","NA","s","310.0","NA","3690","NA","NA","310","NA","NA","2","legacy","1024","2","48000","-16","experiment","SSSSS","3","odd","4992","NA","NA","105249","1220","NA","NA","108482","NA","1289","NA","NA","107444","108585","108896","108479","108585","NA","Flanker Task","56","23999.0","66","1024"
"85","85","363","363","#3d3846","legacy","legacy","legacy","congruent","1","undefined","1","h","0","0","0","66","0","66","0","66","0","0","0","0","66","66","66","66","66","0","Wed Sep 20 14:00:27 2023","1500","The main experiment item","False","FlankerTask23.osexp","/Users/keelihatcher/Desktop/Tarleton M.D./Advanced Quantitative Methods & Experimental Design","False","mono","False","18","no","white","no","yes","768","legacy","66","66","/Users/keelihatcher/Desktop/Tarleton M.D./Advanced Quantitative Methods & Experimental Design/KT-subject-3.csv","legacy","Melodramatic Milgram","4.0.5","0","h","NA","s","NA","NA","h","331.0","NA","3690","NA","NA","331","NA","NA","2","legacy","1024","2","48000","-16","experiment","HHHHH","3","odd","4992","NA","NA","105249","1220","NA","NA","109938","NA","1289","NA","NA","108898","110041","110373","109935","110041","NA","Flanker Task","57","24330.0","67","1024"
"85","85","362","362","#3d3846","legacy","legacy","legacy","congruent","1","undefined","1","h","0","0","0","67","0","67","0","67","0","0","0","0","67","67","67","67","67","0","Wed Sep 20 14:00:27 2023","1500","The main experiment item","False","FlankerTask23.osexp","/Users/keelihatcher/Desktop/Tarleton M.D./Advanced Quantitative Methods & Experimental Design","False","mono","False","18","no","white","no","yes","768","legacy","67","67","/Users/keelihatcher/Desktop/Tarleton M.D./Advanced Quantitative Methods & Experimental Design/KT-subject-3.csv","legacy","Melodramatic Milgram","4.0.5","0","h","NA","s","NA","NA","h","316.0","NA","3690","NA","NA","316","NA","NA","2","legacy","1024","2","48000","-16","experiment","HHHHH","3","odd","4992","NA","NA","105249","1220","NA","NA","111417","NA","1289","NA","NA","110376","111520","111837","111414","111520","NA","Flanker Task","58","24646.0","68","1024"
"85","85","361","361","#3d3846","legacy","legacy","legacy","congruent","1","undefined","1","s","0","0","0","68","0","68","0","68","0","0","0","0","68","68","68","68","68","0","Wed Sep 20 14:00:27 2023","1500","The main experiment item","False","FlankerTask23.osexp","/Users/keelihatcher/Desktop/Tarleton M.D./Advanced Quantitative Methods & Experimental Design","False","mono","False","18","no","white","no","yes","768","legacy","68","68","/Users/keelihatcher/Desktop/Tarleton M.D./Advanced Quantitative Methods & Experimental Design/KT-subject-3.csv","legacy","Melodramatic Milgram","4.0.5","0","s","NA","s","NA","NA","s","314.0","NA","3690","NA","NA","314","NA","NA","2","legacy","1024","2","48000","-16","experiment","SSSSS","3","odd","4992","NA","NA","105249","1220","NA","NA","112878","NA","1289","NA","NA","111839","112981","113296","112874","112981","NA","Flanker Task","59","24960.0","69","1024"
"85","85","361","361","#3d3846","legacy","legacy","legacy","congruent","1","undefined","1","h","0","0","0","69","0","69","0","69","0","0","0","0","69","69","69","69","69","0","Wed Sep 20 14:00:27 2023","1500","The main experiment item","False","FlankerTask23.osexp","/Users/keelihatcher/Desktop/Tarleton M.D./Advanced Quantitative Methods & Experimental Design","False","mono","False","18","no","white","no","yes","768","legacy","69","69","/Users/keelihatcher/Desktop/Tarleton M.D./Advanced Quantitative Methods & Experimental Design/KT-subject-3.csv","legacy","Melodramatic Milgram","4.0.5","0","h","NA","s","NA","NA","h","323.0","NA","3690","NA","NA","323","NA","NA","2","legacy","1024","2","48000","-16","experiment","HHHHH","3","odd","4992","NA","NA","105249","1220","NA","NA","114341","NA","1289","NA","NA","113298","114445","114769","114338","114445","NA","Flanker Task","60","25283.0","70","1024"
"84","84","360","360","#3d3846","legacy","legacy","legacy","incongruent","0","undefined","0","h","0","0","0","70","0","70","0","70","0","0","0","0","70","70","70","70","70","0","Wed Sep 20 14:00:27 2023","1500","The main experiment item","False","FlankerTask23.osexp","/Users/keelihatcher/Desktop/Tarleton M.D./Advanced Quantitative Methods & Experimental Design","False","mono","False","18","no","white","no","yes","768","legacy","70","70","/Users/keelihatcher/Desktop/Tarleton M.D./Advanced Quantitative Methods & Experimental Design/KT-subject-3.csv","legacy","Melodramatic Milgram","4.0.5","0","s","NA","s","NA","NA","s","296.0","NA","3690","NA","NA","296","NA","NA","2","legacy","1024","2","48000","-16","experiment","SSHSS","3","odd","4992","NA","NA","105249","1220","NA","NA","115810","NA","1289","NA","NA","114771","115913","116210","115806","115913","NA","Flanker Task","60","25579.0","71","1024"
"84","84","362","362","#3d3846","legacy","legacy","legacy","congruent","1","undefined","1","h","0","0","0","71","0","71","0","71","0","0","0","0","71","71","71","71","71","0","Wed Sep 20 14:00:27 2023","1500","The main experiment item","False","FlankerTask23.osexp","/Users/keelihatcher/Desktop/Tarleton M.D./Advanced Quantitative Methods & Experimental Design","False","mono","False","18","no","white","no","yes","768","legacy","71","71","/Users/keelihatcher/Desktop/Tarleton M.D./Advanced Quantitative Methods & Experimental Design/KT-subject-3.csv","legacy","Melodramatic Milgram","4.0.5","0","h","NA","s","NA","NA","h","491.0","NA","3690","NA","NA","491","NA","NA","2","legacy","1024","2","48000","-16","experiment","HHHHH","3","odd","4992","NA","NA","116212","1220","NA","NA","117754","NA","1289","NA","NA","116716","117857","118349","117751","117857","NA","Flanker Task","61","26070.0","72","1024"
"84","84","363","363","#3d3846","legacy","legacy","legacy","incongruent","1","undefined","1","h","0","0","0","72","0","72","0","72","0","0","0","0","72","72","72","72","72","0","Wed Sep 20 14:00:27 2023","1500","The main experiment item","False","FlankerTask23.osexp","/Users/keelihatcher/Desktop/Tarleton M.D./Advanced Quantitative Methods & Experimental Design","False","mono","False","18","no","white","no","yes","768","legacy","72","72","/Users/keelihatcher/Desktop/Tarleton M.D./Advanced Quantitative Methods & Experimental Design/KT-subject-3.csv","legacy","Melodramatic Milgram","4.0.5","0","h","NA","s","NA","NA","h","459.0","NA","3690","NA","NA","459","NA","NA","2","legacy","1024","2","48000","-16","experiment","SSHSS","3","odd","4992","NA","NA","116212","1220","NA","NA","119390","NA","1289","NA","NA","118351","119494","119954","119386","119493","NA","Flanker Task","62","26529.0","73","1024"
"85","85","365","365","#3d3846","legacy","legacy","legacy","incongruent","1","undefined","1","h","0","0","0","73","0","73","0","73","0","0","0","0","73","73","73","73","73","0","Wed Sep 20 14:00:27 2023","1500","The main experiment item","False","FlankerTask23.osexp","/Users/keelihatcher/Desktop/Tarleton M.D./Advanced Quantitative Methods & Experimental Design","False","mono","False","18","no","white","no","yes","768","legacy","73","73","/Users/keelihatcher/Desktop/Tarleton M.D./Advanced Quantitative Methods & Experimental Design/KT-subject-3.csv","legacy","Melodramatic Milgram","4.0.5","0","h","NA","s","NA","NA","h","516.0","NA","3690","NA","NA","516","NA","NA","2","legacy","1024","2","48000","-16","experiment","SSHSS","3","odd","4992","NA","NA","116212","1220","NA","NA","120998","NA","1289","NA","NA","119957","121101","121617","120994","121101","NA","Flanker Task","63","27045.0","74","1024"
"85","85","365","365","#3d3846","legacy","legacy","legacy","congruent","1","undefined","1","h","0","0","0","74","0","74","0","74","0","0","0","0","74","74","74","74","74","0","Wed Sep 20 14:00:27 2023","1500","The main experiment item","False","FlankerTask23.osexp","/Users/keelihatcher/Desktop/Tarleton M.D./Advanced Quantitative Methods & Experimental Design","False","mono","False","18","no","white","no","yes","768","legacy","74","74","/Users/keelihatcher/Desktop/Tarleton M.D./Advanced Quantitative Methods & Experimental Design/KT-subject-3.csv","legacy","Melodramatic Milgram","4.0.5","0","h","NA","s","NA","NA","h","392.0","NA","3690","NA","NA","392","NA","NA","2","legacy","1024","2","48000","-16","experiment","HHHHH","3","odd","4992","NA","NA","116212","1220","NA","NA","122661","NA","1289","NA","NA","121620","122764","123156","122657","122764","NA","Flanker Task","64","27437.0","75","1024"
"85","85","366","366","#3d3846","legacy","legacy","legacy","congruent","1","undefined","1","h","0","0","0","75","0","75","0","75","0","0","0","0","75","75","75","75","75","0","Wed Sep 20 14:00:27 2023","1500","The main experiment item","False","FlankerTask23.osexp","/Users/keelihatcher/Desktop/Tarleton M.D./Advanced Quantitative Methods & Experimental Design","False","mono","False","18","no","white","no","yes","768","legacy","75","75","/Users/keelihatcher/Desktop/Tarleton M.D./Advanced Quantitative Methods & Experimental Design/KT-subject-3.csv","legacy","Melodramatic Milgram","4.0.5","0","h","NA","s","NA","NA","h","393.0","NA","3690","NA","NA","393","NA","NA","2","legacy","1024","2","48000","-16","experiment","HHHHH","3","odd","4992","NA","NA","116212","1220","NA","NA","124202","NA","1289","NA","NA","123159","124305","124699","124199","124305","NA","Flanker Task","65","27830.0","76","1024"
"85","85","365","365","#3d3846","legacy","legacy","legacy","incongruent","1","undefined","1","s","0","0","0","76","0","76","0","76","0","0","0","0","76","76","76","76","76","0","Wed Sep 20 14:00:27 2023","1500","The main experiment item","False","FlankerTask23.osexp","/Users/keelihatcher/Desktop/Tarleton M.D./Advanced Quantitative Methods & Experimental Design","False","mono","False","18","no","white","no","yes","768","legacy","76","76","/Users/keelihatcher/Desktop/Tarleton M.D./Advanced Quantitative Methods & Experimental Design/KT-subject-3.csv","legacy","Melodramatic Milgram","4.0.5","0","s","NA","s","NA","NA","s","339.0","NA","3690","NA","NA","339","NA","NA","2","legacy","1024","2","48000","-16","experiment","HHSHH","3","odd","4992","NA","NA","116212","1220","NA","NA","125744","NA","1289","NA","NA","124702","125848","126188","125740","125848","NA","Flanker Task","66","28169.0","77","1024"
"85","85","366","366","#3d3846","legacy","legacy","legacy","incongruent","1","undefined","1","s","0","0","0","77","0","77","0","77","0","0","0","0","77","77","77","77","77","0","Wed Sep 20 14:00:27 2023","1500","The main experiment item","False","FlankerTask23.osexp","/Users/keelihatcher/Desktop/Tarleton M.D./Advanced Quantitative Methods & Experimental Design","False","mono","False","18","no","white","no","yes","768","legacy","77","77","/Users/keelihatcher/Desktop/Tarleton M.D./Advanced Quantitative Methods & Experimental Design/KT-subject-3.csv","legacy","Melodramatic Milgram","4.0.5","0","s","NA","s","NA","NA","s","444.0","NA","3690","NA","NA","444","NA","NA","2","legacy","1024","2","48000","-16","experiment","HHSHH","3","odd","4992","NA","NA","116212","1220","NA","NA","127231","NA","1289","NA","NA","126190","127334","127779","127228","127334","NA","Flanker Task","67","28613.0","78","1024"
"86","86","367","367","#3d3846","legacy","legacy","legacy","incongruent","1","undefined","1","h","0","0","0","78","0","78","0","78","0","0","0","0","78","78","78","78","78","0","Wed Sep 20 14:00:27 2023","1500","The main experiment item","False","FlankerTask23.osexp","/Users/keelihatcher/Desktop/Tarleton M.D./Advanced Quantitative Methods & Experimental Design","False","mono","False","18","no","white","no","yes","768","legacy","78","78","/Users/keelihatcher/Desktop/Tarleton M.D./Advanced Quantitative Methods & Experimental Design/KT-subject-3.csv","legacy","Melodramatic Milgram","4.0.5","0","h","NA","s","NA","NA","h","436.0","NA","3690","NA","NA","436","NA","NA","2","legacy","1024","2","48000","-16","experiment","SSHSS","3","odd","4992","NA","NA","116212","1220","NA","NA","128822","NA","1289","NA","NA","127781","128926","129362","128819","128926","NA","Flanker Task","68","29049.0","79","1024"
"86","86","368","368","#3d3846","legacy","legacy","legacy","congruent","1","undefined","1","s","0","0","0","79","0","79","0","79","0","0","0","0","79","79","79","79","79","0","Wed Sep 20 14:00:27 2023","1500","The main experiment item","False","FlankerTask23.osexp","/Users/keelihatcher/Desktop/Tarleton M.D./Advanced Quantitative Methods & Experimental Design","False","mono","False","18","no","white","no","yes","768","legacy","79","79","/Users/keelihatcher/Desktop/Tarleton M.D./Advanced Quantitative Methods & Experimental Design/KT-subject-3.csv","legacy","Melodramatic Milgram","4.0.5","0","s","NA","s","NA","NA","s","401.0","NA","3690","NA","NA","401","NA","NA","2","legacy","1024","2","48000","-16","experiment","SSSSS","3","odd","4992","NA","NA","116212","1220","NA","NA","130406","NA","1289","NA","NA","129364","130510","130912","130402","130510","NA","Flanker Task","69","29450.0","80","1024"
"86","86","369","369","#3d3846","legacy","legacy","legacy","incongruent","1","undefined","1","s","0","0","0","80","0","80","0","80","0","0","0","0","80","80","80","80","80","0","Wed Sep 20 14:00:27 2023","600","The main experiment item","False","FlankerTask23.osexp","/Users/keelihatcher/Desktop/Tarleton M.D./Advanced Quantitative Methods & Experimental Design","False","mono","False","18","no","white","no","yes","768","legacy","0","79","/Users/keelihatcher/Desktop/Tarleton M.D./Advanced Quantitative Methods & Experimental Design/KT-subject-3.csv","legacy","Melodramatic Milgram","4.0.5","0","s","NA","s","s","NA","s","484.0","NA","3690","116407","NA","484","NA","NA","2","legacy","1024","2","48000","-16","experiment","HHSHH","3","odd","4992","248332","NA","116212","1220","NA","NA","248379","NA","1289","131923","NA","130915","248482","248967","248368","248482","NA","Flanker Task","70","29934.0","81","1024"
"85","85","368","368","#3d3846","legacy","legacy","legacy","incongruent","0","undefined","0","s","0","0","0","81","0","81","0","81","0","0","0","0","81","81","81","81","81","0","Wed Sep 20 14:00:27 2023","600","The main experiment item","False","FlankerTask23.osexp","/Users/keelihatcher/Desktop/Tarleton M.D./Advanced Quantitative Methods & Experimental Design","False","mono","False","18","no","white","no","yes","768","legacy","1","79","/Users/keelihatcher/Desktop/Tarleton M.D./Advanced Quantitative Methods & Experimental Design/KT-subject-3.csv","legacy","Melodramatic Milgram","4.0.5","0","h","NA","s","s","NA","h","298.0","NA","3690","116407","NA","298","NA","NA","2","legacy","1024","2","48000","-16","experiment","HHSHH","3","odd","4992","248332","NA","116212","1220","NA","NA","250024","NA","1289","131923","NA","248971","250128","250426","250018","250128","NA","Flanker Task","70","30232.0","82","1024"
"85","85","369","369","#3d3846","legacy","legacy","legacy","incongruent","1","undefined","1","h","0","0","0","82","0","82","0","82","0","0","0","0","82","82","82","82","82","0","Wed Sep 20 14:00:27 2023","600","The main experiment item","False","FlankerTask23.osexp","/Users/keelihatcher/Desktop/Tarleton M.D./Advanced Quantitative Methods & Experimental Design","False","mono","False","18","no","white","no","yes","768","legacy","2","79","/Users/keelihatcher/Desktop/Tarleton M.D./Advanced Quantitative Methods & Experimental Design/KT-subject-3.csv","legacy","Melodramatic Milgram","4.0.5","0","h","NA","s","s","NA","h","428.0","NA","3690","116407","NA","428","NA","NA","2","legacy","1024","2","48000","-16","experiment","SSHSS","3","odd","4992","248332","NA","250429","1220","NA","NA","251986","NA","1289","131923","NA","250936","252089","252518","251983","252089","NA","Flanker Task","71","30660.0","83","1024"
"85","85","369","369","#3d3846","legacy","legacy","legacy","congruent","1","undefined","1","h","0","0","0","83","0","83","0","83","0","0","0","0","83","83","83","83","83","0","Wed Sep 20 14:00:27 2023","600","The main experiment item","False","FlankerTask23.osexp","/Users/keelihatcher/Desktop/Tarleton M.D./Advanced Quantitative Methods & Experimental Design","False","mono","False","18","no","white","no","yes","768","legacy","3","79","/Users/keelihatcher/Desktop/Tarleton M.D./Advanced Quantitative Methods & Experimental Design/KT-subject-3.csv","legacy","Melodramatic Milgram","4.0.5","0","h","NA","s","s","NA","h","353.0","NA","3690","116407","NA","353","NA","NA","2","legacy","1024","2","48000","-16","experiment","HHHHH","3","odd","4992","248332","NA","250429","1220","NA","NA","253570","NA","1289","131923","NA","252520","253675","254028","253566","253674","NA","Flanker Task","72","31013.0","84","1024"
"85","85","369","369","#3d3846","legacy","legacy","legacy","congruent","1","undefined","1","h","0","0","0","84","0","84","0","84","0","0","0","0","84","84","84","84","84","0","Wed Sep 20 14:00:27 2023","600","The main experiment item","False","FlankerTask23.osexp","/Users/keelihatcher/Desktop/Tarleton M.D./Advanced Quantitative Methods & Experimental Design","False","mono","False","18","no","white","no","yes","768","legacy","4","79","/Users/keelihatcher/Desktop/Tarleton M.D./Advanced Quantitative Methods & Experimental Design/KT-subject-3.csv","legacy","Melodramatic Milgram","4.0.5","0","h","NA","s","s","NA","h","372.0","NA","3690","116407","NA","372","NA","NA","2","legacy","1024","2","48000","-16","experiment","HHHHH","3","odd","4992","248332","NA","250429","1220","NA","NA","255083","NA","1289","131923","NA","254031","255186","255559","255079","255186","NA","Flanker Task","73","31385.0","85","1024"
"86","86","368","368","#3d3846","legacy","legacy","legacy","congruent","1","undefined","1","h","0","0","0","85","0","85","0","85","0","0","0","0","85","85","85","85","85","0","Wed Sep 20 14:00:27 2023","600","The main experiment item","False","FlankerTask23.osexp","/Users/keelihatcher/Desktop/Tarleton M.D./Advanced Quantitative Methods & Experimental Design","False","mono","False","18","no","white","no","yes","768","legacy","5","79","/Users/keelihatcher/Desktop/Tarleton M.D./Advanced Quantitative Methods & Experimental Design/KT-subject-3.csv","legacy","Melodramatic Milgram","4.0.5","0","h","NA","s","s","NA","h","336.0","NA","3690","116407","NA","336","NA","NA","2","legacy","1024","2","48000","-16","experiment","HHHHH","3","odd","4992","248332","NA","250429","1220","NA","NA","256611","NA","1289","131923","NA","255562","256714","257051","256607","256714","NA","Flanker Task","74","31721.0","86","1024"
"85","85","368","368","#3d3846","legacy","legacy","legacy","incongruent","0","undefined","0","h","0","0","0","86","0","86","0","86","0","0","0","0","86","86","86","86","86","0","Wed Sep 20 14:00:27 2023","600","The main experiment item","False","FlankerTask23.osexp","/Users/keelihatcher/Desktop/Tarleton M.D./Advanced Quantitative Methods & Experimental Design","False","mono","False","18","no","white","no","yes","768","legacy","6","79","/Users/keelihatcher/Desktop/Tarleton M.D./Advanced Quantitative Methods & Experimental Design/KT-subject-3.csv","legacy","Melodramatic Milgram","4.0.5","0","s","NA","s","s","NA","s","361.0","NA","3690","116407","NA","361","NA","NA","2","legacy","1024","2","48000","-16","experiment","SSHSS","3","odd","4992","248332","NA","250429","1220","NA","NA","258099","NA","1289","131923","NA","257053","258202","258564","258095","258202","NA","Flanker Task","74","32082.0","87","1024"
"85","85","369","369","#3d3846","legacy","legacy","legacy","incongruent","1","undefined","1","s","0","0","0","87","0","87","0","87","0","0","0","0","87","87","87","87","87","0","Wed Sep 20 14:00:27 2023","600","The main experiment item","False","FlankerTask23.osexp","/Users/keelihatcher/Desktop/Tarleton M.D./Advanced Quantitative Methods & Experimental Design","False","mono","False","18","no","white","no","yes","768","legacy","7","79","/Users/keelihatcher/Desktop/Tarleton M.D./Advanced Quantitative Methods & Experimental Design/KT-subject-3.csv","legacy","Melodramatic Milgram","4.0.5","0","s","NA","s","s","NA","s","416.0","NA","3690","116407","NA","416","NA","NA","2","legacy","1024","2","48000","-16","experiment","HHSHH","3","odd","4992","248332","NA","258566","1220","NA","NA","260111","NA","1289","131923","NA","259069","260214","260631","260108","260214","NA","Flanker Task","75","32498.0","88","1024"
"85","85","368","368","#3d3846","legacy","legacy","legacy","congruent","1","undefined","1","h","0","0","0","88","0","88","0","88","0","0","0","0","88","88","88","88","88","0","Wed Sep 20 14:00:27 2023","600","The main experiment item","False","FlankerTask23.osexp","/Users/keelihatcher/Desktop/Tarleton M.D./Advanced Quantitative Methods & Experimental Design","False","mono","False","18","no","white","no","yes","768","legacy","8","79","/Users/keelihatcher/Desktop/Tarleton M.D./Advanced Quantitative Methods & Experimental Design/KT-subject-3.csv","legacy","Melodramatic Milgram","4.0.5","0","h","NA","s","s","NA","h","317.0","NA","3690","116407","NA","317","NA","NA","2","legacy","1024","2","48000","-16","experiment","HHHHH","3","odd","4992","248332","NA","258566","1220","NA","NA","261681","NA","1289","131923","NA","260633","261785","262103","261678","261784","NA","Flanker Task","76","32815.0","89","1024"
"84","84","368","368","#3d3846","legacy","legacy","legacy","incongruent","0","undefined","0","h","0","0","0","89","0","89","0","89","0","0","0","0","89","89","89","89","89","0","Wed Sep 20 14:00:27 2023","600","The main experiment item","False","FlankerTask23.osexp","/Users/keelihatcher/Desktop/Tarleton M.D./Advanced Quantitative Methods & Experimental Design","False","mono","False","18","no","white","no","yes","768","legacy","9","79","/Users/keelihatcher/Desktop/Tarleton M.D./Advanced Quantitative Methods & Experimental Design/KT-subject-3.csv","legacy","Melodramatic Milgram","4.0.5","0","s","NA","s","s","NA","s","377.0","NA","3690","116407","NA","377","NA","NA","2","legacy","1024","2","48000","-16","experiment","SSHSS","3","odd","4992","248332","NA","258566","1220","NA","NA","263156","NA","1289","131923","NA","262106","263259","263637","263152","263259","NA","Flanker Task","76","33192.0","90","1024"
"84","84","369","369","#3d3846","legacy","legacy","legacy","congruent","1","undefined","1","s","0","0","0","90","0","90","0","90","0","0","0","0","90","90","90","90","90","0","Wed Sep 20 14:00:27 2023","600","The main experiment item","False","FlankerTask23.osexp","/Users/keelihatcher/Desktop/Tarleton M.D./Advanced Quantitative Methods & Experimental Design","False","mono","False","18","no","white","no","yes","768","legacy","10","79","/Users/keelihatcher/Desktop/Tarleton M.D./Advanced Quantitative Methods & Experimental Design/KT-subject-3.csv","legacy","Melodramatic Milgram","4.0.5","0","s","NA","s","s","NA","s","454.0","NA","3690","116407","NA","454","NA","NA","2","legacy","1024","2","48000","-16","experiment","SSSSS","3","odd","4992","248332","NA","263639","1220","NA","NA","265191","NA","1289","131923","NA","264142","265294","265749","265188","265294","NA","Flanker Task","77","33646.0","91","1024"
"84","84","369","369","#3d3846","legacy","legacy","legacy","congruent","1","undefined","1","h","0","0","0","91","0","91","0","91","0","0","0","0","91","91","91","91","91","0","Wed Sep 20 14:00:27 2023","600","The main experiment item","False","FlankerTask23.osexp","/Users/keelihatcher/Desktop/Tarleton M.D./Advanced Quantitative Methods & Experimental Design","False","mono","False","18","no","white","no","yes","768","legacy","11","79","/Users/keelihatcher/Desktop/Tarleton M.D./Advanced Quantitative Methods & Experimental Design/KT-subject-3.csv","legacy","Melodramatic Milgram","4.0.5","0","h","NA","s","s","NA","h","336.0","NA","3690","116407","NA","336","NA","NA","2","legacy","1024","2","48000","-16","experiment","HHHHH","3","odd","4992","248332","NA","263639","1220","NA","NA","266801","NA","1289","131923","NA","265751","266904","267241","266797","266904","NA","Flanker Task","78","33982.0","92","1024"
"84","84","369","369","#3d3846","legacy","legacy","legacy","incongruent","1","undefined","1","s","0","0","0","92","0","92","0","92","0","0","0","0","92","92","92","92","92","0","Wed Sep 20 14:00:27 2023","600","The main experiment item","False","FlankerTask23.osexp","/Users/keelihatcher/Desktop/Tarleton M.D./Advanced Quantitative Methods & Experimental Design","False","mono","False","18","no","white","no","yes","768","legacy","12","79","/Users/keelihatcher/Desktop/Tarleton M.D./Advanced Quantitative Methods & Experimental Design/KT-subject-3.csv","legacy","Melodramatic Milgram","4.0.5","0","s","NA","s","s","NA","s","375.0","NA","3690","116407","NA","375","NA","NA","2","legacy","1024","2","48000","-16","experiment","HHSHH","3","odd","4992","248332","NA","263639","1220","NA","NA","268295","NA","1289","131923","NA","267244","268399","268775","268292","268398","NA","Flanker Task","79","34357.0","93","1024"
"85","85","370","370","#3d3846","legacy","legacy","legacy","incongruent","1","undefined","1","s","0","0","0","93","0","93","0","93","0","0","0","0","93","93","93","93","93","0","Wed Sep 20 14:00:27 2023","600","The main experiment item","False","FlankerTask23.osexp","/Users/keelihatcher/Desktop/Tarleton M.D./Advanced Quantitative Methods & Experimental Design","False","mono","False","18","no","white","no","yes","768","legacy","13","79","/Users/keelihatcher/Desktop/Tarleton M.D./Advanced Quantitative Methods & Experimental Design/KT-subject-3.csv","legacy","Melodramatic Milgram","4.0.5","0","s","NA","s","s","NA","s","471.0","NA","3690","116407","NA","471","NA","NA","2","legacy","1024","2","48000","-16","experiment","HHSHH","3","odd","4992","248332","NA","263639","1220","NA","NA","269819","NA","1289","131923","NA","268778","269923","270395","269816","269923","NA","Flanker Task","80","34828.0","94","1024"
"85","85","370","370","#3d3846","legacy","legacy","legacy","incongruent","1","undefined","1","s","0","0","0","94","0","94","0","94","0","0","0","0","94","94","94","94","94","0","Wed Sep 20 14:00:27 2023","600","The main experiment item","False","FlankerTask23.osexp","/Users/keelihatcher/Desktop/Tarleton M.D./Advanced Quantitative Methods & Experimental Design","False","mono","False","18","no","white","no","yes","768","legacy","14","79","/Users/keelihatcher/Desktop/Tarleton M.D./Advanced Quantitative Methods & Experimental Design/KT-subject-3.csv","legacy","Melodramatic Milgram","4.0.5","0","s","NA","s","s","NA","s","372.0","NA","3690","116407","NA","372","NA","NA","2","legacy","1024","2","48000","-16","experiment","HHSHH","3","odd","4992","248332","NA","263639","1220","NA","NA","271435","NA","1289","131923","NA","270397","271538","271911","271432","271538","NA","Flanker Task","81","35200.0","95","1024"
"85","85","370","370","#3d3846","legacy","legacy","legacy","incongruent","1","undefined","1","s","0","0","0","95","0","95","0","95","0","0","0","0","95","95","95","95","95","0","Wed Sep 20 14:00:27 2023","600","The main experiment item","False","FlankerTask23.osexp","/Users/keelihatcher/Desktop/Tarleton M.D./Advanced Quantitative Methods & Experimental Design","False","mono","False","18","no","white","no","yes","768","legacy","15","79","/Users/keelihatcher/Desktop/Tarleton M.D./Advanced Quantitative Methods & Experimental Design/KT-subject-3.csv","legacy","Melodramatic Milgram","4.0.5","0","s","NA","s","s","NA","s","344.0","NA","3690","116407","NA","344","NA","NA","2","legacy","1024","2","48000","-16","experiment","HHSHH","3","odd","4992","248332","NA","263639","1220","NA","NA","272955","NA","1289","131923","NA","271913","273058","273403","272952","273058","NA","Flanker Task","82","35544.0","96","1024"
"85","85","369","369","#3d3846","legacy","legacy","legacy","congruent","1","undefined","1","h","0","0","0","96","0","96","0","96","0","0","0","0","96","96","96","96","96","0","Wed Sep 20 14:00:27 2023","600","The main experiment item","False","FlankerTask23.osexp","/Users/keelihatcher/Desktop/Tarleton M.D./Advanced Quantitative Methods & Experimental Design","False","mono","False","18","no","white","no","yes","768","legacy","16","79","/Users/keelihatcher/Desktop/Tarleton M.D./Advanced Quantitative Methods & Experimental Design/KT-subject-3.csv","legacy","Melodramatic Milgram","4.0.5","0","h","NA","s","s","NA","h","321.0","NA","3690","116407","NA","321","NA","NA","2","legacy","1024","2","48000","-16","experiment","HHHHH","3","odd","4992","248332","NA","263639","1220","NA","NA","274447","NA","1289","131923","NA","273406","274550","274872","274444","274550","NA","Flanker Task","83","35865.0","97","1024"
"85","85","369","369","#3d3846","legacy","legacy","legacy","congruent","1","undefined","1","s","0","0","0","97","0","97","0","97","0","0","0","0","97","97","97","97","97","0","Wed Sep 20 14:00:27 2023","600","The main experiment item","False","FlankerTask23.osexp","/Users/keelihatcher/Desktop/Tarleton M.D./Advanced Quantitative Methods & Experimental Design","False","mono","False","18","no","white","no","yes","768","legacy","17","79","/Users/keelihatcher/Desktop/Tarleton M.D./Advanced Quantitative Methods & Experimental Design/KT-subject-3.csv","legacy","Melodramatic Milgram","4.0.5","0","s","NA","s","s","NA","s","302.0","NA","3690","116407","NA","302","NA","NA","2","legacy","1024","2","48000","-16","experiment","SSSSS","3","odd","4992","248332","NA","263639","1220","NA","NA","275920","NA","1289","131923","NA","274875","276023","276326","275916","276023","NA","Flanker Task","84","36167.0","98","1024"
"85","85","368","368","#3d3846","legacy","legacy","legacy","incongruent","1","undefined","1","h","0","0","0","98","0","98","0","98","0","0","0","0","98","98","98","98","98","0","Wed Sep 20 14:00:27 2023","600","The main experiment item","False","FlankerTask23.osexp","/Users/keelihatcher/Desktop/Tarleton M.D./Advanced Quantitative Methods & Experimental Design","False","mono","False","18","no","white","no","yes","768","legacy","18","79","/Users/keelihatcher/Desktop/Tarleton M.D./Advanced Quantitative Methods & Experimental Design/KT-subject-3.csv","legacy","Melodramatic Milgram","4.0.5","0","h","NA","s","s","NA","h","355.0","NA","3690","116407","NA","355","NA","NA","2","legacy","1024","2","48000","-16","experiment","SSHSS","3","odd","4992","248332","NA","263639","1220","NA","NA","277361","NA","1289","131923","NA","276328","277465","277821","277358","277465","NA","Flanker Task","85","36522.0","99","1024"
"86","86","368","368","#3d3846","legacy","legacy","legacy","incongruent","1","undefined","1","h","0","0","0","99","0","99","0","99","0","0","0","0","99","99","99","99","99","0","Wed Sep 20 14:00:27 2023","600","The main experiment item","False","FlankerTask23.osexp","/Users/keelihatcher/Desktop/Tarleton M.D./Advanced Quantitative Methods & Experimental Design","False","mono","False","18","no","white","no","yes","768","legacy","19","79","/Users/keelihatcher/Desktop/Tarleton M.D./Advanced Quantitative Methods & Experimental Design/KT-subject-3.csv","legacy","Melodramatic Milgram","4.0.5","0","h","NA","s","s","NA","h","337.0","NA","3690","116407","NA","337","NA","NA","2","legacy","1024","2","48000","-16","experiment","SSHSS","3","odd","4992","248332","NA","263639","1220","NA","NA","278868","NA","1289","131923","NA","277823","278971","279309","278864","278971","NA","Flanker Task","86","36859.0","100","1024"
"86","86","368","368","#3d3846","legacy","legacy","legacy","congruent","1","undefined","1","h","0","0","0","100","0","100","0","100","0","0","0","0","100","100","100","100","100","0","Wed Sep 20 14:00:27 2023","600","The main experiment item","False","FlankerTask23.osexp","/Users/keelihatcher/Desktop/Tarleton M.D./Advanced Quantitative Methods & Experimental Design","False","mono","False","18","no","white","no","yes","768","legacy","20","79","/Users/keelihatcher/Desktop/Tarleton M.D./Advanced Quantitative Methods & Experimental Design/KT-subject-3.csv","legacy","Melodramatic Milgram","4.0.5","0","h","NA","s","s","NA","h","342.0","NA","3690","116407","NA","342","NA","NA","2","legacy","1024","2","48000","-16","experiment","HHHHH","3","odd","4992","248332","NA","263639","1220","NA","NA","280352","NA","1289","131923","NA","279312","280456","280798","280348","280455","NA","Flanker Task","87","37201.0","101","1024"
"86","86","368","368","#3d3846","legacy","legacy","legacy","incongruent","1","undefined","1","h","0","0","0","101","0","101","0","101","0","0","0","0","101","101","101","101","101","0","Wed Sep 20 14:00:27 2023","600","The main experiment item","False","FlankerTask23.osexp","/Users/keelihatcher/Desktop/Tarleton M.D./Advanced Quantitative Methods & Experimental Design","False","mono","False","18","no","white","no","yes","768","legacy","21","79","/Users/keelihatcher/Desktop/Tarleton M.D./Advanced Quantitative Methods & Experimental Design/KT-subject-3.csv","legacy","Melodramatic Milgram","4.0.5","0","h","NA","s","s","NA","h","347.0","NA","3690","116407","NA","347","NA","NA","2","legacy","1024","2","48000","-16","experiment","SSHSS","3","odd","4992","248332","NA","263639","1220","NA","NA","281842","NA","1289","131923","NA","280801","281946","282294","281839","281946","NA","Flanker Task","88","37548.0","102","1024"
"86","86","367","367","#3d3846","legacy","legacy","legacy","incongruent","1","undefined","1","s","0","0","0","102","0","102","0","102","0","0","0","0","102","102","102","102","102","0","Wed Sep 20 14:00:27 2023","600","The main experiment item","False","FlankerTask23.osexp","/Users/keelihatcher/Desktop/Tarleton M.D./Advanced Quantitative Methods & Experimental Design","False","mono","False","18","no","white","no","yes","768","legacy","22","79","/Users/keelihatcher/Desktop/Tarleton M.D./Advanced Quantitative Methods & Experimental Design/KT-subject-3.csv","legacy","Melodramatic Milgram","4.0.5","0","s","NA","s","s","NA","s","275.0","NA","3690","116407","NA","275","NA","NA","2","legacy","1024","2","48000","-16","experiment","HHSHH","3","odd","4992","248332","NA","263639","1220","NA","NA","283336","NA","1289","131923","NA","282296","283439","283715","283333","283439","NA","Flanker Task","89","37823.0","103","1024"
"86","86","366","366","#3d3846","legacy","legacy","legacy","congruent","1","undefined","1","s","0","0","0","103","0","103","0","103","0","0","0","0","103","103","103","103","103","0","Wed Sep 20 14:00:27 2023","600","The main experiment item","False","FlankerTask23.osexp","/Users/keelihatcher/Desktop/Tarleton M.D./Advanced Quantitative Methods & Experimental Design","False","mono","False","18","no","white","no","yes","768","legacy","23","79","/Users/keelihatcher/Desktop/Tarleton M.D./Advanced Quantitative Methods & Experimental Design/KT-subject-3.csv","legacy","Melodramatic Milgram","4.0.5","0","s","NA","s","s","NA","s","319.0","NA","3690","116407","NA","319","NA","NA","2","legacy","1024","2","48000","-16","experiment","SSSSS","3","odd","4992","248332","NA","263639","1220","NA","NA","284759","NA","1289","131923","NA","283717","284862","285182","284756","284862","NA","Flanker Task","90","38142.0","104","1024"
"86","86","366","366","#3d3846","legacy","legacy","legacy","incongruent","1","undefined","1","h","0","0","0","104","0","104","0","104","0","0","0","0","104","104","104","104","104","0","Wed Sep 20 14:00:27 2023","600","The main experiment item","False","FlankerTask23.osexp","/Users/keelihatcher/Desktop/Tarleton M.D./Advanced Quantitative Methods & Experimental Design","False","mono","False","18","no","white","no","yes","768","legacy","24","79","/Users/keelihatcher/Desktop/Tarleton M.D./Advanced Quantitative Methods & Experimental Design/KT-subject-3.csv","legacy","Melodramatic Milgram","4.0.5","0","h","NA","s","s","NA","h","346.0","NA","3690","116407","NA","346","NA","NA","2","legacy","1024","2","48000","-16","experiment","SSHSS","3","odd","4992","248332","NA","263639","1220","NA","NA","286235","NA","1289","131923","NA","285184","286338","286685","286232","286338","NA","Flanker Task","91","38488.0","105","1024"
"86","86","366","366","#3d3846","legacy","legacy","legacy","congruent","1","undefined","1","h","0","0","0","105","0","105","0","105","0","0","0","0","105","105","105","105","105","0","Wed Sep 20 14:00:27 2023","600","The main experiment item","False","FlankerTask23.osexp","/Users/keelihatcher/Desktop/Tarleton M.D./Advanced Quantitative Methods & Experimental Design","False","mono","False","18","no","white","no","yes","768","legacy","25","79","/Users/keelihatcher/Desktop/Tarleton M.D./Advanced Quantitative Methods & Experimental Design/KT-subject-3.csv","legacy","Melodramatic Milgram","4.0.5","0","h","NA","s","s","NA","h","399.0","NA","3690","116407","NA","399","NA","NA","2","legacy","1024","2","48000","-16","experiment","HHHHH","3","odd","4992","248332","NA","263639","1220","NA","NA","287729","NA","1289","131923","NA","286687","287833","288233","287726","287833","NA","Flanker Task","92","38887.0","106","1024"
"85","85","366","366","#3d3846","legacy","legacy","legacy","congruent","0","undefined","0","h","0","0","0","106","0","106","0","106","0","0","0","0","106","106","106","106","106","0","Wed Sep 20 14:00:27 2023","600","The main experiment item","False","FlankerTask23.osexp","/Users/keelihatcher/Desktop/Tarleton M.D./Advanced Quantitative Methods & Experimental Design","False","mono","False","18","no","white","no","yes","768","legacy","26","79","/Users/keelihatcher/Desktop/Tarleton M.D./Advanced Quantitative Methods & Experimental Design/KT-subject-3.csv","legacy","Melodramatic Milgram","4.0.5","0","s","NA","s","s","NA","s","316.0","NA","3690","116407","NA","316","NA","NA","2","legacy","1024","2","48000","-16","experiment","HHHHH","3","odd","4992","248332","NA","263639","1220","NA","NA","289280","NA","1289","131923","NA","288235","289383","289700","289277","289383","NA","Flanker Task","92","39203.0","107","1024"
"86","86","365","365","#3d3846","legacy","legacy","legacy","congruent","1","undefined","1","h","0","0","0","107","0","107","0","107","0","0","0","0","107","107","107","107","107","0","Wed Sep 20 14:00:27 2023","600","The main experiment item","False","FlankerTask23.osexp","/Users/keelihatcher/Desktop/Tarleton M.D./Advanced Quantitative Methods & Experimental Design","False","mono","False","18","no","white","no","yes","768","legacy","27","79","/Users/keelihatcher/Desktop/Tarleton M.D./Advanced Quantitative Methods & Experimental Design/KT-subject-3.csv","legacy","Melodramatic Milgram","4.0.5","0","h","NA","s","s","NA","h","323.0","NA","3690","116407","NA","323","NA","NA","2","legacy","1024","2","48000","-16","experiment","HHHHH","3","odd","4992","248332","NA","289702","1220","NA","NA","291246","NA","1289","131923","NA","290205","291349","291673","291243","291349","NA","Flanker Task","93","39526.0","108","1024"
