"acc","accuracy","average_response_time","avg_rt","background","canvas_backend","clock_backend","color_backend","compensation","condition","coordinates","correct","correct_Instructions1","correct_keyboard_response","correct_response","count_Finish","count_ISI","count_Instructions1","count_Instructions2","count_Instructions3","count_block1","count_block2","count_block3","count_errorFeedback","count_experiment","count_faster","count_fixation","count_keyboard_response","count_logger","count_sequence","count_stimulus","datetime","deadline","description","disable_garbage_collection","experiment_file","experiment_path","font_bold","font_family","font_italic","font_size","font_underline","foreground","form_clicks","fullscreen","height","keyboard_backend","live_row","live_row_block1","logfile","mouse_backend","opensesame_codename","opensesame_version","repeat_cycle","response","response_Finish","response_Instructions1","response_Instructions2","response_Instructions3","response_keyboard_response","response_time","response_time_Finish","response_time_Instructions1","response_time_Instructions2","response_time_Instructions3","response_time_keyboard_response","round_decimals","sampler_backend","sound_buf_size","sound_channels","sound_freq","sound_sample_size","start","stimulus","subject_nr","subject_parity","time_Finish","time_ISI","time_Instructions1","time_Instructions2","time_Instructions3","time_block1","time_block2","time_block3","time_errorFeedback","time_experiment","time_faster","time_fixation","time_keyboard_response","time_logger","time_sequence","time_stimulus","title","total_correct","total_response_time","total_responses","uniform_coordinates","width"
"100","100","1356","1356","black","legacy","legacy","legacy","0","congruent","uniform","1","undefined","1","s","0","0","0","0","0","0","0","0","0","0","0","0","0","0","0","0","09/20/20 17:03:22","1500","The main experiment item","yes","FlankerTask.osexp","C:\Users\Jennifer Wright\Desktop\PSYC5613","no","mono","no","18","no","white","no","yes","768","legacy","0","0","C:/Users/Jennifer Wright/Desktop/PSYC5613/jw-subject-1.csv","legacy","Lentiform Loewenfeld","3.3.3","0","s","NA","h","NA","NA","s","1356","NA","28230","NA","NA","1356","2","legacy","1024","2","48000","-16","experiment","SSSSS","1","odd","NA","NA","7027","NA","NA","35260","NA","NA","NA","7019","NA","35546","35652","37009","35540","35652","Flanker Task","1","1356","1","yes","1024"
"50","50","1168","1168","black","legacy","legacy","legacy","0","incongruent","uniform","0","undefined","0","s","0","1","0","0","0","0","0","0","1","0","1","1","1","1","1","1","09/20/20 17:03:22","1500","The main experiment item","yes","FlankerTask.osexp","C:\Users\Jennifer Wright\Desktop\PSYC5613","no","mono","no","18","no","white","no","yes","768","legacy","1","1","C:/Users/Jennifer Wright/Desktop/PSYC5613/jw-subject-1.csv","legacy","Lentiform Loewenfeld","3.3.3","0","h","NA","h","NA","NA","h","980","NA","28230","NA","NA","980","2","legacy","1024","2","48000","-16","experiment","HHSHH","1","odd","NA","37137","7027","NA","NA","35260","NA","NA","NA","7019","NA","38349","38455","39436","38342","38455","Flanker Task","1","2336","2","yes","1024"
"66.6666666667","66.6666666667","1105","1105","black","legacy","legacy","legacy","0","congruent","uniform","1","undefined","1","h","0","2","0","0","0","0","0","0","2","0","2","2","2","2","2","2","09/20/20 17:03:22","1500","The main experiment item","yes","FlankerTask.osexp","C:\Users\Jennifer Wright\Desktop\PSYC5613","no","mono","no","18","no","white","no","yes","768","legacy","2","2","C:/Users/Jennifer Wright/Desktop/PSYC5613/jw-subject-1.csv","legacy","Lentiform Loewenfeld","3.3.3","0","h","NA","h","NA","NA","h","979","NA","28230","NA","NA","979","2","legacy","1024","2","48000","-16","experiment","HHHHH","1","odd","NA","39996","7027","NA","NA","35260","NA","NA","39489","7019","NA","41184","41290","42270","41177","41290","Flanker Task","2","3315","3","yes","1024"
"75","75","998.5","998.5","black","legacy","legacy","legacy","0","incongruent","uniform","1","undefined","1","h","0","3","0","0","0","0","0","0","3","0","3","3","3","3","3","3","09/20/20 17:03:22","1500","The main experiment item","yes","FlankerTask.osexp","C:\Users\Jennifer Wright\Desktop\PSYC5613","no","mono","no","18","no","white","no","yes","768","legacy","3","3","C:/Users/Jennifer Wright/Desktop/PSYC5613/jw-subject-1.csv","legacy","Lentiform Loewenfeld","3.3.3","0","h","NA","h","NA","NA","h","679","NA","28230","NA","NA","679","2","legacy","1024","2","48000","-16","experiment","SSHSS","1","odd","NA","42324","7027","NA","NA","35260","NA","NA","39489","7019","NA","43527","43634","44314","43520","43633","Flanker Task","3","3994","4","yes","1024"
"80","80","931.2","931.2","black","legacy","legacy","legacy","0","incongruent","uniform","1","undefined","1","s","0","4","0","0","0","0","0","0","4","0","4","4","4","4","4","4","09/20/20 17:03:22","1500","The main experiment item","yes","FlankerTask.osexp","C:\Users\Jennifer Wright\Desktop\PSYC5613","no","mono","no","18","no","white","no","yes","768","legacy","4","4","C:/Users/Jennifer Wright/Desktop/PSYC5613/jw-subject-1.csv","legacy","Lentiform Loewenfeld","3.3.3","0","s","NA","h","NA","NA","s","662","NA","28230","NA","NA","662","2","legacy","1024","2","48000","-16","experiment","HHSHH","1","odd","NA","44382","7027","NA","NA","35260","NA","NA","39489","7019","NA","45576","45685","46349","45568","45685","Flanker Task","4","4656","5","yes","1024"
"83.3333333333","83.3333333333","915.833333333","915.833333333","black","legacy","legacy","legacy","0","congruent","uniform","1","undefined","1","s","0","5","0","0","0","0","0","0","5","0","5","5","5","5","5","5","09/20/20 17:03:22","1500","The main experiment item","yes","FlankerTask.osexp","C:\Users\Jennifer Wright\Desktop\PSYC5613","no","mono","no","18","no","white","no","yes","768","legacy","5","5","C:/Users/Jennifer Wright/Desktop/PSYC5613/jw-subject-1.csv","legacy","Lentiform Loewenfeld","3.3.3","0","s","NA","h","NA","NA","s","839","NA","28230","NA","NA","839","2","legacy","1024","2","48000","-16","experiment","SSSSS","1","odd","NA","46409","7027","NA","NA","35260","NA","NA","39489","7019","NA","47607","47721","48562","47601","47720","Flanker Task","5","5495","6","yes","1024"
"85.7142857143","85.7142857143","954.714285714","954.714285714","black","legacy","legacy","legacy","0","congruent","uniform","1","undefined","1","s","0","6","0","0","0","0","0","0","6","0","6","6","6","6","6","6","09/20/20 17:03:22","1500","The main experiment item","yes","FlankerTask.osexp","C:\Users\Jennifer Wright\Desktop\PSYC5613","no","mono","no","18","no","white","no","yes","768","legacy","6","6","C:/Users/Jennifer Wright/Desktop/PSYC5613/jw-subject-1.csv","legacy","Lentiform Loewenfeld","3.3.3","0","s","NA","h","NA","NA","s","1188","NA","28230","NA","NA","1188","2","legacy","1024","2","48000","-16","experiment","SSSSS","1","odd","NA","48647","7027","NA","NA","35260","NA","NA","39489","7019","NA","49847","49954","51144","49840","49954","Flanker Task","6","6683","7","yes","1024"
"87.5","87.5","985.125","985.125","black","legacy","legacy","legacy","0","congruent","uniform","1","undefined","1","s","0","7","0","0","0","0","0","0","7","0","7","7","7","7","7","7","09/20/20 17:03:22","1500","The main experiment item","yes","FlankerTask.osexp","C:\Users\Jennifer Wright\Desktop\PSYC5613","no","mono","no","18","no","white","no","yes","768","legacy","7","7","C:/Users/Jennifer Wright/Desktop/PSYC5613/jw-subject-1.csv","legacy","Lentiform Loewenfeld","3.3.3","0","s","NA","h","NA","NA","s","1198","NA","28230","NA","NA","1198","2","legacy","1024","2","48000","-16","experiment","SSSSS","1","odd","NA","51201","7027","NA","NA","35260","NA","NA","39489","7019","NA","52405","52511","53711","52397","52511","Flanker Task","7","7881","8","yes","1024"
"88.8888888889","88.8888888889","937.888888889","937.888888889","black","legacy","legacy","legacy","0","congruent","uniform","1","undefined","1","h","0","8","0","0","0","0","0","0","8","0","8","8","8","8","8","8","09/20/20 17:03:22","1500","The main experiment item","yes","FlankerTask.osexp","C:\Users\Jennifer Wright\Desktop\PSYC5613","no","mono","no","18","no","white","no","yes","768","legacy","8","8","C:/Users/Jennifer Wright/Desktop/PSYC5613/jw-subject-1.csv","legacy","Lentiform Loewenfeld","3.3.3","0","h","NA","h","NA","NA","h","560","NA","28230","NA","NA","560","2","legacy","1024","2","48000","-16","experiment","HHHHH","1","odd","NA","53737","7027","NA","NA","35260","NA","NA","39489","7019","NA","54927","55034","55596","54921","55033","Flanker Task","8","8441","9","yes","1024"
"80","80","953.9","953.9","black","legacy","legacy","legacy","0","incongruent","uniform","0","undefined","0","h","0","9","0","0","0","0","0","0","9","0","9","9","9","9","9","9","09/20/20 17:03:22","1500","The main experiment item","yes","FlankerTask.osexp","C:\Users\Jennifer Wright\Desktop\PSYC5613","no","mono","no","18","no","white","no","yes","768","legacy","9","9","C:/Users/Jennifer Wright/Desktop/PSYC5613/jw-subject-1.csv","legacy","Lentiform Loewenfeld","3.3.3","0","s","NA","h","NA","NA","s","1098","NA","28230","NA","NA","1098","2","legacy","1024","2","48000","-16","experiment","SSHSS","1","odd","NA","55655","7027","NA","NA","35260","NA","NA","39489","7019","NA","56864","56971","58071","56857","56970","Flanker Task","8","9539","10","yes","1024"
"81.8181818182","81.8181818182","923.090909091","923.090909091","black","legacy","legacy","legacy","0","congruent","uniform","1","undefined","1","s","0","10","0","0","0","0","0","0","10","0","10","10","10","10","10","10","09/20/20 17:03:22","1500","The main experiment item","yes","FlankerTask.osexp","C:\Users\Jennifer Wright\Desktop\PSYC5613","no","mono","no","18","no","white","no","yes","768","legacy","10","10","C:/Users/Jennifer Wright/Desktop/PSYC5613/jw-subject-1.csv","legacy","Lentiform Loewenfeld","3.3.3","0","s","NA","h","NA","NA","s","615","NA","28230","NA","NA","615","2","legacy","1024","2","48000","-16","experiment","SSSSS","1","odd","NA","58604","7027","NA","NA","35260","NA","NA","58098","7019","NA","59794","59900","60517","59788","59900","Flanker Task","9","10154","11","yes","1024"
"83.3333333333","83.3333333333","896.75","896.75","black","legacy","legacy","legacy","0","congruent","uniform","1","undefined","1","h","0","11","0","0","0","0","0","0","11","0","11","11","11","11","11","11","09/20/20 17:03:22","1500","The main experiment item","yes","FlankerTask.osexp","C:\Users\Jennifer Wright\Desktop\PSYC5613","no","mono","no","18","no","white","no","yes","768","legacy","11","11","C:/Users/Jennifer Wright/Desktop/PSYC5613/jw-subject-1.csv","legacy","Lentiform Loewenfeld","3.3.3","0","h","NA","h","NA","NA","h","607","NA","28230","NA","NA","607","2","legacy","1024","2","48000","-16","experiment","HHHHH","1","odd","NA","60578","7027","NA","NA","35260","NA","NA","58098","7019","NA","61781","61890","62499","61774","61889","Flanker Task","10","10761","12","yes","1024"
"84.6153846154","84.6153846154","869.923076923","869.923076923","black","legacy","legacy","legacy","0","incongruent","uniform","1","undefined","1","h","0","12","0","0","0","0","0","0","12","0","12","12","12","12","12","12","09/20/20 17:03:22","1500","The main experiment item","yes","FlankerTask.osexp","C:\Users\Jennifer Wright\Desktop\PSYC5613","no","mono","no","18","no","white","no","yes","768","legacy","12","12","C:/Users/Jennifer Wright/Desktop/PSYC5613/jw-subject-1.csv","legacy","Lentiform Loewenfeld","3.3.3","0","h","NA","h","NA","NA","h","548","NA","28230","NA","NA","548","2","legacy","1024","2","48000","-16","experiment","SSHSS","1","odd","NA","62566","7027","NA","NA","35260","NA","NA","58098","7019","NA","63760","63869","64418","63753","63869","Flanker Task","11","11309","13","yes","1024"
"85.7142857143","85.7142857143","846.571428571","846.571428571","black","legacy","legacy","legacy","0","incongruent","uniform","1","undefined","1","h","0","13","0","0","0","0","0","0","13","0","13","13","13","13","13","13","09/20/20 17:03:22","1500","The main experiment item","yes","FlankerTask.osexp","C:\Users\Jennifer Wright\Desktop\PSYC5613","no","mono","no","18","no","white","no","yes","768","legacy","13","13","C:/Users/Jennifer Wright/Desktop/PSYC5613/jw-subject-1.csv","legacy","Lentiform Loewenfeld","3.3.3","0","h","NA","h","NA","NA","h","543","NA","28230","NA","NA","543","2","legacy","1024","2","48000","-16","experiment","SSHSS","1","odd","NA","64452","7027","NA","NA","35260","NA","NA","58098","7019","NA","65645","65755","66300","65638","65754","Flanker Task","12","11852","14","yes","1024"
"86.6666666667","86.6666666667","830.6","830.6","black","legacy","legacy","legacy","0","congruent","uniform","1","undefined","1","h","0","14","0","0","0","0","0","0","14","0","14","14","14","14","14","14","09/20/20 17:03:22","1500","The main experiment item","yes","FlankerTask.osexp","C:\Users\Jennifer Wright\Desktop\PSYC5613","no","mono","no","18","no","white","no","yes","768","legacy","14","14","C:/Users/Jennifer Wright/Desktop/PSYC5613/jw-subject-1.csv","legacy","Lentiform Loewenfeld","3.3.3","0","h","NA","h","NA","NA","h","607","NA","28230","NA","NA","607","2","legacy","1024","2","48000","-16","experiment","HHHHH","1","odd","NA","66461","7027","NA","NA","35260","NA","NA","58098","7019","NA","67656","67763","68371","67649","67762","Flanker Task","13","12459","15","yes","1024"
"87.5","87.5","832.625","832.625","black","legacy","legacy","legacy","0","congruent","uniform","1","undefined","1","s","0","15","0","0","0","0","0","0","15","0","15","15","15","15","15","15","09/20/20 17:03:22","1500","The main experiment item","yes","FlankerTask.osexp","C:\Users\Jennifer Wright\Desktop\PSYC5613","no","mono","no","18","no","white","no","yes","768","legacy","15","15","C:/Users/Jennifer Wright/Desktop/PSYC5613/jw-subject-1.csv","legacy","Lentiform Loewenfeld","3.3.3","0","s","NA","h","NA","NA","s","863","NA","28230","NA","NA","863","2","legacy","1024","2","48000","-16","experiment","SSSSS","1","odd","NA","68429","7027","NA","NA","35260","NA","NA","58098","7019","NA","69626","69732","70597","69619","69732","Flanker Task","14","13322","16","yes","1024"
"88.2352941176","88.2352941176","832","832","black","legacy","legacy","legacy","0","incongruent","uniform","1","undefined","1","h","0","16","0","0","0","0","0","0","16","0","16","16","16","16","16","16","09/20/20 17:03:22","1500","The main experiment item","yes","FlankerTask.osexp","C:\Users\Jennifer Wright\Desktop\PSYC5613","no","mono","no","18","no","white","no","yes","768","legacy","16","16","C:/Users/Jennifer Wright/Desktop/PSYC5613/jw-subject-1.csv","legacy","Lentiform Loewenfeld","3.3.3","0","h","NA","h","NA","NA","h","822","NA","28230","NA","NA","822","2","legacy","1024","2","48000","-16","experiment","SSHSS","1","odd","NA","70651","7027","NA","NA","35260","NA","NA","58098","7019","NA","71850","71956","72780","71842","71956","Flanker Task","15","14144","17","yes","1024"
"88.8888888889","88.8888888889","828.888888889","828.888888889","black","legacy","legacy","legacy","0","congruent","uniform","1","undefined","1","s","0","17","0","0","0","0","0","0","17","0","17","17","17","17","17","17","09/20/20 17:03:22","1500","The main experiment item","yes","FlankerTask.osexp","C:\Users\Jennifer Wright\Desktop\PSYC5613","no","mono","no","18","no","white","no","yes","768","legacy","17","17","C:/Users/Jennifer Wright/Desktop/PSYC5613/jw-subject-1.csv","legacy","Lentiform Loewenfeld","3.3.3","0","s","NA","h","NA","NA","s","776","NA","28230","NA","NA","776","2","legacy","1024","2","48000","-16","experiment","SSSSS","1","odd","NA","72838","7027","NA","NA","35260","NA","NA","58098","7019","NA","74034","74141","74919","74026","74140","Flanker Task","16","14920","18","yes","1024"
"89.4736842105","89.4736842105","827.368421053","827.368421053","black","legacy","legacy","legacy","0","congruent","uniform","1","undefined","1","h","0","18","0","0","0","0","0","0","18","0","18","18","18","18","18","18","09/20/20 17:03:22","1500","The main experiment item","yes","FlankerTask.osexp","C:\Users\Jennifer Wright\Desktop\PSYC5613","no","mono","no","18","no","white","no","yes","768","legacy","18","18","C:/Users/Jennifer Wright/Desktop/PSYC5613/jw-subject-1.csv","legacy","Lentiform Loewenfeld","3.3.3","0","h","NA","h","NA","NA","h","800","NA","28230","NA","NA","800","2","legacy","1024","2","48000","-16","experiment","HHHHH","1","odd","NA","74984","7027","NA","NA","35260","NA","NA","58098","7019","NA","76188","76301","77103","76180","76301","Flanker Task","17","15720","19","yes","1024"
"90","90","812.6","812.6","black","legacy","legacy","legacy","0","congruent","uniform","1","undefined","1","s","0","19","0","0","0","0","0","0","19","0","19","19","19","19","19","19","09/20/20 17:03:22","1500","The main experiment item","yes","FlankerTask.osexp","C:\Users\Jennifer Wright\Desktop\PSYC5613","no","mono","no","18","no","white","no","yes","768","legacy","19","19","C:/Users/Jennifer Wright/Desktop/PSYC5613/jw-subject-1.csv","legacy","Lentiform Loewenfeld","3.3.3","0","s","NA","h","NA","NA","s","532","NA","28230","NA","NA","532","2","legacy","1024","2","48000","-16","experiment","SSSSS","1","odd","NA","77176","7027","NA","NA","35260","NA","NA","58098","7019","NA","78372","78476","79010","78365","78476","Flanker Task","18","16252","20","yes","1024"
"90.4761904762","90.4761904762","801.428571429","801.428571429","black","legacy","legacy","legacy","0","incongruent","uniform","1","undefined","1","s","0","20","0","0","0","0","0","0","20","0","20","20","20","20","20","20","09/20/20 17:03:22","1500","The main experiment item","yes","FlankerTask.osexp","C:\Users\Jennifer Wright\Desktop\PSYC5613","no","mono","no","18","no","white","no","yes","768","legacy","20","20","C:/Users/Jennifer Wright/Desktop/PSYC5613/jw-subject-1.csv","legacy","Lentiform Loewenfeld","3.3.3","0","s","NA","h","NA","NA","s","578","NA","28230","NA","NA","578","2","legacy","1024","2","48000","-16","experiment","HHSHH","1","odd","NA","79055","7027","NA","NA","35260","NA","NA","58098","7019","NA","80248","80354","80934","80242","80354","Flanker Task","19","16830","21","yes","1024"
"90.9090909091","90.9090909091","782.772727273","782.772727273","black","legacy","legacy","legacy","0","incongruent","uniform","1","undefined","1","s","0","21","0","0","0","0","0","0","21","0","21","21","21","21","21","21","09/20/20 17:03:22","1500","The main experiment item","yes","FlankerTask.osexp","C:\Users\Jennifer Wright\Desktop\PSYC5613","no","mono","no","18","no","white","no","yes","768","legacy","21","21","C:/Users/Jennifer Wright/Desktop/PSYC5613/jw-subject-1.csv","legacy","Lentiform Loewenfeld","3.3.3","0","s","NA","h","NA","NA","s","391","NA","28230","NA","NA","391","2","legacy","1024","2","48000","-16","experiment","HHSHH","1","odd","NA","81004","7027","NA","NA","35260","NA","NA","58098","7019","NA","82184","82296","82689","82178","82295","Flanker Task","20","17221","22","yes","1024"
"91.3043478261","91.3043478261","784.913043478","784.913043478","black","legacy","legacy","legacy","0","incongruent","uniform","1","undefined","1","h","0","22","0","0","0","0","0","0","22","0","22","22","22","22","22","22","09/20/20 17:03:22","1500","The main experiment item","yes","FlankerTask.osexp","C:\Users\Jennifer Wright\Desktop\PSYC5613","no","mono","no","18","no","white","no","yes","768","legacy","22","22","C:/Users/Jennifer Wright/Desktop/PSYC5613/jw-subject-1.csv","legacy","Lentiform Loewenfeld","3.3.3","0","h","NA","h","NA","NA","h","832","NA","28230","NA","NA","832","2","legacy","1024","2","48000","-16","experiment","SSHSS","1","odd","NA","82753","7027","NA","NA","35260","NA","NA","58098","7019","NA","83957","84063","84896","83950","84063","Flanker Task","21","18053","23","yes","1024"
"91.6666666667","91.6666666667","774.208333333","774.208333333","black","legacy","legacy","legacy","0","congruent","uniform","1","undefined","1","s","0","23","0","0","0","0","0","0","23","0","23","23","23","23","23","23","09/20/20 17:03:22","1500","The main experiment item","yes","FlankerTask.osexp","C:\Users\Jennifer Wright\Desktop\PSYC5613","no","mono","no","18","no","white","no","yes","768","legacy","23","23","C:/Users/Jennifer Wright/Desktop/PSYC5613/jw-subject-1.csv","legacy","Lentiform Loewenfeld","3.3.3","0","s","NA","h","NA","NA","s","528","NA","28230","NA","NA","528","2","legacy","1024","2","48000","-16","experiment","SSSSS","1","odd","NA","84968","7027","NA","NA","35260","NA","NA","58098","7019","NA","86163","86269","86799","86156","86269","Flanker Task","22","18581","24","yes","1024"
"92","92","763.8","763.8","black","legacy","legacy","legacy","0","incongruent","uniform","1","undefined","1","s","0","24","0","0","0","0","0","0","24","0","24","24","24","24","24","24","09/20/20 17:03:22","1500","The main experiment item","yes","FlankerTask.osexp","C:\Users\Jennifer Wright\Desktop\PSYC5613","no","mono","no","18","no","white","no","yes","768","legacy","24","24","C:/Users/Jennifer Wright/Desktop/PSYC5613/jw-subject-1.csv","legacy","Lentiform Loewenfeld","3.3.3","0","s","NA","h","NA","NA","s","514","NA","28230","NA","NA","514","2","legacy","1024","2","48000","-16","experiment","HHSHH","1","odd","NA","86855","7027","NA","NA","35260","NA","NA","58098","7019","NA","88060","88167","88682","88054","88167","Flanker Task","23","19095","25","yes","1024"
"92.3076923077","92.3076923077","751.769230769","751.769230769","black","legacy","legacy","legacy","0","congruent","uniform","1","undefined","1","s","0","25","0","0","0","0","0","0","25","0","25","25","25","25","25","25","09/20/20 17:03:22","1500","The main experiment item","yes","FlankerTask.osexp","C:\Users\Jennifer Wright\Desktop\PSYC5613","no","mono","no","18","no","white","no","yes","768","legacy","25","25","C:/Users/Jennifer Wright/Desktop/PSYC5613/jw-subject-1.csv","legacy","Lentiform Loewenfeld","3.3.3","0","s","NA","h","NA","NA","s","451","NA","28230","NA","NA","451","2","legacy","1024","2","48000","-16","experiment","SSSSS","1","odd","NA","88751","7027","NA","NA","35260","NA","NA","58098","7019","NA","89949","90055","90509","89942","90055","Flanker Task","24","19546","26","yes","1024"
"92.5925925926","92.5925925926","740.555555556","740.555555556","black","legacy","legacy","legacy","0","congruent","uniform","1","undefined","1","h","0","26","0","0","0","0","0","0","26","0","26","26","26","26","26","26","09/20/20 17:03:22","1500","The main experiment item","yes","FlankerTask.osexp","C:\Users\Jennifer Wright\Desktop\PSYC5613","no","mono","no","18","no","white","no","yes","768","legacy","26","26","C:/Users/Jennifer Wright/Desktop/PSYC5613/jw-subject-1.csv","legacy","Lentiform Loewenfeld","3.3.3","0","h","NA","h","NA","NA","h","449","NA","28230","NA","NA","449","2","legacy","1024","2","48000","-16","experiment","HHHHH","1","odd","NA","90612","7027","NA","NA","35260","NA","NA","58098","7019","NA","91808","91916","92367","91801","91915","Flanker Task","25","19995","27","yes","1024"
"92.8571428571","92.8571428571","730.928571429","730.928571429","black","legacy","legacy","legacy","0","incongruent","uniform","1","undefined","1","h","0","27","0","0","0","0","0","0","27","0","27","27","27","27","27","27","09/20/20 17:03:22","1500","The main experiment item","yes","FlankerTask.osexp","C:\Users\Jennifer Wright\Desktop\PSYC5613","no","mono","no","18","no","white","no","yes","768","legacy","27","27","C:/Users/Jennifer Wright/Desktop/PSYC5613/jw-subject-1.csv","legacy","Lentiform Loewenfeld","3.3.3","0","h","NA","h","NA","NA","h","471","NA","28230","NA","NA","471","2","legacy","1024","2","48000","-16","experiment","SSHSS","1","odd","NA","92393","7027","NA","NA","35260","NA","NA","58098","7019","NA","93596","93703","94176","93589","93703","Flanker Task","26","20466","28","yes","1024"
"89.6551724138","89.6551724138","723.827586207","723.827586207","black","legacy","legacy","legacy","0","congruent","uniform","0","undefined","0","s","0","28","0","0","0","0","0","0","28","0","28","28","28","28","28","28","09/20/20 17:03:22","1500","The main experiment item","yes","FlankerTask.osexp","C:\Users\Jennifer Wright\Desktop\PSYC5613","no","mono","no","18","no","white","no","yes","768","legacy","28","28","C:/Users/Jennifer Wright/Desktop/PSYC5613/jw-subject-1.csv","legacy","Lentiform Loewenfeld","3.3.3","0","h","NA","h","NA","NA","h","525","NA","28230","NA","NA","525","2","legacy","1024","2","48000","-16","experiment","SSSSS","1","odd","NA","94242","7027","NA","NA","35260","NA","NA","58098","7019","NA","95446","95561","96089","95439","95561","Flanker Task","26","20991","29","yes","1024"
"90","90","718.533333333","718.533333333","black","legacy","legacy","legacy","0","incongruent","uniform","1","undefined","1","s","0","29","0","0","0","0","0","0","29","0","29","29","29","29","29","29","09/20/20 17:03:22","1500","The main experiment item","yes","FlankerTask.osexp","C:\Users\Jennifer Wright\Desktop\PSYC5613","no","mono","no","18","no","white","no","yes","768","legacy","29","29","C:/Users/Jennifer Wright/Desktop/PSYC5613/jw-subject-1.csv","legacy","Lentiform Loewenfeld","3.3.3","0","s","NA","h","NA","NA","s","565","NA","28230","NA","NA","565","2","legacy","1024","2","48000","-16","experiment","HHSHH","1","odd","NA","96652","7027","NA","NA","35260","NA","NA","96147","7019","NA","97859","97967","98535","97852","97967","Flanker Task","27","21556","30","yes","1024"
"90.3225806452","90.3225806452","723.032258065","723.032258065","black","legacy","legacy","legacy","0","incongruent","uniform","1","undefined","1","h","0","30","0","0","0","0","0","0","30","0","30","30","30","30","30","30","09/20/20 17:03:22","1500","The main experiment item","yes","FlankerTask.osexp","C:\Users\Jennifer Wright\Desktop\PSYC5613","no","mono","no","18","no","white","no","yes","768","legacy","30","30","C:/Users/Jennifer Wright/Desktop/PSYC5613/jw-subject-1.csv","legacy","Lentiform Loewenfeld","3.3.3","0","h","NA","h","NA","NA","h","858","NA","28230","NA","NA","858","2","legacy","1024","2","48000","-16","experiment","SSHSS","1","odd","NA","98618","7027","NA","NA","35260","NA","NA","96147","7019","NA","99814","99921","100781","99807","99920","Flanker Task","28","22414","31","yes","1024"
"90.625","90.625","715.9375","715.9375","black","legacy","legacy","legacy","0","congruent","uniform","1","undefined","1","s","0","31","0","0","0","0","0","0","31","0","31","31","31","31","31","31","09/20/20 17:03:22","1500","The main experiment item","yes","FlankerTask.osexp","C:\Users\Jennifer Wright\Desktop\PSYC5613","no","mono","no","18","no","white","no","yes","768","legacy","31","31","C:/Users/Jennifer Wright/Desktop/PSYC5613/jw-subject-1.csv","legacy","Lentiform Loewenfeld","3.3.3","0","s","NA","h","NA","NA","s","496","NA","28230","NA","NA","496","2","legacy","1024","2","48000","-16","experiment","SSSSS","1","odd","NA","100806","7027","NA","NA","35260","NA","NA","96147","7019","NA","102009","102122","102620","102003","102122","Flanker Task","29","22910","32","yes","1024"
"90.9090909091","90.9090909091","728.424242424","728.424242424","black","legacy","legacy","legacy","0","incongruent","uniform","1","undefined","1","s","0","32","0","0","0","0","0","0","32","0","32","32","32","32","32","32","09/20/20 17:03:22","1500","The main experiment item","yes","FlankerTask.osexp","C:\Users\Jennifer Wright\Desktop\PSYC5613","no","mono","no","18","no","white","no","yes","768","legacy","32","32","C:/Users/Jennifer Wright/Desktop/PSYC5613/jw-subject-1.csv","legacy","Lentiform Loewenfeld","3.3.3","0","s","NA","h","NA","NA","s","1128","NA","28230","NA","NA","1128","2","legacy","1024","2","48000","-16","experiment","HHSHH","1","odd","NA","102679","7027","NA","NA","35260","NA","NA","96147","7019","NA","103881","103987","105117","103875","103987","Flanker Task","30","24038","33","yes","1024"
"88.2352941176","88.2352941176","751.117647059","751.117647059","black","legacy","legacy","legacy","0","incongruent","uniform","0","undefined","0","s","0","33","0","0","0","0","0","0","33","0","33","33","33","33","33","33","09/20/20 17:03:22","1500","The main experiment item","yes","FlankerTask.osexp","C:\Users\Jennifer Wright\Desktop\PSYC5613","no","mono","no","18","no","white","no","yes","768","legacy","33","33","C:/Users/Jennifer Wright/Desktop/PSYC5613/jw-subject-1.csv","legacy","Lentiform Loewenfeld","3.3.3","0","None","NA","h","NA","NA","None","1500","NA","28230","NA","NA","1500","2","legacy","1024","2","48000","-16","experiment","HHSHH","1","odd","NA","105182","7027","NA","NA","35260","NA","NA","96147","7019","NA","106381","106493","107994","106373","106493","Flanker Task","30","25538","34","yes","1024"
"88.5714285714","88.5714285714","761.742857143","761.742857143","black","legacy","legacy","legacy","0","incongruent","uniform","1","undefined","1","s","0","34","0","0","0","0","0","0","34","0","34","34","34","34","34","34","09/20/20 17:03:22","1500","The main experiment item","yes","FlankerTask.osexp","C:\Users\Jennifer Wright\Desktop\PSYC5613","no","mono","no","18","no","white","no","yes","768","legacy","34","34","C:/Users/Jennifer Wright/Desktop/PSYC5613/jw-subject-1.csv","legacy","Lentiform Loewenfeld","3.3.3","0","s","NA","h","NA","NA","s","1123","NA","28230","NA","NA","1123","2","legacy","1024","2","48000","-16","experiment","HHSHH","1","odd","NA","108563","7027","NA","NA","35260","NA","NA","108057","7019","NA","109759","109865","110990","109751","109865","Flanker Task","31","26661","35","yes","1024"
"86.1111111111","86.1111111111","782.25","782.25","black","legacy","legacy","legacy","0","incongruent","uniform","0","undefined","0","h","0","35","0","0","0","0","0","0","35","0","35","35","35","35","35","35","09/20/20 17:03:22","1500","The main experiment item","yes","FlankerTask.osexp","C:\Users\Jennifer Wright\Desktop\PSYC5613","no","mono","no","18","no","white","no","yes","768","legacy","35","35","C:/Users/Jennifer Wright/Desktop/PSYC5613/jw-subject-1.csv","legacy","Lentiform Loewenfeld","3.3.3","0","None","NA","h","NA","NA","None","1500","NA","28230","NA","NA","1500","2","legacy","1024","2","48000","-16","experiment","SSHSS","1","odd","NA","111018","7027","NA","NA","35260","NA","NA","108057","7019","NA","112202","112309","113810","112196","112309","Flanker Task","31","28161","36","yes","1024"
"86.4864864865","86.4864864865","784.540540541","784.540540541","black","legacy","legacy","legacy","0","incongruent","uniform","1","undefined","1","h","0","36","0","0","0","0","0","0","36","0","36","36","36","36","36","36","09/20/20 17:03:22","1500","The main experiment item","yes","FlankerTask.osexp","C:\Users\Jennifer Wright\Desktop\PSYC5613","no","mono","no","18","no","white","no","yes","768","legacy","36","36","C:/Users/Jennifer Wright/Desktop/PSYC5613/jw-subject-1.csv","legacy","Lentiform Loewenfeld","3.3.3","0","h","NA","h","NA","NA","h","867","NA","28230","NA","NA","867","2","legacy","1024","2","48000","-16","experiment","SSHSS","1","odd","NA","114375","7027","NA","NA","35260","NA","NA","113868","7019","NA","115577","115684","116553","115569","115684","Flanker Task","32","29028","37","yes","1024"
"86.8421052632","86.8421052632","787.815789474","787.815789474","black","legacy","legacy","legacy","0","congruent","uniform","1","undefined","1","h","0","37","0","0","0","0","0","0","37","0","37","37","37","37","37","37","09/20/20 17:03:22","1500","The main experiment item","yes","FlankerTask.osexp","C:\Users\Jennifer Wright\Desktop\PSYC5613","no","mono","no","18","no","white","no","yes","768","legacy","37","37","C:/Users/Jennifer Wright/Desktop/PSYC5613/jw-subject-1.csv","legacy","Lentiform Loewenfeld","3.3.3","0","h","NA","h","NA","NA","h","909","NA","28230","NA","NA","909","2","legacy","1024","2","48000","-16","experiment","HHHHH","1","odd","NA","116617","7027","NA","NA","35260","NA","NA","113868","7019","NA","117816","117921","118832","117810","117920","Flanker Task","33","29937","38","yes","1024"
"87.1794871795","87.1794871795","780.564102564","780.564102564","black","legacy","legacy","legacy","0","incongruent","uniform","1","undefined","1","h","0","38","0","0","0","0","0","0","38","0","38","38","38","38","38","38","09/20/20 17:03:22","1500","The main experiment item","yes","FlankerTask.osexp","C:\Users\Jennifer Wright\Desktop\PSYC5613","no","mono","no","18","no","white","no","yes","768","legacy","38","38","C:/Users/Jennifer Wright/Desktop/PSYC5613/jw-subject-1.csv","legacy","Lentiform Loewenfeld","3.3.3","0","h","NA","h","NA","NA","h","505","NA","28230","NA","NA","505","2","legacy","1024","2","48000","-16","experiment","SSHSS","1","odd","NA","118897","7027","NA","NA","35260","NA","NA","113868","7019","NA","120096","120204","120711","120088","120204","Flanker Task","34","30442","39","yes","1024"
"87.5","87.5","776.075","776.075","black","legacy","legacy","legacy","0","incongruent","uniform","1","undefined","1","h","0","39","0","0","0","0","0","0","39","0","39","39","39","39","39","39","09/20/20 17:03:22","1500","The main experiment item","yes","FlankerTask.osexp","C:\Users\Jennifer Wright\Desktop\PSYC5613","no","mono","no","18","no","white","no","yes","768","legacy","39","39","C:/Users/Jennifer Wright/Desktop/PSYC5613/jw-subject-1.csv","legacy","Lentiform Loewenfeld","3.3.3","0","h","NA","h","NA","NA","h","601","NA","28230","NA","NA","601","2","legacy","1024","2","48000","-16","experiment","SSHSS","1","odd","NA","120800","7027","NA","NA","35260","NA","NA","113868","7019","NA","122002","122108","122711","121995","122108","Flanker Task","35","31043","40","yes","1024"
"87.8048780488","87.8048780488","769.317073171","769.317073171","black","legacy","legacy","legacy","0","incongruent","uniform","1","undefined","1","h","0","40","0","0","0","0","0","0","40","0","40","40","40","40","40","40","09/20/20 17:03:22","1500","The main experiment item","yes","FlankerTask.osexp","C:\Users\Jennifer Wright\Desktop\PSYC5613","no","mono","no","18","no","white","no","yes","768","legacy","40","40","C:/Users/Jennifer Wright/Desktop/PSYC5613/jw-subject-1.csv","legacy","Lentiform Loewenfeld","3.3.3","0","h","NA","h","NA","NA","h","499","NA","28230","NA","NA","499","2","legacy","1024","2","48000","-16","experiment","SSHSS","1","odd","NA","122781","7027","NA","NA","35260","NA","NA","113868","7019","NA","123974","124081","124583","123967","124081","Flanker Task","36","31542","41","yes","1024"
"85.7142857143","85.7142857143","760.619047619","760.619047619","black","legacy","legacy","legacy","0","incongruent","uniform","0","undefined","0","s","0","41","0","0","0","0","0","0","41","0","41","41","41","41","41","41","09/20/20 17:03:22","1500","The main experiment item","yes","FlankerTask.osexp","C:\Users\Jennifer Wright\Desktop\PSYC5613","no","mono","no","18","no","white","no","yes","768","legacy","41","41","C:/Users/Jennifer Wright/Desktop/PSYC5613/jw-subject-1.csv","legacy","Lentiform Loewenfeld","3.3.3","0","h","NA","h","NA","NA","h","404","NA","28230","NA","NA","404","2","legacy","1024","2","48000","-16","experiment","HHSHH","1","odd","NA","124651","7027","NA","NA","35260","NA","NA","113868","7019","NA","125843","125955","126362","125836","125954","Flanker Task","36","31946","42","yes","1024"
"86.0465116279","86.0465116279","756.534883721","756.534883721","black","legacy","legacy","legacy","0","congruent","uniform","1","undefined","1","s","0","42","0","0","0","0","0","0","42","0","42","42","42","42","42","42","09/20/20 17:03:22","1500","The main experiment item","yes","FlankerTask.osexp","C:\Users\Jennifer Wright\Desktop\PSYC5613","no","mono","no","18","no","white","no","yes","768","legacy","42","42","C:/Users/Jennifer Wright/Desktop/PSYC5613/jw-subject-1.csv","legacy","Lentiform Loewenfeld","3.3.3","0","s","NA","h","NA","NA","s","585","NA","28230","NA","NA","585","2","legacy","1024","2","48000","-16","experiment","SSSSS","1","odd","NA","126925","7027","NA","NA","35260","NA","NA","126418","7019","NA","128123","128234","128821","128117","128234","Flanker Task","37","32531","43","yes","1024"
"86.3636363636","86.3636363636","749.522727273","749.522727273","black","legacy","legacy","legacy","0","incongruent","uniform","1","undefined","1","s","0","43","0","0","0","0","0","0","43","0","43","43","43","43","43","43","09/20/20 17:03:22","1500","The main experiment item","yes","FlankerTask.osexp","C:\Users\Jennifer Wright\Desktop\PSYC5613","no","mono","no","18","no","white","no","yes","768","legacy","43","43","C:/Users/Jennifer Wright/Desktop/PSYC5613/jw-subject-1.csv","legacy","Lentiform Loewenfeld","3.3.3","0","s","NA","h","NA","NA","s","448","NA","28230","NA","NA","448","2","legacy","1024","2","48000","-16","experiment","HHSHH","1","odd","NA","128884","7027","NA","NA","35260","NA","NA","126418","7019","NA","130088","130197","130648","130080","130196","Flanker Task","38","32979","44","yes","1024"
"86.6666666667","86.6666666667","742.377777778","742.377777778","black","legacy","legacy","legacy","0","congruent","uniform","1","undefined","1","h","0","44","0","0","0","0","0","0","44","0","44","44","44","44","44","44","09/20/20 17:03:22","1500","The main experiment item","yes","FlankerTask.osexp","C:\Users\Jennifer Wright\Desktop\PSYC5613","no","mono","no","18","no","white","no","yes","768","legacy","44","44","C:/Users/Jennifer Wright/Desktop/PSYC5613/jw-subject-1.csv","legacy","Lentiform Loewenfeld","3.3.3","0","h","NA","h","NA","NA","h","428","NA","28230","NA","NA","428","2","legacy","1024","2","48000","-16","experiment","HHHHH","1","odd","NA","130672","7027","NA","NA","35260","NA","NA","126418","7019","NA","131872","131984","132414","131864","131983","Flanker Task","39","33407","45","yes","1024"
"86.9565217391","86.9565217391","736.760869565","736.760869565","black","legacy","legacy","legacy","0","incongruent","uniform","1","undefined","1","h","0","45","0","0","0","0","0","0","45","0","45","45","45","45","45","45","09/20/20 17:03:22","1500","The main experiment item","yes","FlankerTask.osexp","C:\Users\Jennifer Wright\Desktop\PSYC5613","no","mono","no","18","no","white","no","yes","768","legacy","45","45","C:/Users/Jennifer Wright/Desktop/PSYC5613/jw-subject-1.csv","legacy","Lentiform Loewenfeld","3.3.3","0","h","NA","h","NA","NA","h","484","NA","28230","NA","NA","484","2","legacy","1024","2","48000","-16","experiment","SSHSS","1","odd","NA","132481","7027","NA","NA","35260","NA","NA","126418","7019","NA","133680","133786","134272","133673","133786","Flanker Task","40","33891","46","yes","1024"
"87.2340425532","87.2340425532","731.170212766","731.170212766","black","legacy","legacy","legacy","0","congruent","uniform","1","undefined","1","h","0","46","0","0","0","0","0","0","46","0","46","46","46","46","46","46","09/20/20 17:03:22","1500","The main experiment item","yes","FlankerTask.osexp","C:\Users\Jennifer Wright\Desktop\PSYC5613","no","mono","no","18","no","white","no","yes","768","legacy","46","46","C:/Users/Jennifer Wright/Desktop/PSYC5613/jw-subject-1.csv","legacy","Lentiform Loewenfeld","3.3.3","0","h","NA","h","NA","NA","h","474","NA","28230","NA","NA","474","2","legacy","1024","2","48000","-16","experiment","HHHHH","1","odd","NA","134329","7027","NA","NA","35260","NA","NA","126418","7019","NA","135544","135650","136127","135537","135650","Flanker Task","41","34365","47","yes","1024"
"87.5","87.5","725.666666667","725.666666667","black","legacy","legacy","legacy","0","congruent","uniform","1","undefined","1","h","0","47","0","0","0","0","0","0","47","0","47","47","47","47","47","47","09/20/20 17:03:22","1500","The main experiment item","yes","FlankerTask.osexp","C:\Users\Jennifer Wright\Desktop\PSYC5613","no","mono","no","18","no","white","no","yes","768","legacy","47","47","C:/Users/Jennifer Wright/Desktop/PSYC5613/jw-subject-1.csv","legacy","Lentiform Loewenfeld","3.3.3","0","h","NA","h","NA","NA","h","467","NA","28230","NA","NA","467","2","legacy","1024","2","48000","-16","experiment","HHHHH","1","odd","NA","136199","7027","NA","NA","35260","NA","NA","126418","7019","NA","137381","137488","137957","137374","137488","Flanker Task","42","34832","48","yes","1024"
"87.7551020408","87.7551020408","726.93877551","726.93877551","black","legacy","legacy","legacy","0","congruent","uniform","1","undefined","1","h","0","48","0","0","0","0","0","0","48","0","48","48","48","48","48","48","09/20/20 17:03:22","1500","The main experiment item","yes","FlankerTask.osexp","C:\Users\Jennifer Wright\Desktop\PSYC5613","no","mono","no","18","no","white","no","yes","768","legacy","48","48","C:/Users/Jennifer Wright/Desktop/PSYC5613/jw-subject-1.csv","legacy","Lentiform Loewenfeld","3.3.3","0","h","NA","h","NA","NA","h","788","NA","28230","NA","NA","788","2","legacy","1024","2","48000","-16","experiment","HHHHH","1","odd","NA","137983","7027","NA","NA","35260","NA","NA","126418","7019","NA","139173","139279","140069","139167","139279","Flanker Task","43","35620","49","yes","1024"
"88","88","730.98","730.98","black","legacy","legacy","legacy","0","incongruent","uniform","1","undefined","1","s","0","49","0","0","0","0","0","0","49","0","49","49","49","49","49","49","09/20/20 17:03:22","1500","The main experiment item","yes","FlankerTask.osexp","C:\Users\Jennifer Wright\Desktop\PSYC5613","no","mono","no","18","no","white","no","yes","768","legacy","49","49","C:/Users/Jennifer Wright/Desktop/PSYC5613/jw-subject-1.csv","legacy","Lentiform Loewenfeld","3.3.3","0","s","NA","h","NA","NA","s","929","NA","28230","NA","NA","929","2","legacy","1024","2","48000","-16","experiment","HHSHH","1","odd","NA","140139","7027","NA","NA","35260","NA","NA","126418","7019","NA","141338","141452","142384","141331","141452","Flanker Task","44","36549","50","yes","1024"
"88.2352941176","88.2352941176","724.333333333","724.333333333","black","legacy","legacy","legacy","0","congruent","uniform","1","undefined","1","h","0","50","0","0","0","0","0","0","50","0","50","50","50","50","50","50","09/20/20 17:03:22","1500","The main experiment item","yes","FlankerTask.osexp","C:\Users\Jennifer Wright\Desktop\PSYC5613","no","mono","no","18","no","white","no","yes","768","legacy","50","50","C:/Users/Jennifer Wright/Desktop/PSYC5613/jw-subject-1.csv","legacy","Lentiform Loewenfeld","3.3.3","0","h","NA","h","NA","NA","h","392","NA","28230","NA","NA","392","2","legacy","1024","2","48000","-16","experiment","HHHHH","1","odd","NA","142449","7027","NA","NA","35260","NA","NA","126418","7019","NA","143654","143760","144154","143647","143760","Flanker Task","45","36941","51","yes","1024"
"88.4615384615","88.4615384615","725.461538462","725.461538462","black","legacy","legacy","legacy","0","congruent","uniform","1","undefined","1","s","0","51","0","0","0","0","0","0","51","0","51","51","51","51","51","51","09/20/20 17:03:22","1500","The main experiment item","yes","FlankerTask.osexp","C:\Users\Jennifer Wright\Desktop\PSYC5613","no","mono","no","18","no","white","no","yes","768","legacy","51","51","C:/Users/Jennifer Wright/Desktop/PSYC5613/jw-subject-1.csv","legacy","Lentiform Loewenfeld","3.3.3","0","s","NA","h","NA","NA","s","783","NA","28230","NA","NA","783","2","legacy","1024","2","48000","-16","experiment","SSSSS","1","odd","NA","144226","7027","NA","NA","35260","NA","NA","126418","7019","NA","145420","145526","146312","145414","145526","Flanker Task","46","37724","52","yes","1024"
"86.7924528302","86.7924528302","740.075471698","740.075471698","black","legacy","legacy","legacy","0","congruent","uniform","0","undefined","0","s","0","52","0","0","0","0","0","0","52","0","52","52","52","52","52","52","09/20/20 17:03:22","1500","The main experiment item","yes","FlankerTask.osexp","C:\Users\Jennifer Wright\Desktop\PSYC5613","no","mono","no","18","no","white","no","yes","768","legacy","52","52","C:/Users/Jennifer Wright/Desktop/PSYC5613/jw-subject-1.csv","legacy","Lentiform Loewenfeld","3.3.3","0","None","NA","h","NA","NA","None","1500","NA","28230","NA","NA","1500","2","legacy","1024","2","48000","-16","experiment","SSSSS","1","odd","NA","146372","7027","NA","NA","35260","NA","NA","126418","7019","NA","147579","147684","149185","147571","147684","Flanker Task","46","39224","53","yes","1024"
"87.037037037","87.037037037","739.055555556","739.055555556","black","legacy","legacy","legacy","0","incongruent","uniform","1","undefined","1","s","0","53","0","0","0","0","0","0","53","0","53","53","53","53","53","53","09/20/20 17:03:22","1500","The main experiment item","yes","FlankerTask.osexp","C:\Users\Jennifer Wright\Desktop\PSYC5613","no","mono","no","18","no","white","no","yes","768","legacy","53","53","C:/Users/Jennifer Wright/Desktop/PSYC5613/jw-subject-1.csv","legacy","Lentiform Loewenfeld","3.3.3","0","s","NA","h","NA","NA","s","685","NA","28230","NA","NA","685","2","legacy","1024","2","48000","-16","experiment","HHSHH","1","odd","NA","149752","7027","NA","NA","35260","NA","NA","149242","7019","NA","150955","151060","151748","150949","151060","Flanker Task","47","39909","54","yes","1024"
"87.2727272727","87.2727272727","734.436363636","734.436363636","black","legacy","legacy","legacy","0","congruent","uniform","1","undefined","1","h","0","54","0","0","0","0","0","0","54","0","54","54","54","54","54","54","09/20/20 17:03:22","1500","The main experiment item","yes","FlankerTask.osexp","C:\Users\Jennifer Wright\Desktop\PSYC5613","no","mono","no","18","no","white","no","yes","768","legacy","54","54","C:/Users/Jennifer Wright/Desktop/PSYC5613/jw-subject-1.csv","legacy","Lentiform Loewenfeld","3.3.3","0","h","NA","h","NA","NA","h","485","NA","28230","NA","NA","485","2","legacy","1024","2","48000","-16","experiment","HHHHH","1","odd","NA","151855","7027","NA","NA","35260","NA","NA","149242","7019","NA","153044","153151","153639","153038","153150","Flanker Task","48","40394","55","yes","1024"
"85.7142857143","85.7142857143","740.25","740.25","black","legacy","legacy","legacy","0","incongruent","uniform","0","undefined","0","h","0","55","0","0","0","0","0","0","55","0","55","55","55","55","55","55","09/20/20 17:03:22","1500","The main experiment item","yes","FlankerTask.osexp","C:\Users\Jennifer Wright\Desktop\PSYC5613","no","mono","no","18","no","white","no","yes","768","legacy","55","55","C:/Users/Jennifer Wright/Desktop/PSYC5613/jw-subject-1.csv","legacy","Lentiform Loewenfeld","3.3.3","0","s","NA","h","NA","NA","s","1060","NA","28230","NA","NA","1060","2","legacy","1024","2","48000","-16","experiment","SSHSS","1","odd","NA","153710","7027","NA","NA","35260","NA","NA","149242","7019","NA","154905","155010","156073","154898","155010","Flanker Task","48","41454","56","yes","1024"
"85.9649122807","85.9649122807","737.98245614","737.98245614","black","legacy","legacy","legacy","0","incongruent","uniform","1","undefined","1","s","0","56","0","0","0","0","0","0","56","0","56","56","56","56","56","56","09/20/20 17:03:22","1500","The main experiment item","yes","FlankerTask.osexp","C:\Users\Jennifer Wright\Desktop\PSYC5613","no","mono","no","18","no","white","no","yes","768","legacy","56","56","C:/Users/Jennifer Wright/Desktop/PSYC5613/jw-subject-1.csv","legacy","Lentiform Loewenfeld","3.3.3","0","s","NA","h","NA","NA","s","611","NA","28230","NA","NA","611","2","legacy","1024","2","48000","-16","experiment","HHSHH","1","odd","NA","156612","7027","NA","NA","35260","NA","NA","156105","7019","NA","157812","157917","158531","157804","157917","Flanker Task","49","42065","57","yes","1024"
"86.2068965517","86.2068965517","734.310344828","734.310344828","black","legacy","legacy","legacy","0","incongruent","uniform","1","undefined","1","h","0","57","0","0","0","0","0","0","57","0","57","57","57","57","57","57","09/20/20 17:03:22","1500","The main experiment item","yes","FlankerTask.osexp","C:\Users\Jennifer Wright\Desktop\PSYC5613","no","mono","no","18","no","white","no","yes","768","legacy","57","57","C:/Users/Jennifer Wright/Desktop/PSYC5613/jw-subject-1.csv","legacy","Lentiform Loewenfeld","3.3.3","0","h","NA","h","NA","NA","h","525","NA","28230","NA","NA","525","2","legacy","1024","2","48000","-16","experiment","SSHSS","1","odd","NA","158600","7027","NA","NA","35260","NA","NA","156105","7019","NA","159796","159904","160431","159788","159903","Flanker Task","50","42590","58","yes","1024"
"86.4406779661","86.4406779661","730","730","black","legacy","legacy","legacy","0","congruent","uniform","1","undefined","1","s","0","58","0","0","0","0","0","0","58","0","58","58","58","58","58","58","09/20/20 17:03:22","1500","The main experiment item","yes","FlankerTask.osexp","C:\Users\Jennifer Wright\Desktop\PSYC5613","no","mono","no","18","no","white","no","yes","768","legacy","58","58","C:/Users/Jennifer Wright/Desktop/PSYC5613/jw-subject-1.csv","legacy","Lentiform Loewenfeld","3.3.3","0","s","NA","h","NA","NA","s","480","NA","28230","NA","NA","480","2","legacy","1024","2","48000","-16","experiment","SSSSS","1","odd","NA","160495","7027","NA","NA","35260","NA","NA","156105","7019","NA","161676","161784","162267","161669","161783","Flanker Task","51","43070","59","yes","1024"
"86.6666666667","86.6666666667","724.866666667","724.866666667","black","legacy","legacy","legacy","0","congruent","uniform","1","undefined","1","h","0","59","0","0","0","0","0","0","59","0","59","59","59","59","59","59","09/20/20 17:03:22","1500","The main experiment item","yes","FlankerTask.osexp","C:\Users\Jennifer Wright\Desktop\PSYC5613","no","mono","no","18","no","white","no","yes","768","legacy","59","59","C:/Users/Jennifer Wright/Desktop/PSYC5613/jw-subject-1.csv","legacy","Lentiform Loewenfeld","3.3.3","0","h","NA","h","NA","NA","h","422","NA","28230","NA","NA","422","2","legacy","1024","2","48000","-16","experiment","HHHHH","1","odd","NA","162327","7027","NA","NA","35260","NA","NA","156105","7019","NA","163506","163612","164037","163499","163612","Flanker Task","52","43492","60","yes","1024"
"86.8852459016","86.8852459016","722.393442623","722.393442623","black","legacy","legacy","legacy","0","incongruent","uniform","1","undefined","1","s","0","60","0","0","0","0","0","0","60","0","60","60","60","60","60","60","09/20/20 17:03:22","1500","The main experiment item","yes","FlankerTask.osexp","C:\Users\Jennifer Wright\Desktop\PSYC5613","no","mono","no","18","no","white","no","yes","768","legacy","60","60","C:/Users/Jennifer Wright/Desktop/PSYC5613/jw-subject-1.csv","legacy","Lentiform Loewenfeld","3.3.3","0","s","NA","h","NA","NA","s","574","NA","28230","NA","NA","574","2","legacy","1024","2","48000","-16","experiment","HHSHH","1","odd","NA","164108","7027","NA","NA","35260","NA","NA","156105","7019","NA","165300","165406","165983","165293","165406","Flanker Task","53","44066","61","yes","1024"
"87.0967741935","87.0967741935","721.403225806","721.403225806","black","legacy","legacy","legacy","0","congruent","uniform","1","undefined","1","h","0","61","0","0","0","0","0","0","61","0","61","61","61","61","61","61","09/20/20 17:03:22","1500","The main experiment item","yes","FlankerTask.osexp","C:\Users\Jennifer Wright\Desktop\PSYC5613","no","mono","no","18","no","white","no","yes","768","legacy","61","61","C:/Users/Jennifer Wright/Desktop/PSYC5613/jw-subject-1.csv","legacy","Lentiform Loewenfeld","3.3.3","0","h","NA","h","NA","NA","h","661","NA","28230","NA","NA","661","2","legacy","1024","2","48000","-16","experiment","HHHHH","1","odd","NA","166053","7027","NA","NA","35260","NA","NA","156105","7019","NA","167260","167366","168030","167252","167366","Flanker Task","54","44727","62","yes","1024"
"87.3015873016","87.3015873016","718.222222222","718.222222222","black","legacy","legacy","legacy","0","congruent","uniform","1","undefined","1","s","0","62","0","0","0","0","0","0","62","0","62","62","62","62","62","62","09/20/20 17:03:22","1500","The main experiment item","yes","FlankerTask.osexp","C:\Users\Jennifer Wright\Desktop\PSYC5613","no","mono","no","18","no","white","no","yes","768","legacy","62","62","C:/Users/Jennifer Wright/Desktop/PSYC5613/jw-subject-1.csv","legacy","Lentiform Loewenfeld","3.3.3","0","s","NA","h","NA","NA","s","521","NA","28230","NA","NA","521","2","legacy","1024","2","48000","-16","experiment","SSSSS","1","odd","NA","168089","7027","NA","NA","35260","NA","NA","156105","7019","NA","169281","169391","169915","169274","169390","Flanker Task","55","45248","63","yes","1024"
"87.5","87.5","715.328125","715.328125","black","legacy","legacy","legacy","0","incongruent","uniform","1","undefined","1","s","0","63","0","0","0","0","0","0","63","0","63","63","63","63","63","63","09/20/20 17:03:22","1500","The main experiment item","yes","FlankerTask.osexp","C:\Users\Jennifer Wright\Desktop\PSYC5613","no","mono","no","18","no","white","no","yes","768","legacy","63","63","C:/Users/Jennifer Wright/Desktop/PSYC5613/jw-subject-1.csv","legacy","Lentiform Loewenfeld","3.3.3","0","s","NA","h","NA","NA","s","533","NA","28230","NA","NA","533","2","legacy","1024","2","48000","-16","experiment","HHSHH","1","odd","NA","169980","7027","NA","NA","35260","NA","NA","156105","7019","NA","171182","171294","171830","171175","171294","Flanker Task","56","45781","64","yes","1024"
"87.6923076923","87.6923076923","711.861538462","711.861538462","black","legacy","legacy","legacy","0","incongruent","uniform","1","undefined","1","s","0","64","0","0","0","0","0","0","64","0","64","64","64","64","64","64","09/20/20 17:03:22","1500","The main experiment item","yes","FlankerTask.osexp","C:\Users\Jennifer Wright\Desktop\PSYC5613","no","mono","no","18","no","white","no","yes","768","legacy","64","64","C:/Users/Jennifer Wright/Desktop/PSYC5613/jw-subject-1.csv","legacy","Lentiform Loewenfeld","3.3.3","0","s","NA","h","NA","NA","s","490","NA","28230","NA","NA","490","2","legacy","1024","2","48000","-16","experiment","HHSHH","1","odd","NA","171891","7027","NA","NA","35260","NA","NA","156105","7019","NA","173096","173205","173698","173089","173205","Flanker Task","57","46271","65","yes","1024"
"87.8787878788","87.8787878788","708.863636364","708.863636364","black","legacy","legacy","legacy","0","incongruent","uniform","1","undefined","1","s","0","65","0","0","0","0","0","0","65","0","65","65","65","65","65","65","09/20/20 17:03:22","1500","The main experiment item","yes","FlankerTask.osexp","C:\Users\Jennifer Wright\Desktop\PSYC5613","no","mono","no","18","no","white","no","yes","768","legacy","65","65","C:/Users/Jennifer Wright/Desktop/PSYC5613/jw-subject-1.csv","legacy","Lentiform Loewenfeld","3.3.3","0","s","NA","h","NA","NA","s","514","NA","28230","NA","NA","514","2","legacy","1024","2","48000","-16","experiment","HHSHH","1","odd","NA","173757","7027","NA","NA","35260","NA","NA","156105","7019","NA","174953","175060","175578","174945","175060","Flanker Task","58","46785","66","yes","1024"
"88.0597014925","88.0597014925","705.164179104","705.164179104","black","legacy","legacy","legacy","0","congruent","uniform","1","undefined","1","h","0","66","0","0","0","0","0","0","66","0","66","66","66","66","66","66","09/20/20 17:03:22","1500","The main experiment item","yes","FlankerTask.osexp","C:\Users\Jennifer Wright\Desktop\PSYC5613","no","mono","no","18","no","white","no","yes","768","legacy","66","66","C:/Users/Jennifer Wright/Desktop/PSYC5613/jw-subject-1.csv","legacy","Lentiform Loewenfeld","3.3.3","0","h","NA","h","NA","NA","h","461","NA","28230","NA","NA","461","2","legacy","1024","2","48000","-16","experiment","HHHHH","1","odd","NA","175639","7027","NA","NA","35260","NA","NA","156105","7019","NA","176837","176944","177409","176830","176943","Flanker Task","59","47246","67","yes","1024"
"88.2352941176","88.2352941176","701.25","701.25","black","legacy","legacy","legacy","0","incongruent","uniform","1","undefined","1","h","0","67","0","0","0","0","0","0","67","0","67","67","67","67","67","67","09/20/20 17:03:22","1500","The main experiment item","yes","FlankerTask.osexp","C:\Users\Jennifer Wright\Desktop\PSYC5613","no","mono","no","18","no","white","no","yes","768","legacy","67","67","C:/Users/Jennifer Wright/Desktop/PSYC5613/jw-subject-1.csv","legacy","Lentiform Loewenfeld","3.3.3","0","h","NA","h","NA","NA","h","439","NA","28230","NA","NA","439","2","legacy","1024","2","48000","-16","experiment","SSHSS","1","odd","NA","177468","7027","NA","NA","35260","NA","NA","156105","7019","NA","178681","178789","179231","178674","178789","Flanker Task","60","47685","68","yes","1024"
"88.4057971014","88.4057971014","696.753623188","696.753623188","black","legacy","legacy","legacy","0","congruent","uniform","1","undefined","1","h","0","68","0","0","0","0","0","0","68","0","68","68","68","68","68","68","09/20/20 17:03:22","1500","The main experiment item","yes","FlankerTask.osexp","C:\Users\Jennifer Wright\Desktop\PSYC5613","no","mono","no","18","no","white","no","yes","768","legacy","68","68","C:/Users/Jennifer Wright/Desktop/PSYC5613/jw-subject-1.csv","legacy","Lentiform Loewenfeld","3.3.3","0","h","NA","h","NA","NA","h","391","NA","28230","NA","NA","391","2","legacy","1024","2","48000","-16","experiment","HHHHH","1","odd","NA","179295","7027","NA","NA","35260","NA","NA","156105","7019","NA","180490","180597","180991","180484","180597","Flanker Task","61","48076","69","yes","1024"
"88.5714285714","88.5714285714","695.785714286","695.785714286","black","legacy","legacy","legacy","0","incongruent","uniform","1","undefined","1","h","0","69","0","0","0","0","0","0","69","0","69","69","69","69","69","69","09/20/20 17:03:22","1500","The main experiment item","yes","FlankerTask.osexp","C:\Users\Jennifer Wright\Desktop\PSYC5613","no","mono","no","18","no","white","no","yes","768","legacy","69","69","C:/Users/Jennifer Wright/Desktop/PSYC5613/jw-subject-1.csv","legacy","Lentiform Loewenfeld","3.3.3","0","h","NA","h","NA","NA","h","629","NA","28230","NA","NA","629","2","legacy","1024","2","48000","-16","experiment","SSHSS","1","odd","NA","181014","7027","NA","NA","35260","NA","NA","156105","7019","NA","182217","182325","182957","182210","182324","Flanker Task","62","48705","70","yes","1024"
"88.7323943662","88.7323943662","692.943661972","692.943661972","black","legacy","legacy","legacy","0","congruent","uniform","1","undefined","1","h","0","70","0","0","0","0","0","0","70","0","70","70","70","70","70","70","09/20/20 17:03:22","1500","The main experiment item","yes","FlankerTask.osexp","C:\Users\Jennifer Wright\Desktop\PSYC5613","no","mono","no","18","no","white","no","yes","768","legacy","70","70","C:/Users/Jennifer Wright/Desktop/PSYC5613/jw-subject-1.csv","legacy","Lentiform Loewenfeld","3.3.3","0","h","NA","h","NA","NA","h","494","NA","28230","NA","NA","494","2","legacy","1024","2","48000","-16","experiment","HHHHH","1","odd","NA","183014","7027","NA","NA","35260","NA","NA","156105","7019","NA","184206","184312","184810","184199","184312","Flanker Task","63","49199","71","yes","1024"
"88.8888888889","88.8888888889","692.569444444","692.569444444","black","legacy","legacy","legacy","0","incongruent","uniform","1","undefined","1","s","0","71","0","0","0","0","0","0","71","0","71","71","71","71","71","71","09/20/20 17:03:22","1500","The main experiment item","yes","FlankerTask.osexp","C:\Users\Jennifer Wright\Desktop\PSYC5613","no","mono","no","18","no","white","no","yes","768","legacy","71","71","C:/Users/Jennifer Wright/Desktop/PSYC5613/jw-subject-1.csv","legacy","Lentiform Loewenfeld","3.3.3","0","s","NA","h","NA","NA","s","666","NA","28230","NA","NA","666","2","legacy","1024","2","48000","-16","experiment","HHSHH","1","odd","NA","184872","7027","NA","NA","35260","NA","NA","156105","7019","NA","186057","186163","186833","186050","186162","Flanker Task","64","49865","72","yes","1024"
"89.0410958904","89.0410958904","692.123287671","692.123287671","black","legacy","legacy","legacy","0","incongruent","uniform","1","undefined","1","h","0","72","0","0","0","0","0","0","72","0","72","72","72","72","72","72","09/20/20 17:03:22","1500","The main experiment item","yes","FlankerTask.osexp","C:\Users\Jennifer Wright\Desktop\PSYC5613","no","mono","no","18","no","white","no","yes","768","legacy","72","72","C:/Users/Jennifer Wright/Desktop/PSYC5613/jw-subject-1.csv","legacy","Lentiform Loewenfeld","3.3.3","0","h","NA","h","NA","NA","h","660","NA","28230","NA","NA","660","2","legacy","1024","2","48000","-16","experiment","SSHSS","1","odd","NA","186896","7027","NA","NA","35260","NA","NA","156105","7019","NA","188097","188205","188868","188090","188205","Flanker Task","65","50525","73","yes","1024"
"89.1891891892","89.1891891892","690.675675676","690.675675676","black","legacy","legacy","legacy","0","congruent","uniform","1","undefined","1","s","0","73","0","0","0","0","0","0","73","0","73","73","73","73","73","73","09/20/20 17:03:22","1500","The main experiment item","yes","FlankerTask.osexp","C:\Users\Jennifer Wright\Desktop\PSYC5613","no","mono","no","18","no","white","no","yes","768","legacy","73","73","C:/Users/Jennifer Wright/Desktop/PSYC5613/jw-subject-1.csv","legacy","Lentiform Loewenfeld","3.3.3","0","s","NA","h","NA","NA","s","585","NA","28230","NA","NA","585","2","legacy","1024","2","48000","-16","experiment","SSSSS","1","odd","NA","188906","7027","NA","NA","35260","NA","NA","156105","7019","NA","190095","190201","190789","190088","190201","Flanker Task","66","51110","74","yes","1024"
"89.3333333333","89.3333333333","687.573333333","687.573333333","black","legacy","legacy","legacy","0","incongruent","uniform","1","undefined","1","s","0","74","0","0","0","0","0","0","74","0","74","74","74","74","74","74","09/20/20 17:03:22","1500","The main experiment item","yes","FlankerTask.osexp","C:\Users\Jennifer Wright\Desktop\PSYC5613","no","mono","no","18","no","white","no","yes","768","legacy","74","74","C:/Users/Jennifer Wright/Desktop/PSYC5613/jw-subject-1.csv","legacy","Lentiform Loewenfeld","3.3.3","0","s","NA","h","NA","NA","s","458","NA","28230","NA","NA","458","2","legacy","1024","2","48000","-16","experiment","HHSHH","1","odd","NA","190852","7027","NA","NA","35260","NA","NA","156105","7019","NA","192048","192157","192619","192041","192156","Flanker Task","67","51568","75","yes","1024"
"89.4736842105","89.4736842105","684.973684211","684.973684211","black","legacy","legacy","legacy","0","congruent","uniform","1","undefined","1","h","0","75","0","0","0","0","0","0","75","0","75","75","75","75","75","75","09/20/20 17:03:22","1500","The main experiment item","yes","FlankerTask.osexp","C:\Users\Jennifer Wright\Desktop\PSYC5613","no","mono","no","18","no","white","no","yes","768","legacy","75","75","C:/Users/Jennifer Wright/Desktop/PSYC5613/jw-subject-1.csv","legacy","Lentiform Loewenfeld","3.3.3","0","h","NA","h","NA","NA","h","490","NA","28230","NA","NA","490","2","legacy","1024","2","48000","-16","experiment","HHHHH","1","odd","NA","192676","7027","NA","NA","35260","NA","NA","156105","7019","NA","193869","193975","194468","193861","193975","Flanker Task","68","52058","76","yes","1024"
"89.6103896104","89.6103896104","690.701298701","690.701298701","black","legacy","legacy","legacy","0","incongruent","uniform","1","undefined","1","h","0","76","0","0","0","0","0","0","76","0","76","76","76","76","76","76","09/20/20 17:03:22","1500","The main experiment item","yes","FlankerTask.osexp","C:\Users\Jennifer Wright\Desktop\PSYC5613","no","mono","no","18","no","white","no","yes","768","legacy","76","76","C:/Users/Jennifer Wright/Desktop/PSYC5613/jw-subject-1.csv","legacy","Lentiform Loewenfeld","3.3.3","0","h","NA","h","NA","NA","h","1126","NA","28230","NA","NA","1126","2","legacy","1024","2","48000","-16","experiment","SSHSS","1","odd","NA","194524","7027","NA","NA","35260","NA","NA","156105","7019","NA","195721","195829","196958","195713","195829","Flanker Task","69","53184","77","yes","1024"
"89.7435897436","89.7435897436","689.115384615","689.115384615","black","legacy","legacy","legacy","0","congruent","uniform","1","undefined","1","s","0","77","0","0","0","0","0","0","77","0","77","77","77","77","77","77","09/20/20 17:03:22","1500","The main experiment item","yes","FlankerTask.osexp","C:\Users\Jennifer Wright\Desktop\PSYC5613","no","mono","no","18","no","white","no","yes","768","legacy","77","77","C:/Users/Jennifer Wright/Desktop/PSYC5613/jw-subject-1.csv","legacy","Lentiform Loewenfeld","3.3.3","0","s","NA","h","NA","NA","s","567","NA","28230","NA","NA","567","2","legacy","1024","2","48000","-16","experiment","SSSSS","1","odd","NA","197035","7027","NA","NA","35260","NA","NA","156105","7019","NA","198236","198346","198916","198229","198346","Flanker Task","70","53751","78","yes","1024"
"89.8734177215","89.8734177215","686.835443038","686.835443038","black","legacy","legacy","legacy","0","congruent","uniform","1","undefined","1","h","0","78","0","0","0","0","0","0","78","0","78","78","78","78","78","78","09/20/20 17:03:22","1500","The main experiment item","yes","FlankerTask.osexp","C:\Users\Jennifer Wright\Desktop\PSYC5613","no","mono","no","18","no","white","no","yes","768","legacy","78","78","C:/Users/Jennifer Wright/Desktop/PSYC5613/jw-subject-1.csv","legacy","Lentiform Loewenfeld","3.3.3","0","h","NA","h","NA","NA","h","509","NA","28230","NA","NA","509","2","legacy","1024","2","48000","-16","experiment","HHHHH","1","odd","NA","198973","7027","NA","NA","35260","NA","NA","156105","7019","NA","200176","200286","200799","200169","200286","Flanker Task","71","54260","79","yes","1024"
"90","90","684.6625","684.6625","black","legacy","legacy","legacy","0","congruent","uniform","1","undefined","1","s","0","79","0","0","0","0","0","0","79","0","79","79","79","79","79","79","09/20/20 17:03:22","1500","The main experiment item","yes","FlankerTask.osexp","C:\Users\Jennifer Wright\Desktop\PSYC5613","no","mono","no","18","no","white","no","yes","768","legacy","79","79","C:/Users/Jennifer Wright/Desktop/PSYC5613/jw-subject-1.csv","legacy","Lentiform Loewenfeld","3.3.3","0","s","NA","h","NA","NA","s","513","NA","28230","NA","NA","513","2","legacy","1024","2","48000","-16","experiment","SSSSS","1","odd","NA","200868","7027","NA","NA","35260","NA","NA","156105","7019","NA","202055","202161","202677","202048","202161","Flanker Task","72","54773","80","yes","1024"
"90.1234567901","90.1234567901","685.296296296","685.296296296","black","legacy","legacy","legacy","0","congruent","uniform","1","undefined","1","s","0","80","0","0","0","0","0","0","80","0","80","80","80","80","80","80","09/20/20 17:03:22","600","The main experiment item","yes","FlankerTask.osexp","C:\Users\Jennifer Wright\Desktop\PSYC5613","no","mono","no","18","no","white","no","yes","768","legacy","0","79","C:/Users/Jennifer Wright/Desktop/PSYC5613/jw-subject-1.csv","legacy","Lentiform Loewenfeld","3.3.3","0","s","NA","h","h","NA","s","736","NA","28230","14642","NA","736","2","legacy","1024","2","48000","-16","experiment","SSSSS","1","odd","NA","202746","7027","203792","NA","35260","218438","NA","156105","7019","NA","218626","218732","219472","218620","218732","Flanker Task","73","55509","81","yes","1024"
"90.243902439","90.243902439","682.451219512","682.451219512","black","legacy","legacy","legacy","0","congruent","uniform","1","undefined","1","h","0","81","0","0","0","0","0","0","81","0","81","81","81","81","81","81","09/20/20 17:03:22","600","The main experiment item","yes","FlankerTask.osexp","C:\Users\Jennifer Wright\Desktop\PSYC5613","no","mono","no","18","no","white","no","yes","768","legacy","1","79","C:/Users/Jennifer Wright/Desktop/PSYC5613/jw-subject-1.csv","legacy","Lentiform Loewenfeld","3.3.3","0","h","NA","h","h","NA","h","452","NA","28230","14642","NA","452","2","legacy","1024","2","48000","-16","experiment","HHHHH","1","odd","NA","219536","7027","203792","NA","35260","218438","NA","156105","7019","NA","220744","220849","221305","220737","220849","Flanker Task","74","55961","82","yes","1024"
"90.3614457831","90.3614457831","680.048192771","680.048192771","black","legacy","legacy","legacy","0","incongruent","uniform","1","undefined","1","h","0","82","0","0","0","0","0","0","82","0","82","82","82","82","82","82","09/20/20 17:03:22","600","The main experiment item","yes","FlankerTask.osexp","C:\Users\Jennifer Wright\Desktop\PSYC5613","no","mono","no","18","no","white","no","yes","768","legacy","2","79","C:/Users/Jennifer Wright/Desktop/PSYC5613/jw-subject-1.csv","legacy","Lentiform Loewenfeld","3.3.3","0","h","NA","h","h","NA","h","483","NA","28230","14642","NA","483","2","legacy","1024","2","48000","-16","experiment","SSHSS","1","odd","NA","221329","7027","203792","NA","35260","218438","NA","156105","7019","NA","222519","222625","223112","222512","222625","Flanker Task","75","56444","83","yes","1024"
"90.4761904762","90.4761904762","677.333333333","677.333333333","black","legacy","legacy","legacy","0","congruent","uniform","1","undefined","1","h","0","83","0","0","0","0","0","0","83","0","83","83","83","83","83","83","09/20/20 17:03:22","600","The main experiment item","yes","FlankerTask.osexp","C:\Users\Jennifer Wright\Desktop\PSYC5613","no","mono","no","18","no","white","no","yes","768","legacy","3","79","C:/Users/Jennifer Wright/Desktop/PSYC5613/jw-subject-1.csv","legacy","Lentiform Loewenfeld","3.3.3","0","h","NA","h","h","NA","h","452","NA","28230","14642","NA","452","2","legacy","1024","2","48000","-16","experiment","HHHHH","1","odd","NA","223173","7027","203792","NA","35260","218438","NA","156105","7019","NA","224377","224483","224939","224370","224483","Flanker Task","76","56896","84","yes","1024"
"90.5882352941","90.5882352941","675.341176471","675.341176471","black","legacy","legacy","legacy","0","incongruent","uniform","1","undefined","1","h","0","84","0","0","0","0","0","0","84","0","84","84","84","84","84","84","09/20/20 17:03:22","600","The main experiment item","yes","FlankerTask.osexp","C:\Users\Jennifer Wright\Desktop\PSYC5613","no","mono","no","18","no","white","no","yes","768","legacy","4","79","C:/Users/Jennifer Wright/Desktop/PSYC5613/jw-subject-1.csv","legacy","Lentiform Loewenfeld","3.3.3","0","h","NA","h","h","NA","h","508","NA","28230","14642","NA","508","2","legacy","1024","2","48000","-16","experiment","SSHSS","1","odd","NA","225004","7027","203792","NA","35260","218438","NA","156105","7019","NA","226199","226311","226823","226192","226310","Flanker Task","77","57404","85","yes","1024"
"90.6976744186","90.6976744186","674.197674419","674.197674419","black","legacy","legacy","legacy","0","incongruent","uniform","1","undefined","1","h","0","85","0","0","0","0","0","0","85","0","85","85","85","85","85","85","09/20/20 17:03:22","600","The main experiment item","yes","FlankerTask.osexp","C:\Users\Jennifer Wright\Desktop\PSYC5613","no","mono","no","18","no","white","no","yes","768","legacy","5","79","C:/Users/Jennifer Wright/Desktop/PSYC5613/jw-subject-1.csv","legacy","Lentiform Loewenfeld","3.3.3","0","h","NA","h","h","NA","h","577","NA","28230","14642","NA","577","2","legacy","1024","2","48000","-16","experiment","SSHSS","1","odd","NA","226882","7027","203792","NA","35260","218438","NA","156105","7019","NA","228082","228195","228776","228076","228194","Flanker Task","78","57981","86","yes","1024"
"89.6551724138","89.6551724138","671.551724138","671.551724138","black","legacy","legacy","legacy","0","incongruent","uniform","0","undefined","0","s","0","86","0","0","0","0","0","0","86","0","86","86","86","86","86","86","09/20/20 17:03:22","600","The main experiment item","yes","FlankerTask.osexp","C:\Users\Jennifer Wright\Desktop\PSYC5613","no","mono","no","18","no","white","no","yes","768","legacy","6","79","C:/Users/Jennifer Wright/Desktop/PSYC5613/jw-subject-1.csv","legacy","Lentiform Loewenfeld","3.3.3","0","h","NA","h","h","NA","h","444","NA","28230","14642","NA","444","2","legacy","1024","2","48000","-16","experiment","HHSHH","1","odd","NA","228841","7027","203792","NA","35260","218438","NA","156105","7019","NA","230050","230156","230603","230043","230156","Flanker Task","78","58425","87","yes","1024"
"89.7727272727","89.7727272727","678","678","black","legacy","legacy","legacy","0","congruent","uniform","1","undefined","1","h","0","87","0","0","0","0","0","0","87","0","87","87","87","87","87","87","09/20/20 17:03:22","600","The main experiment item","yes","FlankerTask.osexp","C:\Users\Jennifer Wright\Desktop\PSYC5613","no","mono","no","18","no","white","no","yes","768","legacy","7","79","C:/Users/Jennifer Wright/Desktop/PSYC5613/jw-subject-1.csv","legacy","Lentiform Loewenfeld","3.3.3","0","h","NA","h","h","NA","h","1239","NA","28230","14642","NA","1239","2","legacy","1024","2","48000","-16","experiment","HHHHH","1","odd","NA","231166","7027","203792","NA","35260","218438","NA","230657","7019","NA","232370","232479","233721","232363","232479","Flanker Task","79","59664","88","yes","1024"
"89.8876404494","89.8876404494","676.08988764","676.08988764","black","legacy","legacy","legacy","0","congruent","uniform","1","undefined","1","h","0","88","0","0","0","0","0","0","88","0","88","88","88","88","88","88","09/20/20 17:03:22","600","The main experiment item","yes","FlankerTask.osexp","C:\Users\Jennifer Wright\Desktop\PSYC5613","no","mono","no","18","no","white","no","yes","768","legacy","8","79","C:/Users/Jennifer Wright/Desktop/PSYC5613/jw-subject-1.csv","legacy","Lentiform Loewenfeld","3.3.3","0","h","NA","h","h","NA","h","508","NA","28230","14642","NA","508","2","legacy","1024","2","48000","-16","experiment","HHHHH","1","odd","NA","233782","7027","203792","NA","35260","218438","NA","230657","7019","NA","234993","235106","235617","234986","235106","Flanker Task","80","60172","89","yes","1024"
"90","90","674.522222222","674.522222222","black","legacy","legacy","legacy","0","congruent","uniform","1","undefined","1","h","0","89","0","0","0","0","0","0","89","0","89","89","89","89","89","89","09/20/20 17:03:22","600","The main experiment item","yes","FlankerTask.osexp","C:\Users\Jennifer Wright\Desktop\PSYC5613","no","mono","no","18","no","white","no","yes","768","legacy","9","79","C:/Users/Jennifer Wright/Desktop/PSYC5613/jw-subject-1.csv","legacy","Lentiform Loewenfeld","3.3.3","0","h","NA","h","h","NA","h","535","NA","28230","14642","NA","535","2","legacy","1024","2","48000","-16","experiment","HHHHH","1","odd","NA","235680","7027","203792","NA","35260","218438","NA","230657","7019","NA","236876","236982","237521","236868","236982","Flanker Task","81","60707","90","yes","1024"
"89.010989011","89.010989011","683.593406593","683.593406593","black","legacy","legacy","legacy","0","congruent","uniform","0","undefined","0","s","0","90","0","0","0","0","0","0","90","0","90","90","90","90","90","90","09/20/20 17:03:22","600","The main experiment item","yes","FlankerTask.osexp","C:\Users\Jennifer Wright\Desktop\PSYC5613","no","mono","no","18","no","white","no","yes","768","legacy","10","79","C:/Users/Jennifer Wright/Desktop/PSYC5613/jw-subject-1.csv","legacy","Lentiform Loewenfeld","3.3.3","0","None","NA","h","h","NA","None","1500","NA","28230","14642","NA","1500","2","legacy","1024","2","48000","-16","experiment","SSSSS","1","odd","NA","237582","7027","203792","NA","35260","218438","NA","230657","7019","NA","238786","238892","240395","238779","238892","Flanker Task","81","62207","91","yes","1024"
"89.1304347826","89.1304347826","686.445652174","686.445652174","black","legacy","legacy","legacy","0","congruent","uniform","1","undefined","1","h","0","91","0","0","0","0","0","0","91","0","91","91","91","91","91","91","09/20/20 17:03:22","600","The main experiment item","yes","FlankerTask.osexp","C:\Users\Jennifer Wright\Desktop\PSYC5613","no","mono","no","18","no","white","no","yes","768","legacy","11","79","C:/Users/Jennifer Wright/Desktop/PSYC5613/jw-subject-1.csv","legacy","Lentiform Loewenfeld","3.3.3","0","h","NA","h","h","NA","h","946","NA","28230","14642","NA","946","2","legacy","1024","2","48000","-16","experiment","HHHHH","1","odd","NA","240961","7027","203792","NA","35260","218438","NA","240454","7019","NA","242164","242270","243220","242157","242270","Flanker Task","82","63153","92","yes","1024"
"89.247311828","89.247311828","684.430107527","684.430107527","black","legacy","legacy","legacy","0","congruent","uniform","1","undefined","1","h","0","92","0","0","0","0","0","0","92","0","92","92","92","92","92","92","09/20/20 17:03:22","600","The main experiment item","yes","FlankerTask.osexp","C:\Users\Jennifer Wright\Desktop\PSYC5613","no","mono","no","18","no","white","no","yes","768","legacy","12","79","C:/Users/Jennifer Wright/Desktop/PSYC5613/jw-subject-1.csv","legacy","Lentiform Loewenfeld","3.3.3","0","h","NA","h","h","NA","h","499","NA","28230","14642","NA","499","2","legacy","1024","2","48000","-16","experiment","HHHHH","1","odd","NA","243289","7027","203792","NA","35260","218438","NA","240454","7019","NA","244492","244599","245103","244484","244598","Flanker Task","83","63652","93","yes","1024"
"89.3617021277","89.3617021277","681.585106383","681.585106383","black","legacy","legacy","legacy","0","congruent","uniform","1","undefined","1","h","0","93","0","0","0","0","0","0","93","0","93","93","93","93","93","93","09/20/20 17:03:22","600","The main experiment item","yes","FlankerTask.osexp","C:\Users\Jennifer Wright\Desktop\PSYC5613","no","mono","no","18","no","white","no","yes","768","legacy","13","79","C:/Users/Jennifer Wright/Desktop/PSYC5613/jw-subject-1.csv","legacy","Lentiform Loewenfeld","3.3.3","0","h","NA","h","h","NA","h","417","NA","28230","14642","NA","417","2","legacy","1024","2","48000","-16","experiment","HHHHH","1","odd","NA","245159","7027","203792","NA","35260","218438","NA","240454","7019","NA","246358","246464","246886","246350","246464","Flanker Task","84","64069","94","yes","1024"
"89.4736842105","89.4736842105","678.736842105","678.736842105","black","legacy","legacy","legacy","0","congruent","uniform","1","undefined","1","h","0","94","0","0","0","0","0","0","94","0","94","94","94","94","94","94","09/20/20 17:03:22","600","The main experiment item","yes","FlankerTask.osexp","C:\Users\Jennifer Wright\Desktop\PSYC5613","no","mono","no","18","no","white","no","yes","768","legacy","14","79","C:/Users/Jennifer Wright/Desktop/PSYC5613/jw-subject-1.csv","legacy","Lentiform Loewenfeld","3.3.3","0","h","NA","h","h","NA","h","411","NA","28230","14642","NA","411","2","legacy","1024","2","48000","-16","experiment","HHHHH","1","odd","NA","246946","7027","203792","NA","35260","218438","NA","240454","7019","NA","248139","248244","248661","248132","248244","Flanker Task","85","64480","95","yes","1024"
"89.5833333333","89.5833333333","679.427083333","679.427083333","black","legacy","legacy","legacy","0","incongruent","uniform","1","undefined","1","h","0","95","0","0","0","0","0","0","95","0","95","95","95","95","95","95","09/20/20 17:03:22","600","The main experiment item","yes","FlankerTask.osexp","C:\Users\Jennifer Wright\Desktop\PSYC5613","no","mono","no","18","no","white","no","yes","768","legacy","15","79","C:/Users/Jennifer Wright/Desktop/PSYC5613/jw-subject-1.csv","legacy","Lentiform Loewenfeld","3.3.3","0","h","NA","h","h","NA","h","745","NA","28230","14642","NA","745","2","legacy","1024","2","48000","-16","experiment","SSHSS","1","odd","NA","248722","7027","203792","NA","35260","218438","NA","240454","7019","NA","249917","250022","250771","249910","250022","Flanker Task","86","65225","96","yes","1024"
"89.6907216495","89.6907216495","677.886597938","677.886597938","black","legacy","legacy","legacy","0","congruent","uniform","1","undefined","1","s","0","96","0","0","0","0","0","0","96","0","96","96","96","96","96","96","09/20/20 17:03:22","600","The main experiment item","yes","FlankerTask.osexp","C:\Users\Jennifer Wright\Desktop\PSYC5613","no","mono","no","18","no","white","no","yes","768","legacy","16","79","C:/Users/Jennifer Wright/Desktop/PSYC5613/jw-subject-1.csv","legacy","Lentiform Loewenfeld","3.3.3","0","s","NA","h","h","NA","s","530","NA","28230","14642","NA","530","2","legacy","1024","2","48000","-16","experiment","SSSSS","1","odd","NA","250837","7027","203792","NA","35260","218438","NA","240454","7019","NA","252032","252138","252672","252025","252138","Flanker Task","87","65755","97","yes","1024"
"89.7959183673","89.7959183673","676.173469388","676.173469388","black","legacy","legacy","legacy","0","congruent","uniform","1","undefined","1","h","0","97","0","0","0","0","0","0","97","0","97","97","97","97","97","97","09/20/20 17:03:22","600","The main experiment item","yes","FlankerTask.osexp","C:\Users\Jennifer Wright\Desktop\PSYC5613","no","mono","no","18","no","white","no","yes","768","legacy","17","79","C:/Users/Jennifer Wright/Desktop/PSYC5613/jw-subject-1.csv","legacy","Lentiform Loewenfeld","3.3.3","0","h","NA","h","h","NA","h","510","NA","28230","14642","NA","510","2","legacy","1024","2","48000","-16","experiment","HHHHH","1","odd","NA","252731","7027","203792","NA","35260","218438","NA","240454","7019","NA","253937","254046","254560","253930","254046","Flanker Task","88","66265","98","yes","1024"
"89.898989899","89.898989899","673.515151515","673.515151515","black","legacy","legacy","legacy","0","congruent","uniform","1","undefined","1","h","0","98","0","0","0","0","0","0","98","0","98","98","98","98","98","98","09/20/20 17:03:22","600","The main experiment item","yes","FlankerTask.osexp","C:\Users\Jennifer Wright\Desktop\PSYC5613","no","mono","no","18","no","white","no","yes","768","legacy","18","79","C:/Users/Jennifer Wright/Desktop/PSYC5613/jw-subject-1.csv","legacy","Lentiform Loewenfeld","3.3.3","0","h","NA","h","h","NA","h","413","NA","28230","14642","NA","413","2","legacy","1024","2","48000","-16","experiment","HHHHH","1","odd","NA","254622","7027","203792","NA","35260","218438","NA","240454","7019","NA","255822","255927","256344","255815","255927","Flanker Task","89","66678","99","yes","1024"
"90","90","672.57","672.57","black","legacy","legacy","legacy","0","incongruent","uniform","1","undefined","1","s","0","99","0","0","0","0","0","0","99","0","99","99","99","99","99","99","09/20/20 17:03:22","600","The main experiment item","yes","FlankerTask.osexp","C:\Users\Jennifer Wright\Desktop\PSYC5613","no","mono","no","18","no","white","no","yes","768","legacy","19","79","C:/Users/Jennifer Wright/Desktop/PSYC5613/jw-subject-1.csv","legacy","Lentiform Loewenfeld","3.3.3","0","s","NA","h","h","NA","s","579","NA","28230","14642","NA","579","2","legacy","1024","2","48000","-16","experiment","HHSHH","1","odd","NA","256384","7027","203792","NA","35260","218438","NA","240454","7019","NA","257567","257673","258256","257560","257673","Flanker Task","90","67257","100","yes","1024"
"90.099009901","90.099009901","671.574257426","671.574257426","black","legacy","legacy","legacy","0","incongruent","uniform","1","undefined","1","s","0","100","0","0","0","0","0","0","100","0","100","100","100","100","100","100","09/20/20 17:03:22","600","The main experiment item","yes","FlankerTask.osexp","C:\Users\Jennifer Wright\Desktop\PSYC5613","no","mono","no","18","no","white","no","yes","768","legacy","20","79","C:/Users/Jennifer Wright/Desktop/PSYC5613/jw-subject-1.csv","legacy","Lentiform Loewenfeld","3.3.3","0","s","NA","h","h","NA","s","572","NA","28230","14642","NA","572","2","legacy","1024","2","48000","-16","experiment","HHSHH","1","odd","NA","258314","7027","203792","NA","35260","218438","NA","240454","7019","NA","259519","259626","260202","259512","259625","Flanker Task","91","67829","101","yes","1024"
"90.1960784314","90.1960784314","676.794117647","676.794117647","black","legacy","legacy","legacy","0","congruent","uniform","1","undefined","1","s","0","101","0","0","0","0","0","0","101","0","101","101","101","101","101","101","09/20/20 17:03:22","600","The main experiment item","yes","FlankerTask.osexp","C:\Users\Jennifer Wright\Desktop\PSYC5613","no","mono","no","18","no","white","no","yes","768","legacy","21","79","C:/Users/Jennifer Wright/Desktop/PSYC5613/jw-subject-1.csv","legacy","Lentiform Loewenfeld","3.3.3","0","s","NA","h","h","NA","s","1204","NA","28230","14642","NA","1204","2","legacy","1024","2","48000","-16","experiment","SSSSS","1","odd","NA","260260","7027","203792","NA","35260","218438","NA","240454","7019","NA","261458","261567","262775","261451","261566","Flanker Task","92","69033","102","yes","1024"
"90.2912621359","90.2912621359","676.349514563","676.349514563","black","legacy","legacy","legacy","0","congruent","uniform","1","undefined","1","s","0","102","0","0","0","0","0","0","102","0","102","102","102","102","102","102","09/20/20 17:03:22","600","The main experiment item","yes","FlankerTask.osexp","C:\Users\Jennifer Wright\Desktop\PSYC5613","no","mono","no","18","no","white","no","yes","768","legacy","22","79","C:/Users/Jennifer Wright/Desktop/PSYC5613/jw-subject-1.csv","legacy","Lentiform Loewenfeld","3.3.3","0","s","NA","h","h","NA","s","631","NA","28230","14642","NA","631","2","legacy","1024","2","48000","-16","experiment","SSSSS","1","odd","NA","262833","7027","203792","NA","35260","218438","NA","240454","7019","NA","264031","264140","264776","264023","264139","Flanker Task","93","69664","103","yes","1024"
"90.3846153846","90.3846153846","675.134615385","675.134615385","black","legacy","legacy","legacy","0","incongruent","uniform","1","undefined","1","h","0","103","0","0","0","0","0","0","103","0","103","103","103","103","103","103","09/20/20 17:03:22","600","The main experiment item","yes","FlankerTask.osexp","C:\Users\Jennifer Wright\Desktop\PSYC5613","no","mono","no","18","no","white","no","yes","768","legacy","23","79","C:/Users/Jennifer Wright/Desktop/PSYC5613/jw-subject-1.csv","legacy","Lentiform Loewenfeld","3.3.3","0","h","NA","h","h","NA","h","550","NA","28230","14642","NA","550","2","legacy","1024","2","48000","-16","experiment","SSHSS","1","odd","NA","264840","7027","203792","NA","35260","218438","NA","240454","7019","NA","266019","266126","266680","266012","266126","Flanker Task","94","70214","104","yes","1024"
"90.4761904762","90.4761904762","673.828571429","673.828571429","black","legacy","legacy","legacy","0","incongruent","uniform","1","undefined","1","h","0","104","0","0","0","0","0","0","104","0","104","104","104","104","104","104","09/20/20 17:03:22","600","The main experiment item","yes","FlankerTask.osexp","C:\Users\Jennifer Wright\Desktop\PSYC5613","no","mono","no","18","no","white","no","yes","768","legacy","24","79","C:/Users/Jennifer Wright/Desktop/PSYC5613/jw-subject-1.csv","legacy","Lentiform Loewenfeld","3.3.3","0","h","NA","h","h","NA","h","538","NA","28230","14642","NA","538","2","legacy","1024","2","48000","-16","experiment","SSHSS","1","odd","NA","266765","7027","203792","NA","35260","218438","NA","240454","7019","NA","267962","268077","268619","267955","268076","Flanker Task","95","70752","105","yes","1024"
"90.5660377358","90.5660377358","676.70754717","676.70754717","black","legacy","legacy","legacy","0","congruent","uniform","1","undefined","1","h","0","105","0","0","0","0","0","0","105","0","105","105","105","105","105","105","09/20/20 17:03:22","600","The main experiment item","yes","FlankerTask.osexp","C:\Users\Jennifer Wright\Desktop\PSYC5613","no","mono","no","18","no","white","no","yes","768","legacy","25","79","C:/Users/Jennifer Wright/Desktop/PSYC5613/jw-subject-1.csv","legacy","Lentiform Loewenfeld","3.3.3","0","h","NA","h","h","NA","h","979","NA","28230","14642","NA","979","2","legacy","1024","2","48000","-16","experiment","HHHHH","1","odd","NA","268699","7027","203792","NA","35260","218438","NA","240454","7019","NA","269897","270004","270987","269890","270004","Flanker Task","96","71731","106","yes","1024"
"90.6542056075","90.6542056075","679.401869159","679.401869159","black","legacy","legacy","legacy","0","congruent","uniform","1","undefined","1","h","0","106","0","0","0","0","0","0","106","0","106","106","106","106","106","106","09/20/20 17:03:22","600","The main experiment item","yes","FlankerTask.osexp","C:\Users\Jennifer Wright\Desktop\PSYC5613","no","mono","no","18","no","white","no","yes","768","legacy","26","79","C:/Users/Jennifer Wright/Desktop/PSYC5613/jw-subject-1.csv","legacy","Lentiform Loewenfeld","3.3.3","0","h","NA","h","h","NA","h","965","NA","28230","14642","NA","965","2","legacy","1024","2","48000","-16","experiment","HHHHH","1","odd","NA","271054","7027","203792","NA","35260","218438","NA","240454","7019","NA","272246","272353","273323","272238","272353","Flanker Task","97","72696","107","yes","1024"
"90.7407407407","90.7407407407","686.398148148","686.398148148","black","legacy","legacy","legacy","0","incongruent","uniform","1","undefined","1","s","0","107","0","0","0","0","0","0","107","0","107","107","107","107","107","107","09/20/20 17:03:22","600","The main experiment item","yes","FlankerTask.osexp","C:\Users\Jennifer Wright\Desktop\PSYC5613","no","mono","no","18","no","white","no","yes","768","legacy","27","79","C:/Users/Jennifer Wright/Desktop/PSYC5613/jw-subject-1.csv","legacy","Lentiform Loewenfeld","3.3.3","0","s","NA","h","h","NA","s","1435","NA","28230","14642","NA","1435","2","legacy","1024","2","48000","-16","experiment","HHSHH","1","odd","NA","273378","7027","203792","NA","35260","218438","NA","240454","7019","NA","274578","274689","276129","274571","274689","Flanker Task","98","74131","108","yes","1024"
"89.9082568807","89.9082568807","685.660550459","685.660550459","black","legacy","legacy","legacy","0","incongruent","uniform","0","undefined","0","h","0","108","0","0","0","0","0","0","108","0","108","108","108","108","108","108","09/20/20 17:03:22","600","The main experiment item","yes","FlankerTask.osexp","C:\Users\Jennifer Wright\Desktop\PSYC5613","no","mono","no","18","no","white","no","yes","768","legacy","28","79","C:/Users/Jennifer Wright/Desktop/PSYC5613/jw-subject-1.csv","legacy","Lentiform Loewenfeld","3.3.3","0","s","NA","h","h","NA","s","606","NA","28230","14642","NA","606","2","legacy","1024","2","48000","-16","experiment","SSHSS","1","odd","NA","276195","7027","203792","NA","35260","218438","NA","240454","7019","NA","277397","277506","278117","277389","277505","Flanker Task","98","74737","109","yes","1024"
"90","90","689.3","689.3","black","legacy","legacy","legacy","0","incongruent","uniform","1","undefined","1","h","0","109","0","0","0","0","0","0","109","0","109","109","109","109","109","109","09/20/20 17:03:22","600","The main experiment item","yes","FlankerTask.osexp","C:\Users\Jennifer Wright\Desktop\PSYC5613","no","mono","no","18","no","white","no","yes","768","legacy","29","79","C:/Users/Jennifer Wright/Desktop/PSYC5613/jw-subject-1.csv","legacy","Lentiform Loewenfeld","3.3.3","0","h","NA","h","h","NA","h","1086","NA","28230","14642","NA","1086","2","legacy","1024","2","48000","-16","experiment","SSHSS","1","odd","NA","278689","7027","203792","NA","35260","218438","NA","278183","7019","NA","279887","279994","281085","279880","279994","Flanker Task","99","75823","110","yes","1024"
"90.0900900901","90.0900900901","688.828828829","688.828828829","black","legacy","legacy","legacy","0","congruent","uniform","1","undefined","1","s","0","110","0","0","0","0","0","0","110","0","110","110","110","110","110","110","09/20/20 17:03:22","600","The main experiment item","yes","FlankerTask.osexp","C:\Users\Jennifer Wright\Desktop\PSYC5613","no","mono","no","18","no","white","no","yes","768","legacy","30","79","C:/Users/Jennifer Wright/Desktop/PSYC5613/jw-subject-1.csv","legacy","Lentiform Loewenfeld","3.3.3","0","s","NA","h","h","NA","s","637","NA","28230","14642","NA","637","2","legacy","1024","2","48000","-16","experiment","SSSSS","1","odd","NA","281146","7027","203792","NA","35260","218438","NA","278183","7019","NA","282341","282450","283091","282335","282449","Flanker Task","100","76460","111","yes","1024"
"90.1785714286","90.1785714286","687.366071429","687.366071429","black","legacy","legacy","legacy","0","congruent","uniform","1","undefined","1","h","0","111","0","0","0","0","0","0","111","0","111","111","111","111","111","111","09/20/20 17:03:22","600","The main experiment item","yes","FlankerTask.osexp","C:\Users\Jennifer Wright\Desktop\PSYC5613","no","mono","no","18","no","white","no","yes","768","legacy","31","79","C:/Users/Jennifer Wright/Desktop/PSYC5613/jw-subject-1.csv","legacy","Lentiform Loewenfeld","3.3.3","0","h","NA","h","h","NA","h","525","NA","28230","14642","NA","525","2","legacy","1024","2","48000","-16","experiment","HHHHH","1","odd","NA","283158","7027","203792","NA","35260","218438","NA","278183","7019","NA","284362","284476","285005","284355","284476","Flanker Task","101","76985","112","yes","1024"
"90.2654867257","90.2654867257","686.451327434","686.451327434","black","legacy","legacy","legacy","0","incongruent","uniform","1","undefined","1","h","0","112","0","0","0","0","0","0","112","0","112","112","112","112","112","112","09/20/20 17:03:22","600","The main experiment item","yes","FlankerTask.osexp","C:\Users\Jennifer Wright\Desktop\PSYC5613","no","mono","no","18","no","white","no","yes","768","legacy","32","79","C:/Users/Jennifer Wright/Desktop/PSYC5613/jw-subject-1.csv","legacy","Lentiform Loewenfeld","3.3.3","0","h","NA","h","h","NA","h","584","NA","28230","14642","NA","584","2","legacy","1024","2","48000","-16","experiment","SSHSS","1","odd","NA","285074","7027","203792","NA","35260","218438","NA","278183","7019","NA","286274","286381","286970","286266","286380","Flanker Task","102","77569","113","yes","1024"
"90.350877193","90.350877193","685.271929825","685.271929825","black","legacy","legacy","legacy","0","incongruent","uniform","1","undefined","1","s","0","113","0","0","0","0","0","0","113","0","113","113","113","113","113","113","09/20/20 17:03:22","600","The main experiment item","yes","FlankerTask.osexp","C:\Users\Jennifer Wright\Desktop\PSYC5613","no","mono","no","18","no","white","no","yes","768","legacy","33","79","C:/Users/Jennifer Wright/Desktop/PSYC5613/jw-subject-1.csv","legacy","Lentiform Loewenfeld","3.3.3","0","s","NA","h","h","NA","s","552","NA","28230","14642","NA","552","2","legacy","1024","2","48000","-16","experiment","HHSHH","1","odd","NA","287046","7027","203792","NA","35260","218438","NA","278183","7019","NA","288254","288360","288916","288247","288360","Flanker Task","103","78121","114","yes","1024"
"90.4347826087","90.4347826087","684.756521739","684.756521739","black","legacy","legacy","legacy","0","incongruent","uniform","1","undefined","1","s","0","114","0","0","0","0","0","0","114","0","114","114","114","114","114","114","09/20/20 17:03:22","600","The main experiment item","yes","FlankerTask.osexp","C:\Users\Jennifer Wright\Desktop\PSYC5613","no","mono","no","18","no","white","no","yes","768","legacy","34","79","C:/Users/Jennifer Wright/Desktop/PSYC5613/jw-subject-1.csv","legacy","Lentiform Loewenfeld","3.3.3","0","s","NA","h","h","NA","s","626","NA","28230","14642","NA","626","2","legacy","1024","2","48000","-16","experiment","HHSHH","1","odd","NA","288972","7027","203792","NA","35260","218438","NA","278183","7019","NA","290178","290290","290921","290170","290289","Flanker Task","104","78747","115","yes","1024"
"90.5172413793","90.5172413793","683.594827586","683.594827586","black","legacy","legacy","legacy","0","incongruent","uniform","1","undefined","1","s","0","115","0","0","0","0","0","0","115","0","115","115","115","115","115","115","09/20/20 17:03:22","600","The main experiment item","yes","FlankerTask.osexp","C:\Users\Jennifer Wright\Desktop\PSYC5613","no","mono","no","18","no","white","no","yes","768","legacy","35","79","C:/Users/Jennifer Wright/Desktop/PSYC5613/jw-subject-1.csv","legacy","Lentiform Loewenfeld","3.3.3","0","s","NA","h","h","NA","s","550","NA","28230","14642","NA","550","2","legacy","1024","2","48000","-16","experiment","HHSHH","1","odd","NA","290981","7027","203792","NA","35260","218438","NA","278183","7019","NA","292179","292286","292841","292171","292285","Flanker Task","105","79297","116","yes","1024"
"90.5982905983","90.5982905983","681.333333333","681.333333333","black","legacy","legacy","legacy","0","congruent","uniform","1","undefined","1","s","0","116","0","0","0","0","0","0","116","0","116","116","116","116","116","116","09/20/20 17:03:22","600","The main experiment item","yes","FlankerTask.osexp","C:\Users\Jennifer Wright\Desktop\PSYC5613","no","mono","no","18","no","white","no","yes","768","legacy","36","79","C:/Users/Jennifer Wright/Desktop/PSYC5613/jw-subject-1.csv","legacy","Lentiform Loewenfeld","3.3.3","0","s","NA","h","h","NA","s","419","NA","28230","14642","NA","419","2","legacy","1024","2","48000","-16","experiment","SSSSS","1","odd","NA","292903","7027","203792","NA","35260","218438","NA","278183","7019","NA","294109","294215","294639","294102","294215","Flanker Task","106","79716","117","yes","1024"
"90.6779661017","90.6779661017","681.203389831","681.203389831","black","legacy","legacy","legacy","0","incongruent","uniform","1","undefined","1","h","0","117","0","0","0","0","0","0","117","0","117","117","117","117","117","117","09/20/20 17:03:22","600","The main experiment item","yes","FlankerTask.osexp","C:\Users\Jennifer Wright\Desktop\PSYC5613","no","mono","no","18","no","white","no","yes","768","legacy","37","79","C:/Users/Jennifer Wright/Desktop/PSYC5613/jw-subject-1.csv","legacy","Lentiform Loewenfeld","3.3.3","0","h","NA","h","h","NA","h","666","NA","28230","14642","NA","666","2","legacy","1024","2","48000","-16","experiment","SSHSS","1","odd","NA","294704","7027","203792","NA","35260","218438","NA","278183","7019","NA","295916","296026","296697","295908","296025","Flanker Task","107","80382","118","yes","1024"
"90.756302521","90.756302521","679.336134454","679.336134454","black","legacy","legacy","legacy","0","congruent","uniform","1","undefined","1","h","0","118","0","0","0","0","0","0","118","0","118","118","118","118","118","118","09/20/20 17:03:22","600","The main experiment item","yes","FlankerTask.osexp","C:\Users\Jennifer Wright\Desktop\PSYC5613","no","mono","no","18","no","white","no","yes","768","legacy","38","79","C:/Users/Jennifer Wright/Desktop/PSYC5613/jw-subject-1.csv","legacy","Lentiform Loewenfeld","3.3.3","0","h","NA","h","h","NA","h","459","NA","28230","14642","NA","459","2","legacy","1024","2","48000","-16","experiment","HHHHH","1","odd","NA","296717","7027","203792","NA","35260","218438","NA","278183","7019","NA","297909","298017","298481","297903","298016","Flanker Task","108","80841","119","yes","1024"
"90.8333333333","90.8333333333","679.35","679.35","black","legacy","legacy","legacy","0","incongruent","uniform","1","undefined","1","h","0","119","0","0","0","0","0","0","119","0","119","119","119","119","119","119","09/20/20 17:03:22","600","The main experiment item","yes","FlankerTask.osexp","C:\Users\Jennifer Wright\Desktop\PSYC5613","no","mono","no","18","no","white","no","yes","768","legacy","39","79","C:/Users/Jennifer Wright/Desktop/PSYC5613/jw-subject-1.csv","legacy","Lentiform Loewenfeld","3.3.3","0","h","NA","h","h","NA","h","681","NA","28230","14642","NA","681","2","legacy","1024","2","48000","-16","experiment","SSHSS","1","odd","NA","298504","7027","203792","NA","35260","218438","NA","278183","7019","NA","299702","299807","300493","299694","299807","Flanker Task","109","81522","120","yes","1024"
"90.9090909091","90.9090909091","678.338842975","678.338842975","black","legacy","legacy","legacy","0","congruent","uniform","1","undefined","1","s","0","120","0","0","0","0","0","0","120","0","120","120","120","120","120","120","09/20/20 17:03:22","600","The main experiment item","yes","FlankerTask.osexp","C:\Users\Jennifer Wright\Desktop\PSYC5613","no","mono","no","18","no","white","no","yes","768","legacy","40","79","C:/Users/Jennifer Wright/Desktop/PSYC5613/jw-subject-1.csv","legacy","Lentiform Loewenfeld","3.3.3","0","s","NA","h","h","NA","s","557","NA","28230","14642","NA","557","2","legacy","1024","2","48000","-16","experiment","SSSSS","1","odd","NA","300556","7027","203792","NA","35260","218438","NA","278183","7019","NA","301757","301863","302425","301750","301863","Flanker Task","110","82079","121","yes","1024"
