acc,accuracy,average_response_time,avg_rt,background,canvas_backend,clock_backend,color_backend,compensation,condition,coordinates,correct,correct_instructions1,correct_keyboard_response,correct_response,count_ISI,count_block1,count_block2,count_block3,count_errorfeedback,count_experiment,count_faster,count_finish,count_fixation,count_instructions1,count_instructions2,count_instructions3,count_keyboard_response,count_logger,count_sequence,count_stimulus,datetime,deadline,description,disable_garbage_collection,experiment_file,experiment_path,font_bold,font_family,font_italic,font_size,font_underline,foreground,form_clicks,fullscreen,height,keyboard_backend,live_row,live_row_block1,logfile,mouse_backend,opensesame_codename,opensesame_version,repeat_cycle,response,response_finish,response_instructions1,response_instructions2,response_instructions3,response_keyboard_response,response_time,response_time_finish,response_time_instructions1,response_time_instructions2,response_time_instructions3,response_time_keyboard_response,round_decimals,sampler_backend,sound_buf_size,sound_channels,sound_freq,sound_sample_size,start,stimulus,subject_nr,subject_parity,time_ISI,time_block1,time_block2,time_block3,time_errorfeedback,time_experiment,time_faster,time_finish,time_fixation,time_instructions1,time_instructions2,time_instructions3,time_keyboard_response,time_logger,time_sequence,time_stimulus,title,total_correct,total_response_time,total_responses,uniform_coordinates,width
0,0,1500,1500,black,legacy,legacy,legacy,0,incongruent,uniform,0,undefined,0,h,0,0,0,0,0,0,0,0,0,0,0,0,0,0,0,0,9/26/19 17:50,1500,The main experiment item,yes,FlankertaskSL.osexp,C:/Users/Sarah Linan/Desktop,no,mono,no,18,no,white,no,yes,768,legacy,0,0,C:/Users/Sarah Linan/Desktop/SL-subject-4.csv,legacy,Kafkaesque Koffka,3.2.8,0,None,NA,h,NA,NA,None,1500,NA,138120,NA,NA,1500,2,legacy,1024,2,48000,-16,experiment,SSHSS,4,even,NA,140013,NA,NA,NA,1884,NA,NA,140115,1892,NA,NA,140219,141719,140113,140217,Flanker task SL,0,1500,1,yes,1024
50,50,1138,1138,black,legacy,legacy,legacy,0,incongruent ,uniform,1,undefined,1,s,1,0,0,0,1,0,1,0,1,0,0,0,1,1,1,1,9/26/19 17:50,1500,The main experiment item,yes,FlankertaskSL.osexp,C:/Users/Sarah Linan/Desktop,no,mono,no,18,no,white,no,yes,768,legacy,1,1,C:/Users/Sarah Linan/Desktop/SL-subject-4.csv,legacy,Kafkaesque Koffka,3.2.8,0,s,NA,h,NA,NA,s,776,NA,138120,NA,NA,776,2,legacy,1024,2,48000,-16,experiment,HHSHH,4,even,142339,140013,NA,NA,141836,1884,NA,NA,143441,1892,NA,NA,143545,144322,143438,143545,Flanker task SL,1,2276,2,yes,1024
66.66666667,66.66666667,980.6666667,980.6666667,black,legacy,legacy,legacy,0,incongruent,uniform,1,undefined,1,h,2,0,0,0,2,0,2,0,2,0,0,0,2,2,2,2,9/26/19 17:50,1500,The main experiment item,yes,FlankertaskSL.osexp,C:/Users/Sarah Linan/Desktop,no,mono,no,18,no,white,no,yes,768,legacy,2,2,C:/Users/Sarah Linan/Desktop/SL-subject-4.csv,legacy,Kafkaesque Koffka,3.2.8,0,h,NA,h,NA,NA,h,666,NA,138120,NA,NA,666,2,legacy,1024,2,48000,-16,experiment,SSHSS,4,even,144418,140013,NA,NA,141836,1884,NA,NA,145515,1892,NA,NA,145618,146284,145511,145617,Flanker task SL,2,2942,3,yes,1024
75,75,888.5,888.5,black,legacy,legacy,legacy,0,incongruent ,uniform,1,undefined,1,s,3,0,0,0,3,0,3,0,3,0,0,0,3,3,3,3,9/26/19 17:50,1500,The main experiment item,yes,FlankertaskSL.osexp,C:/Users/Sarah Linan/Desktop,no,mono,no,18,no,white,no,yes,768,legacy,3,3,C:/Users/Sarah Linan/Desktop/SL-subject-4.csv,legacy,Kafkaesque Koffka,3.2.8,0,s,NA,h,NA,NA,s,612,NA,138120,NA,NA,612,2,legacy,1024,2,48000,-16,experiment,HHSHH,4,even,146381,140013,NA,NA,141836,1884,NA,NA,147473,1892,NA,NA,147575,148187,147470,147575,Flanker task SL,3,3554,4,yes,1024
80,80,831,831,black,legacy,legacy,legacy,0,congruent,uniform,1,undefined,1,s,4,0,0,0,4,0,4,0,4,0,0,0,4,4,4,4,9/26/19 17:50,1500,The main experiment item,yes,FlankertaskSL.osexp,C:/Users/Sarah Linan/Desktop,no,mono,no,18,no,white,no,yes,768,legacy,4,4,C:/Users/Sarah Linan/Desktop/SL-subject-4.csv,legacy,Kafkaesque Koffka,3.2.8,0,s,NA,h,NA,NA,s,601,NA,138120,NA,NA,601,2,legacy,1024,2,48000,-16,experiment,SSSSS,4,even,148290,140013,NA,NA,141836,1884,NA,NA,149387,1892,NA,NA,149488,150090,149385,149488,Flanker task SL,4,4155,5,yes,1024
83.33333333,83.33333333,781.3333333,781.3333333,black,legacy,legacy,legacy,0,congruent,uniform,1,undefined,1,s,5,0,0,0,5,0,5,0,5,0,0,0,5,5,5,5,9/26/19 17:50,1500,The main experiment item,yes,FlankertaskSL.osexp,C:/Users/Sarah Linan/Desktop,no,mono,no,18,no,white,no,yes,768,legacy,5,5,C:/Users/Sarah Linan/Desktop/SL-subject-4.csv,legacy,Kafkaesque Koffka,3.2.8,0,s,NA,h,NA,NA,s,533,NA,138120,NA,NA,533,2,legacy,1024,2,48000,-16,experiment,SSSSS,4,even,150186,140013,NA,NA,141836,1884,NA,NA,151280,1892,NA,NA,151383,151917,151277,151383,Flanker task SL,5,4688,6,yes,1024
85.71428571,85.71428571,745,745,black,legacy,legacy,legacy,0,congruent,uniform,1,undefined,1,h,6,0,0,0,6,0,6,0,6,0,0,0,6,6,6,6,9/26/19 17:50,1500,The main experiment item,yes,FlankertaskSL.osexp,C:/Users/Sarah Linan/Desktop,no,mono,no,18,no,white,no,yes,768,legacy,6,6,C:/Users/Sarah Linan/Desktop/SL-subject-4.csv,legacy,Kafkaesque Koffka,3.2.8,0,h,NA,h,NA,NA,h,527,NA,138120,NA,NA,527,2,legacy,1024,2,48000,-16,experiment,HHHHH,4,even,152005,140013,NA,NA,141836,1884,NA,NA,153101,1892,NA,NA,153204,153731,153098,153204,Flanker task SL,6,5215,7,yes,1024
87.5,87.5,713.875,713.875,black,legacy,legacy,legacy,0,congruent,uniform,1,undefined,1,h,7,0,0,0,7,0,7,0,7,0,0,0,7,7,7,7,9/26/19 17:50,1500,The main experiment item,yes,FlankertaskSL.osexp,C:/Users/Sarah Linan/Desktop,no,mono,no,18,no,white,no,yes,768,legacy,7,7,C:/Users/Sarah Linan/Desktop/SL-subject-4.csv,legacy,Kafkaesque Koffka,3.2.8,0,h,NA,h,NA,NA,h,496,NA,138120,NA,NA,496,2,legacy,1024,2,48000,-16,experiment,HHHHH,4,even,153824,140013,NA,NA,141836,1884,NA,NA,154920,1892,NA,NA,155022,155518,154917,155022,Flanker task SL,7,5711,8,yes,1024
88.88888889,88.88888889,701.7777778,701.7777778,black,legacy,legacy,legacy,0,incongruent ,uniform,1,undefined,1,s,8,0,0,0,8,0,8,0,8,0,0,0,8,8,8,8,9/26/19 17:50,1500,The main experiment item,yes,FlankertaskSL.osexp,C:/Users/Sarah Linan/Desktop,no,mono,no,18,no,white,no,yes,768,legacy,8,8,C:/Users/Sarah Linan/Desktop/SL-subject-4.csv,legacy,Kafkaesque Koffka,3.2.8,0,s,NA,h,NA,NA,s,605,NA,138120,NA,NA,605,2,legacy,1024,2,48000,-16,experiment,HHSHH,4,even,155611,140013,NA,NA,141836,1884,NA,NA,156713,1892,NA,NA,156816,157422,156710,156815,Flanker task SL,8,6316,9,yes,1024
90,90,705.4,705.4,black,legacy,legacy,legacy,0,incongruent,uniform,1,undefined,1,h,9,0,0,0,9,0,9,0,9,0,0,0,9,9,9,9,9/26/19 17:50,1500,The main experiment item,yes,FlankertaskSL.osexp,C:/Users/Sarah Linan/Desktop,no,mono,no,18,no,white,no,yes,768,legacy,9,9,C:/Users/Sarah Linan/Desktop/SL-subject-4.csv,legacy,Kafkaesque Koffka,3.2.8,0,h,NA,h,NA,NA,h,738,NA,138120,NA,NA,738,2,legacy,1024,2,48000,-16,experiment,SSHSS,4,even,157508,140013,NA,NA,141836,1884,NA,NA,158605,1892,NA,NA,158707,159445,158602,158706,Flanker task SL,9,7054,10,yes,1024
90.90909091,90.90909091,697.7272727,697.7272727,black,legacy,legacy,legacy,0,congruent,uniform,1,undefined,1,h,10,0,0,0,10,0,10,0,10,0,0,0,10,10,10,10,9/26/19 17:50,1500,The main experiment item,yes,FlankertaskSL.osexp,C:/Users/Sarah Linan/Desktop,no,mono,no,18,no,white,no,yes,768,legacy,10,10,C:/Users/Sarah Linan/Desktop/SL-subject-4.csv,legacy,Kafkaesque Koffka,3.2.8,0,h,NA,h,NA,NA,h,621,NA,138120,NA,NA,621,2,legacy,1024,2,48000,-16,experiment,HHHHH,4,even,159539,140013,NA,NA,141836,1884,NA,NA,160634,1892,NA,NA,160736,161358,160631,160736,Flanker task SL,10,7675,11,yes,1024
91.66666667,91.66666667,680.5833333,680.5833333,black,legacy,legacy,legacy,0,congruent,uniform,1,undefined,1,s,11,0,0,0,11,0,11,0,11,0,0,0,11,11,11,11,9/26/19 17:50,1500,The main experiment item,yes,FlankertaskSL.osexp,C:/Users/Sarah Linan/Desktop,no,mono,no,18,no,white,no,yes,768,legacy,11,11,C:/Users/Sarah Linan/Desktop/SL-subject-4.csv,legacy,Kafkaesque Koffka,3.2.8,0,s,NA,h,NA,NA,s,492,NA,138120,NA,NA,492,2,legacy,1024,2,48000,-16,experiment,SSSSS,4,even,161448,140013,NA,NA,141836,1884,NA,NA,162550,1892,NA,NA,162653,163145,162547,162653,Flanker task SL,11,8167,12,yes,1024
92.30769231,92.30769231,672,672,black,legacy,legacy,legacy,0,incongruent ,uniform,1,undefined,1,s,12,0,0,0,12,0,12,0,12,0,0,0,12,12,12,12,9/26/19 17:50,1500,The main experiment item,yes,FlankertaskSL.osexp,C:/Users/Sarah Linan/Desktop,no,mono,no,18,no,white,no,yes,768,legacy,12,12,C:/Users/Sarah Linan/Desktop/SL-subject-4.csv,legacy,Kafkaesque Koffka,3.2.8,0,s,NA,h,NA,NA,s,569,NA,138120,NA,NA,569,2,legacy,1024,2,48000,-16,experiment,HHSHH,4,even,163251,140013,NA,NA,141836,1884,NA,NA,164345,1892,NA,NA,164447,165016,164342,164447,Flanker task SL,12,8736,13,yes,1024
92.85714286,92.85714286,661,661,black,legacy,legacy,legacy,0,incongruent ,uniform,1,undefined,1,s,13,0,0,0,13,0,13,0,13,0,0,0,13,13,13,13,9/26/19 17:50,1500,The main experiment item,yes,FlankertaskSL.osexp,C:/Users/Sarah Linan/Desktop,no,mono,no,18,no,white,no,yes,768,legacy,13,13,C:/Users/Sarah Linan/Desktop/SL-subject-4.csv,legacy,Kafkaesque Koffka,3.2.8,0,s,NA,h,NA,NA,s,518,NA,138120,NA,NA,518,2,legacy,1024,2,48000,-16,experiment,HHSHH,4,even,165057,140013,NA,NA,141836,1884,NA,NA,166164,1892,NA,NA,166266,166785,166161,166266,Flanker task SL,13,9254,14,yes,1024
93.33333333,93.33333333,652.2666667,652.2666667,black,legacy,legacy,legacy,0,incongruent,uniform,1,undefined,1,h,14,0,0,0,14,0,14,0,14,0,0,0,14,14,14,14,9/26/19 17:50,1500,The main experiment item,yes,FlankertaskSL.osexp,C:/Users/Sarah Linan/Desktop,no,mono,no,18,no,white,no,yes,768,legacy,14,14,C:/Users/Sarah Linan/Desktop/SL-subject-4.csv,legacy,Kafkaesque Koffka,3.2.8,0,h,NA,h,NA,NA,h,530,NA,138120,NA,NA,530,2,legacy,1024,2,48000,-16,experiment,SSHSS,4,even,166873,140013,NA,NA,141836,1884,NA,NA,167966,1892,NA,NA,168068,168598,167962,168068,Flanker task SL,14,9784,15,yes,1024
93.75,93.75,649.1875,649.1875,black,legacy,legacy,legacy,0,congruent,uniform,1,undefined,1,h,15,0,0,0,15,0,15,0,15,0,0,0,15,15,15,15,9/26/19 17:50,1500,The main experiment item,yes,FlankertaskSL.osexp,C:/Users/Sarah Linan/Desktop,no,mono,no,18,no,white,no,yes,768,legacy,15,15,C:/Users/Sarah Linan/Desktop/SL-subject-4.csv,legacy,Kafkaesque Koffka,3.2.8,0,h,NA,h,NA,NA,h,603,NA,138120,NA,NA,603,2,legacy,1024,2,48000,-16,experiment,HHHHH,4,even,168692,140013,NA,NA,141836,1884,NA,NA,169784,1892,NA,NA,169887,170491,169781,169887,Flanker task SL,15,10387,16,yes,1024
94.11764706,94.11764706,641.6470588,641.6470588,black,legacy,legacy,legacy,0,congruent,uniform,1,undefined,1,s,16,0,0,0,16,0,16,0,16,0,0,0,16,16,16,16,9/26/19 17:50,1500,The main experiment item,yes,FlankertaskSL.osexp,C:/Users/Sarah Linan/Desktop,no,mono,no,18,no,white,no,yes,768,legacy,16,16,C:/Users/Sarah Linan/Desktop/SL-subject-4.csv,legacy,Kafkaesque Koffka,3.2.8,0,s,NA,h,NA,NA,s,521,NA,138120,NA,NA,521,2,legacy,1024,2,48000,-16,experiment,SSSSS,4,even,170579,140013,NA,NA,141836,1884,NA,NA,171669,1892,NA,NA,171771,172293,171666,171771,Flanker task SL,16,10908,17,yes,1024
94.44444444,94.44444444,633.9444444,633.9444444,black,legacy,legacy,legacy,0,incongruent ,uniform,1,undefined,1,s,17,0,0,0,17,0,17,0,17,0,0,0,17,17,17,17,9/26/19 17:50,1500,The main experiment item,yes,FlankertaskSL.osexp,C:/Users/Sarah Linan/Desktop,no,mono,no,18,no,white,no,yes,768,legacy,17,17,C:/Users/Sarah Linan/Desktop/SL-subject-4.csv,legacy,Kafkaesque Koffka,3.2.8,0,s,NA,h,NA,NA,s,503,NA,138120,NA,NA,503,2,legacy,1024,2,48000,-16,experiment,HHSHH,4,even,172388,140013,NA,NA,141836,1884,NA,NA,173481,1892,NA,NA,173583,174087,173477,173583,Flanker task SL,17,11411,18,yes,1024
94.73684211,94.73684211,628.8947368,628.8947368,black,legacy,legacy,legacy,0,incongruent ,uniform,1,undefined,1,s,18,0,0,0,18,0,18,0,18,0,0,0,18,18,18,18,9/26/19 17:50,1500,The main experiment item,yes,FlankertaskSL.osexp,C:/Users/Sarah Linan/Desktop,no,mono,no,18,no,white,no,yes,768,legacy,18,18,C:/Users/Sarah Linan/Desktop/SL-subject-4.csv,legacy,Kafkaesque Koffka,3.2.8,0,s,NA,h,NA,NA,s,538,NA,138120,NA,NA,538,2,legacy,1024,2,48000,-16,experiment,HHSHH,4,even,174173,140013,NA,NA,141836,1884,NA,NA,175278,1892,NA,NA,175380,175918,175274,175380,Flanker task SL,18,11949,19,yes,1024
95,95,625.2,625.2,black,legacy,legacy,legacy,0,incongruent ,uniform,1,undefined,1,s,19,0,0,0,19,0,19,0,19,0,0,0,19,19,19,19,9/26/19 17:50,1500,The main experiment item,yes,FlankertaskSL.osexp,C:/Users/Sarah Linan/Desktop,no,mono,no,18,no,white,no,yes,768,legacy,19,19,C:/Users/Sarah Linan/Desktop/SL-subject-4.csv,legacy,Kafkaesque Koffka,3.2.8,0,s,NA,h,NA,NA,s,555,NA,138120,NA,NA,555,2,legacy,1024,2,48000,-16,experiment,HHSHH,4,even,176004,140013,NA,NA,141836,1884,NA,NA,177112,1892,NA,NA,177214,177769,177110,177214,Flanker task SL,19,12504,20,yes,1024
90.47619048,90.47619048,624.0952381,624.0952381,black,legacy,legacy,legacy,0,incongruent ,uniform,0,undefined,0,s,20,0,0,0,20,0,20,0,20,0,0,0,20,20,20,20,9/26/19 17:50,1500,The main experiment item,yes,FlankertaskSL.osexp,C:/Users/Sarah Linan/Desktop,no,mono,no,18,no,white,no,yes,768,legacy,20,20,C:/Users/Sarah Linan/Desktop/SL-subject-4.csv,legacy,Kafkaesque Koffka,3.2.8,0,h,NA,h,NA,NA,h,602,NA,138120,NA,NA,602,2,legacy,1024,2,48000,-16,experiment,HHSHH,4,even,177869,140013,NA,NA,141836,1884,NA,NA,178975,1892,NA,NA,179077,179680,178971,179077,Flanker task SL,19,13106,21,yes,1024
90.90909091,90.90909091,627.2727273,627.2727273,black,legacy,legacy,legacy,0,incongruent,uniform,1,undefined,1,h,21,0,0,0,21,0,21,0,21,0,0,0,21,21,21,21,9/26/19 17:50,1500,The main experiment item,yes,FlankertaskSL.osexp,C:/Users/Sarah Linan/Desktop,no,mono,no,18,no,white,no,yes,768,legacy,21,21,C:/Users/Sarah Linan/Desktop/SL-subject-4.csv,legacy,Kafkaesque Koffka,3.2.8,0,h,NA,h,NA,NA,h,694,NA,138120,NA,NA,694,2,legacy,1024,2,48000,-16,experiment,SSHSS,4,even,180267,140013,NA,NA,179764,1884,NA,NA,181357,1892,NA,NA,181461,182155,181354,181460,Flanker task SL,20,13800,22,yes,1024
91.30434783,91.30434783,628.3043478,628.3043478,black,legacy,legacy,legacy,0,congruent,uniform,1,undefined,1,h,22,0,0,0,22,0,22,0,22,0,0,0,22,22,22,22,9/26/19 17:50,1500,The main experiment item,yes,FlankertaskSL.osexp,C:/Users/Sarah Linan/Desktop,no,mono,no,18,no,white,no,yes,768,legacy,22,22,C:/Users/Sarah Linan/Desktop/SL-subject-4.csv,legacy,Kafkaesque Koffka,3.2.8,0,h,NA,h,NA,NA,h,651,NA,138120,NA,NA,651,2,legacy,1024,2,48000,-16,experiment,HHHHH,4,even,182250,140013,NA,NA,179764,1884,NA,NA,183353,1892,NA,NA,183456,184109,183350,183456,Flanker task SL,21,14451,23,yes,1024
91.66666667,91.66666667,628.125,628.125,black,legacy,legacy,legacy,0,congruent,uniform,1,undefined,1,h,23,0,0,0,23,0,23,0,23,0,0,0,23,23,23,23,9/26/19 17:50,1500,The main experiment item,yes,FlankertaskSL.osexp,C:/Users/Sarah Linan/Desktop,no,mono,no,18,no,white,no,yes,768,legacy,23,23,C:/Users/Sarah Linan/Desktop/SL-subject-4.csv,legacy,Kafkaesque Koffka,3.2.8,0,h,NA,h,NA,NA,h,624,NA,138120,NA,NA,624,2,legacy,1024,2,48000,-16,experiment,HHHHH,4,even,184158,140013,NA,NA,179764,1884,NA,NA,185252,1892,NA,NA,185354,185979,185249,185354,Flanker task SL,22,15075,24,yes,1024
92,92,640.2,640.2,black,legacy,legacy,legacy,0,incongruent,uniform,1,undefined,1,h,24,0,0,0,24,0,24,0,24,0,0,0,24,24,24,24,9/26/19 17:50,1500,The main experiment item,yes,FlankertaskSL.osexp,C:/Users/Sarah Linan/Desktop,no,mono,no,18,no,white,no,yes,768,legacy,24,24,C:/Users/Sarah Linan/Desktop/SL-subject-4.csv,legacy,Kafkaesque Koffka,3.2.8,0,h,NA,h,NA,NA,h,930,NA,138120,NA,NA,930,2,legacy,1024,2,48000,-16,experiment,SSHSS,4,even,186066,140013,NA,NA,179764,1884,NA,NA,187163,1892,NA,NA,187265,188195,187159,187265,Flanker task SL,23,16005,25,yes,1024
92.30769231,92.30769231,636.9230769,636.9230769,black,legacy,legacy,legacy,0,incongruent ,uniform,1,undefined,1,s,25,0,0,0,25,0,25,0,25,0,0,0,25,25,25,25,9/26/19 17:50,1500,The main experiment item,yes,FlankertaskSL.osexp,C:/Users/Sarah Linan/Desktop,no,mono,no,18,no,white,no,yes,768,legacy,25,25,C:/Users/Sarah Linan/Desktop/SL-subject-4.csv,legacy,Kafkaesque Koffka,3.2.8,0,s,NA,h,NA,NA,s,555,NA,138120,NA,NA,555,2,legacy,1024,2,48000,-16,experiment,HHSHH,4,even,188286,140013,NA,NA,179764,1884,NA,NA,189380,1892,NA,NA,189482,190038,189377,189482,Flanker task SL,24,16560,26,yes,1024
92.59259259,92.59259259,633.2592593,633.2592593,black,legacy,legacy,legacy,0,congruent,uniform,1,undefined,1,s,26,0,0,0,26,0,26,0,26,0,0,0,26,26,26,26,9/26/19 17:50,1500,The main experiment item,yes,FlankertaskSL.osexp,C:/Users/Sarah Linan/Desktop,no,mono,no,18,no,white,no,yes,768,legacy,26,26,C:/Users/Sarah Linan/Desktop/SL-subject-4.csv,legacy,Kafkaesque Koffka,3.2.8,0,s,NA,h,NA,NA,s,538,NA,138120,NA,NA,538,2,legacy,1024,2,48000,-16,experiment,SSSSS,4,even,190126,140013,NA,NA,179764,1884,NA,NA,191229,1892,NA,NA,191331,191869,191225,191331,Flanker task SL,25,17098,27,yes,1024
92.85714286,92.85714286,630.9642857,630.9642857,black,legacy,legacy,legacy,0,congruent,uniform,1,undefined,1,s,27,0,0,0,27,0,27,0,27,0,0,0,27,27,27,27,9/26/19 17:50,1500,The main experiment item,yes,FlankertaskSL.osexp,C:/Users/Sarah Linan/Desktop,no,mono,no,18,no,white,no,yes,768,legacy,27,27,C:/Users/Sarah Linan/Desktop/SL-subject-4.csv,legacy,Kafkaesque Koffka,3.2.8,0,s,NA,h,NA,NA,s,569,NA,138120,NA,NA,569,2,legacy,1024,2,48000,-16,experiment,SSSSS,4,even,191958,140013,NA,NA,179764,1884,NA,NA,193057,1892,NA,NA,193160,193730,193054,193159,Flanker task SL,26,17667,28,yes,1024
93.10344828,93.10344828,630.2758621,630.2758621,black,legacy,legacy,legacy,0,congruent,uniform,1,undefined,1,s,28,0,0,0,28,0,28,0,28,0,0,0,28,28,28,28,9/26/19 17:50,1500,The main experiment item,yes,FlankertaskSL.osexp,C:/Users/Sarah Linan/Desktop,no,mono,no,18,no,white,no,yes,768,legacy,28,28,C:/Users/Sarah Linan/Desktop/SL-subject-4.csv,legacy,Kafkaesque Koffka,3.2.8,0,s,NA,h,NA,NA,s,611,NA,138120,NA,NA,611,2,legacy,1024,2,48000,-16,experiment,SSSSS,4,even,193822,140013,NA,NA,179764,1884,NA,NA,194925,1892,NA,NA,195028,195640,194922,195028,Flanker task SL,27,18278,29,yes,1024
93.33333333,93.33333333,630.5333333,630.5333333,black,legacy,legacy,legacy,0,congruent,uniform,1,undefined,1,h,29,0,0,0,29,0,29,0,29,0,0,0,29,29,29,29,9/26/19 17:50,1500,The main experiment item,yes,FlankertaskSL.osexp,C:/Users/Sarah Linan/Desktop,no,mono,no,18,no,white,no,yes,768,legacy,29,29,C:/Users/Sarah Linan/Desktop/SL-subject-4.csv,legacy,Kafkaesque Koffka,3.2.8,0,h,NA,h,NA,NA,h,638,NA,138120,NA,NA,638,2,legacy,1024,2,48000,-16,experiment,HHHHH,4,even,195731,140013,NA,NA,179764,1884,NA,NA,196820,1892,NA,NA,196923,197562,196817,196923,Flanker task SL,28,18916,30,yes,1024
93.5483871,93.5483871,632.1935484,632.1935484,black,legacy,legacy,legacy,0,incongruent,uniform,1,undefined,1,h,30,0,0,0,30,0,30,0,30,0,0,0,30,30,30,30,9/26/19 17:50,1500,The main experiment item,yes,FlankertaskSL.osexp,C:/Users/Sarah Linan/Desktop,no,mono,no,18,no,white,no,yes,768,legacy,30,30,C:/Users/Sarah Linan/Desktop/SL-subject-4.csv,legacy,Kafkaesque Koffka,3.2.8,0,h,NA,h,NA,NA,h,682,NA,138120,NA,NA,682,2,legacy,1024,2,48000,-16,experiment,SSHSS,4,even,197600,140013,NA,NA,179764,1884,NA,NA,198697,1892,NA,NA,198799,199481,198694,198799,Flanker task SL,29,19598,31,yes,1024
93.75,93.75,628.34375,628.34375,black,legacy,legacy,legacy,0,incongruent ,uniform,1,undefined,1,s,31,0,0,0,31,0,31,0,31,0,0,0,31,31,31,31,9/26/19 17:50,1500,The main experiment item,yes,FlankertaskSL.osexp,C:/Users/Sarah Linan/Desktop,no,mono,no,18,no,white,no,yes,768,legacy,31,31,C:/Users/Sarah Linan/Desktop/SL-subject-4.csv,legacy,Kafkaesque Koffka,3.2.8,0,s,NA,h,NA,NA,s,509,NA,138120,NA,NA,509,2,legacy,1024,2,48000,-16,experiment,HHSHH,4,even,199512,140013,NA,NA,179764,1884,NA,NA,200621,1892,NA,NA,200725,201234,200618,200725,Flanker task SL,30,20107,32,yes,1024
93.93939394,93.93939394,626.3636364,626.3636364,black,legacy,legacy,legacy,0,congruent,uniform,1,undefined,1,h,32,0,0,0,32,0,32,0,32,0,0,0,32,32,32,32,9/26/19 17:50,1500,The main experiment item,yes,FlankertaskSL.osexp,C:/Users/Sarah Linan/Desktop,no,mono,no,18,no,white,no,yes,768,legacy,32,32,C:/Users/Sarah Linan/Desktop/SL-subject-4.csv,legacy,Kafkaesque Koffka,3.2.8,0,h,NA,h,NA,NA,h,563,NA,138120,NA,NA,563,2,legacy,1024,2,48000,-16,experiment,HHHHH,4,even,201322,140013,NA,NA,179764,1884,NA,NA,202422,1892,NA,NA,202524,203087,202419,202524,Flanker task SL,31,20670,33,yes,1024
94.11764706,94.11764706,627.5,627.5,black,legacy,legacy,legacy,0,congruent,uniform,1,undefined,1,s,33,0,0,0,33,0,33,0,33,0,0,0,33,33,33,33,9/26/19 17:50,1500,The main experiment item,yes,FlankertaskSL.osexp,C:/Users/Sarah Linan/Desktop,no,mono,no,18,no,white,no,yes,768,legacy,33,33,C:/Users/Sarah Linan/Desktop/SL-subject-4.csv,legacy,Kafkaesque Koffka,3.2.8,0,s,NA,h,NA,NA,s,665,NA,138120,NA,NA,665,2,legacy,1024,2,48000,-16,experiment,SSSSS,4,even,203175,140013,NA,NA,179764,1884,NA,NA,204275,1892,NA,NA,204378,205044,204271,204378,Flanker task SL,32,21335,34,yes,1024
94.28571429,94.28571429,626.8,626.8,black,legacy,legacy,legacy,0,congruent,uniform,1,undefined,1,h,34,0,0,0,34,0,34,0,34,0,0,0,34,34,34,34,9/26/19 17:50,1500,The main experiment item,yes,FlankertaskSL.osexp,C:/Users/Sarah Linan/Desktop,no,mono,no,18,no,white,no,yes,768,legacy,34,34,C:/Users/Sarah Linan/Desktop/SL-subject-4.csv,legacy,Kafkaesque Koffka,3.2.8,0,h,NA,h,NA,NA,h,603,NA,138120,NA,NA,603,2,legacy,1024,2,48000,-16,experiment,HHHHH,4,even,205139,140013,NA,NA,179764,1884,NA,NA,206239,1892,NA,NA,206342,206946,206237,206342,Flanker task SL,33,21938,35,yes,1024
94.44444444,94.44444444,625.7777778,625.7777778,black,legacy,legacy,legacy,0,incongruent,uniform,1,undefined,1,h,35,0,0,0,35,0,35,0,35,0,0,0,35,35,35,35,9/26/19 17:50,1500,The main experiment item,yes,FlankertaskSL.osexp,C:/Users/Sarah Linan/Desktop,no,mono,no,18,no,white,no,yes,768,legacy,35,35,C:/Users/Sarah Linan/Desktop/SL-subject-4.csv,legacy,Kafkaesque Koffka,3.2.8,0,h,NA,h,NA,NA,h,590,NA,138120,NA,NA,590,2,legacy,1024,2,48000,-16,experiment,SSHSS,4,even,207037,140013,NA,NA,179764,1884,NA,NA,208136,1892,NA,NA,208239,208829,208133,208239,Flanker task SL,34,22528,36,yes,1024
94.59459459,94.59459459,622.6486486,622.6486486,black,legacy,legacy,legacy,0,congruent,uniform,1,undefined,1,s,36,0,0,0,36,0,36,0,36,0,0,0,36,36,36,36,9/26/19 17:50,1500,The main experiment item,yes,FlankertaskSL.osexp,C:/Users/Sarah Linan/Desktop,no,mono,no,18,no,white,no,yes,768,legacy,36,36,C:/Users/Sarah Linan/Desktop/SL-subject-4.csv,legacy,Kafkaesque Koffka,3.2.8,0,s,NA,h,NA,NA,s,510,NA,138120,NA,NA,510,2,legacy,1024,2,48000,-16,experiment,SSSSS,4,even,208923,140013,NA,NA,179764,1884,NA,NA,210022,1892,NA,NA,210125,210636,210019,210125,Flanker task SL,35,23038,37,yes,1024
94.73684211,94.73684211,619.8421053,619.8421053,black,legacy,legacy,legacy,0,congruent,uniform,1,undefined,1,h,37,0,0,0,37,0,37,0,37,0,0,0,37,37,37,37,9/26/19 17:50,1500,The main experiment item,yes,FlankertaskSL.osexp,C:/Users/Sarah Linan/Desktop,no,mono,no,18,no,white,no,yes,768,legacy,37,37,C:/Users/Sarah Linan/Desktop/SL-subject-4.csv,legacy,Kafkaesque Koffka,3.2.8,0,h,NA,h,NA,NA,h,516,NA,138120,NA,NA,516,2,legacy,1024,2,48000,-16,experiment,HHHHH,4,even,210731,140013,NA,NA,179764,1884,NA,NA,211826,1892,NA,NA,211929,212445,211824,211928,Flanker task SL,36,23554,38,yes,1024
94.87179487,94.87179487,616.3333333,616.3333333,black,legacy,legacy,legacy,0,incongruent ,uniform,1,undefined,1,s,38,0,0,0,38,0,38,0,38,0,0,0,38,38,38,38,9/26/19 17:50,1500,The main experiment item,yes,FlankertaskSL.osexp,C:/Users/Sarah Linan/Desktop,no,mono,no,18,no,white,no,yes,768,legacy,38,38,C:/Users/Sarah Linan/Desktop/SL-subject-4.csv,legacy,Kafkaesque Koffka,3.2.8,0,s,NA,h,NA,NA,s,483,NA,138120,NA,NA,483,2,legacy,1024,2,48000,-16,experiment,HHSHH,4,even,212541,140013,NA,NA,179764,1884,NA,NA,213640,1892,NA,NA,213742,214225,213637,213742,Flanker task SL,37,24037,39,yes,1024
95,95,615.925,615.925,black,legacy,legacy,legacy,0,incongruent,uniform,1,undefined,1,h,39,0,0,0,39,0,39,0,39,0,0,0,39,39,39,39,9/26/19 17:50,1500,The main experiment item,yes,FlankertaskSL.osexp,C:/Users/Sarah Linan/Desktop,no,mono,no,18,no,white,no,yes,768,legacy,39,39,C:/Users/Sarah Linan/Desktop/SL-subject-4.csv,legacy,Kafkaesque Koffka,3.2.8,0,h,NA,h,NA,NA,h,600,NA,138120,NA,NA,600,2,legacy,1024,2,48000,-16,experiment,SSHSS,4,even,214315,140013,NA,NA,179764,1884,NA,NA,215412,1892,NA,NA,215516,216117,215410,215516,Flanker task SL,38,24637,40,yes,1024
95.12195122,95.12195122,617.0487805,617.0487805,black,legacy,legacy,legacy,0,congruent,uniform,1,undefined,1,h,40,0,0,0,40,0,40,0,40,0,0,0,40,40,40,40,9/26/19 17:50,1500,The main experiment item,yes,FlankertaskSL.osexp,C:/Users/Sarah Linan/Desktop,no,mono,no,18,no,white,no,yes,768,legacy,40,40,C:/Users/Sarah Linan/Desktop/SL-subject-4.csv,legacy,Kafkaesque Koffka,3.2.8,0,h,NA,h,NA,NA,h,662,NA,138120,NA,NA,662,2,legacy,1024,2,48000,-16,experiment,HHHHH,4,even,216212,140013,NA,NA,179764,1884,NA,NA,217317,1892,NA,NA,217419,218081,217313,217419,Flanker task SL,39,25299,41,yes,1024
95.23809524,95.23809524,618.3571429,618.3571429,black,legacy,legacy,legacy,0,incongruent,uniform,1,undefined,1,h,41,0,0,0,41,0,41,0,41,0,0,0,41,41,41,41,9/26/19 17:50,1500,The main experiment item,yes,FlankertaskSL.osexp,C:/Users/Sarah Linan/Desktop,no,mono,no,18,no,white,no,yes,768,legacy,41,41,C:/Users/Sarah Linan/Desktop/SL-subject-4.csv,legacy,Kafkaesque Koffka,3.2.8,0,h,NA,h,NA,NA,h,672,NA,138120,NA,NA,672,2,legacy,1024,2,48000,-16,experiment,SSHSS,4,even,218176,140013,NA,NA,179764,1884,NA,NA,219269,1892,NA,NA,219372,220045,219265,219372,Flanker task SL,40,25971,42,yes,1024
95.34883721,95.34883721,617.4651163,617.4651163,black,legacy,legacy,legacy,0,incongruent,uniform,1,undefined,1,h,42,0,0,0,42,0,42,0,42,0,0,0,42,42,42,42,9/26/19 17:50,1500,The main experiment item,yes,FlankertaskSL.osexp,C:/Users/Sarah Linan/Desktop,no,mono,no,18,no,white,no,yes,768,legacy,42,42,C:/Users/Sarah Linan/Desktop/SL-subject-4.csv,legacy,Kafkaesque Koffka,3.2.8,0,h,NA,h,NA,NA,h,580,NA,138120,NA,NA,580,2,legacy,1024,2,48000,-16,experiment,SSHSS,4,even,220140,140013,NA,NA,179764,1884,NA,NA,221241,1892,NA,NA,221343,221924,221238,221343,Flanker task SL,41,26551,43,yes,1024
95.45454545,95.45454545,616.0681818,616.0681818,black,legacy,legacy,legacy,0,congruent,uniform,1,undefined,1,h,43,0,0,0,43,0,43,0,43,0,0,0,43,43,43,43,9/26/19 17:50,1500,The main experiment item,yes,FlankertaskSL.osexp,C:/Users/Sarah Linan/Desktop,no,mono,no,18,no,white,no,yes,768,legacy,43,43,C:/Users/Sarah Linan/Desktop/SL-subject-4.csv,legacy,Kafkaesque Koffka,3.2.8,0,h,NA,h,NA,NA,h,556,NA,138120,NA,NA,556,2,legacy,1024,2,48000,-16,experiment,HHHHH,4,even,222015,140013,NA,NA,179764,1884,NA,NA,223114,1892,NA,NA,223216,223773,223111,223216,Flanker task SL,42,27107,44,yes,1024
95.55555556,95.55555556,613.6444444,613.6444444,black,legacy,legacy,legacy,0,congruent,uniform,1,undefined,1,h,44,0,0,0,44,0,44,0,44,0,0,0,44,44,44,44,9/26/19 17:50,1500,The main experiment item,yes,FlankertaskSL.osexp,C:/Users/Sarah Linan/Desktop,no,mono,no,18,no,white,no,yes,768,legacy,44,44,C:/Users/Sarah Linan/Desktop/SL-subject-4.csv,legacy,Kafkaesque Koffka,3.2.8,0,h,NA,h,NA,NA,h,507,NA,138120,NA,NA,507,2,legacy,1024,2,48000,-16,experiment,HHHHH,4,even,223867,140013,NA,NA,179764,1884,NA,NA,224963,1892,NA,NA,225066,225574,224960,225066,Flanker task SL,43,27614,45,yes,1024
95.65217391,95.65217391,611.8043478,611.8043478,black,legacy,legacy,legacy,0,congruent,uniform,1,undefined,1,h,45,0,0,0,45,0,45,0,45,0,0,0,45,45,45,45,9/26/19 17:50,1500,The main experiment item,yes,FlankertaskSL.osexp,C:/Users/Sarah Linan/Desktop,no,mono,no,18,no,white,no,yes,768,legacy,45,45,C:/Users/Sarah Linan/Desktop/SL-subject-4.csv,legacy,Kafkaesque Koffka,3.2.8,0,h,NA,h,NA,NA,h,529,NA,138120,NA,NA,529,2,legacy,1024,2,48000,-16,experiment,HHHHH,4,even,225665,140013,NA,NA,179764,1884,NA,NA,226765,1892,NA,NA,226868,227398,226762,226868,Flanker task SL,44,28143,46,yes,1024
95.74468085,95.74468085,609.8723404,609.8723404,black,legacy,legacy,legacy,0,incongruent ,uniform,1,undefined,1,s,46,0,0,0,46,0,46,0,46,0,0,0,46,46,46,46,9/26/19 17:50,1500,The main experiment item,yes,FlankertaskSL.osexp,C:/Users/Sarah Linan/Desktop,no,mono,no,18,no,white,no,yes,768,legacy,46,46,C:/Users/Sarah Linan/Desktop/SL-subject-4.csv,legacy,Kafkaesque Koffka,3.2.8,0,s,NA,h,NA,NA,s,521,NA,138120,NA,NA,521,2,legacy,1024,2,48000,-16,experiment,HHSHH,4,even,227486,140013,NA,NA,179764,1884,NA,NA,228588,1892,NA,NA,228691,229213,228585,228691,Flanker task SL,45,28664,47,yes,1024
95.83333333,95.83333333,609.1458333,609.1458333,black,legacy,legacy,legacy,0,incongruent,uniform,1,undefined,1,h,47,0,0,0,47,0,47,0,47,0,0,0,47,47,47,47,9/26/19 17:50,1500,The main experiment item,yes,FlankertaskSL.osexp,C:/Users/Sarah Linan/Desktop,no,mono,no,18,no,white,no,yes,768,legacy,47,47,C:/Users/Sarah Linan/Desktop/SL-subject-4.csv,legacy,Kafkaesque Koffka,3.2.8,0,h,NA,h,NA,NA,h,575,NA,138120,NA,NA,575,2,legacy,1024,2,48000,-16,experiment,SSHSS,4,even,229304,140013,NA,NA,179764,1884,NA,NA,230398,1892,NA,NA,230500,231076,230395,230500,Flanker task SL,46,29239,48,yes,1024
95.91836735,95.91836735,608.8979592,608.8979592,black,legacy,legacy,legacy,0,incongruent ,uniform,1,undefined,1,s,48,0,0,0,48,0,48,0,48,0,0,0,48,48,48,48,9/26/19 17:50,1500,The main experiment item,yes,FlankertaskSL.osexp,C:/Users/Sarah Linan/Desktop,no,mono,no,18,no,white,no,yes,768,legacy,48,48,C:/Users/Sarah Linan/Desktop/SL-subject-4.csv,legacy,Kafkaesque Koffka,3.2.8,0,s,NA,h,NA,NA,s,597,NA,138120,NA,NA,597,2,legacy,1024,2,48000,-16,experiment,HHSHH,4,even,231123,140013,NA,NA,179764,1884,NA,NA,232224,1892,NA,NA,232327,232924,232221,232327,Flanker task SL,47,29836,49,yes,1024
96,96,607.08,607.08,black,legacy,legacy,legacy,0,congruent,uniform,1,undefined,1,h,49,0,0,0,49,0,49,0,49,0,0,0,49,49,49,49,9/26/19 17:50,1500,The main experiment item,yes,FlankertaskSL.osexp,C:/Users/Sarah Linan/Desktop,no,mono,no,18,no,white,no,yes,768,legacy,49,49,C:/Users/Sarah Linan/Desktop/SL-subject-4.csv,legacy,Kafkaesque Koffka,3.2.8,0,h,NA,h,NA,NA,h,518,NA,138120,NA,NA,518,2,legacy,1024,2,48000,-16,experiment,HHHHH,4,even,232959,140013,NA,NA,179764,1884,NA,NA,234057,1892,NA,NA,234159,234678,234054,234159,Flanker task SL,48,30354,50,yes,1024
96.07843137,96.07843137,605.1568627,605.1568627,black,legacy,legacy,legacy,0,congruent,uniform,1,undefined,1,h,50,0,0,0,50,0,50,0,50,0,0,0,50,50,50,50,9/26/19 17:50,1500,The main experiment item,yes,FlankertaskSL.osexp,C:/Users/Sarah Linan/Desktop,no,mono,no,18,no,white,no,yes,768,legacy,50,50,C:/Users/Sarah Linan/Desktop/SL-subject-4.csv,legacy,Kafkaesque Koffka,3.2.8,0,h,NA,h,NA,NA,h,509,NA,138120,NA,NA,509,2,legacy,1024,2,48000,-16,experiment,HHHHH,4,even,234763,140013,NA,NA,179764,1884,NA,NA,235870,1892,NA,NA,235972,236482,235867,235972,Flanker task SL,49,30863,51,yes,1024
96.15384615,96.15384615,603.9423077,603.9423077,black,legacy,legacy,legacy,0,congruent,uniform,1,undefined,1,s,51,0,0,0,51,0,51,0,51,0,0,0,51,51,51,51,9/26/19 17:50,1500,The main experiment item,yes,FlankertaskSL.osexp,C:/Users/Sarah Linan/Desktop,no,mono,no,18,no,white,no,yes,768,legacy,51,51,C:/Users/Sarah Linan/Desktop/SL-subject-4.csv,legacy,Kafkaesque Koffka,3.2.8,0,s,NA,h,NA,NA,s,542,NA,138120,NA,NA,542,2,legacy,1024,2,48000,-16,experiment,SSSSS,4,even,236583,140013,NA,NA,179764,1884,NA,NA,237675,1892,NA,NA,237778,238321,237672,237778,Flanker task SL,50,31405,52,yes,1024
96.22641509,96.22641509,601.8113208,601.8113208,black,legacy,legacy,legacy,0,incongruent ,uniform,1,undefined,1,s,52,0,0,0,52,0,52,0,52,0,0,0,52,52,52,52,9/26/19 17:50,1500,The main experiment item,yes,FlankertaskSL.osexp,C:/Users/Sarah Linan/Desktop,no,mono,no,18,no,white,no,yes,768,legacy,52,52,C:/Users/Sarah Linan/Desktop/SL-subject-4.csv,legacy,Kafkaesque Koffka,3.2.8,0,s,NA,h,NA,NA,s,491,NA,138120,NA,NA,491,2,legacy,1024,2,48000,-16,experiment,HHSHH,4,even,238410,140013,NA,NA,179764,1884,NA,NA,239513,1892,NA,NA,239615,240107,239510,239615,Flanker task SL,51,31896,53,yes,1024
96.2962963,96.2962963,601.6481481,601.6481481,black,legacy,legacy,legacy,0,incongruent,uniform,1,undefined,1,h,53,0,0,0,53,0,53,0,53,0,0,0,53,53,53,53,9/26/19 17:50,1500,The main experiment item,yes,FlankertaskSL.osexp,C:/Users/Sarah Linan/Desktop,no,mono,no,18,no,white,no,yes,768,legacy,53,53,C:/Users/Sarah Linan/Desktop/SL-subject-4.csv,legacy,Kafkaesque Koffka,3.2.8,0,h,NA,h,NA,NA,h,593,NA,138120,NA,NA,593,2,legacy,1024,2,48000,-16,experiment,SSHSS,4,even,240151,140013,NA,NA,179764,1884,NA,NA,241253,1892,NA,NA,241356,241950,241249,241356,Flanker task SL,52,32489,54,yes,1024
96.36363636,96.36363636,600.7090909,600.7090909,black,legacy,legacy,legacy,0,congruent,uniform,1,undefined,1,h,54,0,0,0,54,0,54,0,54,0,0,0,54,54,54,54,9/26/19 17:50,1500,The main experiment item,yes,FlankertaskSL.osexp,C:/Users/Sarah Linan/Desktop,no,mono,no,18,no,white,no,yes,768,legacy,54,54,C:/Users/Sarah Linan/Desktop/SL-subject-4.csv,legacy,Kafkaesque Koffka,3.2.8,0,h,NA,h,NA,NA,h,550,NA,138120,NA,NA,550,2,legacy,1024,2,48000,-16,experiment,HHHHH,4,even,242039,140013,NA,NA,179764,1884,NA,NA,243144,1892,NA,NA,243246,243797,243141,243246,Flanker task SL,53,33039,55,yes,1024
96.42857143,96.42857143,600.2321429,600.2321429,black,legacy,legacy,legacy,0,incongruent,uniform,1,undefined,1,h,55,0,0,0,55,0,55,0,55,0,0,0,55,55,55,55,9/26/19 17:50,1500,The main experiment item,yes,FlankertaskSL.osexp,C:/Users/Sarah Linan/Desktop,no,mono,no,18,no,white,no,yes,768,legacy,55,55,C:/Users/Sarah Linan/Desktop/SL-subject-4.csv,legacy,Kafkaesque Koffka,3.2.8,0,h,NA,h,NA,NA,h,574,NA,138120,NA,NA,574,2,legacy,1024,2,48000,-16,experiment,SSHSS,4,even,243880,140013,NA,NA,179764,1884,NA,NA,244984,1892,NA,NA,245086,245661,244981,245086,Flanker task SL,54,33613,56,yes,1024
96.49122807,96.49122807,598.7192982,598.7192982,black,legacy,legacy,legacy,0,congruent,uniform,1,undefined,1,s,56,0,0,0,56,0,56,0,56,0,0,0,56,56,56,56,9/26/19 17:50,1500,The main experiment item,yes,FlankertaskSL.osexp,C:/Users/Sarah Linan/Desktop,no,mono,no,18,no,white,no,yes,768,legacy,56,56,C:/Users/Sarah Linan/Desktop/SL-subject-4.csv,legacy,Kafkaesque Koffka,3.2.8,0,s,NA,h,NA,NA,s,514,NA,138120,NA,NA,514,2,legacy,1024,2,48000,-16,experiment,SSSSS,4,even,245745,140013,NA,NA,179764,1884,NA,NA,246845,1892,NA,NA,246947,247462,246842,246947,Flanker task SL,55,34127,57,yes,1024
94.82758621,94.82758621,597.0689655,597.0689655,black,legacy,legacy,legacy,0,incongruent ,uniform,0,undefined,0,s,57,0,0,0,57,0,57,0,57,0,0,0,57,57,57,57,9/26/19 17:50,1500,The main experiment item,yes,FlankertaskSL.osexp,C:/Users/Sarah Linan/Desktop,no,mono,no,18,no,white,no,yes,768,legacy,57,57,C:/Users/Sarah Linan/Desktop/SL-subject-4.csv,legacy,Kafkaesque Koffka,3.2.8,0,h,NA,h,NA,NA,h,503,NA,138120,NA,NA,503,2,legacy,1024,2,48000,-16,experiment,HHSHH,4,even,247553,140013,NA,NA,179764,1884,NA,NA,248660,1892,NA,NA,248763,249267,248657,248763,Flanker task SL,55,34630,58,yes,1024
94.91525424,94.91525424,595.440678,595.440678,black,legacy,legacy,legacy,0,congruent,uniform,1,undefined,1,s,58,0,0,0,58,0,58,0,58,0,0,0,58,58,58,58,9/26/19 17:50,1500,The main experiment item,yes,FlankertaskSL.osexp,C:/Users/Sarah Linan/Desktop,no,mono,no,18,no,white,no,yes,768,legacy,58,58,C:/Users/Sarah Linan/Desktop/SL-subject-4.csv,legacy,Kafkaesque Koffka,3.2.8,0,s,NA,h,NA,NA,s,501,NA,138120,NA,NA,501,2,legacy,1024,2,48000,-16,experiment,SSSSS,4,even,249798,140013,NA,NA,249294,1884,NA,NA,250880,1892,NA,NA,250984,251486,250877,250983,Flanker task SL,56,35131,59,yes,1024
95,95,594.3666667,594.3666667,black,legacy,legacy,legacy,0,incongruent,uniform,1,undefined,1,h,59,0,0,0,59,0,59,0,59,0,0,0,59,59,59,59,9/26/19 17:50,1500,The main experiment item,yes,FlankertaskSL.osexp,C:/Users/Sarah Linan/Desktop,no,mono,no,18,no,white,no,yes,768,legacy,59,59,C:/Users/Sarah Linan/Desktop/SL-subject-4.csv,legacy,Kafkaesque Koffka,3.2.8,0,h,NA,h,NA,NA,h,531,NA,138120,NA,NA,531,2,legacy,1024,2,48000,-16,experiment,SSHSS,4,even,251570,140013,NA,NA,249294,1884,NA,NA,252671,1892,NA,NA,252773,253305,252668,252773,Flanker task SL,57,35662,60,yes,1024
95.08196721,95.08196721,592.1147541,592.1147541,black,legacy,legacy,legacy,0,congruent,uniform,1,undefined,1,s,60,0,0,0,60,0,60,0,60,0,0,0,60,60,60,60,9/26/19 17:50,1500,The main experiment item,yes,FlankertaskSL.osexp,C:/Users/Sarah Linan/Desktop,no,mono,no,18,no,white,no,yes,768,legacy,60,60,C:/Users/Sarah Linan/Desktop/SL-subject-4.csv,legacy,Kafkaesque Koffka,3.2.8,0,s,NA,h,NA,NA,s,457,NA,138120,NA,NA,457,2,legacy,1024,2,48000,-16,experiment,SSSSS,4,even,253389,140013,NA,NA,249294,1884,NA,NA,254487,1892,NA,NA,254590,255048,254484,254590,Flanker task SL,58,36119,61,yes,1024
95.16129032,95.16129032,591.5806452,591.5806452,black,legacy,legacy,legacy,0,congruent,uniform,1,undefined,1,s,61,0,0,0,61,0,61,0,61,0,0,0,61,61,61,61,9/26/19 17:50,1500,The main experiment item,yes,FlankertaskSL.osexp,C:/Users/Sarah Linan/Desktop,no,mono,no,18,no,white,no,yes,768,legacy,61,61,C:/Users/Sarah Linan/Desktop/SL-subject-4.csv,legacy,Kafkaesque Koffka,3.2.8,0,s,NA,h,NA,NA,s,559,NA,138120,NA,NA,559,2,legacy,1024,2,48000,-16,experiment,SSSSS,4,even,255074,140013,NA,NA,249294,1884,NA,NA,256180,1892,NA,NA,256283,256843,256177,256283,Flanker task SL,59,36678,62,yes,1024
95.23809524,95.23809524,591.6031746,591.6031746,black,legacy,legacy,legacy,0,incongruent,uniform,1,undefined,1,h,62,0,0,0,62,0,62,0,62,0,0,0,62,62,62,62,9/26/19 17:50,1500,The main experiment item,yes,FlankertaskSL.osexp,C:/Users/Sarah Linan/Desktop,no,mono,no,18,no,white,no,yes,768,legacy,62,62,C:/Users/Sarah Linan/Desktop/SL-subject-4.csv,legacy,Kafkaesque Koffka,3.2.8,0,h,NA,h,NA,NA,h,593,NA,138120,NA,NA,593,2,legacy,1024,2,48000,-16,experiment,SSHSS,4,even,256928,140013,NA,NA,249294,1884,NA,NA,258019,1892,NA,NA,258122,258715,258016,258122,Flanker task SL,60,37271,63,yes,1024
95.3125,95.3125,590.671875,590.671875,black,legacy,legacy,legacy,0,congruent,uniform,1,undefined,1,h,63,0,0,0,63,0,63,0,63,0,0,0,63,63,63,63,9/26/19 17:50,1500,The main experiment item,yes,FlankertaskSL.osexp,C:/Users/Sarah Linan/Desktop,no,mono,no,18,no,white,no,yes,768,legacy,63,63,C:/Users/Sarah Linan/Desktop/SL-subject-4.csv,legacy,Kafkaesque Koffka,3.2.8,0,h,NA,h,NA,NA,h,532,NA,138120,NA,NA,532,2,legacy,1024,2,48000,-16,experiment,HHHHH,4,even,258803,140013,NA,NA,249294,1884,NA,NA,259893,1892,NA,NA,259997,260530,259890,259996,Flanker task SL,61,37803,64,yes,1024
95.38461538,95.38461538,589.5692308,589.5692308,black,legacy,legacy,legacy,0,congruent,uniform,1,undefined,1,s,64,0,0,0,64,0,64,0,64,0,0,0,64,64,64,64,9/26/19 17:50,1500,The main experiment item,yes,FlankertaskSL.osexp,C:/Users/Sarah Linan/Desktop,no,mono,no,18,no,white,no,yes,768,legacy,64,64,C:/Users/Sarah Linan/Desktop/SL-subject-4.csv,legacy,Kafkaesque Koffka,3.2.8,0,s,NA,h,NA,NA,s,519,NA,138120,NA,NA,519,2,legacy,1024,2,48000,-16,experiment,SSSSS,4,even,260623,140013,NA,NA,249294,1884,NA,NA,261728,1892,NA,NA,261831,262351,261725,261830,Flanker task SL,62,38322,65,yes,1024
95.45454545,95.45454545,590.8333333,590.8333333,black,legacy,legacy,legacy,0,incongruent ,uniform,1,undefined,1,s,65,0,0,0,65,0,65,0,65,0,0,0,65,65,65,65,9/26/19 17:50,1500,The main experiment item,yes,FlankertaskSL.osexp,C:/Users/Sarah Linan/Desktop,no,mono,no,18,no,white,no,yes,768,legacy,65,65,C:/Users/Sarah Linan/Desktop/SL-subject-4.csv,legacy,Kafkaesque Koffka,3.2.8,0,s,NA,h,NA,NA,s,673,NA,138120,NA,NA,673,2,legacy,1024,2,48000,-16,experiment,HHSHH,4,even,262443,140013,NA,NA,249294,1884,NA,NA,263547,1892,NA,NA,263649,264323,263544,263649,Flanker task SL,63,38995,66,yes,1024
95.52238806,95.52238806,590.4626866,590.4626866,black,legacy,legacy,legacy,0,congruent,uniform,1,undefined,1,s,66,0,0,0,66,0,66,0,66,0,0,0,66,66,66,66,9/26/19 17:50,1500,The main experiment item,yes,FlankertaskSL.osexp,C:/Users/Sarah Linan/Desktop,no,mono,no,18,no,white,no,yes,768,legacy,66,66,C:/Users/Sarah Linan/Desktop/SL-subject-4.csv,legacy,Kafkaesque Koffka,3.2.8,0,s,NA,h,NA,NA,s,566,NA,138120,NA,NA,566,2,legacy,1024,2,48000,-16,experiment,SSSSS,4,even,264406,140013,NA,NA,249294,1884,NA,NA,265501,1892,NA,NA,265603,266170,265498,265603,Flanker task SL,64,39561,67,yes,1024
95.58823529,95.58823529,590.1176471,590.1176471,black,legacy,legacy,legacy,0,congruent,uniform,1,undefined,1,s,67,0,0,0,67,0,67,0,67,0,0,0,67,67,67,67,9/26/19 17:50,1500,The main experiment item,yes,FlankertaskSL.osexp,C:/Users/Sarah Linan/Desktop,no,mono,no,18,no,white,no,yes,768,legacy,67,67,C:/Users/Sarah Linan/Desktop/SL-subject-4.csv,legacy,Kafkaesque Koffka,3.2.8,0,s,NA,h,NA,NA,s,567,NA,138120,NA,NA,567,2,legacy,1024,2,48000,-16,experiment,SSSSS,4,even,266260,140013,NA,NA,249294,1884,NA,NA,267357,1892,NA,NA,267459,268027,267354,267459,Flanker task SL,65,40128,68,yes,1024
95.65217391,95.65217391,590.1304348,590.1304348,black,legacy,legacy,legacy,0,incongruent,uniform,1,undefined,1,h,68,0,0,0,68,0,68,0,68,0,0,0,68,68,68,68,9/26/19 17:50,1500,The main experiment item,yes,FlankertaskSL.osexp,C:/Users/Sarah Linan/Desktop,no,mono,no,18,no,white,no,yes,768,legacy,68,68,C:/Users/Sarah Linan/Desktop/SL-subject-4.csv,legacy,Kafkaesque Koffka,3.2.8,0,h,NA,h,NA,NA,h,591,NA,138120,NA,NA,591,2,legacy,1024,2,48000,-16,experiment,SSHSS,4,even,268112,140013,NA,NA,249294,1884,NA,NA,269208,1892,NA,NA,269311,269903,269206,269311,Flanker task SL,66,40719,69,yes,1024
95.71428571,95.71428571,589.6428571,589.6428571,black,legacy,legacy,legacy,0,incongruent,uniform,1,undefined,1,h,69,0,0,0,69,0,69,0,69,0,0,0,69,69,69,69,9/26/19 17:50,1500,The main experiment item,yes,FlankertaskSL.osexp,C:/Users/Sarah Linan/Desktop,no,mono,no,18,no,white,no,yes,768,legacy,69,69,C:/Users/Sarah Linan/Desktop/SL-subject-4.csv,legacy,Kafkaesque Koffka,3.2.8,0,h,NA,h,NA,NA,h,556,NA,138120,NA,NA,556,2,legacy,1024,2,48000,-16,experiment,SSHSS,4,even,269987,140013,NA,NA,249294,1884,NA,NA,271093,1892,NA,NA,271195,271751,271090,271195,Flanker task SL,67,41275,70,yes,1024
95.77464789,95.77464789,589,589,black,legacy,legacy,legacy,0,congruent,uniform,1,undefined,1,s,70,0,0,0,70,0,70,0,70,0,0,0,70,70,70,70,9/26/19 17:50,1500,The main experiment item,yes,FlankertaskSL.osexp,C:/Users/Sarah Linan/Desktop,no,mono,no,18,no,white,no,yes,768,legacy,70,70,C:/Users/Sarah Linan/Desktop/SL-subject-4.csv,legacy,Kafkaesque Koffka,3.2.8,0,s,NA,h,NA,NA,s,544,NA,138120,NA,NA,544,2,legacy,1024,2,48000,-16,experiment,SSSSS,4,even,271840,140013,NA,NA,249294,1884,NA,NA,272940,1892,NA,NA,273043,273588,272937,273043,Flanker task SL,68,41819,71,yes,1024
95.83333333,95.83333333,588.9166667,588.9166667,black,legacy,legacy,legacy,0,congruent,uniform,1,undefined,1,h,71,0,0,0,71,0,71,0,71,0,0,0,71,71,71,71,9/26/19 17:50,1500,The main experiment item,yes,FlankertaskSL.osexp,C:/Users/Sarah Linan/Desktop,no,mono,no,18,no,white,no,yes,768,legacy,71,71,C:/Users/Sarah Linan/Desktop/SL-subject-4.csv,legacy,Kafkaesque Koffka,3.2.8,0,h,NA,h,NA,NA,h,583,NA,138120,NA,NA,583,2,legacy,1024,2,48000,-16,experiment,HHHHH,4,even,273671,140013,NA,NA,249294,1884,NA,NA,274771,1892,NA,NA,274873,275457,274768,274873,Flanker task SL,69,42402,72,yes,1024
95.89041096,95.89041096,590.1643836,590.1643836,black,legacy,legacy,legacy,0,incongruent ,uniform,1,undefined,1,s,72,0,0,0,72,0,72,0,72,0,0,0,72,72,72,72,9/26/19 17:50,1500,The main experiment item,yes,FlankertaskSL.osexp,C:/Users/Sarah Linan/Desktop,no,mono,no,18,no,white,no,yes,768,legacy,72,72,C:/Users/Sarah Linan/Desktop/SL-subject-4.csv,legacy,Kafkaesque Koffka,3.2.8,0,s,NA,h,NA,NA,s,680,NA,138120,NA,NA,680,2,legacy,1024,2,48000,-16,experiment,HHSHH,4,even,275501,140013,NA,NA,249294,1884,NA,NA,276594,1892,NA,NA,276696,277377,276592,276696,Flanker task SL,70,43082,73,yes,1024
95.94594595,95.94594595,590.6891892,590.6891892,black,legacy,legacy,legacy,0,incongruent,uniform,1,undefined,1,h,73,0,0,0,73,0,73,0,73,0,0,0,73,73,73,73,9/26/19 17:50,1500,The main experiment item,yes,FlankertaskSL.osexp,C:/Users/Sarah Linan/Desktop,no,mono,no,18,no,white,no,yes,768,legacy,73,73,C:/Users/Sarah Linan/Desktop/SL-subject-4.csv,legacy,Kafkaesque Koffka,3.2.8,0,h,NA,h,NA,NA,h,629,NA,138120,NA,NA,629,2,legacy,1024,2,48000,-16,experiment,SSHSS,4,even,277463,140013,NA,NA,249294,1884,NA,NA,278555,1892,NA,NA,278658,279287,278552,278658,Flanker task SL,71,43711,74,yes,1024
96,96,590.48,590.48,black,legacy,legacy,legacy,0,congruent,uniform,1,undefined,1,s,74,0,0,0,74,0,74,0,74,0,0,0,74,74,74,74,9/26/19 17:50,1500,The main experiment item,yes,FlankertaskSL.osexp,C:/Users/Sarah Linan/Desktop,no,mono,no,18,no,white,no,yes,768,legacy,74,74,C:/Users/Sarah Linan/Desktop/SL-subject-4.csv,legacy,Kafkaesque Koffka,3.2.8,0,s,NA,h,NA,NA,s,575,NA,138120,NA,NA,575,2,legacy,1024,2,48000,-16,experiment,SSSSS,4,even,279373,140013,NA,NA,249294,1884,NA,NA,280469,1892,NA,NA,280571,281146,280465,280571,Flanker task SL,72,44286,75,yes,1024
96.05263158,96.05263158,590.2894737,590.2894737,black,legacy,legacy,legacy,0,incongruent,uniform,1,undefined,1,h,75,0,0,0,75,0,75,0,75,0,0,0,75,75,75,75,9/26/19 17:50,1500,The main experiment item,yes,FlankertaskSL.osexp,C:/Users/Sarah Linan/Desktop,no,mono,no,18,no,white,no,yes,768,legacy,75,75,C:/Users/Sarah Linan/Desktop/SL-subject-4.csv,legacy,Kafkaesque Koffka,3.2.8,0,h,NA,h,NA,NA,h,576,NA,138120,NA,NA,576,2,legacy,1024,2,48000,-16,experiment,SSHSS,4,even,281238,140013,NA,NA,249294,1884,NA,NA,282343,1892,NA,NA,282446,283023,282340,282445,Flanker task SL,73,44862,76,yes,1024
96.1038961,96.1038961,590.5974026,590.5974026,black,legacy,legacy,legacy,0,congruent,uniform,1,undefined,1,s,76,0,0,0,76,0,76,0,76,0,0,0,76,76,76,76,9/26/19 17:50,1500,The main experiment item,yes,FlankertaskSL.osexp,C:/Users/Sarah Linan/Desktop,no,mono,no,18,no,white,no,yes,768,legacy,76,76,C:/Users/Sarah Linan/Desktop/SL-subject-4.csv,legacy,Kafkaesque Koffka,3.2.8,0,s,NA,h,NA,NA,s,614,NA,138120,NA,NA,614,2,legacy,1024,2,48000,-16,experiment,SSSSS,4,even,283103,140013,NA,NA,249294,1884,NA,NA,284200,1892,NA,NA,284302,284918,284197,284302,Flanker task SL,74,45476,77,yes,1024
96.15384615,96.15384615,590.0897436,590.0897436,black,legacy,legacy,legacy,0,incongruent ,uniform,1,undefined,1,s,77,0,0,0,77,0,77,0,77,0,0,0,77,77,77,77,9/26/19 17:50,1500,The main experiment item,yes,FlankertaskSL.osexp,C:/Users/Sarah Linan/Desktop,no,mono,no,18,no,white,no,yes,768,legacy,77,77,C:/Users/Sarah Linan/Desktop/SL-subject-4.csv,legacy,Kafkaesque Koffka,3.2.8,0,s,NA,h,NA,NA,s,551,NA,138120,NA,NA,551,2,legacy,1024,2,48000,-16,experiment,HHSHH,4,even,285010,140013,NA,NA,249294,1884,NA,NA,286110,1892,NA,NA,286212,286765,286107,286212,Flanker task SL,75,46027,78,yes,1024
96.20253165,96.20253165,589.4303797,589.4303797,black,legacy,legacy,legacy,0,congruent,uniform,1,undefined,1,h,78,0,0,0,78,0,78,0,78,0,0,0,78,78,78,78,9/26/19 17:50,1500,The main experiment item,yes,FlankertaskSL.osexp,C:/Users/Sarah Linan/Desktop,no,mono,no,18,no,white,no,yes,768,legacy,78,78,C:/Users/Sarah Linan/Desktop/SL-subject-4.csv,legacy,Kafkaesque Koffka,3.2.8,0,h,NA,h,NA,NA,h,538,NA,138120,NA,NA,538,2,legacy,1024,2,48000,-16,experiment,HHHHH,4,even,286852,140013,NA,NA,249294,1884,NA,NA,287945,1892,NA,NA,288047,288588,287941,288047,Flanker task SL,76,46565,79,yes,1024
96.25,96.25,589.1875,589.1875,black,legacy,legacy,legacy,0,incongruent ,uniform,1,undefined,1,s,79,0,0,0,79,0,79,0,79,0,0,0,79,79,79,79,9/26/19 17:50,1500,The main experiment item,yes,FlankertaskSL.osexp,C:/Users/Sarah Linan/Desktop,no,mono,no,18,no,white,no,yes,768,legacy,79,79,C:/Users/Sarah Linan/Desktop/SL-subject-4.csv,legacy,Kafkaesque Koffka,3.2.8,0,s,NA,h,NA,NA,s,570,NA,138120,NA,NA,570,2,legacy,1024,2,48000,-16,experiment,HHSHH,4,even,288671,140013,NA,NA,249294,1884,NA,NA,289762,1892,NA,NA,289864,290436,289759,289864,Flanker task SL,77,47135,80,yes,1024
96.2962963,96.2962963,588.8395062,588.8395062,black,legacy,legacy,legacy,0,congruent,uniform,1,undefined,1,h,80,0,0,0,80,0,80,0,80,0,0,0,80,80,80,80,9/26/19 17:50,600,The main experiment item,yes,FlankertaskSL.osexp,C:/Users/Sarah Linan/Desktop,no,mono,no,18,no,white,no,yes,768,legacy,0,79,C:/Users/Sarah Linan/Desktop/SL-subject-4.csv,legacy,Kafkaesque Koffka,3.2.8,0,h,NA,h,s,NA,h,561,NA,138120,39408,NA,561,2,legacy,1024,2,48000,-16,experiment,HHHHH,4,even,290477,140013,330909,NA,249294,1884,NA,NA,330999,1892,291499,NA,331102,331664,330997,331102,Flanker task SL,78,47696,81,yes,1024
96.34146341,96.34146341,587.7804878,587.7804878,black,legacy,legacy,legacy,0,congruent,uniform,1,undefined,1,h,81,0,0,0,81,0,81,0,81,0,0,0,81,81,81,81,9/26/19 17:50,600,The main experiment item,yes,FlankertaskSL.osexp,C:/Users/Sarah Linan/Desktop,no,mono,no,18,no,white,no,yes,768,legacy,1,79,C:/Users/Sarah Linan/Desktop/SL-subject-4.csv,legacy,Kafkaesque Koffka,3.2.8,0,h,NA,h,s,NA,h,502,NA,138120,39408,NA,502,2,legacy,1024,2,48000,-16,experiment,HHHHH,4,even,331762,140013,330909,NA,249294,1884,NA,NA,332864,1892,291499,NA,332966,333470,332860,332966,Flanker task SL,79,48198,82,yes,1024
96.38554217,96.38554217,586.5421687,586.5421687,black,legacy,legacy,legacy,0,congruent,uniform,1,undefined,1,h,82,0,0,0,82,0,82,0,82,0,0,0,82,82,82,82,9/26/19 17:50,600,The main experiment item,yes,FlankertaskSL.osexp,C:/Users/Sarah Linan/Desktop,no,mono,no,18,no,white,no,yes,768,legacy,2,79,C:/Users/Sarah Linan/Desktop/SL-subject-4.csv,legacy,Kafkaesque Koffka,3.2.8,0,h,NA,h,s,NA,h,485,NA,138120,39408,NA,485,2,legacy,1024,2,48000,-16,experiment,HHHHH,4,even,333560,140013,330909,NA,249294,1884,NA,NA,334660,1892,291499,NA,334762,335248,334657,334762,Flanker task SL,80,48683,83,yes,1024
96.42857143,96.42857143,585.0357143,585.0357143,black,legacy,legacy,legacy,0,congruent,uniform,1,undefined,1,s,83,0,0,0,83,0,83,0,83,0,0,0,83,83,83,83,9/26/19 17:50,600,The main experiment item,yes,FlankertaskSL.osexp,C:/Users/Sarah Linan/Desktop,no,mono,no,18,no,white,no,yes,768,legacy,3,79,C:/Users/Sarah Linan/Desktop/SL-subject-4.csv,legacy,Kafkaesque Koffka,3.2.8,0,s,NA,h,s,NA,s,460,NA,138120,39408,NA,460,2,legacy,1024,2,48000,-16,experiment,SSSSS,4,even,335335,140013,330909,NA,249294,1884,NA,NA,336431,1892,291499,NA,336533,336994,336428,336533,Flanker task SL,81,49143,84,yes,1024
96.47058824,96.47058824,583.1764706,583.1764706,black,legacy,legacy,legacy,0,incongruent ,uniform,1,undefined,1,s,84,0,0,0,84,0,84,0,84,0,0,0,84,84,84,84,9/26/19 17:50,600,The main experiment item,yes,FlankertaskSL.osexp,C:/Users/Sarah Linan/Desktop,no,mono,no,18,no,white,no,yes,768,legacy,4,79,C:/Users/Sarah Linan/Desktop/SL-subject-4.csv,legacy,Kafkaesque Koffka,3.2.8,0,s,NA,h,s,NA,s,427,NA,138120,39408,NA,427,2,legacy,1024,2,48000,-16,experiment,HHSHH,4,even,337078,140013,330909,NA,249294,1884,NA,NA,338191,1892,291499,NA,338293,338722,338188,338293,Flanker task SL,82,49570,85,yes,1024
96.51162791,96.51162791,581.8488372,581.8488372,black,legacy,legacy,legacy,0,incongruent ,uniform,1,undefined,1,s,85,0,0,0,85,0,85,0,85,0,0,0,85,85,85,85,9/26/19 17:50,600,The main experiment item,yes,FlankertaskSL.osexp,C:/Users/Sarah Linan/Desktop,no,mono,no,18,no,white,no,yes,768,legacy,5,79,C:/Users/Sarah Linan/Desktop/SL-subject-4.csv,legacy,Kafkaesque Koffka,3.2.8,0,s,NA,h,s,NA,s,469,NA,138120,39408,NA,469,2,legacy,1024,2,48000,-16,experiment,HHSHH,4,even,338808,140013,330909,NA,249294,1884,NA,NA,339906,1892,291499,NA,340008,340479,339903,340008,Flanker task SL,83,50039,86,yes,1024
96.55172414,96.55172414,580.8735632,580.8735632,black,legacy,legacy,legacy,0,incongruent ,uniform,1,undefined,1,s,86,0,0,0,86,0,86,0,86,0,0,0,86,86,86,86,9/26/19 17:50,600,The main experiment item,yes,FlankertaskSL.osexp,C:/Users/Sarah Linan/Desktop,no,mono,no,18,no,white,no,yes,768,legacy,6,79,C:/Users/Sarah Linan/Desktop/SL-subject-4.csv,legacy,Kafkaesque Koffka,3.2.8,0,s,NA,h,s,NA,s,497,NA,138120,39408,NA,497,2,legacy,1024,2,48000,-16,experiment,HHSHH,4,even,340617,140013,330909,NA,249294,1884,NA,NA,341711,1892,291499,NA,341814,342312,341708,341814,Flanker task SL,84,50536,87,yes,1024
96.59090909,96.59090909,579.125,579.125,black,legacy,legacy,legacy,0,congruent,uniform,1,undefined,1,h,87,0,0,0,87,0,87,0,87,0,0,0,87,87,87,87,9/26/19 17:50,600,The main experiment item,yes,FlankertaskSL.osexp,C:/Users/Sarah Linan/Desktop,no,mono,no,18,no,white,no,yes,768,legacy,7,79,C:/Users/Sarah Linan/Desktop/SL-subject-4.csv,legacy,Kafkaesque Koffka,3.2.8,0,h,NA,h,s,NA,h,427,NA,138120,39408,NA,427,2,legacy,1024,2,48000,-16,experiment,HHHHH,4,even,342403,140013,330909,NA,249294,1884,NA,NA,343499,1892,291499,NA,343601,344029,343496,343601,Flanker task SL,85,50963,88,yes,1024
96.62921348,96.62921348,579.4157303,579.4157303,black,legacy,legacy,legacy,0,incongruent,uniform,1,undefined,1,h,88,0,0,0,88,0,88,0,88,0,0,0,88,88,88,88,9/26/19 17:50,600,The main experiment item,yes,FlankertaskSL.osexp,C:/Users/Sarah Linan/Desktop,no,mono,no,18,no,white,no,yes,768,legacy,8,79,C:/Users/Sarah Linan/Desktop/SL-subject-4.csv,legacy,Kafkaesque Koffka,3.2.8,0,h,NA,h,s,NA,h,605,NA,138120,39408,NA,605,2,legacy,1024,2,48000,-16,experiment,SSHSS,4,even,344123,140013,330909,NA,249294,1884,NA,NA,345217,1892,291499,NA,345320,345926,345215,345320,Flanker task SL,86,51568,89,yes,1024
96.66666667,96.66666667,579.0888889,579.0888889,black,legacy,legacy,legacy,0,congruent,uniform,1,undefined,1,s,89,0,0,0,89,0,89,0,89,0,0,0,89,89,89,89,9/26/19 17:50,600,The main experiment item,yes,FlankertaskSL.osexp,C:/Users/Sarah Linan/Desktop,no,mono,no,18,no,white,no,yes,768,legacy,9,79,C:/Users/Sarah Linan/Desktop/SL-subject-4.csv,legacy,Kafkaesque Koffka,3.2.8,0,s,NA,h,s,NA,s,550,NA,138120,39408,NA,550,2,legacy,1024,2,48000,-16,experiment,SSSSS,4,even,346514,140013,330909,NA,249294,1884,346010,NA,347611,1892,291499,NA,347715,348266,347608,347715,Flanker task SL,87,52118,90,yes,1024
96.7032967,96.7032967,577.9230769,577.9230769,black,legacy,legacy,legacy,0,congruent,uniform,1,undefined,1,s,90,0,0,0,90,0,90,0,90,0,0,0,90,90,90,90,9/26/19 17:50,600,The main experiment item,yes,FlankertaskSL.osexp,C:/Users/Sarah Linan/Desktop,no,mono,no,18,no,white,no,yes,768,legacy,10,79,C:/Users/Sarah Linan/Desktop/SL-subject-4.csv,legacy,Kafkaesque Koffka,3.2.8,0,s,NA,h,s,NA,s,473,NA,138120,39408,NA,473,2,legacy,1024,2,48000,-16,experiment,SSSSS,4,even,348350,140013,330909,NA,249294,1884,346010,NA,349453,1892,291499,NA,349556,350030,349450,349556,Flanker task SL,88,52591,91,yes,1024
96.73913043,96.73913043,577.6956522,577.6956522,black,legacy,legacy,legacy,0,incongruent,uniform,1,undefined,1,h,91,0,0,0,91,0,91,0,91,0,0,0,91,91,91,91,9/26/19 17:50,600,The main experiment item,yes,FlankertaskSL.osexp,C:/Users/Sarah Linan/Desktop,no,mono,no,18,no,white,no,yes,768,legacy,11,79,C:/Users/Sarah Linan/Desktop/SL-subject-4.csv,legacy,Kafkaesque Koffka,3.2.8,0,h,NA,h,s,NA,h,557,NA,138120,39408,NA,557,2,legacy,1024,2,48000,-16,experiment,SSHSS,4,even,350115,140013,330909,NA,249294,1884,346010,NA,351210,1892,291499,NA,351311,351869,351207,351311,Flanker task SL,89,53148,92,yes,1024
96.77419355,96.77419355,577.8494624,577.8494624,black,legacy,legacy,legacy,0,incongruent,uniform,1,undefined,1,h,92,0,0,0,92,0,92,0,92,0,0,0,92,92,92,92,9/26/19 17:50,600,The main experiment item,yes,FlankertaskSL.osexp,C:/Users/Sarah Linan/Desktop,no,mono,no,18,no,white,no,yes,768,legacy,12,79,C:/Users/Sarah Linan/Desktop/SL-subject-4.csv,legacy,Kafkaesque Koffka,3.2.8,0,h,NA,h,s,NA,h,592,NA,138120,39408,NA,592,2,legacy,1024,2,48000,-16,experiment,SSHSS,4,even,351956,140013,330909,NA,249294,1884,346010,NA,353060,1892,291499,NA,353163,353756,353057,353163,Flanker task SL,90,53740,93,yes,1024
96.80851064,96.80851064,577.5531915,577.5531915,black,legacy,legacy,legacy,0,incongruent ,uniform,1,undefined,1,s,93,0,0,0,93,0,93,0,93,0,0,0,93,93,93,93,9/26/19 17:50,600,The main experiment item,yes,FlankertaskSL.osexp,C:/Users/Sarah Linan/Desktop,no,mono,no,18,no,white,no,yes,768,legacy,13,79,C:/Users/Sarah Linan/Desktop/SL-subject-4.csv,legacy,Kafkaesque Koffka,3.2.8,0,s,NA,h,s,NA,s,550,NA,138120,39408,NA,550,2,legacy,1024,2,48000,-16,experiment,HHSHH,4,even,353842,140013,330909,NA,249294,1884,346010,NA,354947,1892,291499,NA,355049,355601,354943,355049,Flanker task SL,91,54290,94,yes,1024
95.78947368,95.78947368,576.1578947,576.1578947,black,legacy,legacy,legacy,0,incongruent,uniform,0,undefined,0,h,94,0,0,0,94,0,94,0,94,0,0,0,94,94,94,94,9/26/19 17:50,600,The main experiment item,yes,FlankertaskSL.osexp,C:/Users/Sarah Linan/Desktop,no,mono,no,18,no,white,no,yes,768,legacy,14,79,C:/Users/Sarah Linan/Desktop/SL-subject-4.csv,legacy,Kafkaesque Koffka,3.2.8,0,s,NA,h,s,NA,s,445,NA,138120,39408,NA,445,2,legacy,1024,2,48000,-16,experiment,SSHSS,4,even,355684,140013,330909,NA,249294,1884,346010,NA,356783,1892,291499,NA,356885,357332,356780,356885,Flanker task SL,91,54735,95,yes,1024
95.83333333,95.83333333,576.0104167,576.0104167,black,legacy,legacy,legacy,0,incongruent,uniform,1,undefined,1,h,95,0,0,0,95,0,95,0,95,0,0,0,95,95,95,95,9/26/19 17:50,600,The main experiment item,yes,FlankertaskSL.osexp,C:/Users/Sarah Linan/Desktop,no,mono,no,18,no,white,no,yes,768,legacy,15,79,C:/Users/Sarah Linan/Desktop/SL-subject-4.csv,legacy,Kafkaesque Koffka,3.2.8,0,h,NA,h,s,NA,h,562,NA,138120,39408,NA,562,2,legacy,1024,2,48000,-16,experiment,SSHSS,4,even,357919,140013,330909,NA,357415,1884,346010,NA,359018,1892,291499,NA,359122,359685,359014,359122,Flanker task SL,92,55297,96,yes,1024
95.87628866,95.87628866,575.443299,575.443299,black,legacy,legacy,legacy,0,incongruent,uniform,1,undefined,1,h,96,0,0,0,96,0,96,0,96,0,0,0,96,96,96,96,9/26/19 17:50,600,The main experiment item,yes,FlankertaskSL.osexp,C:/Users/Sarah Linan/Desktop,no,mono,no,18,no,white,no,yes,768,legacy,16,79,C:/Users/Sarah Linan/Desktop/SL-subject-4.csv,legacy,Kafkaesque Koffka,3.2.8,0,h,NA,h,s,NA,h,521,NA,138120,39408,NA,521,2,legacy,1024,2,48000,-16,experiment,SSHSS,4,even,359767,140013,330909,NA,357415,1884,346010,NA,360862,1892,291499,NA,360966,361489,360859,360966,Flanker task SL,93,55818,97,yes,1024
95.91836735,95.91836735,575.122449,575.122449,black,legacy,legacy,legacy,0,incongruent ,uniform,1,undefined,1,s,97,0,0,0,97,0,97,0,97,0,0,0,97,97,97,97,9/26/19 17:50,600,The main experiment item,yes,FlankertaskSL.osexp,C:/Users/Sarah Linan/Desktop,no,mono,no,18,no,white,no,yes,768,legacy,17,79,C:/Users/Sarah Linan/Desktop/SL-subject-4.csv,legacy,Kafkaesque Koffka,3.2.8,0,s,NA,h,s,NA,s,544,NA,138120,39408,NA,544,2,legacy,1024,2,48000,-16,experiment,HHSHH,4,even,361576,140013,330909,NA,357415,1884,346010,NA,362684,1892,291499,NA,362787,363332,362681,362787,Flanker task SL,94,56362,98,yes,1024
95.95959596,95.95959596,573.3636364,573.3636364,black,legacy,legacy,legacy,0,congruent,uniform,1,undefined,1,s,98,0,0,0,98,0,98,0,98,0,0,0,98,98,98,98,9/26/19 17:50,600,The main experiment item,yes,FlankertaskSL.osexp,C:/Users/Sarah Linan/Desktop,no,mono,no,18,no,white,no,yes,768,legacy,18,79,C:/Users/Sarah Linan/Desktop/SL-subject-4.csv,legacy,Kafkaesque Koffka,3.2.8,0,s,NA,h,s,NA,s,401,NA,138120,39408,NA,401,2,legacy,1024,2,48000,-16,experiment,SSSSS,4,even,363417,140013,330909,NA,357415,1884,346010,NA,364517,1892,291499,NA,364619,365022,364513,364619,Flanker task SL,95,56763,99,yes,1024
96,96,572.69,572.69,black,legacy,legacy,legacy,0,congruent,uniform,1,undefined,1,h,99,0,0,0,99,0,99,0,99,0,0,0,99,99,99,99,9/26/19 17:50,600,The main experiment item,yes,FlankertaskSL.osexp,C:/Users/Sarah Linan/Desktop,no,mono,no,18,no,white,no,yes,768,legacy,19,79,C:/Users/Sarah Linan/Desktop/SL-subject-4.csv,legacy,Kafkaesque Koffka,3.2.8,0,h,NA,h,s,NA,h,506,NA,138120,39408,NA,506,2,legacy,1024,2,48000,-16,experiment,HHHHH,4,even,365104,140013,330909,NA,357415,1884,346010,NA,366205,1892,291499,NA,366308,366817,366202,366308,Flanker task SL,96,57269,100,yes,1024
96.03960396,96.03960396,572.1188119,572.1188119,black,legacy,legacy,legacy,0,incongruent,uniform,1,undefined,1,h,100,0,0,0,100,0,100,0,100,0,0,0,100,100,100,100,9/26/19 17:50,600,The main experiment item,yes,FlankertaskSL.osexp,C:/Users/Sarah Linan/Desktop,no,mono,no,18,no,white,no,yes,768,legacy,20,79,C:/Users/Sarah Linan/Desktop/SL-subject-4.csv,legacy,Kafkaesque Koffka,3.2.8,0,h,NA,h,s,NA,h,515,NA,138120,39408,NA,515,2,legacy,1024,2,48000,-16,experiment,SSHSS,4,even,366901,140013,330909,NA,357415,1884,346010,NA,367997,1892,291499,NA,368099,368614,367993,368099,Flanker task SL,97,57784,101,yes,1024
96.07843137,96.07843137,571.2156863,571.2156863,black,legacy,legacy,legacy,0,congruent,uniform,1,undefined,1,h,101,0,0,0,101,0,101,0,101,0,0,0,101,101,101,101,9/26/19 17:50,600,The main experiment item,yes,FlankertaskSL.osexp,C:/Users/Sarah Linan/Desktop,no,mono,no,18,no,white,no,yes,768,legacy,21,79,C:/Users/Sarah Linan/Desktop/SL-subject-4.csv,legacy,Kafkaesque Koffka,3.2.8,0,h,NA,h,s,NA,h,480,NA,138120,39408,NA,480,2,legacy,1024,2,48000,-16,experiment,HHHHH,4,even,368700,140013,330909,NA,357415,1884,346010,NA,369802,1892,291499,NA,369904,370384,369798,369904,Flanker task SL,98,58264,102,yes,1024
96.11650485,96.11650485,570.5339806,570.5339806,black,legacy,legacy,legacy,0,congruent,uniform,1,undefined,1,s,102,0,0,0,102,0,102,0,102,0,0,0,102,102,102,102,9/26/19 17:50,600,The main experiment item,yes,FlankertaskSL.osexp,C:/Users/Sarah Linan/Desktop,no,mono,no,18,no,white,no,yes,768,legacy,22,79,C:/Users/Sarah Linan/Desktop/SL-subject-4.csv,legacy,Kafkaesque Koffka,3.2.8,0,s,NA,h,s,NA,s,501,NA,138120,39408,NA,501,2,legacy,1024,2,48000,-16,experiment,SSSSS,4,even,370474,140013,330909,NA,357415,1884,346010,NA,371573,1892,291499,NA,371676,372179,371570,371676,Flanker task SL,99,58765,103,yes,1024
96.15384615,96.15384615,570.6634615,570.6634615,black,legacy,legacy,legacy,0,incongruent,uniform,1,undefined,1,h,103,0,0,0,103,0,103,0,103,0,0,0,103,103,103,103,9/26/19 17:50,600,The main experiment item,yes,FlankertaskSL.osexp,C:/Users/Sarah Linan/Desktop,no,mono,no,18,no,white,no,yes,768,legacy,23,79,C:/Users/Sarah Linan/Desktop/SL-subject-4.csv,legacy,Kafkaesque Koffka,3.2.8,0,h,NA,h,s,NA,h,584,NA,138120,39408,NA,584,2,legacy,1024,2,48000,-16,experiment,SSHSS,4,even,372271,140013,330909,NA,357415,1884,346010,NA,373376,1892,291499,NA,373478,374063,373373,373477,Flanker task SL,100,59349,104,yes,1024
96.19047619,96.19047619,569.7333333,569.7333333,black,legacy,legacy,legacy,0,incongruent ,uniform,1,undefined,1,s,104,0,0,0,104,0,104,0,104,0,0,0,104,104,104,104,9/26/19 17:50,600,The main experiment item,yes,FlankertaskSL.osexp,C:/Users/Sarah Linan/Desktop,no,mono,no,18,no,white,no,yes,768,legacy,24,79,C:/Users/Sarah Linan/Desktop/SL-subject-4.csv,legacy,Kafkaesque Koffka,3.2.8,0,s,NA,h,s,NA,s,473,NA,138120,39408,NA,473,2,legacy,1024,2,48000,-16,experiment,HHSHH,4,even,374112,140013,330909,NA,357415,1884,346010,NA,375218,1892,291499,NA,375320,375794,375215,375320,Flanker task SL,101,59822,105,yes,1024
96.22641509,96.22641509,568.4150943,568.4150943,black,legacy,legacy,legacy,0,incongruent ,uniform,1,undefined,1,s,105,0,0,0,105,0,105,0,105,0,0,0,105,105,105,105,9/26/19 17:50,600,The main experiment item,yes,FlankertaskSL.osexp,C:/Users/Sarah Linan/Desktop,no,mono,no,18,no,white,no,yes,768,legacy,25,79,C:/Users/Sarah Linan/Desktop/SL-subject-4.csv,legacy,Kafkaesque Koffka,3.2.8,0,s,NA,h,s,NA,s,430,NA,138120,39408,NA,430,2,legacy,1024,2,48000,-16,experiment,HHSHH,4,even,375877,140013,330909,NA,357415,1884,346010,NA,376978,1892,291499,NA,377080,377511,376975,377080,Flanker task SL,102,60252,106,yes,1024
96.26168224,96.26168224,568.1308411,568.1308411,black,legacy,legacy,legacy,0,incongruent,uniform,1,undefined,1,h,106,0,0,0,106,0,106,0,106,0,0,0,106,106,106,106,9/26/19 17:50,600,The main experiment item,yes,FlankertaskSL.osexp,C:/Users/Sarah Linan/Desktop,no,mono,no,18,no,white,no,yes,768,legacy,26,79,C:/Users/Sarah Linan/Desktop/SL-subject-4.csv,legacy,Kafkaesque Koffka,3.2.8,0,h,NA,h,s,NA,h,538,NA,138120,39408,NA,538,2,legacy,1024,2,48000,-16,experiment,SSHSS,4,even,377597,140013,330909,NA,357415,1884,346010,NA,378697,1892,291499,NA,378799,379339,378694,378799,Flanker task SL,103,60790,107,yes,1024
96.2962963,96.2962963,567.3055556,567.3055556,black,legacy,legacy,legacy,0,incongruent ,uniform,1,undefined,1,s,107,0,0,0,107,0,107,0,107,0,0,0,107,107,107,107,9/26/19 17:50,600,The main experiment item,yes,FlankertaskSL.osexp,C:/Users/Sarah Linan/Desktop,no,mono,no,18,no,white,no,yes,768,legacy,27,79,C:/Users/Sarah Linan/Desktop/SL-subject-4.csv,legacy,Kafkaesque Koffka,3.2.8,0,s,NA,h,s,NA,s,479,NA,138120,39408,NA,479,2,legacy,1024,2,48000,-16,experiment,HHSHH,4,even,379428,140013,330909,NA,357415,1884,346010,NA,380520,1892,291499,NA,380622,381102,380518,380622,Flanker task SL,104,61269,108,yes,1024
96.33027523,96.33027523,566.2018349,566.2018349,black,legacy,legacy,legacy,0,congruent,uniform,1,undefined,1,s,108,0,0,0,108,0,108,0,108,0,0,0,108,108,108,108,9/26/19 17:50,600,The main experiment item,yes,FlankertaskSL.osexp,C:/Users/Sarah Linan/Desktop,no,mono,no,18,no,white,no,yes,768,legacy,28,79,C:/Users/Sarah Linan/Desktop/SL-subject-4.csv,legacy,Kafkaesque Koffka,3.2.8,0,s,NA,h,s,NA,s,447,NA,138120,39408,NA,447,2,legacy,1024,2,48000,-16,experiment,SSSSS,4,even,381193,140013,330909,NA,357415,1884,346010,NA,382294,1892,291499,NA,382398,382846,382291,382397,Flanker task SL,105,61716,109,yes,1024
96.36363636,96.36363636,564.9636364,564.9636364,black,legacy,legacy,legacy,0,congruent,uniform,1,undefined,1,s,109,0,0,0,109,0,109,0,109,0,0,0,109,109,109,109,9/26/19 17:50,600,The main experiment item,yes,FlankertaskSL.osexp,C:/Users/Sarah Linan/Desktop,no,mono,no,18,no,white,no,yes,768,legacy,29,79,C:/Users/Sarah Linan/Desktop/SL-subject-4.csv,legacy,Kafkaesque Koffka,3.2.8,0,s,NA,h,s,NA,s,430,NA,138120,39408,NA,430,2,legacy,1024,2,48000,-16,experiment,SSSSS,4,even,382919,140013,330909,NA,357415,1884,346010,NA,384015,1892,291499,NA,384116,384549,384012,384116,Flanker task SL,106,62146,110,yes,1024
95.4954955,95.4954955,564.1981982,564.1981982,black,legacy,legacy,legacy,0,incongruent ,uniform,0,undefined,0,s,110,0,0,0,110,0,110,0,110,0,0,0,110,110,110,110,9/26/19 17:50,600,The main experiment item,yes,FlankertaskSL.osexp,C:/Users/Sarah Linan/Desktop,no,mono,no,18,no,white,no,yes,768,legacy,30,79,C:/Users/Sarah Linan/Desktop/SL-subject-4.csv,legacy,Kafkaesque Koffka,3.2.8,0,h,NA,h,s,NA,h,480,NA,138120,39408,NA,480,2,legacy,1024,2,48000,-16,experiment,HHSHH,4,even,384642,140013,330909,NA,357415,1884,346010,NA,385748,1892,291499,NA,385850,386331,385744,385850,Flanker task SL,106,62626,111,yes,1024
95.53571429,95.53571429,563.3928571,563.3928571,black,legacy,legacy,legacy,0,congruent,uniform,1,undefined,1,s,111,0,0,0,111,0,111,0,111,0,0,0,111,111,111,111,9/26/19 17:50,600,The main experiment item,yes,FlankertaskSL.osexp,C:/Users/Sarah Linan/Desktop,no,mono,no,18,no,white,no,yes,768,legacy,31,79,C:/Users/Sarah Linan/Desktop/SL-subject-4.csv,legacy,Kafkaesque Koffka,3.2.8,0,s,NA,h,s,NA,s,474,NA,138120,39408,NA,474,2,legacy,1024,2,48000,-16,experiment,SSSSS,4,even,386922,140013,330909,NA,386418,1884,346010,NA,388021,1892,291499,NA,388125,388601,388018,388125,Flanker task SL,107,63100,112,yes,1024
95.57522124,95.57522124,562.9026549,562.9026549,black,legacy,legacy,legacy,0,congruent,uniform,1,undefined,1,h,112,0,0,0,112,0,112,0,112,0,0,0,112,112,112,112,9/26/19 17:50,600,The main experiment item,yes,FlankertaskSL.osexp,C:/Users/Sarah Linan/Desktop,no,mono,no,18,no,white,no,yes,768,legacy,32,79,C:/Users/Sarah Linan/Desktop/SL-subject-4.csv,legacy,Kafkaesque Koffka,3.2.8,0,h,NA,h,s,NA,h,508,NA,138120,39408,NA,508,2,legacy,1024,2,48000,-16,experiment,HHHHH,4,even,388693,140013,330909,NA,386418,1884,346010,NA,389790,1892,291499,NA,389892,390401,389787,389892,Flanker task SL,108,63608,113,yes,1024
95.61403509,95.61403509,561.9035088,561.9035088,black,legacy,legacy,legacy,0,congruent,uniform,1,undefined,1,s,113,0,0,0,113,0,113,0,113,0,0,0,113,113,113,113,9/26/19 17:50,600,The main experiment item,yes,FlankertaskSL.osexp,C:/Users/Sarah Linan/Desktop,no,mono,no,18,no,white,no,yes,768,legacy,33,79,C:/Users/Sarah Linan/Desktop/SL-subject-4.csv,legacy,Kafkaesque Koffka,3.2.8,0,s,NA,h,s,NA,s,449,NA,138120,39408,NA,449,2,legacy,1024,2,48000,-16,experiment,SSSSS,4,even,390490,140013,330909,NA,386418,1884,346010,NA,391597,1892,291499,NA,391699,392150,391593,391699,Flanker task SL,109,64057,114,yes,1024
95.65217391,95.65217391,560.973913,560.973913,black,legacy,legacy,legacy,0,congruent,uniform,1,undefined,1,s,114,0,0,0,114,0,114,0,114,0,0,0,114,114,114,114,9/26/19 17:50,600,The main experiment item,yes,FlankertaskSL.osexp,C:/Users/Sarah Linan/Desktop,no,mono,no,18,no,white,no,yes,768,legacy,34,79,C:/Users/Sarah Linan/Desktop/SL-subject-4.csv,legacy,Kafkaesque Koffka,3.2.8,0,s,NA,h,s,NA,s,455,NA,138120,39408,NA,455,2,legacy,1024,2,48000,-16,experiment,SSSSS,4,even,392243,140013,330909,NA,386418,1884,346010,NA,393340,1892,291499,NA,393442,393899,393337,393442,Flanker task SL,110,64512,115,yes,1024
95.68965517,95.68965517,561.3793103,561.3793103,black,legacy,legacy,legacy,0,incongruent,uniform,1,undefined,1,h,115,0,0,0,115,0,115,0,115,0,0,0,115,115,115,115,9/26/19 17:50,600,The main experiment item,yes,FlankertaskSL.osexp,C:/Users/Sarah Linan/Desktop,no,mono,no,18,no,white,no,yes,768,legacy,35,79,C:/Users/Sarah Linan/Desktop/SL-subject-4.csv,legacy,Kafkaesque Koffka,3.2.8,0,h,NA,h,s,NA,h,608,NA,138120,39408,NA,608,2,legacy,1024,2,48000,-16,experiment,SSHSS,4,even,393985,140013,330909,NA,386418,1884,346010,NA,395088,1892,291499,NA,395190,395800,395085,395190,Flanker task SL,111,65120,116,yes,1024
95.72649573,95.72649573,561.5726496,561.5726496,black,legacy,legacy,legacy,0,congruent,uniform,1,undefined,1,h,116,0,0,0,116,0,116,0,116,0,0,0,116,116,116,116,9/26/19 17:50,600,The main experiment item,yes,FlankertaskSL.osexp,C:/Users/Sarah Linan/Desktop,no,mono,no,18,no,white,no,yes,768,legacy,36,79,C:/Users/Sarah Linan/Desktop/SL-subject-4.csv,legacy,Kafkaesque Koffka,3.2.8,0,h,NA,h,s,NA,h,584,NA,138120,39408,NA,584,2,legacy,1024,2,48000,-16,experiment,HHHHH,4,even,396386,140013,330909,NA,386418,1884,395882,NA,397475,1892,291499,NA,397579,398165,397472,397579,Flanker task SL,112,65704,117,yes,1024
95.76271186,95.76271186,562.4915254,562.4915254,black,legacy,legacy,legacy,0,incongruent,uniform,1,undefined,1,h,117,0,0,0,117,0,117,0,117,0,0,0,117,117,117,117,9/26/19 17:50,600,The main experiment item,yes,FlankertaskSL.osexp,C:/Users/Sarah Linan/Desktop,no,mono,no,18,no,white,no,yes,768,legacy,37,79,C:/Users/Sarah Linan/Desktop/SL-subject-4.csv,legacy,Kafkaesque Koffka,3.2.8,0,h,NA,h,s,NA,h,670,NA,138120,39408,NA,670,2,legacy,1024,2,48000,-16,experiment,SSHSS,4,even,398257,140013,330909,NA,386418,1884,395882,NA,399358,1892,291499,NA,399461,400133,399355,399461,Flanker task SL,113,66374,118,yes,1024
95.79831933,95.79831933,561.8151261,561.8151261,black,legacy,legacy,legacy,0,congruent,uniform,1,undefined,1,s,118,0,0,0,118,0,118,0,118,0,0,0,118,118,118,118,9/26/19 17:50,600,The main experiment item,yes,FlankertaskSL.osexp,C:/Users/Sarah Linan/Desktop,no,mono,no,18,no,white,no,yes,768,legacy,38,79,C:/Users/Sarah Linan/Desktop/SL-subject-4.csv,legacy,Kafkaesque Koffka,3.2.8,0,s,NA,h,s,NA,s,482,NA,138120,39408,NA,482,2,legacy,1024,2,48000,-16,experiment,SSSSS,4,even,400725,140013,330909,NA,386418,1884,400220,NA,401819,1892,291499,NA,401923,402407,401816,401923,Flanker task SL,114,66856,119,yes,1024
95.83333333,95.83333333,561.625,561.625,black,legacy,legacy,legacy,0,congruent,uniform,1,undefined,1,h,119,0,0,0,119,0,119,0,119,0,0,0,119,119,119,119,9/26/19 17:50,600,The main experiment item,yes,FlankertaskSL.osexp,C:/Users/Sarah Linan/Desktop,no,mono,no,18,no,white,no,yes,768,legacy,39,79,C:/Users/Sarah Linan/Desktop/SL-subject-4.csv,legacy,Kafkaesque Koffka,3.2.8,0,h,NA,h,s,NA,h,539,NA,138120,39408,NA,539,2,legacy,1024,2,48000,-16,experiment,HHHHH,4,even,402495,140013,330909,NA,386418,1884,400220,NA,403594,1892,291499,NA,403696,404236,403592,403696,Flanker task SL,115,67395,120,yes,1024
95.8677686,95.8677686,560.9834711,560.9834711,black,legacy,legacy,legacy,0,incongruent ,uniform,1,undefined,1,s,120,0,0,0,120,0,120,0,120,0,0,0,120,120,120,120,9/26/19 17:50,600,The main experiment item,yes,FlankertaskSL.osexp,C:/Users/Sarah Linan/Desktop,no,mono,no,18,no,white,no,yes,768,legacy,40,79,C:/Users/Sarah Linan/Desktop/SL-subject-4.csv,legacy,Kafkaesque Koffka,3.2.8,0,s,NA,h,s,NA,s,484,NA,138120,39408,NA,484,2,legacy,1024,2,48000,-16,experiment,HHSHH,4,even,404280,140013,330909,NA,386418,1884,400220,NA,405380,1892,291499,NA,405482,405968,405377,405482,Flanker task SL,116,67879,121,yes,1024
95.90163934,95.90163934,561.3032787,561.3032787,black,legacy,legacy,legacy,0,incongruent,uniform,1,undefined,1,h,121,0,0,0,121,0,121,0,121,0,0,0,121,121,121,121,9/26/19 17:50,600,The main experiment item,yes,FlankertaskSL.osexp,C:/Users/Sarah Linan/Desktop,no,mono,no,18,no,white,no,yes,768,legacy,41,79,C:/Users/Sarah Linan/Desktop/SL-subject-4.csv,legacy,Kafkaesque Koffka,3.2.8,0,h,NA,h,s,NA,h,600,NA,138120,39408,NA,600,2,legacy,1024,2,48000,-16,experiment,SSHSS,4,even,406056,140013,330909,NA,386418,1884,400220,NA,407146,1892,291499,NA,407248,407849,407144,407248,Flanker task SL,117,68479,122,yes,1024
95.93495935,95.93495935,560.6910569,560.6910569,black,legacy,legacy,legacy,0,congruent,uniform,1,undefined,1,h,122,0,0,0,122,0,122,0,122,0,0,0,122,122,122,122,9/26/19 17:50,600,The main experiment item,yes,FlankertaskSL.osexp,C:/Users/Sarah Linan/Desktop,no,mono,no,18,no,white,no,yes,768,legacy,42,79,C:/Users/Sarah Linan/Desktop/SL-subject-4.csv,legacy,Kafkaesque Koffka,3.2.8,0,h,NA,h,s,NA,h,486,NA,138120,39408,NA,486,2,legacy,1024,2,48000,-16,experiment,HHHHH,4,even,407942,140013,330909,NA,386418,1884,400220,NA,409048,1892,291499,NA,409150,409637,409045,409150,Flanker task SL,118,68965,123,yes,1024
95.96774194,95.96774194,559.9112903,559.9112903,black,legacy,legacy,legacy,0,congruent,uniform,1,undefined,1,s,123,0,0,0,123,0,123,0,123,0,0,0,123,123,123,123,9/26/19 17:50,600,The main experiment item,yes,FlankertaskSL.osexp,C:/Users/Sarah Linan/Desktop,no,mono,no,18,no,white,no,yes,768,legacy,43,79,C:/Users/Sarah Linan/Desktop/SL-subject-4.csv,legacy,Kafkaesque Koffka,3.2.8,0,s,NA,h,s,NA,s,464,NA,138120,39408,NA,464,2,legacy,1024,2,48000,-16,experiment,SSSSS,4,even,409730,140013,330909,NA,386418,1884,400220,NA,410826,1892,291499,NA,410930,411395,410823,410929,Flanker task SL,119,69429,124,yes,1024
95.2,95.2,559.328,559.328,black,legacy,legacy,legacy,0,incongruent,uniform,0,undefined,0,h,124,0,0,0,124,0,124,0,124,0,0,0,124,124,124,124,9/26/19 17:50,600,The main experiment item,yes,FlankertaskSL.osexp,C:/Users/Sarah Linan/Desktop,no,mono,no,18,no,white,no,yes,768,legacy,44,79,C:/Users/Sarah Linan/Desktop/SL-subject-4.csv,legacy,Kafkaesque Koffka,3.2.8,0,s,NA,h,s,NA,s,487,NA,138120,39408,NA,487,2,legacy,1024,2,48000,-16,experiment,SSHSS,4,even,411481,140013,330909,NA,386418,1884,400220,NA,412585,1892,291499,NA,412688,413178,412582,412688,Flanker task SL,119,69916,125,yes,1024
95.23809524,95.23809524,558.8333333,558.8333333,black,legacy,legacy,legacy,0,incongruent,uniform,1,undefined,1,h,125,0,0,0,125,0,125,0,125,0,0,0,125,125,125,125,9/26/19 17:50,600,The main experiment item,yes,FlankertaskSL.osexp,C:/Users/Sarah Linan/Desktop,no,mono,no,18,no,white,no,yes,768,legacy,45,79,C:/Users/Sarah Linan/Desktop/SL-subject-4.csv,legacy,Kafkaesque Koffka,3.2.8,0,h,NA,h,s,NA,h,497,NA,138120,39408,NA,497,2,legacy,1024,2,48000,-16,experiment,SSHSS,4,even,413727,140013,330909,NA,413223,1884,400220,NA,414810,1892,291499,NA,414915,415413,414807,414913,Flanker task SL,120,70413,126,yes,1024
95.27559055,95.27559055,558.4015748,558.4015748,black,legacy,legacy,legacy,0,congruent,uniform,1,undefined,1,h,126,0,0,0,126,0,126,0,126,0,0,0,126,126,126,126,9/26/19 17:50,600,The main experiment item,yes,FlankertaskSL.osexp,C:/Users/Sarah Linan/Desktop,no,mono,no,18,no,white,no,yes,768,legacy,46,79,C:/Users/Sarah Linan/Desktop/SL-subject-4.csv,legacy,Kafkaesque Koffka,3.2.8,0,h,NA,h,s,NA,h,504,NA,138120,39408,NA,504,2,legacy,1024,2,48000,-16,experiment,HHHHH,4,even,415498,140013,330909,NA,413223,1884,400220,NA,416597,1892,291499,NA,416698,417203,416594,416698,Flanker task SL,121,70917,127,yes,1024
95.3125,95.3125,557.609375,557.609375,black,legacy,legacy,legacy,0,incongruent ,uniform,1,undefined,1,s,127,0,0,0,127,0,127,0,127,0,0,0,127,127,127,127,9/26/19 17:50,600,The main experiment item,yes,FlankertaskSL.osexp,C:/Users/Sarah Linan/Desktop,no,mono,no,18,no,white,no,yes,768,legacy,47,79,C:/Users/Sarah Linan/Desktop/SL-subject-4.csv,legacy,Kafkaesque Koffka,3.2.8,0,s,NA,h,s,NA,s,457,NA,138120,39408,NA,457,2,legacy,1024,2,48000,-16,experiment,HHSHH,4,even,417295,140013,330909,NA,413223,1884,400220,NA,418407,1892,291499,NA,418509,418968,418404,418509,Flanker task SL,122,71374,128,yes,1024
95.34883721,95.34883721,556.8372093,556.8372093,black,legacy,legacy,legacy,0,incongruent ,uniform,1,undefined,1,s,128,0,0,0,128,0,128,0,128,0,0,0,128,128,128,128,9/26/19 17:50,600,The main experiment item,yes,FlankertaskSL.osexp,C:/Users/Sarah Linan/Desktop,no,mono,no,18,no,white,no,yes,768,legacy,48,79,C:/Users/Sarah Linan/Desktop/SL-subject-4.csv,legacy,Kafkaesque Koffka,3.2.8,0,s,NA,h,s,NA,s,458,NA,138120,39408,NA,458,2,legacy,1024,2,48000,-16,experiment,HHSHH,4,even,419058,140013,330909,NA,413223,1884,400220,NA,420157,1892,291499,NA,420259,420719,420154,420259,Flanker task SL,123,71832,129,yes,1024
95.38461538,95.38461538,556.4153846,556.4153846,black,legacy,legacy,legacy,0,incongruent ,uniform,1,undefined,1,s,129,0,0,0,129,0,129,0,129,0,0,0,129,129,129,129,9/26/19 17:50,600,The main experiment item,yes,FlankertaskSL.osexp,C:/Users/Sarah Linan/Desktop,no,mono,no,18,no,white,no,yes,768,legacy,49,79,C:/Users/Sarah Linan/Desktop/SL-subject-4.csv,legacy,Kafkaesque Koffka,3.2.8,0,s,NA,h,s,NA,s,502,NA,138120,39408,NA,502,2,legacy,1024,2,48000,-16,experiment,HHSHH,4,even,420812,140013,330909,NA,413223,1884,400220,NA,421907,1892,291499,NA,422008,422512,421903,422008,Flanker task SL,124,72334,130,yes,1024
95.41984733,95.41984733,556.5114504,556.5114504,black,legacy,legacy,legacy,0,incongruent,uniform,1,undefined,1,h,130,0,0,0,130,0,130,0,130,0,0,0,130,130,130,130,9/26/19 17:50,600,The main experiment item,yes,FlankertaskSL.osexp,C:/Users/Sarah Linan/Desktop,no,mono,no,18,no,white,no,yes,768,legacy,50,79,C:/Users/Sarah Linan/Desktop/SL-subject-4.csv,legacy,Kafkaesque Koffka,3.2.8,0,h,NA,h,s,NA,h,569,NA,138120,39408,NA,569,2,legacy,1024,2,48000,-16,experiment,SSHSS,4,even,422599,140013,330909,NA,413223,1884,400220,NA,423693,1892,291499,NA,423795,424366,423690,423795,Flanker task SL,125,72903,131,yes,1024
95.45454545,95.45454545,556.2954545,556.2954545,black,legacy,legacy,legacy,0,congruent,uniform,1,undefined,1,h,131,0,0,0,131,0,131,0,131,0,0,0,131,131,131,131,9/26/19 17:50,600,The main experiment item,yes,FlankertaskSL.osexp,C:/Users/Sarah Linan/Desktop,no,mono,no,18,no,white,no,yes,768,legacy,51,79,C:/Users/Sarah Linan/Desktop/SL-subject-4.csv,legacy,Kafkaesque Koffka,3.2.8,0,h,NA,h,s,NA,h,528,NA,138120,39408,NA,528,2,legacy,1024,2,48000,-16,experiment,HHHHH,4,even,424452,140013,330909,NA,413223,1884,400220,NA,425556,1892,291499,NA,425658,426189,425553,425658,Flanker task SL,126,73431,132,yes,1024
95.4887218,95.4887218,556.7067669,556.7067669,black,legacy,legacy,legacy,0,incongruent,uniform,1,undefined,1,h,132,0,0,0,132,0,132,0,132,0,0,0,132,132,132,132,9/26/19 17:50,600,The main experiment item,yes,FlankertaskSL.osexp,C:/Users/Sarah Linan/Desktop,no,mono,no,18,no,white,no,yes,768,legacy,52,79,C:/Users/Sarah Linan/Desktop/SL-subject-4.csv,legacy,Kafkaesque Koffka,3.2.8,0,h,NA,h,s,NA,h,611,NA,138120,39408,NA,611,2,legacy,1024,2,48000,-16,experiment,SSHSS,4,even,426284,140013,330909,NA,413223,1884,400220,NA,427376,1892,291499,NA,427478,428091,427373,427478,Flanker task SL,127,74042,133,yes,1024
95.52238806,95.52238806,556.6567164,556.6567164,black,legacy,legacy,legacy,0,congruent,uniform,1,undefined,1,s,133,0,0,0,133,0,133,0,133,0,0,0,133,133,133,133,9/26/19 17:50,600,The main experiment item,yes,FlankertaskSL.osexp,C:/Users/Sarah Linan/Desktop,no,mono,no,18,no,white,no,yes,768,legacy,53,79,C:/Users/Sarah Linan/Desktop/SL-subject-4.csv,legacy,Kafkaesque Koffka,3.2.8,0,s,NA,h,s,NA,s,550,NA,138120,39408,NA,550,2,legacy,1024,2,48000,-16,experiment,SSSSS,4,even,428683,140013,330909,NA,413223,1884,428180,NA,429782,1892,291499,NA,429886,430438,429779,429886,Flanker task SL,128,74592,134,yes,1024
95.55555556,95.55555556,555.6,555.6,black,legacy,legacy,legacy,0,congruent,uniform,1,undefined,1,s,134,0,0,0,134,0,134,0,134,0,0,0,134,134,134,134,9/26/19 17:50,600,The main experiment item,yes,FlankertaskSL.osexp,C:/Users/Sarah Linan/Desktop,no,mono,no,18,no,white,no,yes,768,legacy,54,79,C:/Users/Sarah Linan/Desktop/SL-subject-4.csv,legacy,Kafkaesque Koffka,3.2.8,0,s,NA,h,s,NA,s,414,NA,138120,39408,NA,414,2,legacy,1024,2,48000,-16,experiment,SSSSS,4,even,430521,140013,330909,NA,413223,1884,428180,NA,431619,1892,291499,NA,431721,432136,431616,431721,Flanker task SL,129,75006,135,yes,1024
95.58823529,95.58823529,554.7426471,554.7426471,black,legacy,legacy,legacy,0,congruent,uniform,1,undefined,1,h,135,0,0,0,135,0,135,0,135,0,0,0,135,135,135,135,9/26/19 17:50,600,The main experiment item,yes,FlankertaskSL.osexp,C:/Users/Sarah Linan/Desktop,no,mono,no,18,no,white,no,yes,768,legacy,55,79,C:/Users/Sarah Linan/Desktop/SL-subject-4.csv,legacy,Kafkaesque Koffka,3.2.8,0,h,NA,h,s,NA,h,439,NA,138120,39408,NA,439,2,legacy,1024,2,48000,-16,experiment,HHHHH,4,even,432230,140013,330909,NA,413223,1884,428180,NA,433326,1892,291499,NA,433428,433869,433323,433428,Flanker task SL,130,75445,136,yes,1024
95.62043796,95.62043796,554.189781,554.189781,black,legacy,legacy,legacy,0,congruent,uniform,1,undefined,1,h,136,0,0,0,136,0,136,0,136,0,0,0,136,136,136,136,9/26/19 17:50,600,The main experiment item,yes,FlankertaskSL.osexp,C:/Users/Sarah Linan/Desktop,no,mono,no,18,no,white,no,yes,768,legacy,56,79,C:/Users/Sarah Linan/Desktop/SL-subject-4.csv,legacy,Kafkaesque Koffka,3.2.8,0,h,NA,h,s,NA,h,479,NA,138120,39408,NA,479,2,legacy,1024,2,48000,-16,experiment,HHHHH,4,even,433960,140013,330909,NA,413223,1884,428180,NA,435054,1892,291499,NA,435156,435638,435051,435156,Flanker task SL,131,75924,137,yes,1024
95.65217391,95.65217391,554.4202899,554.4202899,black,legacy,legacy,legacy,0,incongruent,uniform,1,undefined,1,h,137,0,0,0,137,0,137,0,137,0,0,0,137,137,137,137,9/26/19 17:50,600,The main experiment item,yes,FlankertaskSL.osexp,C:/Users/Sarah Linan/Desktop,no,mono,no,18,no,white,no,yes,768,legacy,57,79,C:/Users/Sarah Linan/Desktop/SL-subject-4.csv,legacy,Kafkaesque Koffka,3.2.8,0,h,NA,h,s,NA,h,586,NA,138120,39408,NA,586,2,legacy,1024,2,48000,-16,experiment,SSHSS,4,even,435726,140013,330909,NA,413223,1884,428180,NA,436829,1892,291499,NA,436932,437520,436825,436932,Flanker task SL,132,76510,138,yes,1024
95.68345324,95.68345324,554.381295,554.381295,black,legacy,legacy,legacy,0,congruent,uniform,1,undefined,1,h,138,0,0,0,138,0,138,0,138,0,0,0,138,138,138,138,9/26/19 17:50,600,The main experiment item,yes,FlankertaskSL.osexp,C:/Users/Sarah Linan/Desktop,no,mono,no,18,no,white,no,yes,768,legacy,58,79,C:/Users/Sarah Linan/Desktop/SL-subject-4.csv,legacy,Kafkaesque Koffka,3.2.8,0,h,NA,h,s,NA,h,549,NA,138120,39408,NA,549,2,legacy,1024,2,48000,-16,experiment,HHHHH,4,even,437611,140013,330909,NA,413223,1884,428180,NA,438707,1892,291499,NA,438809,439360,438703,438809,Flanker task SL,133,77059,139,yes,1024
95.71428571,95.71428571,553.7071429,553.7071429,black,legacy,legacy,legacy,0,congruent,uniform,1,undefined,1,h,139,0,0,0,139,0,139,0,139,0,0,0,139,139,139,139,9/26/19 17:50,600,The main experiment item,yes,FlankertaskSL.osexp,C:/Users/Sarah Linan/Desktop,no,mono,no,18,no,white,no,yes,768,legacy,59,79,C:/Users/Sarah Linan/Desktop/SL-subject-4.csv,legacy,Kafkaesque Koffka,3.2.8,0,h,NA,h,s,NA,h,460,NA,138120,39408,NA,460,2,legacy,1024,2,48000,-16,experiment,HHHHH,4,even,439453,140013,330909,NA,413223,1884,428180,NA,440547,1892,291499,NA,440649,441111,440544,440649,Flanker task SL,134,77519,140,yes,1024
95.74468085,95.74468085,553.1134752,553.1134752,black,legacy,legacy,legacy,0,congruent,uniform,1,undefined,1,s,140,0,0,0,140,0,140,0,140,0,0,0,140,140,140,140,9/26/19 17:50,600,The main experiment item,yes,FlankertaskSL.osexp,C:/Users/Sarah Linan/Desktop,no,mono,no,18,no,white,no,yes,768,legacy,60,79,C:/Users/Sarah Linan/Desktop/SL-subject-4.csv,legacy,Kafkaesque Koffka,3.2.8,0,s,NA,h,s,NA,s,470,NA,138120,39408,NA,470,2,legacy,1024,2,48000,-16,experiment,SSSSS,4,even,441195,140013,330909,NA,413223,1884,428180,NA,442297,1892,291499,NA,442399,442871,442294,442399,Flanker task SL,135,77989,141,yes,1024
95.77464789,95.77464789,552.084507,552.084507,black,legacy,legacy,legacy,0,congruent,uniform,1,undefined,1,s,141,0,0,0,141,0,141,0,141,0,0,0,141,141,141,141,9/26/19 17:50,600,The main experiment item,yes,FlankertaskSL.osexp,C:/Users/Sarah Linan/Desktop,no,mono,no,18,no,white,no,yes,768,legacy,61,79,C:/Users/Sarah Linan/Desktop/SL-subject-4.csv,legacy,Kafkaesque Koffka,3.2.8,0,s,NA,h,s,NA,s,407,NA,138120,39408,NA,407,2,legacy,1024,2,48000,-16,experiment,SSSSS,4,even,442959,140013,330909,NA,413223,1884,428180,NA,444061,1892,291499,NA,444163,444572,444058,444163,Flanker task SL,136,78396,142,yes,1024
95.8041958,95.8041958,552.2097902,552.2097902,black,legacy,legacy,legacy,0,incongruent ,uniform,1,undefined,1,s,142,0,0,0,142,0,142,0,142,0,0,0,142,142,142,142,9/26/19 17:50,600,The main experiment item,yes,FlankertaskSL.osexp,C:/Users/Sarah Linan/Desktop,no,mono,no,18,no,white,no,yes,768,legacy,62,79,C:/Users/Sarah Linan/Desktop/SL-subject-4.csv,legacy,Kafkaesque Koffka,3.2.8,0,s,NA,h,s,NA,s,570,NA,138120,39408,NA,570,2,legacy,1024,2,48000,-16,experiment,HHSHH,4,even,444657,140013,330909,NA,413223,1884,428180,NA,445757,1892,291499,NA,445859,446431,445754,445859,Flanker task SL,137,78966,143,yes,1024
95.83333333,95.83333333,551.6180556,551.6180556,black,legacy,legacy,legacy,0,incongruent ,uniform,1,undefined,1,s,143,0,0,0,143,0,143,0,143,0,0,0,143,143,143,143,9/26/19 17:50,600,The main experiment item,yes,FlankertaskSL.osexp,C:/Users/Sarah Linan/Desktop,no,mono,no,18,no,white,no,yes,768,legacy,63,79,C:/Users/Sarah Linan/Desktop/SL-subject-4.csv,legacy,Kafkaesque Koffka,3.2.8,0,s,NA,h,s,NA,s,467,NA,138120,39408,NA,467,2,legacy,1024,2,48000,-16,experiment,HHSHH,4,even,446520,140013,330909,NA,413223,1884,428180,NA,447621,1892,291499,NA,447723,448192,447618,447723,Flanker task SL,138,79433,144,yes,1024
95.86206897,95.86206897,550.8344828,550.8344828,black,legacy,legacy,legacy,0,congruent,uniform,1,undefined,1,s,144,0,0,0,144,0,144,0,144,0,0,0,144,144,144,144,9/26/19 17:50,600,The main experiment item,yes,FlankertaskSL.osexp,C:/Users/Sarah Linan/Desktop,no,mono,no,18,no,white,no,yes,768,legacy,64,79,C:/Users/Sarah Linan/Desktop/SL-subject-4.csv,legacy,Kafkaesque Koffka,3.2.8,0,s,NA,h,s,NA,s,438,NA,138120,39408,NA,438,2,legacy,1024,2,48000,-16,experiment,SSSSS,4,even,448286,140013,330909,NA,413223,1884,428180,NA,449383,1892,291499,NA,449487,449927,449380,449487,Flanker task SL,139,79871,145,yes,1024
95.89041096,95.89041096,550.6369863,550.6369863,black,legacy,legacy,legacy,0,incongruent ,uniform,1,undefined,1,s,145,0,0,0,145,0,145,0,145,0,0,0,145,145,145,145,9/26/19 17:50,600,The main experiment item,yes,FlankertaskSL.osexp,C:/Users/Sarah Linan/Desktop,no,mono,no,18,no,white,no,yes,768,legacy,65,79,C:/Users/Sarah Linan/Desktop/SL-subject-4.csv,legacy,Kafkaesque Koffka,3.2.8,0,s,NA,h,s,NA,s,522,NA,138120,39408,NA,522,2,legacy,1024,2,48000,-16,experiment,HHSHH,4,even,450015,140013,330909,NA,413223,1884,428180,NA,451108,1892,291499,NA,451210,451735,451105,451210,Flanker task SL,140,80393,146,yes,1024
95.91836735,95.91836735,550.2244898,550.2244898,black,legacy,legacy,legacy,0,congruent,uniform,1,undefined,1,h,146,0,0,0,146,0,146,0,146,0,0,0,146,146,146,146,9/26/19 17:50,600,The main experiment item,yes,FlankertaskSL.osexp,C:/Users/Sarah Linan/Desktop,no,mono,no,18,no,white,no,yes,768,legacy,66,79,C:/Users/Sarah Linan/Desktop/SL-subject-4.csv,legacy,Kafkaesque Koffka,3.2.8,0,h,NA,h,s,NA,h,490,NA,138120,39408,NA,490,2,legacy,1024,2,48000,-16,experiment,HHHHH,4,even,451824,140013,330909,NA,413223,1884,428180,NA,452920,1892,291499,NA,453022,453514,452917,453022,Flanker task SL,141,80883,147,yes,1024
95.94594595,95.94594595,550.1081081,550.1081081,black,legacy,legacy,legacy,0,incongruent,uniform,1,undefined,1,h,147,0,0,0,147,0,147,0,147,0,0,0,147,147,147,147,9/26/19 17:50,600,The main experiment item,yes,FlankertaskSL.osexp,C:/Users/Sarah Linan/Desktop,no,mono,no,18,no,white,no,yes,768,legacy,67,79,C:/Users/Sarah Linan/Desktop/SL-subject-4.csv,legacy,Kafkaesque Koffka,3.2.8,0,h,NA,h,s,NA,h,533,NA,138120,39408,NA,533,2,legacy,1024,2,48000,-16,experiment,SSHSS,4,even,453563,140013,330909,NA,413223,1884,428180,NA,454656,1892,291499,NA,454759,455295,454653,454759,Flanker task SL,142,81416,148,yes,1024
95.97315436,95.97315436,549.4228188,549.4228188,black,legacy,legacy,legacy,0,congruent,uniform,1,undefined,1,h,148,0,0,0,148,0,148,0,148,0,0,0,148,148,148,148,9/26/19 17:50,600,The main experiment item,yes,FlankertaskSL.osexp,C:/Users/Sarah Linan/Desktop,no,mono,no,18,no,white,no,yes,768,legacy,68,79,C:/Users/Sarah Linan/Desktop/SL-subject-4.csv,legacy,Kafkaesque Koffka,3.2.8,0,h,NA,h,s,NA,h,448,NA,138120,39408,NA,448,2,legacy,1024,2,48000,-16,experiment,HHHHH,4,even,455385,140013,330909,NA,413223,1884,428180,NA,456488,1892,291499,NA,456591,457040,456485,456590,Flanker task SL,143,81864,149,yes,1024
96,96,548.8066667,548.8066667,black,legacy,legacy,legacy,0,congruent,uniform,1,undefined,1,h,149,0,0,0,149,0,149,0,149,0,0,0,149,149,149,149,9/26/19 17:50,600,The main experiment item,yes,FlankertaskSL.osexp,C:/Users/Sarah Linan/Desktop,no,mono,no,18,no,white,no,yes,768,legacy,69,79,C:/Users/Sarah Linan/Desktop/SL-subject-4.csv,legacy,Kafkaesque Koffka,3.2.8,0,h,NA,h,s,NA,h,457,NA,138120,39408,NA,457,2,legacy,1024,2,48000,-16,experiment,HHHHH,4,even,457127,140013,330909,NA,413223,1884,428180,NA,458231,1892,291499,NA,458333,458792,458227,458333,Flanker task SL,144,82321,150,yes,1024
96.02649007,96.02649007,548.9668874,548.9668874,black,legacy,legacy,legacy,0,incongruent,uniform,1,undefined,1,h,150,0,0,0,150,0,150,0,150,0,0,0,150,150,150,150,9/26/19 17:50,600,The main experiment item,yes,FlankertaskSL.osexp,C:/Users/Sarah Linan/Desktop,no,mono,no,18,no,white,no,yes,768,legacy,70,79,C:/Users/Sarah Linan/Desktop/SL-subject-4.csv,legacy,Kafkaesque Koffka,3.2.8,0,h,NA,h,s,NA,h,573,NA,138120,39408,NA,573,2,legacy,1024,2,48000,-16,experiment,SSHSS,4,even,458881,140013,330909,NA,413223,1884,428180,NA,459993,1892,291499,NA,460096,460670,459989,460096,Flanker task SL,145,82894,151,yes,1024
96.05263158,96.05263158,548.3289474,548.3289474,black,legacy,legacy,legacy,0,incongruent ,uniform,1,undefined,1,s,151,0,0,0,151,0,151,0,151,0,0,0,151,151,151,151,9/26/19 17:50,600,The main experiment item,yes,FlankertaskSL.osexp,C:/Users/Sarah Linan/Desktop,no,mono,no,18,no,white,no,yes,768,legacy,71,79,C:/Users/Sarah Linan/Desktop/SL-subject-4.csv,legacy,Kafkaesque Koffka,3.2.8,0,s,NA,h,s,NA,s,452,NA,138120,39408,NA,452,2,legacy,1024,2,48000,-16,experiment,HHSHH,4,even,460756,140013,330909,NA,413223,1884,428180,NA,461850,1892,291499,NA,461952,462406,461846,461952,Flanker task SL,146,83346,152,yes,1024
96.07843137,96.07843137,547.496732,547.496732,black,legacy,legacy,legacy,0,incongruent ,uniform,1,undefined,1,s,152,0,0,0,152,0,152,0,152,0,0,0,152,152,152,152,9/26/19 17:50,600,The main experiment item,yes,FlankertaskSL.osexp,C:/Users/Sarah Linan/Desktop,no,mono,no,18,no,white,no,yes,768,legacy,72,79,C:/Users/Sarah Linan/Desktop/SL-subject-4.csv,legacy,Kafkaesque Koffka,3.2.8,0,s,NA,h,s,NA,s,421,NA,138120,39408,NA,421,2,legacy,1024,2,48000,-16,experiment,HHSHH,4,even,462498,140013,330909,NA,413223,1884,428180,NA,463595,1892,291499,NA,463698,464121,463592,463697,Flanker task SL,147,83767,153,yes,1024
96.1038961,96.1038961,546.7922078,546.7922078,black,legacy,legacy,legacy,0,incongruent ,uniform,1,undefined,1,s,153,0,0,0,153,0,153,0,153,0,0,0,153,153,153,153,9/26/19 17:50,600,The main experiment item,yes,FlankertaskSL.osexp,C:/Users/Sarah Linan/Desktop,no,mono,no,18,no,white,no,yes,768,legacy,73,79,C:/Users/Sarah Linan/Desktop/SL-subject-4.csv,legacy,Kafkaesque Koffka,3.2.8,0,s,NA,h,s,NA,s,439,NA,138120,39408,NA,439,2,legacy,1024,2,48000,-16,experiment,HHSHH,4,even,464206,140013,330909,NA,413223,1884,428180,NA,465303,1892,291499,NA,465405,465846,465300,465405,Flanker task SL,148,84206,154,yes,1024
96.12903226,96.12903226,546.4258065,546.4258065,black,legacy,legacy,legacy,0,congruent,uniform,1,undefined,1,s,154,0,0,0,154,0,154,0,154,0,0,0,154,154,154,154,9/26/19 17:50,600,The main experiment item,yes,FlankertaskSL.osexp,C:/Users/Sarah Linan/Desktop,no,mono,no,18,no,white,no,yes,768,legacy,74,79,C:/Users/Sarah Linan/Desktop/SL-subject-4.csv,legacy,Kafkaesque Koffka,3.2.8,0,s,NA,h,s,NA,s,490,NA,138120,39408,NA,490,2,legacy,1024,2,48000,-16,experiment,SSSSS,4,even,465936,140013,330909,NA,413223,1884,428180,NA,467041,1892,291499,NA,467143,467636,467038,467143,Flanker task SL,149,84696,155,yes,1024
96.15384615,96.15384615,545.6153846,545.6153846,black,legacy,legacy,legacy,0,congruent,uniform,1,undefined,1,s,155,0,0,0,155,0,155,0,155,0,0,0,155,155,155,155,9/26/19 17:50,600,The main experiment item,yes,FlankertaskSL.osexp,C:/Users/Sarah Linan/Desktop,no,mono,no,18,no,white,no,yes,768,legacy,75,79,C:/Users/Sarah Linan/Desktop/SL-subject-4.csv,legacy,Kafkaesque Koffka,3.2.8,0,s,NA,h,s,NA,s,420,NA,138120,39408,NA,420,2,legacy,1024,2,48000,-16,experiment,SSSSS,4,even,467723,140013,330909,NA,413223,1884,428180,NA,468824,1892,291499,NA,468927,469349,468821,468927,Flanker task SL,150,85116,156,yes,1024
96.17834395,96.17834395,545.5350318,545.5350318,black,legacy,legacy,legacy,0,congruent,uniform,1,undefined,1,h,156,0,0,0,156,0,156,0,156,0,0,0,156,156,156,156,9/26/19 17:50,600,The main experiment item,yes,FlankertaskSL.osexp,C:/Users/Sarah Linan/Desktop,no,mono,no,18,no,white,no,yes,768,legacy,76,79,C:/Users/Sarah Linan/Desktop/SL-subject-4.csv,legacy,Kafkaesque Koffka,3.2.8,0,h,NA,h,s,NA,h,533,NA,138120,39408,NA,533,2,legacy,1024,2,48000,-16,experiment,HHHHH,4,even,469433,140013,330909,NA,413223,1884,428180,NA,470535,1892,291499,NA,470637,471173,470532,470637,Flanker task SL,151,85649,157,yes,1024
96.20253165,96.20253165,545.056962,545.056962,black,legacy,legacy,legacy,0,incongruent,uniform,1,undefined,1,h,157,0,0,0,157,0,157,0,157,0,0,0,157,157,157,157,9/26/19 17:50,600,The main experiment item,yes,FlankertaskSL.osexp,C:/Users/Sarah Linan/Desktop,no,mono,no,18,no,white,no,yes,768,legacy,77,79,C:/Users/Sarah Linan/Desktop/SL-subject-4.csv,legacy,Kafkaesque Koffka,3.2.8,0,h,NA,h,s,NA,h,470,NA,138120,39408,NA,470,2,legacy,1024,2,48000,-16,experiment,SSHSS,4,even,471217,140013,330909,NA,413223,1884,428180,NA,472315,1892,291499,NA,472418,472890,472313,472418,Flanker task SL,152,86119,158,yes,1024
96.22641509,96.22641509,544.7044025,544.7044025,black,legacy,legacy,legacy,0,congruent,uniform,1,undefined,1,s,158,0,0,0,158,0,158,0,158,0,0,0,158,158,158,158,9/26/19 17:50,600,The main experiment item,yes,FlankertaskSL.osexp,C:/Users/Sarah Linan/Desktop,no,mono,no,18,no,white,no,yes,768,legacy,78,79,C:/Users/Sarah Linan/Desktop/SL-subject-4.csv,legacy,Kafkaesque Koffka,3.2.8,0,s,NA,h,s,NA,s,489,NA,138120,39408,NA,489,2,legacy,1024,2,48000,-16,experiment,SSSSS,4,even,472993,140013,330909,NA,413223,1884,428180,NA,474090,1892,291499,NA,474193,474684,474087,474193,Flanker task SL,153,86608,159,yes,1024
96.25,96.25,544.09375,544.09375,black,legacy,legacy,legacy,0,incongruent ,uniform,1,undefined,1,s,159,0,0,0,159,0,159,0,159,0,0,0,159,159,159,159,9/26/19 17:50,600,The main experiment item,yes,FlankertaskSL.osexp,C:/Users/Sarah Linan/Desktop,no,mono,no,18,no,white,no,yes,768,legacy,79,79,C:/Users/Sarah Linan/Desktop/SL-subject-4.csv,legacy,Kafkaesque Koffka,3.2.8,0,s,NA,h,s,NA,s,447,NA,138120,39408,NA,447,2,legacy,1024,2,48000,-16,experiment,HHSHH,4,even,474770,140013,330909,NA,413223,1884,428180,NA,475870,1892,291499,NA,475972,476421,475866,475972,Flanker task SL,154,87055,160,yes,1024
96.27329193,96.27329193,544.4161491,544.4161491,black,legacy,legacy,legacy,0,congruent,uniform,1,undefined,1,h,160,0,0,0,160,0,160,0,160,0,0,0,160,160,160,160,9/26/19 17:50,300,The main experiment item,yes,FlankertaskSL.osexp,C:/Users/Sarah Linan/Desktop,no,mono,no,18,no,white,no,yes,768,legacy,0,79,C:/Users/Sarah Linan/Desktop/SL-subject-4.csv,legacy,Kafkaesque Koffka,3.2.8,0,h,NA,h,s,s,h,596,NA,138120,39408,49652,596,2,legacy,1024,2,48000,-16,experiment,HHHHH,4,even,476510,140013,330909,527180,413223,1884,428180,NA,527272,1892,291499,477526,527376,527974,527270,527376,Flanker task SL,155,87651,161,yes,1024
96.2962963,96.2962963,544.1790123,544.1790123,black,legacy,legacy,legacy,0,congruent,uniform,1,undefined,1,h,161,0,0,0,161,0,161,0,161,0,0,0,161,161,161,161,9/26/19 17:50,300,The main experiment item,yes,FlankertaskSL.osexp,C:/Users/Sarah Linan/Desktop,no,mono,no,18,no,white,no,yes,768,legacy,1,79,C:/Users/Sarah Linan/Desktop/SL-subject-4.csv,legacy,Kafkaesque Koffka,3.2.8,0,h,NA,h,s,s,h,506,NA,138120,39408,49652,506,2,legacy,1024,2,48000,-16,experiment,HHHHH,4,even,528834,140013,330909,527180,413223,1884,528331,NA,529942,1892,291499,477526,530045,530553,529940,530045,Flanker task SL,156,88157,162,yes,1024
96.3190184,96.3190184,543.7055215,543.7055215,black,legacy,legacy,legacy,0,congruent,uniform,1,undefined,1,h,162,0,0,0,162,0,162,0,162,0,0,0,162,162,162,162,9/26/19 17:50,300,The main experiment item,yes,FlankertaskSL.osexp,C:/Users/Sarah Linan/Desktop,no,mono,no,18,no,white,no,yes,768,legacy,2,79,C:/Users/Sarah Linan/Desktop/SL-subject-4.csv,legacy,Kafkaesque Koffka,3.2.8,0,h,NA,h,s,s,h,467,NA,138120,39408,49652,467,2,legacy,1024,2,48000,-16,experiment,HHHHH,4,even,531144,140013,330909,527180,413223,1884,530640,NA,532248,1892,291499,477526,532352,532821,532245,532352,Flanker task SL,157,88624,163,yes,1024
95.73170732,95.73170732,542.8780488,542.8780488,black,legacy,legacy,legacy,0,incongruent,uniform,0,undefined,0,h,163,0,0,0,163,0,163,0,163,0,0,0,163,163,163,163,9/26/19 17:50,300,The main experiment item,yes,FlankertaskSL.osexp,C:/Users/Sarah Linan/Desktop,no,mono,no,18,no,white,no,yes,768,legacy,3,79,C:/Users/Sarah Linan/Desktop/SL-subject-4.csv,legacy,Kafkaesque Koffka,3.2.8,0,s,NA,h,s,s,s,408,NA,138120,39408,49652,408,2,legacy,1024,2,48000,-16,experiment,SSHSS,4,even,533415,140013,330909,527180,413223,1884,532912,NA,534512,1892,291499,477526,534615,535025,534509,534615,Flanker task SL,157,89032,164,yes,1024
95.15151515,95.15151515,542.7575758,542.7575758,black,legacy,legacy,legacy,0,incongruent ,uniform,0,undefined,0,s,164,0,0,0,164,0,164,0,164,0,0,0,164,164,164,164,9/26/19 17:50,300,The main experiment item,yes,FlankertaskSL.osexp,C:/Users/Sarah Linan/Desktop,no,mono,no,18,no,white,no,yes,768,legacy,4,79,C:/Users/Sarah Linan/Desktop/SL-subject-4.csv,legacy,Kafkaesque Koffka,3.2.8,0,h,NA,h,s,s,h,523,NA,138120,39408,49652,523,2,legacy,1024,2,48000,-16,experiment,HHSHH,4,even,536117,140013,330909,527180,535111,1884,535615,NA,537214,1892,291499,477526,537318,537843,537211,537318,Flanker task SL,157,89555,165,yes,1024
95.18072289,95.18072289,542.439759,542.439759,black,legacy,legacy,legacy,0,congruent,uniform,1,undefined,1,h,165,0,0,0,165,0,165,0,165,0,0,0,165,165,165,165,9/26/19 17:50,300,The main experiment item,yes,FlankertaskSL.osexp,C:/Users/Sarah Linan/Desktop,no,mono,no,18,no,white,no,yes,768,legacy,5,79,C:/Users/Sarah Linan/Desktop/SL-subject-4.csv,legacy,Kafkaesque Koffka,3.2.8,0,h,NA,h,s,s,h,490,NA,138120,39408,49652,490,2,legacy,1024,2,48000,-16,experiment,HHHHH,4,even,538934,140013,330909,527180,537928,1884,538431,NA,540033,1892,291499,477526,540137,540629,540030,540136,Flanker task SL,158,90045,166,yes,1024
