"acc","accuracy","average_response_time","avg_rt","background","canvas_backend","clock_backend","color_backend","compensation","condition","coordinates","correct","correct_instructions1","correct_response","correct_skeyboard_response","count_ISI","count_block1","count_block2","count_block3","count_errorFedback","count_experiment","count_faster","count_finish","count_fixation","count_instructions1","count_instructions2","count_instructions3","count_logger","count_sequence","count_skeyboard_response","count_stimulus","datetime","deadline","description","disable_garbage_collection","experiment_file","experiment_path","font_bold","font_family","font_italic","font_size","font_underline","foreground","form_clicks","fullscreen","height","keyboard_backend","live_row","live_row_block1","logfile","mouse_backend","opensesame_codename","opensesame_version","repeat_cycle","response","response_finish","response_instructions1","response_instructions2","response_instructions3","response_skeyboard_response","response_time","response_time_finish","response_time_instructions1","response_time_instructions2","response_time_instructions3","response_time_skeyboard_response","round_decimals","sampler_backend","sound_buf_size","sound_channels","sound_freq","sound_sample_size","start","stimulus","subject_nr","subject_parity","time_ISI","time_block1","time_block2","time_block3","time_errorFedback","time_experiment","time_faster","time_finish","time_fixation","time_instructions1","time_instructions2","time_instructions3","time_logger","time_sequence","time_skeyboard_response","time_stimulus","title","total_correct","total_response_time","total_responses","uniform_coordinates","width"
"100","100","724","724","black","legacy","legacy","legacy","0","congruent","uniform","1","undefined","s","1","0","0","0","0","0","0","0","NA","0","0","0","0","0","0","0","0","Sun Sep 19 22:54:15 2021","1500","The main experiment item","yes","FlankerTaskHW.osexp","C:/Users/19565/Desktop","no","mono","no","18","no","white","no","yes","768","legacy","0","0","C:/Users/19565/Desktop/MR-subject-2.csv","legacy","Lentiform Loewenfeld","3.3.9","0","s","NA","s","NA","NA","s","724","NA","22128","NA","NA","724","2","legacy","1024","2","48000","-16","experiment","SSSSS","3","odd","NA","25990","NA","NA","NA","3856","NA","NA","26093","3860","NA","NA","26921","26091","26197","26197","Flanker Task HW","1","724","1","yes","1024"
"100","100","827.5","827.5","black","legacy","legacy","legacy","0","congruent","uniform","1","undefined","h","1","1","0","0","0","1","0","1","NA","1","0","0","0","1","1","1","1","Sun Sep 19 22:54:15 2021","1500","The main experiment item","yes","FlankerTaskHW.osexp","C:/Users/19565/Desktop","no","mono","no","18","no","white","no","yes","768","legacy","1","1","C:/Users/19565/Desktop/MR-subject-2.csv","legacy","Lentiform Loewenfeld","3.3.9","0","h","NA","s","NA","NA","h","931","NA","22128","NA","NA","931","2","legacy","1024","2","48000","-16","experiment","HHHHH","3","odd","26932","25990","NA","NA","NA","3856","NA","NA","28064","3860","NA","NA","29100","28061","28168","28168","Flanker Task HW","2","1655","2","yes","1024"
"100","100","749","749","black","legacy","legacy","legacy","0","incongruent","uniform","1","undefined","s","1","2","0","0","0","2","0","2","NA","2","0","0","0","2","2","2","2","Sun Sep 19 22:54:15 2021","1500","The main experiment item","yes","FlankerTaskHW.osexp","C:/Users/19565/Desktop","no","mono","no","18","no","white","no","yes","768","legacy","2","2","C:/Users/19565/Desktop/MR-subject-2.csv","legacy","Lentiform Loewenfeld","3.3.9","0","s","NA","s","NA","NA","s","592","NA","22128","NA","NA","592","2","legacy","1024","2","48000","-16","experiment","HHSHH","3","odd","29108","25990","NA","NA","NA","3856","NA","NA","30251","3860","NA","NA","30949","30249","30356","30356","Flanker Task HW","3","2247","3","yes","1024"
"75","75","707.5","707.5","black","legacy","legacy","legacy","0","incongruent","uniform","0","undefined","h","0","3","0","0","0","3","0","3","NA","3","0","0","0","3","3","3","3","Sun Sep 19 22:54:15 2021","1500","The main experiment item","yes","FlankerTaskHW.osexp","C:/Users/19565/Desktop","no","mono","no","18","no","white","no","yes","768","legacy","3","3","C:/Users/19565/Desktop/MR-subject-2.csv","legacy","Lentiform Loewenfeld","3.3.9","0","s","NA","s","NA","NA","s","583","NA","22128","NA","NA","583","2","legacy","1024","2","48000","-16","experiment","SSHSS","3","odd","30958","25990","NA","NA","NA","3856","NA","NA","32129","3860","NA","NA","32817","32126","32233","32233","Flanker Task HW","3","2830","4","yes","1024"
"80","80","682.6","682.6","black","legacy","legacy","legacy","0","congruent","uniform","1","undefined","s","1","4","0","0","0","4","0","4","NA","4","0","0","0","4","4","4","4","Sun Sep 19 22:54:15 2021","1500","The main experiment item","yes","FlankerTaskHW.osexp","C:/Users/19565/Desktop","no","mono","no","18","no","white","no","yes","768","legacy","4","4","C:/Users/19565/Desktop/MR-subject-2.csv","legacy","Lentiform Loewenfeld","3.3.9","0","s","NA","s","NA","NA","s","583","NA","22128","NA","NA","583","2","legacy","1024","2","48000","-16","experiment","SSSSS","3","odd","33332","25990","NA","NA","32827","3856","NA","NA","34463","3860","NA","NA","35151","34461","34568","34568","Flanker Task HW","4","3413","5","yes","1024"
"83.33333333333333","83.33333333333333","655.1666666666666","655.1666666666666","black","legacy","legacy","legacy","0","incongruent","uniform","1","undefined","h","1","5","0","0","0","5","0","5","NA","5","0","0","0","5","5","5","5","Sun Sep 19 22:54:15 2021","1500","The main experiment item","yes","FlankerTaskHW.osexp","C:/Users/19565/Desktop","no","mono","no","18","no","white","no","yes","768","legacy","5","5","C:/Users/19565/Desktop/MR-subject-2.csv","legacy","Lentiform Loewenfeld","3.3.9","0","h","NA","s","NA","NA","h","518","NA","22128","NA","NA","518","2","legacy","1024","2","48000","-16","experiment","SSHSS","3","odd","35158","25990","NA","NA","32827","3856","NA","NA","36295","3860","NA","NA","36919","36292","36400","36400","Flanker Task HW","5","3931","6","yes","1024"
"85.71428571428571","85.71428571428571","632.2857142857143","632.2857142857143","black","legacy","legacy","legacy","0","congruent","uniform","1","undefined","h","1","6","0","0","0","6","0","6","NA","6","0","0","0","6","6","6","6","Sun Sep 19 22:54:15 2021","1500","The main experiment item","yes","FlankerTaskHW.osexp","C:/Users/19565/Desktop","no","mono","no","18","no","white","no","yes","768","legacy","6","6","C:/Users/19565/Desktop/MR-subject-2.csv","legacy","Lentiform Loewenfeld","3.3.9","0","h","NA","s","NA","NA","h","495","NA","22128","NA","NA","495","2","legacy","1024","2","48000","-16","experiment","HHHHH","3","odd","36931","25990","NA","NA","32827","3856","NA","NA","38067","3860","NA","NA","38669","38065","38173","38172","Flanker Task HW","6","4426","7","yes","1024"
"87.5","87.5","622.625","622.625","black","legacy","legacy","legacy","0","incongruent","uniform","1","undefined","s","1","7","0","0","0","7","0","7","NA","7","0","0","0","7","7","7","7","Sun Sep 19 22:54:15 2021","1500","The main experiment item","yes","FlankerTaskHW.osexp","C:/Users/19565/Desktop","no","mono","no","18","no","white","no","yes","768","legacy","7","7","C:/Users/19565/Desktop/MR-subject-2.csv","legacy","Lentiform Loewenfeld","3.3.9","0","s","NA","s","NA","NA","s","555","NA","22128","NA","NA","555","2","legacy","1024","2","48000","-16","experiment","HHSHH","3","odd","38680","25990","NA","NA","32827","3856","NA","NA","39844","3860","NA","NA","40504","39841","39948","39948","Flanker Task HW","7","4981","8","yes","1024"
"88.88888888888889","88.88888888888889","609.4444444444445","609.4444444444445","black","legacy","legacy","legacy","0","incongruent","uniform","1","undefined","h","1","8","0","0","0","8","0","8","NA","8","0","0","0","8","8","8","8","Sun Sep 19 22:54:15 2021","1500","The main experiment item","yes","FlankerTaskHW.osexp","C:/Users/19565/Desktop","no","mono","no","18","no","white","no","yes","768","legacy","8","8","C:/Users/19565/Desktop/MR-subject-2.csv","legacy","Lentiform Loewenfeld","3.3.9","0","h","NA","s","NA","NA","h","504","NA","22128","NA","NA","504","2","legacy","1024","2","48000","-16","experiment","SSHSS","3","odd","40510","25990","NA","NA","32827","3856","NA","NA","41688","3860","NA","NA","42297","41685","41792","41792","Flanker Task HW","8","5485","9","yes","1024"
"90","90","593.7","593.7","black","legacy","legacy","legacy","0","congruent","uniform","1","undefined","h","1","9","0","0","0","9","0","9","NA","9","0","0","0","9","9","9","9","Sun Sep 19 22:54:15 2021","1500","The main experiment item","yes","FlankerTaskHW.osexp","C:/Users/19565/Desktop","no","mono","no","18","no","white","no","yes","768","legacy","9","9","C:/Users/19565/Desktop/MR-subject-2.csv","legacy","Lentiform Loewenfeld","3.3.9","0","h","NA","s","NA","NA","h","452","NA","22128","NA","NA","452","2","legacy","1024","2","48000","-16","experiment","HHHHH","3","odd","42310","25990","NA","NA","32827","3856","NA","NA","43415","3860","NA","NA","43973","43413","43520","43519","Flanker Task HW","9","5937","10","yes","1024"
"90.9090909090909","90.9090909090909","591.3636363636364","591.3636363636364","black","legacy","legacy","legacy","0","congruent","uniform","1","undefined","s","1","10","0","0","0","10","0","10","NA","10","0","0","0","10","10","10","10","Sun Sep 19 22:54:15 2021","1500","The main experiment item","yes","FlankerTaskHW.osexp","C:/Users/19565/Desktop","no","mono","no","18","no","white","no","yes","768","legacy","10","10","C:/Users/19565/Desktop/MR-subject-2.csv","legacy","Lentiform Loewenfeld","3.3.9","0","s","NA","s","NA","NA","s","568","NA","22128","NA","NA","568","2","legacy","1024","2","48000","-16","experiment","SSSSS","3","odd","43982","25990","NA","NA","32827","3856","NA","NA","45141","3860","NA","NA","45816","45137","45246","45246","Flanker Task HW","10","6505","11","yes","1024"
"91.66666666666667","91.66666666666667","613.6666666666666","613.6666666666666","black","legacy","legacy","legacy","0","incongruent","uniform","1","undefined","h","1","11","0","0","0","11","0","11","NA","11","0","0","0","11","11","11","11","Sun Sep 19 22:54:15 2021","1500","The main experiment item","yes","FlankerTaskHW.osexp","C:/Users/19565/Desktop","no","mono","no","18","no","white","no","yes","768","legacy","11","11","C:/Users/19565/Desktop/MR-subject-2.csv","legacy","Lentiform Loewenfeld","3.3.9","0","h","NA","s","NA","NA","h","859","NA","22128","NA","NA","859","2","legacy","1024","2","48000","-16","experiment","SSHSS","3","odd","45825","25990","NA","NA","32827","3856","NA","NA","46962","3860","NA","NA","47926","46959","47067","47067","Flanker Task HW","11","7364","12","yes","1024"
"92.3076923076923","92.3076923076923","603.1538461538462","603.1538461538462","black","legacy","legacy","legacy","0","congruent","uniform","1","undefined","s","1","12","0","0","0","12","0","12","NA","12","0","0","0","12","12","12","12","Sun Sep 19 22:54:15 2021","1500","The main experiment item","yes","FlankerTaskHW.osexp","C:/Users/19565/Desktop","no","mono","no","18","no","white","no","yes","768","legacy","12","12","C:/Users/19565/Desktop/MR-subject-2.csv","legacy","Lentiform Loewenfeld","3.3.9","0","s","NA","s","NA","NA","s","477","NA","22128","NA","NA","477","2","legacy","1024","2","48000","-16","experiment","SSSSS","3","odd","47935","25990","NA","NA","32827","3856","NA","NA","49062","3860","NA","NA","49645","49059","49167","49167","Flanker Task HW","12","7841","13","yes","1024"
"92.85714285714286","92.85714285714286","587.6428571428571","587.6428571428571","black","legacy","legacy","legacy","0","incongruent","uniform","1","undefined","s","1","13","0","0","0","13","0","13","NA","13","0","0","0","13","13","13","13","Sun Sep 19 22:54:15 2021","1500","The main experiment item","yes","FlankerTaskHW.osexp","C:/Users/19565/Desktop","no","mono","no","18","no","white","no","yes","768","legacy","13","13","C:/Users/19565/Desktop/MR-subject-2.csv","legacy","Lentiform Loewenfeld","3.3.9","0","s","NA","s","NA","NA","s","386","NA","22128","NA","NA","386","2","legacy","1024","2","48000","-16","experiment","HHSHH","3","odd","49650","25990","NA","NA","32827","3856","NA","NA","50821","3860","NA","NA","51313","50819","50925","50924","Flanker Task HW","13","8227","14","yes","1024"
"93.33333333333333","93.33333333333333","582.2","582.2","black","legacy","legacy","legacy","0","congruent","uniform","1","undefined","s","1","14","0","0","0","14","0","14","NA","14","0","0","0","14","14","14","14","Sun Sep 19 22:54:15 2021","1500","The main experiment item","yes","FlankerTaskHW.osexp","C:/Users/19565/Desktop","no","mono","no","18","no","white","no","yes","768","legacy","14","14","C:/Users/19565/Desktop/MR-subject-2.csv","legacy","Lentiform Loewenfeld","3.3.9","0","s","NA","s","NA","NA","s","506","NA","22128","NA","NA","506","2","legacy","1024","2","48000","-16","experiment","SSSSS","3","odd","51323","25990","NA","NA","32827","3856","NA","NA","52510","3860","NA","NA","53122","52507","52615","52615","Flanker Task HW","14","8733","15","yes","1024"
"93.75","93.75","573.9375","573.9375","black","legacy","legacy","legacy","0","incongruent","uniform","1","undefined","s","1","15","0","0","0","15","0","15","NA","15","0","0","0","15","15","15","15","Sun Sep 19 22:54:15 2021","1500","The main experiment item","yes","FlankerTaskHW.osexp","C:/Users/19565/Desktop","no","mono","no","18","no","white","no","yes","768","legacy","15","15","C:/Users/19565/Desktop/MR-subject-2.csv","legacy","Lentiform Loewenfeld","3.3.9","0","s","NA","s","NA","NA","s","450","NA","22128","NA","NA","450","2","legacy","1024","2","48000","-16","experiment","HHSHH","3","odd","53131","25990","NA","NA","32827","3856","NA","NA","54277","3860","NA","NA","54833","54275","54382","54382","Flanker Task HW","15","9183","16","yes","1024"
"94.11764705882354","94.11764705882354","574.0588235294117","574.0588235294117","black","legacy","legacy","legacy","0","congruent","uniform","1","undefined","h","1","16","0","0","0","16","0","16","NA","16","0","0","0","16","16","16","16","Sun Sep 19 22:54:15 2021","1500","The main experiment item","yes","FlankerTaskHW.osexp","C:/Users/19565/Desktop","no","mono","no","18","no","white","no","yes","768","legacy","16","16","C:/Users/19565/Desktop/MR-subject-2.csv","legacy","Lentiform Loewenfeld","3.3.9","0","h","NA","s","NA","NA","h","576","NA","22128","NA","NA","576","2","legacy","1024","2","48000","-16","experiment","HHHHH","3","odd","54844","25990","NA","NA","32827","3856","NA","NA","56001","3860","NA","NA","56682","55998","56106","56106","Flanker Task HW","16","9759","17","yes","1024"
"94.44444444444444","94.44444444444444","566.1666666666666","566.1666666666666","black","legacy","legacy","legacy","0","congruent","uniform","1","undefined","s","1","17","0","0","0","17","0","17","NA","17","0","0","0","17","17","17","17","Sun Sep 19 22:54:15 2021","1500","The main experiment item","yes","FlankerTaskHW.osexp","C:/Users/19565/Desktop","no","mono","no","18","no","white","no","yes","768","legacy","17","17","C:/Users/19565/Desktop/MR-subject-2.csv","legacy","Lentiform Loewenfeld","3.3.9","0","s","NA","s","NA","NA","s","432","NA","22128","NA","NA","432","2","legacy","1024","2","48000","-16","experiment","SSSSS","3","odd","56692","25990","NA","NA","32827","3856","NA","NA","57858","3860","NA","NA","58394","57856","57962","57962","Flanker Task HW","17","10191","18","yes","1024"
"94.73684210526316","94.73684210526316","566.421052631579","566.421052631579","black","legacy","legacy","legacy","0","congruent","uniform","1","undefined","s","1","18","0","0","0","18","0","18","NA","18","0","0","0","18","18","18","18","Sun Sep 19 22:54:15 2021","1500","The main experiment item","yes","FlankerTaskHW.osexp","C:/Users/19565/Desktop","no","mono","no","18","no","white","no","yes","768","legacy","18","18","C:/Users/19565/Desktop/MR-subject-2.csv","legacy","Lentiform Loewenfeld","3.3.9","0","s","NA","s","NA","NA","s","571","NA","22128","NA","NA","571","2","legacy","1024","2","48000","-16","experiment","SSSSS","3","odd","58401","25990","NA","NA","32827","3856","NA","NA","59525","3860","NA","NA","60202","59522","59629","59629","Flanker Task HW","18","10762","19","yes","1024"
"95","95","569.05","569.05","black","legacy","legacy","legacy","0","congruent","uniform","1","undefined","h","1","19","0","0","0","19","0","19","NA","19","0","0","0","19","19","19","19","Sun Sep 19 22:54:15 2021","1500","The main experiment item","yes","FlankerTaskHW.osexp","C:/Users/19565/Desktop","no","mono","no","18","no","white","no","yes","768","legacy","19","19","C:/Users/19565/Desktop/MR-subject-2.csv","legacy","Lentiform Loewenfeld","3.3.9","0","h","NA","s","NA","NA","h","619","NA","22128","NA","NA","619","2","legacy","1024","2","48000","-16","experiment","HHHHH","3","odd","60211","25990","NA","NA","32827","3856","NA","NA","61377","3860","NA","NA","62102","61374","61482","61482","Flanker Task HW","19","11381","20","yes","1024"
"95.23809523809524","95.23809523809524","563.047619047619","563.047619047619","black","legacy","legacy","legacy","0","congruent","uniform","1","undefined","h","1","20","0","0","0","20","0","20","NA","20","0","0","0","20","20","20","20","Sun Sep 19 22:54:15 2021","1500","The main experiment item","yes","FlankerTaskHW.osexp","C:/Users/19565/Desktop","no","mono","no","18","no","white","no","yes","768","legacy","20","20","C:/Users/19565/Desktop/MR-subject-2.csv","legacy","Lentiform Loewenfeld","3.3.9","0","h","NA","s","NA","NA","h","443","NA","22128","NA","NA","443","2","legacy","1024","2","48000","-16","experiment","HHHHH","3","odd","62109","25990","NA","NA","32827","3856","NA","NA","63264","3860","NA","NA","63813","63262","63369","63369","Flanker Task HW","20","11824","21","yes","1024"
"90.9090909090909","90.9090909090909","557.1363636363636","557.1363636363636","black","legacy","legacy","legacy","0","incongruent","uniform","0","undefined","s","0","21","0","0","0","21","0","21","NA","21","0","0","0","21","21","21","21","Sun Sep 19 22:54:15 2021","1500","The main experiment item","yes","FlankerTaskHW.osexp","C:/Users/19565/Desktop","no","mono","no","18","no","white","no","yes","768","legacy","21","21","C:/Users/19565/Desktop/MR-subject-2.csv","legacy","Lentiform Loewenfeld","3.3.9","0","h","NA","s","NA","NA","h","433","NA","22128","NA","NA","433","2","legacy","1024","2","48000","-16","experiment","HHSHH","3","odd","63821","25990","NA","NA","32827","3856","NA","NA","64953","3860","NA","NA","65491","64949","65058","65058","Flanker Task HW","20","12257","22","yes","1024"
"91.30434782608695","91.30434782608695","558.7826086956521","558.7826086956521","black","legacy","legacy","legacy","0","incongruent","uniform","1","undefined","h","1","22","0","0","0","22","0","22","NA","22","0","0","0","22","22","22","22","Sun Sep 19 22:54:15 2021","1500","The main experiment item","yes","FlankerTaskHW.osexp","C:/Users/19565/Desktop","no","mono","no","18","no","white","no","yes","768","legacy","22","22","C:/Users/19565/Desktop/MR-subject-2.csv","legacy","Lentiform Loewenfeld","3.3.9","0","h","NA","s","NA","NA","h","595","NA","22128","NA","NA","595","2","legacy","1024","2","48000","-16","experiment","SSHSS","3","odd","66003","25990","NA","NA","65498","3856","NA","NA","67160","3860","NA","NA","67859","67156","67263","67263","Flanker Task HW","21","12852","23","yes","1024"
"91.66666666666667","91.66666666666667","557.125","557.125","black","legacy","legacy","legacy","0","congruent","uniform","1","undefined","h","1","23","0","0","0","23","0","23","NA","23","0","0","0","23","23","23","23","Sun Sep 19 22:54:15 2021","1500","The main experiment item","yes","FlankerTaskHW.osexp","C:/Users/19565/Desktop","no","mono","no","18","no","white","no","yes","768","legacy","23","23","C:/Users/19565/Desktop/MR-subject-2.csv","legacy","Lentiform Loewenfeld","3.3.9","0","h","NA","s","NA","NA","h","519","NA","22128","NA","NA","519","2","legacy","1024","2","48000","-16","experiment","HHHHH","3","odd","67865","25990","NA","NA","65498","3856","NA","NA","69037","3860","NA","NA","69664","69034","69142","69141","Flanker Task HW","22","13371","24","yes","1024"
"92","92","568.36","568.36","black","legacy","legacy","legacy","0","congruent","uniform","1","undefined","h","1","24","0","0","0","24","0","24","NA","24","0","0","0","24","24","24","24","Sun Sep 19 22:54:15 2021","1500","The main experiment item","yes","FlankerTaskHW.osexp","C:/Users/19565/Desktop","no","mono","no","18","no","white","no","yes","768","legacy","24","24","C:/Users/19565/Desktop/MR-subject-2.csv","legacy","Lentiform Loewenfeld","3.3.9","0","h","NA","s","NA","NA","h","838","NA","22128","NA","NA","838","2","legacy","1024","2","48000","-16","experiment","HHHHH","3","odd","69674","25990","NA","NA","65498","3856","NA","NA","70823","3860","NA","NA","71767","70820","70928","70928","Flanker Task HW","23","14209","25","yes","1024"
"92.3076923076923","92.3076923076923","564.7307692307693","564.7307692307693","black","legacy","legacy","legacy","0","congruent","uniform","1","undefined","s","1","25","0","0","0","25","0","25","NA","25","0","0","0","25","25","25","25","Sun Sep 19 22:54:15 2021","1500","The main experiment item","yes","FlankerTaskHW.osexp","C:/Users/19565/Desktop","no","mono","no","18","no","white","no","yes","768","legacy","25","25","C:/Users/19565/Desktop/MR-subject-2.csv","legacy","Lentiform Loewenfeld","3.3.9","0","s","NA","s","NA","NA","s","474","NA","22128","NA","NA","474","2","legacy","1024","2","48000","-16","experiment","SSSSS","3","odd","71776","25990","NA","NA","65498","3856","NA","NA","72923","3860","NA","NA","73503","72920","73027","73027","Flanker Task HW","24","14683","26","yes","1024"
"92.5925925925926","92.5925925925926","565","565","black","legacy","legacy","legacy","0","incongruent","uniform","1","undefined","s","1","26","0","0","0","26","0","26","NA","26","0","0","0","26","26","26","26","Sun Sep 19 22:54:15 2021","1500","The main experiment item","yes","FlankerTaskHW.osexp","C:/Users/19565/Desktop","no","mono","no","18","no","white","no","yes","768","legacy","26","26","C:/Users/19565/Desktop/MR-subject-2.csv","legacy","Lentiform Loewenfeld","3.3.9","0","s","NA","s","NA","NA","s","572","NA","22128","NA","NA","572","2","legacy","1024","2","48000","-16","experiment","HHSHH","3","odd","73513","25990","NA","NA","65498","3856","NA","NA","74661","3860","NA","NA","75339","74658","74767","74767","Flanker Task HW","25","15255","27","yes","1024"
"89.28571428571429","89.28571428571429","598.3928571428571","598.3928571428571","black","legacy","legacy","legacy","0","congruent","uniform","0","undefined","h","0","27","0","0","0","27","0","27","NA","27","0","0","0","27","27","27","27","Sun Sep 19 22:54:15 2021","1500","The main experiment item","yes","FlankerTaskHW.osexp","C:/Users/19565/Desktop","no","mono","no","18","no","white","no","yes","768","legacy","27","27","C:/Users/19565/Desktop/MR-subject-2.csv","legacy","Lentiform Loewenfeld","3.3.9","0","None","NA","s","NA","NA","None","1500","NA","22128","NA","NA","1500","2","legacy","1024","2","48000","-16","experiment","HHHHH","3","odd","75348","25990","NA","NA","65498","3856","NA","NA","76484","3860","NA","NA","78089","76482","76589","76588","Flanker Task HW","25","16755","28","yes","1024"
"89.65517241379311","89.65517241379311","596.2413793103449","596.2413793103449","black","legacy","legacy","legacy","0","incongruent","uniform","1","undefined","s","1","28","0","0","0","28","0","28","NA","28","0","0","0","28","28","28","28","Sun Sep 19 22:54:15 2021","1500","The main experiment item","yes","FlankerTaskHW.osexp","C:/Users/19565/Desktop","no","mono","no","18","no","white","no","yes","768","legacy","28","28","C:/Users/19565/Desktop/MR-subject-2.csv","legacy","Lentiform Loewenfeld","3.3.9","0","s","NA","s","NA","NA","s","536","NA","22128","NA","NA","536","2","legacy","1024","2","48000","-16","experiment","HHSHH","3","odd","78600","25990","NA","NA","78096","3856","NA","NA","79759","3860","NA","NA","80400","79756","79863","79863","Flanker Task HW","26","17291","29","yes","1024"
"90","90","604.4","604.4","black","legacy","legacy","legacy","0","congruent","uniform","1","undefined","s","1","29","0","0","0","29","0","29","NA","29","0","0","0","29","29","29","29","Sun Sep 19 22:54:15 2021","1500","The main experiment item","yes","FlankerTaskHW.osexp","C:/Users/19565/Desktop","no","mono","no","18","no","white","no","yes","768","legacy","29","29","C:/Users/19565/Desktop/MR-subject-2.csv","legacy","Lentiform Loewenfeld","3.3.9","0","s","NA","s","NA","NA","s","841","NA","22128","NA","NA","841","2","legacy","1024","2","48000","-16","experiment","SSSSS","3","odd","80411","25990","NA","NA","78096","3856","NA","NA","81558","3860","NA","NA","82504","81555","81662","81662","Flanker Task HW","27","18132","30","yes","1024"
"90.3225806451613","90.3225806451613","618.2258064516129","618.2258064516129","black","legacy","legacy","legacy","0","incongruent","uniform","1","undefined","s","1","30","0","0","0","30","0","30","NA","30","0","0","0","30","30","30","30","Sun Sep 19 22:54:15 2021","1500","The main experiment item","yes","FlankerTaskHW.osexp","C:/Users/19565/Desktop","no","mono","no","18","no","white","no","yes","768","legacy","30","30","C:/Users/19565/Desktop/MR-subject-2.csv","legacy","Lentiform Loewenfeld","3.3.9","0","s","NA","s","NA","NA","s","1033","NA","22128","NA","NA","1033","2","legacy","1024","2","48000","-16","experiment","HHSHH","3","odd","82510","25990","NA","NA","78096","3856","NA","NA","83716","3860","NA","NA","84856","83712","83821","83820","Flanker Task HW","28","19165","31","yes","1024"
"90.625","90.625","617.8125","617.8125","black","legacy","legacy","legacy","0","incongruent","uniform","1","undefined","s","1","31","0","0","0","31","0","31","NA","31","0","0","0","31","31","31","31","Sun Sep 19 22:54:15 2021","1500","The main experiment item","yes","FlankerTaskHW.osexp","C:/Users/19565/Desktop","no","mono","no","18","no","white","no","yes","768","legacy","31","31","C:/Users/19565/Desktop/MR-subject-2.csv","legacy","Lentiform Loewenfeld","3.3.9","0","s","NA","s","NA","NA","s","605","NA","22128","NA","NA","605","2","legacy","1024","2","48000","-16","experiment","HHSHH","3","odd","84863","25990","NA","NA","78096","3856","NA","NA","85995","3860","NA","NA","86706","85992","86099","86099","Flanker Task HW","29","19770","32","yes","1024"
"90.9090909090909","90.9090909090909","613.6969696969697","613.6969696969697","black","legacy","legacy","legacy","0","incongruent","uniform","1","undefined","s","1","32","0","0","0","32","0","32","NA","32","0","0","0","32","32","32","32","Sun Sep 19 22:54:15 2021","1500","The main experiment item","yes","FlankerTaskHW.osexp","C:/Users/19565/Desktop","no","mono","no","18","no","white","no","yes","768","legacy","32","32","C:/Users/19565/Desktop/MR-subject-2.csv","legacy","Lentiform Loewenfeld","3.3.9","0","s","NA","s","NA","NA","s","482","NA","22128","NA","NA","482","2","legacy","1024","2","48000","-16","experiment","HHSHH","3","odd","86715","25990","NA","NA","78096","3856","NA","NA","87866","3860","NA","NA","88454","87863","87970","87970","Flanker Task HW","30","20252","33","yes","1024"
"91.17647058823529","91.17647058823529","615.5588235294117","615.5588235294117","black","legacy","legacy","legacy","0","congruent","uniform","1","undefined","s","1","33","0","0","0","33","0","33","NA","33","0","0","0","33","33","33","33","Sun Sep 19 22:54:15 2021","1500","The main experiment item","yes","FlankerTaskHW.osexp","C:/Users/19565/Desktop","no","mono","no","18","no","white","no","yes","768","legacy","33","33","C:/Users/19565/Desktop/MR-subject-2.csv","legacy","Lentiform Loewenfeld","3.3.9","0","s","NA","s","NA","NA","s","677","NA","22128","NA","NA","677","2","legacy","1024","2","48000","-16","experiment","SSSSS","3","odd","88462","25990","NA","NA","78096","3856","NA","NA","89603","3860","NA","NA","90387","89601","89708","89708","Flanker Task HW","31","20929","34","yes","1024"
"91.42857142857143","91.42857142857143","628.2","628.2","black","legacy","legacy","legacy","0","incongruent","uniform","1","undefined","s","1","34","0","0","0","34","0","34","NA","34","0","0","0","34","34","34","34","Sun Sep 19 22:54:15 2021","1500","The main experiment item","yes","FlankerTaskHW.osexp","C:/Users/19565/Desktop","no","mono","no","18","no","white","no","yes","768","legacy","34","34","C:/Users/19565/Desktop/MR-subject-2.csv","legacy","Lentiform Loewenfeld","3.3.9","0","s","NA","s","NA","NA","s","1058","NA","22128","NA","NA","1058","2","legacy","1024","2","48000","-16","experiment","HHSHH","3","odd","90395","25990","NA","NA","78096","3856","NA","NA","91560","3860","NA","NA","92723","91557","91663","91663","Flanker Task HW","32","21987","35","yes","1024"
"91.66666666666667","91.66666666666667","623.5277777777778","623.5277777777778","black","legacy","legacy","legacy","0","incongruent","uniform","1","undefined","s","1","35","0","0","0","35","0","35","NA","35","0","0","0","35","35","35","35","Sun Sep 19 22:54:15 2021","1500","The main experiment item","yes","FlankerTaskHW.osexp","C:/Users/19565/Desktop","no","mono","no","18","no","white","no","yes","768","legacy","35","35","C:/Users/19565/Desktop/MR-subject-2.csv","legacy","Lentiform Loewenfeld","3.3.9","0","s","NA","s","NA","NA","s","460","NA","22128","NA","NA","460","2","legacy","1024","2","48000","-16","experiment","HHSHH","3","odd","92731","25990","NA","NA","78096","3856","NA","NA","93872","3860","NA","NA","94439","93869","93977","93976","Flanker Task HW","33","22447","36","yes","1024"
"91.89189189189189","91.89189189189189","625.3783783783783","625.3783783783783","black","legacy","legacy","legacy","0","incongruent","uniform","1","undefined","h","1","36","0","0","0","36","0","36","NA","36","0","0","0","36","36","36","36","Sun Sep 19 22:54:15 2021","1500","The main experiment item","yes","FlankerTaskHW.osexp","C:/Users/19565/Desktop","no","mono","no","18","no","white","no","yes","768","legacy","36","36","C:/Users/19565/Desktop/MR-subject-2.csv","legacy","Lentiform Loewenfeld","3.3.9","0","h","NA","s","NA","NA","h","692","NA","22128","NA","NA","692","2","legacy","1024","2","48000","-16","experiment","SSHSS","3","odd","94448","25990","NA","NA","78096","3856","NA","NA","95598","3860","NA","NA","96397","95595","95703","95703","Flanker Task HW","34","23139","37","yes","1024"
"92.10526315789474","92.10526315789474","622.2368421052631","622.2368421052631","black","legacy","legacy","legacy","0","incongruent","uniform","1","undefined","s","1","37","0","0","0","37","0","37","NA","37","0","0","0","37","37","37","37","Sun Sep 19 22:54:15 2021","1500","The main experiment item","yes","FlankerTaskHW.osexp","C:/Users/19565/Desktop","no","mono","no","18","no","white","no","yes","768","legacy","37","37","C:/Users/19565/Desktop/MR-subject-2.csv","legacy","Lentiform Loewenfeld","3.3.9","0","s","NA","s","NA","NA","s","506","NA","22128","NA","NA","506","2","legacy","1024","2","48000","-16","experiment","HHSHH","3","odd","96405","25990","NA","NA","78096","3856","NA","NA","97549","3860","NA","NA","98160","97546","97653","97652","Flanker Task HW","35","23645","38","yes","1024"
"92.3076923076923","92.3076923076923","618.2051282051282","618.2051282051282","black","legacy","legacy","legacy","0","congruent","uniform","1","undefined","s","1","38","0","0","0","38","0","38","NA","38","0","0","0","38","38","38","38","Sun Sep 19 22:54:15 2021","1500","The main experiment item","yes","FlankerTaskHW.osexp","C:/Users/19565/Desktop","no","mono","no","18","no","white","no","yes","768","legacy","38","38","C:/Users/19565/Desktop/MR-subject-2.csv","legacy","Lentiform Loewenfeld","3.3.9","0","s","NA","s","NA","NA","s","465","NA","22128","NA","NA","465","2","legacy","1024","2","48000","-16","experiment","SSSSS","3","odd","98165","25990","NA","NA","78096","3856","NA","NA","99290","3860","NA","NA","99864","99287","99395","99394","Flanker Task HW","36","24110","39","yes","1024"
"90","90","640.25","640.25","black","legacy","legacy","legacy","0","congruent","uniform","0","undefined","s","0","39","0","0","0","39","0","39","NA","39","0","0","0","39","39","39","39","Sun Sep 19 22:54:15 2021","1500","The main experiment item","yes","FlankerTaskHW.osexp","C:/Users/19565/Desktop","no","mono","no","18","no","white","no","yes","768","legacy","39","39","C:/Users/19565/Desktop/MR-subject-2.csv","legacy","Lentiform Loewenfeld","3.3.9","0","None","NA","s","NA","NA","None","1500","NA","22128","NA","NA","1500","2","legacy","1024","2","48000","-16","experiment","SSSSS","3","odd","99873","25990","NA","NA","78096","3856","NA","NA","101015","3860","NA","NA","102619","101013","101119","101119","Flanker Task HW","36","25610","40","yes","1024"
"90.2439024390244","90.2439024390244","636.170731707317","636.170731707317","black","legacy","legacy","legacy","0","congruent","uniform","1","undefined","s","1","40","0","0","0","40","0","40","NA","40","0","0","0","40","40","40","40","Sun Sep 19 22:54:15 2021","1500","The main experiment item","yes","FlankerTaskHW.osexp","C:/Users/19565/Desktop","no","mono","no","18","no","white","no","yes","768","legacy","40","40","C:/Users/19565/Desktop/MR-subject-2.csv","legacy","Lentiform Loewenfeld","3.3.9","0","s","NA","s","NA","NA","s","473","NA","22128","NA","NA","473","2","legacy","1024","2","48000","-16","experiment","SSSSS","3","odd","103131","25990","NA","NA","102627","3856","NA","NA","104301","3860","NA","NA","104882","104299","104406","104406","Flanker Task HW","37","26083","41","yes","1024"
"88.0952380952381","88.0952380952381","643.4285714285714","643.4285714285714","black","legacy","legacy","legacy","0","incongruent","uniform","0","undefined","h","0","41","0","0","0","41","0","41","NA","41","0","0","0","41","41","41","41","Sun Sep 19 22:54:15 2021","1500","The main experiment item","yes","FlankerTaskHW.osexp","C:/Users/19565/Desktop","no","mono","no","18","no","white","no","yes","768","legacy","41","41","C:/Users/19565/Desktop/MR-subject-2.csv","legacy","Lentiform Loewenfeld","3.3.9","0","s","NA","s","NA","NA","s","941","NA","22128","NA","NA","941","2","legacy","1024","2","48000","-16","experiment","SSHSS","3","odd","104892","25990","NA","NA","102627","3856","NA","NA","106047","3860","NA","NA","107094","106043","106151","106151","Flanker Task HW","37","27024","42","yes","1024"
"88.37209302325581","88.37209302325581","639.4883720930233","639.4883720930233","black","legacy","legacy","legacy","0","incongruent","uniform","1","undefined","h","1","42","0","0","0","42","0","42","NA","42","0","0","0","42","42","42","42","Sun Sep 19 22:54:15 2021","1500","The main experiment item","yes","FlankerTaskHW.osexp","C:/Users/19565/Desktop","no","mono","no","18","no","white","no","yes","768","legacy","42","42","C:/Users/19565/Desktop/MR-subject-2.csv","legacy","Lentiform Loewenfeld","3.3.9","0","h","NA","s","NA","NA","h","474","NA","22128","NA","NA","474","2","legacy","1024","2","48000","-16","experiment","SSHSS","3","odd","107607","25990","NA","NA","107102","3856","NA","NA","108721","3860","NA","NA","109300","108718","108825","108825","Flanker Task HW","38","27498","43","yes","1024"
"88.63636363636364","88.63636363636364","635.7045454545455","635.7045454545455","black","legacy","legacy","legacy","0","congruent","uniform","1","undefined","h","1","43","0","0","0","43","0","43","NA","43","0","0","0","43","43","43","43","Sun Sep 19 22:54:15 2021","1500","The main experiment item","yes","FlankerTaskHW.osexp","C:/Users/19565/Desktop","no","mono","no","18","no","white","no","yes","768","legacy","43","43","C:/Users/19565/Desktop/MR-subject-2.csv","legacy","Lentiform Loewenfeld","3.3.9","0","h","NA","s","NA","NA","h","473","NA","22128","NA","NA","473","2","legacy","1024","2","48000","-16","experiment","HHHHH","3","odd","109309","25990","NA","NA","107102","3856","NA","NA","110491","3860","NA","NA","111069","110488","110595","110595","Flanker Task HW","39","27971","44","yes","1024"
"88.88888888888889","88.88888888888889","643.1333333333333","643.1333333333333","black","legacy","legacy","legacy","0","congruent","uniform","1","undefined","s","1","44","0","0","0","44","0","44","NA","44","0","0","0","44","44","44","44","Sun Sep 19 22:54:15 2021","1500","The main experiment item","yes","FlankerTaskHW.osexp","C:/Users/19565/Desktop","no","mono","no","18","no","white","no","yes","768","legacy","44","44","C:/Users/19565/Desktop/MR-subject-2.csv","legacy","Lentiform Loewenfeld","3.3.9","0","s","NA","s","NA","NA","s","970","NA","22128","NA","NA","970","2","legacy","1024","2","48000","-16","experiment","SSSSS","3","odd","111076","25990","NA","NA","107102","3856","NA","NA","112299","3860","NA","NA","113376","112294","112404","112403","Flanker Task HW","40","28941","45","yes","1024"
"89.1304347826087","89.1304347826087","641.6304347826087","641.6304347826087","black","legacy","legacy","legacy","0","incongruent","uniform","1","undefined","h","1","45","0","0","0","45","0","45","NA","45","0","0","0","45","45","45","45","Sun Sep 19 22:54:15 2021","1500","The main experiment item","yes","FlankerTaskHW.osexp","C:/Users/19565/Desktop","no","mono","no","18","no","white","no","yes","768","legacy","45","45","C:/Users/19565/Desktop/MR-subject-2.csv","legacy","Lentiform Loewenfeld","3.3.9","0","h","NA","s","NA","NA","h","574","NA","22128","NA","NA","574","2","legacy","1024","2","48000","-16","experiment","SSHSS","3","odd","113385","25990","NA","NA","107102","3856","NA","NA","114587","3860","NA","NA","115267","114584","114691","114691","Flanker Task HW","41","29515","46","yes","1024"
"89.36170212765957","89.36170212765957","639.7659574468086","639.7659574468086","black","legacy","legacy","legacy","0","incongruent","uniform","1","undefined","h","1","46","0","0","0","46","0","46","NA","46","0","0","0","46","46","46","46","Sun Sep 19 22:54:15 2021","1500","The main experiment item","yes","FlankerTaskHW.osexp","C:/Users/19565/Desktop","no","mono","no","18","no","white","no","yes","768","legacy","46","46","C:/Users/19565/Desktop/MR-subject-2.csv","legacy","Lentiform Loewenfeld","3.3.9","0","h","NA","s","NA","NA","h","554","NA","22128","NA","NA","554","2","legacy","1024","2","48000","-16","experiment","SSHSS","3","odd","115277","25990","NA","NA","107102","3856","NA","NA","116403","3860","NA","NA","117064","116400","116508","116508","Flanker Task HW","42","30069","47","yes","1024"
"89.58333333333333","89.58333333333333","636.0416666666666","636.0416666666666","black","legacy","legacy","legacy","0","congruent","uniform","1","undefined","h","1","47","0","0","0","47","0","47","NA","47","0","0","0","47","47","47","47","Sun Sep 19 22:54:15 2021","1500","The main experiment item","yes","FlankerTaskHW.osexp","C:/Users/19565/Desktop","no","mono","no","18","no","white","no","yes","768","legacy","47","47","C:/Users/19565/Desktop/MR-subject-2.csv","legacy","Lentiform Loewenfeld","3.3.9","0","h","NA","s","NA","NA","h","461","NA","22128","NA","NA","461","2","legacy","1024","2","48000","-16","experiment","HHHHH","3","odd","117073","25990","NA","NA","107102","3856","NA","NA","118252","3860","NA","NA","118820","118249","118359","118358","Flanker Task HW","43","30530","48","yes","1024"
"89.79591836734694","89.79591836734694","632.4489795918367","632.4489795918367","black","legacy","legacy","legacy","0","incongruent","uniform","1","undefined","h","1","48","0","0","0","48","0","48","NA","48","0","0","0","48","48","48","48","Sun Sep 19 22:54:15 2021","1500","The main experiment item","yes","FlankerTaskHW.osexp","C:/Users/19565/Desktop","no","mono","no","18","no","white","no","yes","768","legacy","48","48","C:/Users/19565/Desktop/MR-subject-2.csv","legacy","Lentiform Loewenfeld","3.3.9","0","h","NA","s","NA","NA","h","460","NA","22128","NA","NA","460","2","legacy","1024","2","48000","-16","experiment","SSHSS","3","odd","118830","25990","NA","NA","107102","3856","NA","NA","119945","3860","NA","NA","120511","119942","120050","120050","Flanker Task HW","44","30990","49","yes","1024"
"90","90","630.16","630.16","black","legacy","legacy","legacy","0","congruent","uniform","1","undefined","h","1","49","0","0","0","49","0","49","NA","49","0","0","0","49","49","49","49","Sun Sep 19 22:54:15 2021","1500","The main experiment item","yes","FlankerTaskHW.osexp","C:/Users/19565/Desktop","no","mono","no","18","no","white","no","yes","768","legacy","49","49","C:/Users/19565/Desktop/MR-subject-2.csv","legacy","Lentiform Loewenfeld","3.3.9","0","h","NA","s","NA","NA","h","518","NA","22128","NA","NA","518","2","legacy","1024","2","48000","-16","experiment","HHHHH","3","odd","120519","25990","NA","NA","107102","3856","NA","NA","121648","3860","NA","NA","122273","121645","121753","121753","Flanker Task HW","45","31508","50","yes","1024"
"90.19607843137256","90.19607843137256","627.2156862745098","627.2156862745098","black","legacy","legacy","legacy","0","congruent","uniform","1","undefined","s","1","50","0","0","0","50","0","50","NA","50","0","0","0","50","50","50","50","Sun Sep 19 22:54:15 2021","1500","The main experiment item","yes","FlankerTaskHW.osexp","C:/Users/19565/Desktop","no","mono","no","18","no","white","no","yes","768","legacy","50","50","C:/Users/19565/Desktop/MR-subject-2.csv","legacy","Lentiform Loewenfeld","3.3.9","0","s","NA","s","NA","NA","s","480","NA","22128","NA","NA","480","2","legacy","1024","2","48000","-16","experiment","SSSSS","3","odd","122281","25990","NA","NA","107102","3856","NA","NA","123416","3860","NA","NA","124003","123413","123520","123519","Flanker Task HW","46","31988","51","yes","1024"
"90.38461538461539","90.38461538461539","635.3461538461538","635.3461538461538","black","legacy","legacy","legacy","0","congruent","uniform","1","undefined","s","1","51","0","0","0","51","0","51","NA","51","0","0","0","51","51","51","51","Sun Sep 19 22:54:15 2021","1500","The main experiment item","yes","FlankerTaskHW.osexp","C:/Users/19565/Desktop","no","mono","no","18","no","white","no","yes","768","legacy","51","51","C:/Users/19565/Desktop/MR-subject-2.csv","legacy","Lentiform Loewenfeld","3.3.9","0","s","NA","s","NA","NA","s","1050","NA","22128","NA","NA","1050","2","legacy","1024","2","48000","-16","experiment","SSSSS","3","odd","124013","25990","NA","NA","107102","3856","NA","NA","125189","3860","NA","NA","126345","125187","125294","125294","Flanker Task HW","47","33038","52","yes","1024"
"90.56603773584905","90.56603773584905","634.5849056603773","634.5849056603773","black","legacy","legacy","legacy","0","incongruent","uniform","1","undefined","h","1","52","0","0","0","52","0","52","NA","52","0","0","0","52","52","52","52","Sun Sep 19 22:54:15 2021","1500","The main experiment item","yes","FlankerTaskHW.osexp","C:/Users/19565/Desktop","no","mono","no","18","no","white","no","yes","768","legacy","52","52","C:/Users/19565/Desktop/MR-subject-2.csv","legacy","Lentiform Loewenfeld","3.3.9","0","h","NA","s","NA","NA","h","595","NA","22128","NA","NA","595","2","legacy","1024","2","48000","-16","experiment","SSHSS","3","odd","126352","25990","NA","NA","107102","3856","NA","NA","127509","3860","NA","NA","128211","127507","127614","127613","Flanker Task HW","48","33633","53","yes","1024"
"90.74074074074075","90.74074074074075","633.3333333333334","633.3333333333334","black","legacy","legacy","legacy","0","incongruent","uniform","1","undefined","h","1","53","0","0","0","53","0","53","NA","53","0","0","0","53","53","53","53","Sun Sep 19 22:54:15 2021","1500","The main experiment item","yes","FlankerTaskHW.osexp","C:/Users/19565/Desktop","no","mono","no","18","no","white","no","yes","768","legacy","53","53","C:/Users/19565/Desktop/MR-subject-2.csv","legacy","Lentiform Loewenfeld","3.3.9","0","h","NA","s","NA","NA","h","567","NA","22128","NA","NA","567","2","legacy","1024","2","48000","-16","experiment","SSHSS","3","odd","128220","25990","NA","NA","107102","3856","NA","NA","129375","3860","NA","NA","130047","129373","129479","129478","Flanker Task HW","49","34200","54","yes","1024"
"90.9090909090909","90.9090909090909","634.6181818181818","634.6181818181818","black","legacy","legacy","legacy","0","incongruent","uniform","1","undefined","s","1","54","0","0","0","54","0","54","NA","54","0","0","0","54","54","54","54","Sun Sep 19 22:54:15 2021","1500","The main experiment item","yes","FlankerTaskHW.osexp","C:/Users/19565/Desktop","no","mono","no","18","no","white","no","yes","768","legacy","54","54","C:/Users/19565/Desktop/MR-subject-2.csv","legacy","Lentiform Loewenfeld","3.3.9","0","s","NA","s","NA","NA","s","704","NA","22128","NA","NA","704","2","legacy","1024","2","48000","-16","experiment","HHSHH","3","odd","130056","25990","NA","NA","107102","3856","NA","NA","131206","3860","NA","NA","132017","131203","131311","131311","Flanker Task HW","50","34904","55","yes","1024"
"91.07142857142857","91.07142857142857","633.3928571428571","633.3928571428571","black","legacy","legacy","legacy","0","incongruent","uniform","1","undefined","s","1","55","0","0","0","55","0","55","NA","55","0","0","0","55","55","55","55","Sun Sep 19 22:54:15 2021","1500","The main experiment item","yes","FlankerTaskHW.osexp","C:/Users/19565/Desktop","no","mono","no","18","no","white","no","yes","768","legacy","55","55","C:/Users/19565/Desktop/MR-subject-2.csv","legacy","Lentiform Loewenfeld","3.3.9","0","s","NA","s","NA","NA","s","566","NA","22128","NA","NA","566","2","legacy","1024","2","48000","-16","experiment","HHSHH","3","odd","132025","25990","NA","NA","107102","3856","NA","NA","133152","3860","NA","NA","133824","133149","133256","133256","Flanker Task HW","51","35470","56","yes","1024"
"91.2280701754386","91.2280701754386","631.1578947368421","631.1578947368421","black","legacy","legacy","legacy","0","congruent","uniform","1","undefined","s","1","56","0","0","0","56","0","56","NA","56","0","0","0","56","56","56","56","Sun Sep 19 22:54:15 2021","1500","The main experiment item","yes","FlankerTaskHW.osexp","C:/Users/19565/Desktop","no","mono","no","18","no","white","no","yes","768","legacy","56","56","C:/Users/19565/Desktop/MR-subject-2.csv","legacy","Lentiform Loewenfeld","3.3.9","0","s","NA","s","NA","NA","s","506","NA","22128","NA","NA","506","2","legacy","1024","2","48000","-16","experiment","SSSSS","3","odd","133833","25990","NA","NA","107102","3856","NA","NA","135025","3860","NA","NA","135637","135021","135129","135129","Flanker Task HW","52","35976","57","yes","1024"
"91.37931034482759","91.37931034482759","631.8965517241379","631.8965517241379","black","legacy","legacy","legacy","0","congruent","uniform","1","undefined","h","1","57","0","0","0","57","0","57","NA","57","0","0","0","57","57","57","57","Sun Sep 19 22:54:15 2021","1500","The main experiment item","yes","FlankerTaskHW.osexp","C:/Users/19565/Desktop","no","mono","no","18","no","white","no","yes","768","legacy","57","57","C:/Users/19565/Desktop/MR-subject-2.csv","legacy","Lentiform Loewenfeld","3.3.9","0","h","NA","s","NA","NA","h","674","NA","22128","NA","NA","674","2","legacy","1024","2","48000","-16","experiment","HHHHH","3","odd","135647","25990","NA","NA","107102","3856","NA","NA","136823","3860","NA","NA","137605","136820","136928","136927","Flanker Task HW","53","36650","58","yes","1024"
"91.52542372881356","91.52542372881356","630.6610169491526","630.6610169491526","black","legacy","legacy","legacy","0","incongruent","uniform","1","undefined","h","1","58","0","0","0","58","0","58","NA","58","0","0","0","58","58","58","58","Sun Sep 19 22:54:15 2021","1500","The main experiment item","yes","FlankerTaskHW.osexp","C:/Users/19565/Desktop","no","mono","no","18","no","white","no","yes","768","legacy","58","58","C:/Users/19565/Desktop/MR-subject-2.csv","legacy","Lentiform Loewenfeld","3.3.9","0","h","NA","s","NA","NA","h","559","NA","22128","NA","NA","559","2","legacy","1024","2","48000","-16","experiment","SSHSS","3","odd","137617","25990","NA","NA","107102","3856","NA","NA","138803","3860","NA","NA","139470","138800","138909","138907","Flanker Task HW","54","37209","59","yes","1024"
"91.66666666666667","91.66666666666667","628.6166666666667","628.6166666666667","black","legacy","legacy","legacy","0","incongruent","uniform","1","undefined","h","1","59","0","0","0","59","0","59","NA","59","0","0","0","59","59","59","59","Sun Sep 19 22:54:15 2021","1500","The main experiment item","yes","FlankerTaskHW.osexp","C:/Users/19565/Desktop","no","mono","no","18","no","white","no","yes","768","legacy","59","59","C:/Users/19565/Desktop/MR-subject-2.csv","legacy","Lentiform Loewenfeld","3.3.9","0","h","NA","s","NA","NA","h","508","NA","22128","NA","NA","508","2","legacy","1024","2","48000","-16","experiment","SSHSS","3","odd","139480","25990","NA","NA","107102","3856","NA","NA","140658","3860","NA","NA","141273","140655","140764","140763","Flanker Task HW","55","37717","60","yes","1024"
"91.80327868852459","91.80327868852459","627.8032786885246","627.8032786885246","black","legacy","legacy","legacy","0","incongruent","uniform","1","undefined","s","1","60","0","0","0","60","0","60","NA","60","0","0","0","60","60","60","60","Sun Sep 19 22:54:15 2021","1500","The main experiment item","yes","FlankerTaskHW.osexp","C:/Users/19565/Desktop","no","mono","no","18","no","white","no","yes","768","legacy","60","60","C:/Users/19565/Desktop/MR-subject-2.csv","legacy","Lentiform Loewenfeld","3.3.9","0","s","NA","s","NA","NA","s","579","NA","22128","NA","NA","579","2","legacy","1024","2","48000","-16","experiment","HHSHH","3","odd","141283","25990","NA","NA","107102","3856","NA","NA","142426","3860","NA","NA","143111","142423","142530","142530","Flanker Task HW","56","38296","61","yes","1024"
"91.93548387096774","91.93548387096774","626.8870967741935","626.8870967741935","black","legacy","legacy","legacy","0","incongruent","uniform","1","undefined","s","1","61","0","0","0","61","0","61","NA","61","0","0","0","61","61","61","61","Sun Sep 19 22:54:15 2021","1500","The main experiment item","yes","FlankerTaskHW.osexp","C:/Users/19565/Desktop","no","mono","no","18","no","white","no","yes","768","legacy","61","61","C:/Users/19565/Desktop/MR-subject-2.csv","legacy","Lentiform Loewenfeld","3.3.9","0","s","NA","s","NA","NA","s","571","NA","22128","NA","NA","571","2","legacy","1024","2","48000","-16","experiment","HHSHH","3","odd","143121","25990","NA","NA","107102","3856","NA","NA","144261","3860","NA","NA","144939","144258","144366","144366","Flanker Task HW","57","38867","62","yes","1024"
"92.06349206349206","92.06349206349206","625.2698412698413","625.2698412698413","black","legacy","legacy","legacy","0","congruent","uniform","1","undefined","h","1","62","0","0","0","62","0","62","NA","62","0","0","0","62","62","62","62","Sun Sep 19 22:54:15 2021","1500","The main experiment item","yes","FlankerTaskHW.osexp","C:/Users/19565/Desktop","no","mono","no","18","no","white","no","yes","768","legacy","62","62","C:/Users/19565/Desktop/MR-subject-2.csv","legacy","Lentiform Loewenfeld","3.3.9","0","h","NA","s","NA","NA","h","525","NA","22128","NA","NA","525","2","legacy","1024","2","48000","-16","experiment","HHHHH","3","odd","144947","25990","NA","NA","107102","3856","NA","NA","146137","3860","NA","NA","146768","146134","146241","146241","Flanker Task HW","58","39392","63","yes","1024"
"92.1875","92.1875","625.234375","625.234375","black","legacy","legacy","legacy","0","incongruent","uniform","1","undefined","h","1","63","0","0","0","63","0","63","NA","63","0","0","0","63","63","63","63","Sun Sep 19 22:54:15 2021","1500","The main experiment item","yes","FlankerTaskHW.osexp","C:/Users/19565/Desktop","no","mono","no","18","no","white","no","yes","768","legacy","63","63","C:/Users/19565/Desktop/MR-subject-2.csv","legacy","Lentiform Loewenfeld","3.3.9","0","h","NA","s","NA","NA","h","623","NA","22128","NA","NA","623","2","legacy","1024","2","48000","-16","experiment","SSHSS","3","odd","146779","25990","NA","NA","107102","3856","NA","NA","147950","3860","NA","NA","148679","147947","148055","148055","Flanker Task HW","59","40015","64","yes","1024"
"92.3076923076923","92.3076923076923","629.5538461538462","629.5538461538462","black","legacy","legacy","legacy","0","incongruent","uniform","1","undefined","h","1","64","0","0","0","64","0","64","NA","64","0","0","0","64","64","64","64","Sun Sep 19 22:54:15 2021","1500","The main experiment item","yes","FlankerTaskHW.osexp","C:/Users/19565/Desktop","no","mono","no","18","no","white","no","yes","768","legacy","64","64","C:/Users/19565/Desktop/MR-subject-2.csv","legacy","Lentiform Loewenfeld","3.3.9","0","h","NA","s","NA","NA","h","906","NA","22128","NA","NA","906","2","legacy","1024","2","48000","-16","experiment","SSHSS","3","odd","148690","25990","NA","NA","107102","3856","NA","NA","149892","3860","NA","NA","150904","149889","149996","149995","Flanker Task HW","60","40921","65","yes","1024"
"92.42424242424242","92.42424242424242","629.1666666666666","629.1666666666666","black","legacy","legacy","legacy","0","incongruent","uniform","1","undefined","h","1","65","0","0","0","65","0","65","NA","65","0","0","0","65","65","65","65","Sun Sep 19 22:54:15 2021","1500","The main experiment item","yes","FlankerTaskHW.osexp","C:/Users/19565/Desktop","no","mono","no","18","no","white","no","yes","768","legacy","65","65","C:/Users/19565/Desktop/MR-subject-2.csv","legacy","Lentiform Loewenfeld","3.3.9","0","h","NA","s","NA","NA","h","604","NA","22128","NA","NA","604","2","legacy","1024","2","48000","-16","experiment","SSHSS","3","odd","150913","25990","NA","NA","107102","3856","NA","NA","152053","3860","NA","NA","152763","152050","152157","152157","Flanker Task HW","61","41525","66","yes","1024"
"92.53731343283582","92.53731343283582","627.9850746268656","627.9850746268656","black","legacy","legacy","legacy","0","incongruent","uniform","1","undefined","s","1","66","0","0","0","66","0","66","NA","66","0","0","0","66","66","66","66","Sun Sep 19 22:54:15 2021","1500","The main experiment item","yes","FlankerTaskHW.osexp","C:/Users/19565/Desktop","no","mono","no","18","no","white","no","yes","768","legacy","66","66","C:/Users/19565/Desktop/MR-subject-2.csv","legacy","Lentiform Loewenfeld","3.3.9","0","s","NA","s","NA","NA","s","550","NA","22128","NA","NA","550","2","legacy","1024","2","48000","-16","experiment","HHSHH","3","odd","152774","25990","NA","NA","107102","3856","NA","NA","153911","3860","NA","NA","154567","153908","154015","154015","Flanker Task HW","62","42075","67","yes","1024"
"92.6470588235294","92.6470588235294","626.75","626.75","black","legacy","legacy","legacy","0","congruent","uniform","1","undefined","h","1","67","0","0","0","67","0","67","NA","67","0","0","0","67","67","67","67","Sun Sep 19 22:54:15 2021","1500","The main experiment item","yes","FlankerTaskHW.osexp","C:/Users/19565/Desktop","no","mono","no","18","no","white","no","yes","768","legacy","67","67","C:/Users/19565/Desktop/MR-subject-2.csv","legacy","Lentiform Loewenfeld","3.3.9","0","h","NA","s","NA","NA","h","544","NA","22128","NA","NA","544","2","legacy","1024","2","48000","-16","experiment","HHHHH","3","odd","154576","25990","NA","NA","107102","3856","NA","NA","155687","3860","NA","NA","156337","155684","155791","155791","Flanker Task HW","63","42619","68","yes","1024"
"92.7536231884058","92.7536231884058","624.1159420289855","624.1159420289855","black","legacy","legacy","legacy","0","congruent","uniform","1","undefined","h","1","68","0","0","0","68","0","68","NA","68","0","0","0","68","68","68","68","Sun Sep 19 22:54:15 2021","1500","The main experiment item","yes","FlankerTaskHW.osexp","C:/Users/19565/Desktop","no","mono","no","18","no","white","no","yes","768","legacy","68","68","C:/Users/19565/Desktop/MR-subject-2.csv","legacy","Lentiform Loewenfeld","3.3.9","0","h","NA","s","NA","NA","h","445","NA","22128","NA","NA","445","2","legacy","1024","2","48000","-16","experiment","HHHHH","3","odd","156347","25990","NA","NA","107102","3856","NA","NA","157493","3860","NA","NA","158045","157491","157598","157597","Flanker Task HW","64","43064","69","yes","1024"
"92.85714285714286","92.85714285714286","622.9142857142857","622.9142857142857","black","legacy","legacy","legacy","0","congruent","uniform","1","undefined","s","1","69","0","0","0","69","0","69","NA","69","0","0","0","69","69","69","69","Sun Sep 19 22:54:15 2021","1500","The main experiment item","yes","FlankerTaskHW.osexp","C:/Users/19565/Desktop","no","mono","no","18","no","white","no","yes","768","legacy","69","69","C:/Users/19565/Desktop/MR-subject-2.csv","legacy","Lentiform Loewenfeld","3.3.9","0","s","NA","s","NA","NA","s","540","NA","22128","NA","NA","540","2","legacy","1024","2","48000","-16","experiment","SSSSS","3","odd","158054","25990","NA","NA","107102","3856","NA","NA","159206","3860","NA","NA","159853","159203","159311","159310","Flanker Task HW","65","43604","70","yes","1024"
"92.95774647887323","92.95774647887323","621.5915492957746","621.5915492957746","black","legacy","legacy","legacy","0","congruent","uniform","1","undefined","h","1","70","0","0","0","70","0","70","NA","70","0","0","0","70","70","70","70","Sun Sep 19 22:54:15 2021","1500","The main experiment item","yes","FlankerTaskHW.osexp","C:/Users/19565/Desktop","no","mono","no","18","no","white","no","yes","768","legacy","70","70","C:/Users/19565/Desktop/MR-subject-2.csv","legacy","Lentiform Loewenfeld","3.3.9","0","h","NA","s","NA","NA","h","529","NA","22128","NA","NA","529","2","legacy","1024","2","48000","-16","experiment","HHHHH","3","odd","159863","25990","NA","NA","107102","3856","NA","NA","161034","3860","NA","NA","161669","161031","161139","161138","Flanker Task HW","66","44133","71","yes","1024"
"93.05555555555556","93.05555555555556","619.7083333333334","619.7083333333334","black","legacy","legacy","legacy","0","congruent","uniform","1","undefined","h","1","71","0","0","0","71","0","71","NA","71","0","0","0","71","71","71","71","Sun Sep 19 22:54:15 2021","1500","The main experiment item","yes","FlankerTaskHW.osexp","C:/Users/19565/Desktop","no","mono","no","18","no","white","no","yes","768","legacy","71","71","C:/Users/19565/Desktop/MR-subject-2.csv","legacy","Lentiform Loewenfeld","3.3.9","0","h","NA","s","NA","NA","h","486","NA","22128","NA","NA","486","2","legacy","1024","2","48000","-16","experiment","HHHHH","3","odd","161675","25990","NA","NA","107102","3856","NA","NA","162850","3860","NA","NA","163442","162847","162954","162954","Flanker Task HW","67","44619","72","yes","1024"
"93.15068493150685","93.15068493150685","617.3972602739726","617.3972602739726","black","legacy","legacy","legacy","0","congruent","uniform","1","undefined","h","1","72","0","0","0","72","0","72","NA","72","0","0","0","72","72","72","72","Sun Sep 19 22:54:15 2021","1500","The main experiment item","yes","FlankerTaskHW.osexp","C:/Users/19565/Desktop","no","mono","no","18","no","white","no","yes","768","legacy","72","72","C:/Users/19565/Desktop/MR-subject-2.csv","legacy","Lentiform Loewenfeld","3.3.9","0","h","NA","s","NA","NA","h","451","NA","22128","NA","NA","451","2","legacy","1024","2","48000","-16","experiment","HHHHH","3","odd","163453","25990","NA","NA","107102","3856","NA","NA","164616","3860","NA","NA","165175","164613","164720","164720","Flanker Task HW","68","45070","73","yes","1024"
"93.24324324324324","93.24324324324324","618.6486486486486","618.6486486486486","black","legacy","legacy","legacy","0","congruent","uniform","1","undefined","s","1","73","0","0","0","73","0","73","NA","73","0","0","0","73","73","73","73","Sun Sep 19 22:54:15 2021","1500","The main experiment item","yes","FlankerTaskHW.osexp","C:/Users/19565/Desktop","no","mono","no","18","no","white","no","yes","768","legacy","73","73","C:/Users/19565/Desktop/MR-subject-2.csv","legacy","Lentiform Loewenfeld","3.3.9","0","s","NA","s","NA","NA","s","710","NA","22128","NA","NA","710","2","legacy","1024","2","48000","-16","experiment","SSSSS","3","odd","165183","25990","NA","NA","107102","3856","NA","NA","166345","3860","NA","NA","167162","166342","166450","166449","Flanker Task HW","69","45780","74","yes","1024"
"93.33333333333333","93.33333333333333","617.96","617.96","black","legacy","legacy","legacy","0","incongruent","uniform","1","undefined","h","1","74","0","0","0","74","0","74","NA","74","0","0","0","74","74","74","74","Sun Sep 19 22:54:15 2021","1500","The main experiment item","yes","FlankerTaskHW.osexp","C:/Users/19565/Desktop","no","mono","no","18","no","white","no","yes","768","legacy","74","74","C:/Users/19565/Desktop/MR-subject-2.csv","legacy","Lentiform Loewenfeld","3.3.9","0","h","NA","s","NA","NA","h","567","NA","22128","NA","NA","567","2","legacy","1024","2","48000","-16","experiment","SSHSS","3","odd","167172","25990","NA","NA","107102","3856","NA","NA","168396","3860","NA","NA","169070","168391","168501","168501","Flanker Task HW","70","46347","75","yes","1024"
"93.42105263157895","93.42105263157895","616.0526315789474","616.0526315789474","black","legacy","legacy","legacy","0","congruent","uniform","1","undefined","s","1","75","0","0","0","75","0","75","NA","75","0","0","0","75","75","75","75","Sun Sep 19 22:54:15 2021","1500","The main experiment item","yes","FlankerTaskHW.osexp","C:/Users/19565/Desktop","no","mono","no","18","no","white","no","yes","768","legacy","75","75","C:/Users/19565/Desktop/MR-subject-2.csv","legacy","Lentiform Loewenfeld","3.3.9","0","s","NA","s","NA","NA","s","473","NA","22128","NA","NA","473","2","legacy","1024","2","48000","-16","experiment","SSSSS","3","odd","169079","25990","NA","NA","107102","3856","NA","NA","170236","3860","NA","NA","170817","170233","170341","170341","Flanker Task HW","71","46820","76","yes","1024"
"93.50649350649351","93.50649350649351","615.8831168831168","615.8831168831168","black","legacy","legacy","legacy","0","incongruent","uniform","1","undefined","h","1","76","0","0","0","76","0","76","NA","76","0","0","0","76","76","76","76","Sun Sep 19 22:54:15 2021","1500","The main experiment item","yes","FlankerTaskHW.osexp","C:/Users/19565/Desktop","no","mono","no","18","no","white","no","yes","768","legacy","76","76","C:/Users/19565/Desktop/MR-subject-2.csv","legacy","Lentiform Loewenfeld","3.3.9","0","h","NA","s","NA","NA","h","603","NA","22128","NA","NA","603","2","legacy","1024","2","48000","-16","experiment","SSHSS","3","odd","170826","25990","NA","NA","107102","3856","NA","NA","171954","3860","NA","NA","172663","171951","172058","172058","Flanker Task HW","72","47423","77","yes","1024"
"93.58974358974359","93.58974358974359","614.6666666666666","614.6666666666666","black","legacy","legacy","legacy","0","incongruent","uniform","1","undefined","s","1","77","0","0","0","77","0","77","NA","77","0","0","0","77","77","77","77","Sun Sep 19 22:54:15 2021","1500","The main experiment item","yes","FlankerTaskHW.osexp","C:/Users/19565/Desktop","no","mono","no","18","no","white","no","yes","768","legacy","77","77","C:/Users/19565/Desktop/MR-subject-2.csv","legacy","Lentiform Loewenfeld","3.3.9","0","s","NA","s","NA","NA","s","521","NA","22128","NA","NA","521","2","legacy","1024","2","48000","-16","experiment","HHSHH","3","odd","172672","25990","NA","NA","107102","3856","NA","NA","173793","3860","NA","NA","174420","173791","173897","173897","Flanker Task HW","73","47944","78","yes","1024"
"93.67088607594937","93.67088607594937","613.0632911392405","613.0632911392405","black","legacy","legacy","legacy","0","congruent","uniform","1","undefined","h","1","78","0","0","0","78","0","78","NA","78","0","0","0","78","78","78","78","Sun Sep 19 22:54:15 2021","1500","The main experiment item","yes","FlankerTaskHW.osexp","C:/Users/19565/Desktop","no","mono","no","18","no","white","no","yes","768","legacy","78","78","C:/Users/19565/Desktop/MR-subject-2.csv","legacy","Lentiform Loewenfeld","3.3.9","0","h","NA","s","NA","NA","h","488","NA","22128","NA","NA","488","2","legacy","1024","2","48000","-16","experiment","HHHHH","3","odd","174432","25990","NA","NA","107102","3856","NA","NA","175562","3860","NA","NA","176157","175559","175667","175667","Flanker Task HW","74","48432","79","yes","1024"
"93.75","93.75","611.875","611.875","black","legacy","legacy","legacy","0","incongruent","uniform","1","undefined","s","1","79","0","0","0","79","0","79","NA","79","0","0","0","79","79","79","79","Sun Sep 19 22:54:15 2021","1500","The main experiment item","yes","FlankerTaskHW.osexp","C:/Users/19565/Desktop","no","mono","no","18","no","white","no","yes","768","legacy","79","79","C:/Users/19565/Desktop/MR-subject-2.csv","legacy","Lentiform Loewenfeld","3.3.9","0","s","NA","s","NA","NA","s","518","NA","22128","NA","NA","518","2","legacy","1024","2","48000","-16","experiment","HHSHH","3","odd","176166","25990","NA","NA","107102","3856","NA","NA","177352","3860","NA","NA","177973","177349","177454","177454","Flanker Task HW","75","48950","80","yes","1024"
"93.82716049382717","93.82716049382717","612.9135802469136","612.9135802469136","black","legacy","legacy","legacy","0","congruent","uniform","1","undefined","h","1","80","0","0","0","80","0","80","NA","80","0","0","0","80","80","80","80","Sun Sep 19 22:54:15 2021","600","The main experiment item","yes","FlankerTaskHW.osexp","C:/Users/19565/Desktop","no","mono","no","18","no","white","no","yes","768","legacy","0","79","C:/Users/19565/Desktop/MR-subject-2.csv","legacy","Lentiform Loewenfeld","3.3.9","0","h","NA","s","s","NA","h","696","NA","22128","9488","NA","696","2","legacy","1024","2","48000","-16","experiment","HHHHH","3","odd","177980","25990","188549","NA","107102","3856","NA","NA","188634","3860","179059","NA","189435","188632","188737","188737","Flanker Task HW","76","49646","81","yes","1024"
"93.90243902439025","93.90243902439025","610.6585365853658","610.6585365853658","black","legacy","legacy","legacy","0","congruent","uniform","1","undefined","h","1","81","0","0","0","81","0","81","NA","81","0","0","0","81","81","81","81","Sun Sep 19 22:54:15 2021","600","The main experiment item","yes","FlankerTaskHW.osexp","C:/Users/19565/Desktop","no","mono","no","18","no","white","no","yes","768","legacy","1","79","C:/Users/19565/Desktop/MR-subject-2.csv","legacy","Lentiform Loewenfeld","3.3.9","0","h","NA","s","s","NA","h","428","NA","22128","9488","NA","428","2","legacy","1024","2","48000","-16","experiment","HHHHH","3","odd","189947","25990","188549","NA","107102","3856","189443","NA","191064","3860","179059","NA","191597","191062","191168","191168","Flanker Task HW","77","50074","82","yes","1024"
"92.7710843373494","92.7710843373494","608.6024096385543","608.6024096385543","black","legacy","legacy","legacy","0","incongruent","uniform","0","undefined","h","0","82","0","0","0","82","0","82","NA","82","0","0","0","82","82","82","82","Sun Sep 19 22:54:15 2021","600","The main experiment item","yes","FlankerTaskHW.osexp","C:/Users/19565/Desktop","no","mono","no","18","no","white","no","yes","768","legacy","2","79","C:/Users/19565/Desktop/MR-subject-2.csv","legacy","Lentiform Loewenfeld","3.3.9","0","s","NA","s","s","NA","s","440","NA","22128","9488","NA","440","2","legacy","1024","2","48000","-16","experiment","SSHSS","3","odd","191605","25990","188549","NA","107102","3856","189443","NA","192775","3860","179059","NA","193324","192770","192881","192880","Flanker Task HW","77","50514","83","yes","1024"
"92.85714285714286","92.85714285714286","606.5595238095239","606.5595238095239","black","legacy","legacy","legacy","0","congruent","uniform","1","undefined","s","1","83","0","0","0","83","0","83","NA","83","0","0","0","83","83","83","83","Sun Sep 19 22:54:15 2021","600","The main experiment item","yes","FlankerTaskHW.osexp","C:/Users/19565/Desktop","no","mono","no","18","no","white","no","yes","768","legacy","3","79","C:/Users/19565/Desktop/MR-subject-2.csv","legacy","Lentiform Loewenfeld","3.3.9","0","s","NA","s","s","NA","s","437","NA","22128","9488","NA","437","2","legacy","1024","2","48000","-16","experiment","SSSSS","3","odd","193838","25990","188549","NA","193334","3856","189443","NA","194991","3860","179059","NA","195536","194989","195096","195096","Flanker Task HW","78","50951","84","yes","1024"
"92.94117647058823","92.94117647058823","604.8588235294118","604.8588235294118","black","legacy","legacy","legacy","0","congruent","uniform","1","undefined","h","1","84","0","0","0","84","0","84","NA","84","0","0","0","84","84","84","84","Sun Sep 19 22:54:15 2021","600","The main experiment item","yes","FlankerTaskHW.osexp","C:/Users/19565/Desktop","no","mono","no","18","no","white","no","yes","768","legacy","4","79","C:/Users/19565/Desktop/MR-subject-2.csv","legacy","Lentiform Loewenfeld","3.3.9","0","h","NA","s","s","NA","h","462","NA","22128","9488","NA","462","2","legacy","1024","2","48000","-16","experiment","HHHHH","3","odd","195546","25990","188549","NA","193334","3856","189443","NA","196725","3860","179059","NA","197294","196722","196830","196828","Flanker Task HW","79","51413","85","yes","1024"
"93.02325581395348","93.02325581395348","603.953488372093","603.953488372093","black","legacy","legacy","legacy","0","congruent","uniform","1","undefined","s","1","85","0","0","0","85","0","85","NA","85","0","0","0","85","85","85","85","Sun Sep 19 22:54:15 2021","600","The main experiment item","yes","FlankerTaskHW.osexp","C:/Users/19565/Desktop","no","mono","no","18","no","white","no","yes","768","legacy","5","79","C:/Users/19565/Desktop/MR-subject-2.csv","legacy","Lentiform Loewenfeld","3.3.9","0","s","NA","s","s","NA","s","527","NA","22128","9488","NA","527","2","legacy","1024","2","48000","-16","experiment","SSSSS","3","odd","197304","25990","188549","NA","193334","3856","189443","NA","198466","3860","179059","NA","199101","198463","198571","198571","Flanker Task HW","80","51940","86","yes","1024"
"93.10344827586206","93.10344827586206","603.2068965517242","603.2068965517242","black","legacy","legacy","legacy","0","incongruent","uniform","1","undefined","s","1","86","0","0","0","86","0","86","NA","86","0","0","0","86","86","86","86","Sun Sep 19 22:54:15 2021","600","The main experiment item","yes","FlankerTaskHW.osexp","C:/Users/19565/Desktop","no","mono","no","18","no","white","no","yes","768","legacy","6","79","C:/Users/19565/Desktop/MR-subject-2.csv","legacy","Lentiform Loewenfeld","3.3.9","0","s","NA","s","s","NA","s","539","NA","22128","9488","NA","539","2","legacy","1024","2","48000","-16","experiment","HHSHH","3","odd","199111","25990","188549","NA","193334","3856","189443","NA","200282","3860","179059","NA","200927","200279","200386","200386","Flanker Task HW","81","52479","87","yes","1024"
"93.18181818181819","93.18181818181819","602.6022727272727","602.6022727272727","black","legacy","legacy","legacy","0","incongruent","uniform","1","undefined","h","1","87","0","0","0","87","0","87","NA","87","0","0","0","87","87","87","87","Sun Sep 19 22:54:15 2021","600","The main experiment item","yes","FlankerTaskHW.osexp","C:/Users/19565/Desktop","no","mono","no","18","no","white","no","yes","768","legacy","7","79","C:/Users/19565/Desktop/MR-subject-2.csv","legacy","Lentiform Loewenfeld","3.3.9","0","h","NA","s","s","NA","h","550","NA","22128","9488","NA","550","2","legacy","1024","2","48000","-16","experiment","SSHSS","3","odd","200935","25990","188549","NA","193334","3856","189443","NA","202145","3860","179059","NA","202802","202140","202249","202249","Flanker Task HW","82","53029","88","yes","1024"
"93.25842696629213","93.25842696629213","601.7415730337078","601.7415730337078","black","legacy","legacy","legacy","0","congruent","uniform","1","undefined","h","1","88","0","0","0","88","0","88","NA","88","0","0","0","88","88","88","88","Sun Sep 19 22:54:15 2021","600","The main experiment item","yes","FlankerTaskHW.osexp","C:/Users/19565/Desktop","no","mono","no","18","no","white","no","yes","768","legacy","8","79","C:/Users/19565/Desktop/MR-subject-2.csv","legacy","Lentiform Loewenfeld","3.3.9","0","h","NA","s","s","NA","h","526","NA","22128","9488","NA","526","2","legacy","1024","2","48000","-16","experiment","HHHHH","3","odd","202811","25990","188549","NA","193334","3856","189443","NA","203978","3860","179059","NA","204612","203975","204083","204083","Flanker Task HW","83","53555","89","yes","1024"
"93.33333333333333","93.33333333333333","600.8111111111111","600.8111111111111","black","legacy","legacy","legacy","0","incongruent","uniform","1","undefined","s","1","89","0","0","0","89","0","89","NA","89","0","0","0","89","89","89","89","Sun Sep 19 22:54:15 2021","600","The main experiment item","yes","FlankerTaskHW.osexp","C:/Users/19565/Desktop","no","mono","no","18","no","white","no","yes","768","legacy","9","79","C:/Users/19565/Desktop/MR-subject-2.csv","legacy","Lentiform Loewenfeld","3.3.9","0","s","NA","s","s","NA","s","518","NA","22128","9488","NA","518","2","legacy","1024","2","48000","-16","experiment","HHSHH","3","odd","204623","25990","188549","NA","193334","3856","189443","NA","205781","3860","179059","NA","206407","205779","205887","205886","Flanker Task HW","84","54073","90","yes","1024"
"93.4065934065934","93.4065934065934","599.3076923076923","599.3076923076923","black","legacy","legacy","legacy","0","incongruent","uniform","1","undefined","h","1","90","0","0","0","90","0","90","NA","90","0","0","0","90","90","90","90","Sun Sep 19 22:54:15 2021","600","The main experiment item","yes","FlankerTaskHW.osexp","C:/Users/19565/Desktop","no","mono","no","18","no","white","no","yes","768","legacy","10","79","C:/Users/19565/Desktop/MR-subject-2.csv","legacy","Lentiform Loewenfeld","3.3.9","0","h","NA","s","s","NA","h","464","NA","22128","9488","NA","464","2","legacy","1024","2","48000","-16","experiment","SSHSS","3","odd","206417","25990","188549","NA","193334","3856","189443","NA","207562","3860","179059","NA","208132","207560","207666","207666","Flanker Task HW","85","54537","91","yes","1024"
"93.47826086956522","93.47826086956522","598.5108695652174","598.5108695652174","black","legacy","legacy","legacy","0","incongruent","uniform","1","undefined","s","1","91","0","0","0","91","0","91","NA","91","0","0","0","91","91","91","91","Sun Sep 19 22:54:15 2021","600","The main experiment item","yes","FlankerTaskHW.osexp","C:/Users/19565/Desktop","no","mono","no","18","no","white","no","yes","768","legacy","11","79","C:/Users/19565/Desktop/MR-subject-2.csv","legacy","Lentiform Loewenfeld","3.3.9","0","s","NA","s","s","NA","s","526","NA","22128","9488","NA","526","2","legacy","1024","2","48000","-16","experiment","HHSHH","3","odd","208142","25990","188549","NA","193334","3856","189443","NA","209282","3860","179059","NA","209916","209280","209387","209386","Flanker Task HW","86","55063","92","yes","1024"
"93.54838709677419","93.54838709677419","597.2688172043011","597.2688172043011","black","legacy","legacy","legacy","0","congruent","uniform","1","undefined","h","1","92","0","0","0","92","0","92","NA","92","0","0","0","92","92","92","92","Sun Sep 19 22:54:15 2021","600","The main experiment item","yes","FlankerTaskHW.osexp","C:/Users/19565/Desktop","no","mono","no","18","no","white","no","yes","768","legacy","12","79","C:/Users/19565/Desktop/MR-subject-2.csv","legacy","Lentiform Loewenfeld","3.3.9","0","h","NA","s","s","NA","h","483","NA","22128","9488","NA","483","2","legacy","1024","2","48000","-16","experiment","HHHHH","3","odd","209925","25990","188549","NA","193334","3856","189443","NA","211101","3860","179059","NA","211690","211098","211206","211205","Flanker Task HW","87","55546","93","yes","1024"
"93.61702127659575","93.61702127659575","596.1382978723404","596.1382978723404","black","legacy","legacy","legacy","0","congruent","uniform","1","undefined","h","1","93","0","0","0","93","0","93","NA","93","0","0","0","93","93","93","93","Sun Sep 19 22:54:15 2021","600","The main experiment item","yes","FlankerTaskHW.osexp","C:/Users/19565/Desktop","no","mono","no","18","no","white","no","yes","768","legacy","13","79","C:/Users/19565/Desktop/MR-subject-2.csv","legacy","Lentiform Loewenfeld","3.3.9","0","h","NA","s","s","NA","h","491","NA","22128","9488","NA","491","2","legacy","1024","2","48000","-16","experiment","HHHHH","3","odd","211700","25990","188549","NA","193334","3856","189443","NA","212836","3860","179059","NA","213435","212833","212941","212940","Flanker Task HW","88","56037","94","yes","1024"
"93.6842105263158","93.6842105263158","596.1578947368421","596.1578947368421","black","legacy","legacy","legacy","0","incongruent","uniform","1","undefined","s","1","94","0","0","0","94","0","94","NA","94","0","0","0","94","94","94","94","Sun Sep 19 22:54:15 2021","600","The main experiment item","yes","FlankerTaskHW.osexp","C:/Users/19565/Desktop","no","mono","no","18","no","white","no","yes","768","legacy","14","79","C:/Users/19565/Desktop/MR-subject-2.csv","legacy","Lentiform Loewenfeld","3.3.9","0","s","NA","s","s","NA","s","598","NA","22128","9488","NA","598","2","legacy","1024","2","48000","-16","experiment","HHSHH","3","odd","213443","25990","188549","NA","193334","3856","189443","NA","214563","3860","179059","NA","215267","214560","214666","214666","Flanker Task HW","89","56635","95","yes","1024"
"93.75","93.75","595.0520833333334","595.0520833333334","black","legacy","legacy","legacy","0","congruent","uniform","1","undefined","h","1","95","0","0","0","95","0","95","NA","95","0","0","0","95","95","95","95","Sun Sep 19 22:54:15 2021","600","The main experiment item","yes","FlankerTaskHW.osexp","C:/Users/19565/Desktop","no","mono","no","18","no","white","no","yes","768","legacy","15","79","C:/Users/19565/Desktop/MR-subject-2.csv","legacy","Lentiform Loewenfeld","3.3.9","0","h","NA","s","s","NA","h","490","NA","22128","9488","NA","490","2","legacy","1024","2","48000","-16","experiment","HHHHH","3","odd","215277","25990","188549","NA","193334","3856","189443","NA","216418","3860","179059","NA","217016","216415","216523","216522","Flanker Task HW","90","57125","96","yes","1024"
"93.81443298969072","93.81443298969072","593.6288659793814","593.6288659793814","black","legacy","legacy","legacy","0","incongruent","uniform","1","undefined","h","1","96","0","0","0","96","0","96","NA","96","0","0","0","96","96","96","96","Sun Sep 19 22:54:15 2021","600","The main experiment item","yes","FlankerTaskHW.osexp","C:/Users/19565/Desktop","no","mono","no","18","no","white","no","yes","768","legacy","16","79","C:/Users/19565/Desktop/MR-subject-2.csv","legacy","Lentiform Loewenfeld","3.3.9","0","h","NA","s","s","NA","h","457","NA","22128","9488","NA","457","2","legacy","1024","2","48000","-16","experiment","SSHSS","3","odd","217025","25990","188549","NA","193334","3856","189443","NA","218179","3860","179059","NA","218743","218176","218284","218283","Flanker Task HW","91","57582","97","yes","1024"
"93.87755102040816","93.87755102040816","593.7755102040817","593.7755102040817","black","legacy","legacy","legacy","0","incongruent","uniform","1","undefined","s","1","97","0","0","0","97","0","97","NA","97","0","0","0","97","97","97","97","Sun Sep 19 22:54:15 2021","600","The main experiment item","yes","FlankerTaskHW.osexp","C:/Users/19565/Desktop","no","mono","no","18","no","white","no","yes","768","legacy","17","79","C:/Users/19565/Desktop/MR-subject-2.csv","legacy","Lentiform Loewenfeld","3.3.9","0","s","NA","s","s","NA","s","608","NA","22128","9488","NA","608","2","legacy","1024","2","48000","-16","experiment","HHSHH","3","odd","218751","25990","188549","NA","193334","3856","189443","NA","219886","3860","179059","NA","220602","219884","219992","219992","Flanker Task HW","92","58190","98","yes","1024"
"93.93939393939394","93.93939393939394","592.6565656565657","592.6565656565657","black","legacy","legacy","legacy","0","congruent","uniform","1","undefined","s","1","98","0","0","0","98","0","98","NA","98","0","0","0","98","98","98","98","Sun Sep 19 22:54:15 2021","600","The main experiment item","yes","FlankerTaskHW.osexp","C:/Users/19565/Desktop","no","mono","no","18","no","white","no","yes","768","legacy","18","79","C:/Users/19565/Desktop/MR-subject-2.csv","legacy","Lentiform Loewenfeld","3.3.9","0","s","NA","s","s","NA","s","483","NA","22128","9488","NA","483","2","legacy","1024","2","48000","-16","experiment","SSSSS","3","odd","221118","25990","188549","NA","193334","3856","220613","NA","222247","3860","179059","NA","222836","222244","222351","222351","Flanker Task HW","93","58673","99","yes","1024"
"93","93","590.46","590.46","black","legacy","legacy","legacy","0","incongruent","uniform","0","undefined","h","0","99","0","0","0","99","0","99","NA","99","0","0","0","99","99","99","99","Sun Sep 19 22:54:15 2021","600","The main experiment item","yes","FlankerTaskHW.osexp","C:/Users/19565/Desktop","no","mono","no","18","no","white","no","yes","768","legacy","19","79","C:/Users/19565/Desktop/MR-subject-2.csv","legacy","Lentiform Loewenfeld","3.3.9","0","s","NA","s","s","NA","s","373","NA","22128","9488","NA","373","2","legacy","1024","2","48000","-16","experiment","SSHSS","3","odd","222844","25990","188549","NA","193334","3856","220613","NA","223996","3860","179059","NA","224475","223994","224101","224100","Flanker Task HW","93","59046","100","yes","1024"
"93.06930693069307","93.06930693069307","589.3267326732673","589.3267326732673","black","legacy","legacy","legacy","0","incongruent","uniform","1","undefined","h","1","100","0","0","0","100","0","100","NA","100","0","0","0","100","100","100","100","Sun Sep 19 22:54:15 2021","600","The main experiment item","yes","FlankerTaskHW.osexp","C:/Users/19565/Desktop","no","mono","no","18","no","white","no","yes","768","legacy","20","79","C:/Users/19565/Desktop/MR-subject-2.csv","legacy","Lentiform Loewenfeld","3.3.9","0","h","NA","s","s","NA","h","476","NA","22128","9488","NA","476","2","legacy","1024","2","48000","-16","experiment","SSHSS","3","odd","224987","25990","188549","NA","224482","3856","220613","NA","226147","3860","179059","NA","226727","226144","226249","226249","Flanker Task HW","94","59522","101","yes","1024"
"93.13725490196079","93.13725490196079","587.9509803921569","587.9509803921569","black","legacy","legacy","legacy","0","congruent","uniform","1","undefined","h","1","101","0","0","0","101","0","101","NA","101","0","0","0","101","101","101","101","Sun Sep 19 22:54:15 2021","600","The main experiment item","yes","FlankerTaskHW.osexp","C:/Users/19565/Desktop","no","mono","no","18","no","white","no","yes","768","legacy","21","79","C:/Users/19565/Desktop/MR-subject-2.csv","legacy","Lentiform Loewenfeld","3.3.9","0","h","NA","s","s","NA","h","449","NA","22128","9488","NA","449","2","legacy","1024","2","48000","-16","experiment","HHHHH","3","odd","226734","25990","188549","NA","224482","3856","220613","NA","227873","3860","179059","NA","228429","227870","227977","227977","Flanker Task HW","95","59971","102","yes","1024"
"93.20388349514563","93.20388349514563","587.0097087378641","587.0097087378641","black","legacy","legacy","legacy","0","congruent","uniform","1","undefined","h","1","102","0","0","0","102","0","102","NA","102","0","0","0","102","102","102","102","Sun Sep 19 22:54:15 2021","600","The main experiment item","yes","FlankerTaskHW.osexp","C:/Users/19565/Desktop","no","mono","no","18","no","white","no","yes","768","legacy","22","79","C:/Users/19565/Desktop/MR-subject-2.csv","legacy","Lentiform Loewenfeld","3.3.9","0","h","NA","s","s","NA","h","491","NA","22128","9488","NA","491","2","legacy","1024","2","48000","-16","experiment","HHHHH","3","odd","228440","25990","188549","NA","224482","3856","220613","NA","229573","3860","179059","NA","230171","229571","229678","229677","Flanker Task HW","96","60462","103","yes","1024"
"93.26923076923077","93.26923076923077","586.3557692307693","586.3557692307693","black","legacy","legacy","legacy","0","incongruent","uniform","1","undefined","s","1","103","0","0","0","103","0","103","NA","103","0","0","0","103","103","103","103","Sun Sep 19 22:54:15 2021","600","The main experiment item","yes","FlankerTaskHW.osexp","C:/Users/19565/Desktop","no","mono","no","18","no","white","no","yes","768","legacy","23","79","C:/Users/19565/Desktop/MR-subject-2.csv","legacy","Lentiform Loewenfeld","3.3.9","0","s","NA","s","s","NA","s","519","NA","22128","9488","NA","519","2","legacy","1024","2","48000","-16","experiment","HHSHH","3","odd","230179","25990","188549","NA","224482","3856","220613","NA","231370","3860","179059","NA","231995","231367","231474","231474","Flanker Task HW","97","60981","104","yes","1024"
"93.33333333333333","93.33333333333333","585.0857142857143","585.0857142857143","black","legacy","legacy","legacy","0","incongruent","uniform","1","undefined","h","1","104","0","0","0","104","0","104","NA","104","0","0","0","104","104","104","104","Sun Sep 19 22:54:15 2021","600","The main experiment item","yes","FlankerTaskHW.osexp","C:/Users/19565/Desktop","no","mono","no","18","no","white","no","yes","768","legacy","24","79","C:/Users/19565/Desktop/MR-subject-2.csv","legacy","Lentiform Loewenfeld","3.3.9","0","h","NA","s","s","NA","h","453","NA","22128","9488","NA","453","2","legacy","1024","2","48000","-16","experiment","SSHSS","3","odd","232001","25990","188549","NA","224482","3856","220613","NA","233152","3860","179059","NA","233712","233149","233257","233257","Flanker Task HW","98","61434","105","yes","1024"
"93.39622641509433","93.39622641509433","587.6415094339623","587.6415094339623","black","legacy","legacy","legacy","0","incongruent","uniform","1","undefined","s","1","105","0","0","0","105","0","105","NA","105","0","0","0","105","105","105","105","Sun Sep 19 22:54:15 2021","600","The main experiment item","yes","FlankerTaskHW.osexp","C:/Users/19565/Desktop","no","mono","no","18","no","white","no","yes","768","legacy","25","79","C:/Users/19565/Desktop/MR-subject-2.csv","legacy","Lentiform Loewenfeld","3.3.9","0","s","NA","s","s","NA","s","856","NA","22128","9488","NA","856","2","legacy","1024","2","48000","-16","experiment","HHSHH","3","odd","233721","25990","188549","NA","224482","3856","220613","NA","234911","3860","179059","NA","235875","234908","235016","235016","Flanker Task HW","99","62290","106","yes","1024"
"93.45794392523365","93.45794392523365","586.8971962616822","586.8971962616822","black","legacy","legacy","legacy","0","incongruent","uniform","1","undefined","h","1","106","0","0","0","106","0","106","NA","106","0","0","0","106","106","106","106","Sun Sep 19 22:54:15 2021","600","The main experiment item","yes","FlankerTaskHW.osexp","C:/Users/19565/Desktop","no","mono","no","18","no","white","no","yes","768","legacy","26","79","C:/Users/19565/Desktop/MR-subject-2.csv","legacy","Lentiform Loewenfeld","3.3.9","0","h","NA","s","s","NA","h","508","NA","22128","9488","NA","508","2","legacy","1024","2","48000","-16","experiment","SSHSS","3","odd","236386","25990","188549","NA","224482","3856","235881","NA","237503","3860","179059","NA","238119","237500","237608","237608","Flanker Task HW","100","62798","107","yes","1024"
"93.51851851851852","93.51851851851852","585.9074074074074","585.9074074074074","black","legacy","legacy","legacy","0","congruent","uniform","1","undefined","h","1","107","0","0","0","107","0","107","NA","107","0","0","0","107","107","107","107","Sun Sep 19 22:54:15 2021","600","The main experiment item","yes","FlankerTaskHW.osexp","C:/Users/19565/Desktop","no","mono","no","18","no","white","no","yes","768","legacy","27","79","C:/Users/19565/Desktop/MR-subject-2.csv","legacy","Lentiform Loewenfeld","3.3.9","0","h","NA","s","s","NA","h","480","NA","22128","9488","NA","480","2","legacy","1024","2","48000","-16","experiment","HHHHH","3","odd","238129","25990","188549","NA","224482","3856","235881","NA","239262","3860","179059","NA","239848","239259","239367","239366","Flanker Task HW","101","63278","108","yes","1024"
"93.57798165137615","93.57798165137615","585.5321100917431","585.5321100917431","black","legacy","legacy","legacy","0","incongruent","uniform","1","undefined","h","1","108","0","0","0","108","0","108","NA","108","0","0","0","108","108","108","108","Sun Sep 19 22:54:15 2021","600","The main experiment item","yes","FlankerTaskHW.osexp","C:/Users/19565/Desktop","no","mono","no","18","no","white","no","yes","768","legacy","28","79","C:/Users/19565/Desktop/MR-subject-2.csv","legacy","Lentiform Loewenfeld","3.3.9","0","h","NA","s","s","NA","h","545","NA","22128","9488","NA","545","2","legacy","1024","2","48000","-16","experiment","SSHSS","3","odd","239855","25990","188549","NA","224482","3856","235881","NA","241032","3860","179059","NA","241685","241030","241137","241135","Flanker Task HW","102","63823","109","yes","1024"
"93.63636363636364","93.63636363636364","584.4181818181818","584.4181818181818","black","legacy","legacy","legacy","0","congruent","uniform","1","undefined","h","1","109","0","0","0","109","0","109","NA","109","0","0","0","109","109","109","109","Sun Sep 19 22:54:15 2021","600","The main experiment item","yes","FlankerTaskHW.osexp","C:/Users/19565/Desktop","no","mono","no","18","no","white","no","yes","768","legacy","29","79","C:/Users/19565/Desktop/MR-subject-2.csv","legacy","Lentiform Loewenfeld","3.3.9","0","h","NA","s","s","NA","h","463","NA","22128","9488","NA","463","2","legacy","1024","2","48000","-16","experiment","HHHHH","3","odd","241696","25990","188549","NA","224482","3856","235881","NA","242852","3860","179059","NA","243422","242850","242956","242956","Flanker Task HW","103","64286","110","yes","1024"
"93.69369369369369","93.69369369369369","582.6756756756756","582.6756756756756","black","legacy","legacy","legacy","0","congruent","uniform","1","undefined","h","1","110","0","0","0","110","0","110","NA","110","0","0","0","110","110","110","110","Sun Sep 19 22:54:15 2021","600","The main experiment item","yes","FlankerTaskHW.osexp","C:/Users/19565/Desktop","no","mono","no","18","no","white","no","yes","768","legacy","30","79","C:/Users/19565/Desktop/MR-subject-2.csv","legacy","Lentiform Loewenfeld","3.3.9","0","h","NA","s","s","NA","h","391","NA","22128","9488","NA","391","2","legacy","1024","2","48000","-16","experiment","HHHHH","3","odd","243432","25990","188549","NA","224482","3856","235881","NA","244580","3860","179059","NA","245077","244578","244684","244684","Flanker Task HW","104","64677","111","yes","1024"
"93.75","93.75","581.3482142857143","581.3482142857143","black","legacy","legacy","legacy","0","congruent","uniform","1","undefined","h","1","111","0","0","0","111","0","111","NA","111","0","0","0","111","111","111","111","Sun Sep 19 22:54:15 2021","600","The main experiment item","yes","FlankerTaskHW.osexp","C:/Users/19565/Desktop","no","mono","no","18","no","white","no","yes","768","legacy","31","79","C:/Users/19565/Desktop/MR-subject-2.csv","legacy","Lentiform Loewenfeld","3.3.9","0","h","NA","s","s","NA","h","434","NA","22128","9488","NA","434","2","legacy","1024","2","48000","-16","experiment","HHHHH","3","odd","245087","25990","188549","NA","224482","3856","235881","NA","246255","3860","179059","NA","246797","246252","246360","246359","Flanker Task HW","105","65111","112","yes","1024"
"93.80530973451327","93.80530973451327","580.9203539823009","580.9203539823009","black","legacy","legacy","legacy","0","congruent","uniform","1","undefined","s","1","112","0","0","0","112","0","112","NA","112","0","0","0","112","112","112","112","Sun Sep 19 22:54:15 2021","600","The main experiment item","yes","FlankerTaskHW.osexp","C:/Users/19565/Desktop","no","mono","no","18","no","white","no","yes","768","legacy","32","79","C:/Users/19565/Desktop/MR-subject-2.csv","legacy","Lentiform Loewenfeld","3.3.9","0","s","NA","s","s","NA","s","533","NA","22128","9488","NA","533","2","legacy","1024","2","48000","-16","experiment","SSSSS","3","odd","246808","25990","188549","NA","224482","3856","235881","NA","247985","3860","179059","NA","248625","247982","248090","248090","Flanker Task HW","106","65644","113","yes","1024"
"93.85964912280701","93.85964912280701","580.061403508772","580.061403508772","black","legacy","legacy","legacy","0","incongruent","uniform","1","undefined","h","1","113","0","0","0","113","0","113","NA","113","0","0","0","113","113","113","113","Sun Sep 19 22:54:15 2021","600","The main experiment item","yes","FlankerTaskHW.osexp","C:/Users/19565/Desktop","no","mono","no","18","no","white","no","yes","768","legacy","33","79","C:/Users/19565/Desktop/MR-subject-2.csv","legacy","Lentiform Loewenfeld","3.3.9","0","h","NA","s","s","NA","h","483","NA","22128","9488","NA","483","2","legacy","1024","2","48000","-16","experiment","SSHSS","3","odd","248634","25990","188549","NA","224482","3856","235881","NA","249813","3860","179059","NA","250403","249810","249918","249918","Flanker Task HW","107","66127","114","yes","1024"
"93.91304347826087","93.91304347826087","579.1304347826087","579.1304347826087","black","legacy","legacy","legacy","0","congruent","uniform","1","undefined","h","1","114","0","0","0","114","0","114","NA","114","0","0","0","114","114","114","114","Sun Sep 19 22:54:15 2021","600","The main experiment item","yes","FlankerTaskHW.osexp","C:/Users/19565/Desktop","no","mono","no","18","no","white","no","yes","768","legacy","34","79","C:/Users/19565/Desktop/MR-subject-2.csv","legacy","Lentiform Loewenfeld","3.3.9","0","h","NA","s","s","NA","h","473","NA","22128","9488","NA","473","2","legacy","1024","2","48000","-16","experiment","HHHHH","3","odd","250411","25990","188549","NA","224482","3856","235881","NA","251577","3860","179059","NA","252157","251574","251682","251682","Flanker Task HW","108","66600","115","yes","1024"
"93.96551724137932","93.96551724137932","578.6293103448276","578.6293103448276","black","legacy","legacy","legacy","0","congruent","uniform","1","undefined","s","1","115","0","0","0","115","0","115","NA","115","0","0","0","115","115","115","115","Sun Sep 19 22:54:15 2021","600","The main experiment item","yes","FlankerTaskHW.osexp","C:/Users/19565/Desktop","no","mono","no","18","no","white","no","yes","768","legacy","35","79","C:/Users/19565/Desktop/MR-subject-2.csv","legacy","Lentiform Loewenfeld","3.3.9","0","s","NA","s","s","NA","s","521","NA","22128","9488","NA","521","2","legacy","1024","2","48000","-16","experiment","SSSSS","3","odd","252165","25990","188549","NA","224482","3856","235881","NA","253345","3860","179059","NA","253975","253343","253451","253450","Flanker Task HW","109","67121","116","yes","1024"
"94.01709401709402","94.01709401709402","578.6068376068376","578.6068376068376","black","legacy","legacy","legacy","0","incongruent","uniform","1","undefined","s","1","116","0","0","0","116","0","116","NA","116","0","0","0","116","116","116","116","Sun Sep 19 22:54:15 2021","600","The main experiment item","yes","FlankerTaskHW.osexp","C:/Users/19565/Desktop","no","mono","no","18","no","white","no","yes","768","legacy","36","79","C:/Users/19565/Desktop/MR-subject-2.csv","legacy","Lentiform Loewenfeld","3.3.9","0","s","NA","s","s","NA","s","576","NA","22128","9488","NA","576","2","legacy","1024","2","48000","-16","experiment","HHSHH","3","odd","253983","25990","188549","NA","224482","3856","235881","NA","255141","3860","179059","NA","255823","255138","255245","255245","Flanker Task HW","110","67697","117","yes","1024"
"94.0677966101695","94.0677966101695","577.6186440677966","577.6186440677966","black","legacy","legacy","legacy","0","congruent","uniform","1","undefined","s","1","117","0","0","0","117","0","117","NA","117","0","0","0","117","117","117","117","Sun Sep 19 22:54:15 2021","600","The main experiment item","yes","FlankerTaskHW.osexp","C:/Users/19565/Desktop","no","mono","no","18","no","white","no","yes","768","legacy","37","79","C:/Users/19565/Desktop/MR-subject-2.csv","legacy","Lentiform Loewenfeld","3.3.9","0","s","NA","s","s","NA","s","462","NA","22128","9488","NA","462","2","legacy","1024","2","48000","-16","experiment","SSSSS","3","odd","255833","25990","188549","NA","224482","3856","235881","NA","256966","3860","179059","NA","257536","256964","257071","257070","Flanker Task HW","111","68159","118","yes","1024"
"94.11764705882354","94.11764705882354","576.7647058823529","576.7647058823529","black","legacy","legacy","legacy","0","incongruent","uniform","1","undefined","s","1","118","0","0","0","118","0","118","NA","118","0","0","0","118","118","118","118","Sun Sep 19 22:54:15 2021","600","The main experiment item","yes","FlankerTaskHW.osexp","C:/Users/19565/Desktop","no","mono","no","18","no","white","no","yes","768","legacy","38","79","C:/Users/19565/Desktop/MR-subject-2.csv","legacy","Lentiform Loewenfeld","3.3.9","0","s","NA","s","s","NA","s","476","NA","22128","9488","NA","476","2","legacy","1024","2","48000","-16","experiment","HHSHH","3","odd","257547","25990","188549","NA","224482","3856","235881","NA","258692","3860","179059","NA","259275","258689","258797","258796","Flanker Task HW","112","68635","119","yes","1024"
"94.16666666666667","94.16666666666667","577.8333333333334","577.8333333333334","black","legacy","legacy","legacy","0","congruent","uniform","1","undefined","h","1","119","0","0","0","119","0","119","NA","119","0","0","0","119","119","119","119","Sun Sep 19 22:54:15 2021","600","The main experiment item","yes","FlankerTaskHW.osexp","C:/Users/19565/Desktop","no","mono","no","18","no","white","no","yes","768","legacy","39","79","C:/Users/19565/Desktop/MR-subject-2.csv","legacy","Lentiform Loewenfeld","3.3.9","0","h","NA","s","s","NA","h","705","NA","22128","9488","NA","705","2","legacy","1024","2","48000","-16","experiment","HHHHH","3","odd","259281","25990","188549","NA","224482","3856","235881","NA","260423","3860","179059","NA","261233","260420","260525","260525","Flanker Task HW","113","69340","120","yes","1024"
"94.21487603305785","94.21487603305785","577.5454545454545","577.5454545454545","black","legacy","legacy","legacy","0","incongruent","uniform","1","undefined","s","1","120","0","0","0","120","0","120","NA","120","0","0","0","120","120","120","120","Sun Sep 19 22:54:15 2021","600","The main experiment item","yes","FlankerTaskHW.osexp","C:/Users/19565/Desktop","no","mono","no","18","no","white","no","yes","768","legacy","40","79","C:/Users/19565/Desktop/MR-subject-2.csv","legacy","Lentiform Loewenfeld","3.3.9","0","s","NA","s","s","NA","s","543","NA","22128","9488","NA","543","2","legacy","1024","2","48000","-16","experiment","HHSHH","3","odd","261748","25990","188549","NA","224482","3856","261244","NA","262864","3860","179059","NA","263513","262860","262969","262968","Flanker Task HW","114","69883","121","yes","1024"
"94.26229508196721","94.26229508196721","577.4508196721312","577.4508196721312","black","legacy","legacy","legacy","0","incongruent","uniform","1","undefined","s","1","121","0","0","0","121","0","121","NA","121","0","0","0","121","121","121","121","Sun Sep 19 22:54:15 2021","600","The main experiment item","yes","FlankerTaskHW.osexp","C:/Users/19565/Desktop","no","mono","no","18","no","white","no","yes","768","legacy","41","79","C:/Users/19565/Desktop/MR-subject-2.csv","legacy","Lentiform Loewenfeld","3.3.9","0","s","NA","s","s","NA","s","566","NA","22128","9488","NA","566","2","legacy","1024","2","48000","-16","experiment","HHSHH","3","odd","263520","25990","188549","NA","224482","3856","261244","NA","264690","3860","179059","NA","265362","264687","264794","264794","Flanker Task HW","115","70449","122","yes","1024"
