acc,accuracy,average_response_time,avg_rt,background,canvas_backend,clock_backend,color_backend,compensation,condition,coordinates,correct,correct_instructions1,correct_keyboard_response,correct_response,count_Finish,count_ISI,count_block1,count_block2,count_block3,count_errorFeedback,count_experiment,count_faster,count_fixation,count_instructions1,count_instructions2,count_instructions3,count_keyboard_response,count_logger,count_sequence_1,count_stimulus,datetime,deadline,description,disable_garbage_collection,experiment_file,experiment_path,font_bold,font_family,font_italic,font_size,font_underline,foreground,form_clicks,fullscreen,height,keyboard_backend,live_row,live_row_block1,logfile,mouse_backend,opensesame_codename,opensesame_version,repeat_cycle,response,response_Finish,response_instructions1,response_instructions2,response_instructions3,response_keyboard_response,response_time,response_time_Finish,response_time_instructions1,response_time_instructions2,response_time_instructions3,response_time_keyboard_response,round_decimals,sampler_backend,sound_buf_size,sound_channels,sound_freq,sound_sample_size,start,stimulus,subject_nr,subject_parity,time_Finish,time_ISI,time_block1,time_block2,time_block3,time_errorFeedback,time_experiment,time_faster,time_fixation,time_instructions1,time_instructions2,time_instructions3,time_keyboard_response,time_logger,time_sequence_1,time_stimulus,title,total_correct,total_response_time,total_responses,uniform_coordinates,width
100,100,1239,1239,black,legacy,legacy,legacy,0,congruent,uniform,1,undefined,1,h,0,0,0,0,0,0,0,0,0,0,0,0,0,0,0,0,9/25/2021 18:42,1500,The main experiment item,yes,Flankertask.osexp,C:/Users/borna.000/Documents/PSYC/PSYC5316,no,mono,no,18,no,white,no,yes,768,legacy,0,0,C:/Users/borna.000/Desktop/TM-subject-4.csv,legacy,Lentiform Loewenfeld,3.3.9,0,h,NA,s,NA,NA,h,1239,NA,132261,NA,NA,1239,2,legacy,1024,2,48000,-16,experiment,HHHHH,4,even,NA,NA,134499,NA,NA,NA,2234,NA,134564,2237,NA,NA,134666,135906,134562,134666,Flanker task,1,1239,1,yes,1024
100,100,1041.5,1041.5,black,legacy,legacy,legacy,0,incongruent,uniform,1,undefined,1,h,0,1,0,0,0,1,0,1,1,0,0,0,1,1,1,1,9/25/2021 18:42,1500,The main experiment item,yes,Flankertask.osexp,C:/Users/borna.000/Documents/PSYC/PSYC5316,no,mono,no,18,no,white,no,yes,768,legacy,1,1,C:/Users/borna.000/Desktop/TM-subject-4.csv,legacy,Lentiform Loewenfeld,3.3.9,0,h,NA,s,NA,NA,h,844,NA,132261,NA,NA,844,2,legacy,1024,2,48000,-16,experiment,SSHSS,4,even,NA,135918,134499,NA,NA,NA,2234,NA,137001,2237,NA,NA,137102,137947,136999,137102,Flanker task,2,2083,2,yes,1024
100,100,925.6666667,925.6666667,black,legacy,legacy,legacy,0,congruent,uniform,1,undefined,1,h,0,2,0,0,0,2,0,2,2,0,0,0,2,2,2,2,9/25/2021 18:42,1500,The main experiment item,yes,Flankertask.osexp,C:/Users/borna.000/Documents/PSYC/PSYC5316,no,mono,no,18,no,white,no,yes,768,legacy,2,2,C:/Users/borna.000/Desktop/TM-subject-4.csv,legacy,Lentiform Loewenfeld,3.3.9,0,h,NA,s,NA,NA,h,694,NA,132261,NA,NA,694,2,legacy,1024,2,48000,-16,experiment,HHHHH,4,even,NA,137955,134499,NA,NA,NA,2234,NA,139031,2237,NA,NA,139132,139827,139028,139132,Flanker task,3,2777,3,yes,1024
100,100,917.75,917.75,black,legacy,legacy,legacy,0,incongruent,uniform,1,undefined,1,h,0,3,0,0,0,3,0,3,3,0,0,0,3,3,3,3,9/25/2021 18:42,1500,The main experiment item,yes,Flankertask.osexp,C:/Users/borna.000/Documents/PSYC/PSYC5316,no,mono,no,18,no,white,no,yes,768,legacy,3,3,C:/Users/borna.000/Desktop/TM-subject-4.csv,legacy,Lentiform Loewenfeld,3.3.9,0,h,NA,s,NA,NA,h,894,NA,132261,NA,NA,894,2,legacy,1024,2,48000,-16,experiment,SSHSS,4,even,NA,139835,134499,NA,NA,NA,2234,NA,140908,2237,NA,NA,141009,141904,140906,141009,Flanker task,4,3671,4,yes,1024
100,100,875.4,875.4,black,legacy,legacy,legacy,0,congruent,uniform,1,undefined,1,h,0,4,0,0,0,4,0,4,4,0,0,0,4,4,4,4,9/25/2021 18:42,1500,The main experiment item,yes,Flankertask.osexp,C:/Users/borna.000/Documents/PSYC/PSYC5316,no,mono,no,18,no,white,no,yes,768,legacy,4,4,C:/Users/borna.000/Desktop/TM-subject-4.csv,legacy,Lentiform Loewenfeld,3.3.9,0,h,NA,s,NA,NA,h,706,NA,132261,NA,NA,706,2,legacy,1024,2,48000,-16,experiment,HHHHH,4,even,NA,141912,134499,NA,NA,NA,2234,NA,142980,2237,NA,NA,143082,143788,142978,143082,Flanker task,5,4377,5,yes,1024
100,100,841.3333333,841.3333333,black,legacy,legacy,legacy,0,incongruent,uniform,1,undefined,1,s,0,5,0,0,0,5,0,5,5,0,0,0,5,5,5,5,9/25/2021 18:42,1500,The main experiment item,yes,Flankertask.osexp,C:/Users/borna.000/Documents/PSYC/PSYC5316,no,mono,no,18,no,white,no,yes,768,legacy,5,5,C:/Users/borna.000/Desktop/TM-subject-4.csv,legacy,Lentiform Loewenfeld,3.3.9,0,s,NA,s,NA,NA,s,671,NA,132261,NA,NA,671,2,legacy,1024,2,48000,-16,experiment,HHSHH,4,even,NA,143795,134499,NA,NA,NA,2234,NA,144869,2237,NA,NA,144971,145643,144866,144971,Flanker task,6,5048,6,yes,1024
100,100,802.7142857,802.7142857,black,legacy,legacy,legacy,0,congruent,uniform,1,undefined,1,h,0,6,0,0,0,6,0,6,6,0,0,0,6,6,6,6,9/25/2021 18:42,1500,The main experiment item,yes,Flankertask.osexp,C:/Users/borna.000/Documents/PSYC/PSYC5316,no,mono,no,18,no,white,no,yes,768,legacy,6,6,C:/Users/borna.000/Desktop/TM-subject-4.csv,legacy,Lentiform Loewenfeld,3.3.9,0,h,NA,s,NA,NA,h,571,NA,132261,NA,NA,571,2,legacy,1024,2,48000,-16,experiment,HHHHH,4,even,NA,145655,134499,NA,NA,NA,2234,NA,146721,2237,NA,NA,146823,147394,146719,146823,Flanker task,7,5619,7,yes,1024
100,100,830.25,830.25,black,legacy,legacy,legacy,0,incongruent,uniform,1,undefined,1,s,0,7,0,0,0,7,0,7,7,0,0,0,7,7,7,7,9/25/2021 18:42,1500,The main experiment item,yes,Flankertask.osexp,C:/Users/borna.000/Documents/PSYC/PSYC5316,no,mono,no,18,no,white,no,yes,768,legacy,7,7,C:/Users/borna.000/Desktop/TM-subject-4.csv,legacy,Lentiform Loewenfeld,3.3.9,0,s,NA,s,NA,NA,s,1023,NA,132261,NA,NA,1023,2,legacy,1024,2,48000,-16,experiment,HHSHH,4,even,NA,147405,134499,NA,NA,NA,2234,NA,148476,2237,NA,NA,148578,149602,148474,148578,Flanker task,8,6642,8,yes,1024
100,100,838.8888889,838.8888889,black,legacy,legacy,legacy,0,incongruent,uniform,1,undefined,1,h,0,8,0,0,0,8,0,8,8,0,0,0,8,8,8,8,9/25/2021 18:42,1500,The main experiment item,yes,Flankertask.osexp,C:/Users/borna.000/Documents/PSYC/PSYC5316,no,mono,no,18,no,white,no,yes,768,legacy,8,8,C:/Users/borna.000/Desktop/TM-subject-4.csv,legacy,Lentiform Loewenfeld,3.3.9,0,h,NA,s,NA,NA,h,908,NA,132261,NA,NA,908,2,legacy,1024,2,48000,-16,experiment,SSHSS,4,even,NA,149610,134499,NA,NA,NA,2234,NA,150682,2237,NA,NA,150784,151693,150680,150784,Flanker task,9,7550,9,yes,1024
100,100,881.8,881.8,black,legacy,legacy,legacy,0,congruent,uniform,1,undefined,1,h,0,9,0,0,0,9,0,9,9,0,0,0,9,9,9,9,9/25/2021 18:42,1500,The main experiment item,yes,Flankertask.osexp,C:/Users/borna.000/Documents/PSYC/PSYC5316,no,mono,no,18,no,white,no,yes,768,legacy,9,9,C:/Users/borna.000/Desktop/TM-subject-4.csv,legacy,Lentiform Loewenfeld,3.3.9,0,h,NA,s,NA,NA,h,1268,NA,132261,NA,NA,1268,2,legacy,1024,2,48000,-16,experiment,HHHHH,4,even,NA,151696,134499,NA,NA,NA,2234,NA,152764,2237,NA,NA,152866,154135,152762,152866,Flanker task,10,8818,10,yes,1024
100,100,874.8181818,874.8181818,black,legacy,legacy,legacy,0,congruent,uniform,1,undefined,1,h,0,10,0,0,0,10,0,10,10,0,0,0,10,10,10,10,9/25/2021 18:42,1500,The main experiment item,yes,Flankertask.osexp,C:/Users/borna.000/Documents/PSYC/PSYC5316,no,mono,no,18,no,white,no,yes,768,legacy,10,10,C:/Users/borna.000/Desktop/TM-subject-4.csv,legacy,Lentiform Loewenfeld,3.3.9,0,h,NA,s,NA,NA,h,805,NA,132261,NA,NA,805,2,legacy,1024,2,48000,-16,experiment,HHHHH,4,even,NA,154143,134499,NA,NA,NA,2234,NA,155211,2237,NA,NA,155313,156118,155209,155313,Flanker task,11,9623,11,yes,1024
100,100,917.5,917.5,black,legacy,legacy,legacy,0,congruent,uniform,1,undefined,1,h,0,11,0,0,0,11,0,11,11,0,0,0,11,11,11,11,9/25/2021 18:42,1500,The main experiment item,yes,Flankertask.osexp,C:/Users/borna.000/Documents/PSYC/PSYC5316,no,mono,no,18,no,white,no,yes,768,legacy,11,11,C:/Users/borna.000/Desktop/TM-subject-4.csv,legacy,Lentiform Loewenfeld,3.3.9,0,h,NA,s,NA,NA,h,1387,NA,132261,NA,NA,1387,2,legacy,1024,2,48000,-16,experiment,HHHHH,4,even,NA,156127,134499,NA,NA,NA,2234,NA,157194,2237,NA,NA,157296,158683,157191,157296,Flanker task,12,11010,12,yes,1024
100,100,927.3846154,927.3846154,black,legacy,legacy,legacy,0,incongruent,uniform,1,undefined,1,h,0,12,0,0,0,12,0,12,12,0,0,0,12,12,12,12,9/25/2021 18:42,1500,The main experiment item,yes,Flankertask.osexp,C:/Users/borna.000/Documents/PSYC/PSYC5316,no,mono,no,18,no,white,no,yes,768,legacy,12,12,C:/Users/borna.000/Desktop/TM-subject-4.csv,legacy,Lentiform Loewenfeld,3.3.9,0,h,NA,s,NA,NA,h,1046,NA,132261,NA,NA,1046,2,legacy,1024,2,48000,-16,experiment,SSHSS,4,even,NA,158692,134499,NA,NA,NA,2234,NA,159756,2237,NA,NA,159858,160904,159754,159858,Flanker task,13,12056,13,yes,1024
100,100,938.2142857,938.2142857,black,legacy,legacy,legacy,0,congruent,uniform,1,undefined,1,h,0,13,0,0,0,13,0,13,13,0,0,0,13,13,13,13,9/25/2021 18:42,1500,The main experiment item,yes,Flankertask.osexp,C:/Users/borna.000/Documents/PSYC/PSYC5316,no,mono,no,18,no,white,no,yes,768,legacy,13,13,C:/Users/borna.000/Desktop/TM-subject-4.csv,legacy,Lentiform Loewenfeld,3.3.9,0,h,NA,s,NA,NA,h,1079,NA,132261,NA,NA,1079,2,legacy,1024,2,48000,-16,experiment,HHHHH,4,even,NA,160912,134499,NA,NA,NA,2234,NA,161981,2237,NA,NA,162083,163163,161979,162083,Flanker task,14,13135,14,yes,1024
100,100,935.1333333,935.1333333,black,legacy,legacy,legacy,0,congruent,uniform,1,undefined,1,s,0,14,0,0,0,14,0,14,14,0,0,0,14,14,14,14,9/25/2021 18:42,1500,The main experiment item,yes,Flankertask.osexp,C:/Users/borna.000/Documents/PSYC/PSYC5316,no,mono,no,18,no,white,no,yes,768,legacy,14,14,C:/Users/borna.000/Desktop/TM-subject-4.csv,legacy,Lentiform Loewenfeld,3.3.9,0,s,NA,s,NA,NA,s,892,NA,132261,NA,NA,892,2,legacy,1024,2,48000,-16,experiment,SSSSS,4,even,NA,163172,134499,NA,NA,NA,2234,NA,164241,2237,NA,NA,164342,165234,164239,164342,Flanker task,15,14027,15,yes,1024
100,100,941.4375,941.4375,black,legacy,legacy,legacy,0,congruent,uniform,1,undefined,1,s,0,15,0,0,0,15,0,15,15,0,0,0,15,15,15,15,9/25/2021 18:42,1500,The main experiment item,yes,Flankertask.osexp,C:/Users/borna.000/Documents/PSYC/PSYC5316,no,mono,no,18,no,white,no,yes,768,legacy,15,15,C:/Users/borna.000/Desktop/TM-subject-4.csv,legacy,Lentiform Loewenfeld,3.3.9,0,s,NA,s,NA,NA,s,1036,NA,132261,NA,NA,1036,2,legacy,1024,2,48000,-16,experiment,SSSSS,4,even,NA,165242,134499,NA,NA,NA,2234,NA,166309,2237,NA,NA,166410,167447,166306,166410,Flanker task,16,15063,16,yes,1024
100,100,937.2941176,937.2941176,black,legacy,legacy,legacy,0,incongruent,uniform,1,undefined,1,s,0,16,0,0,0,16,0,16,16,0,0,0,16,16,16,16,9/25/2021 18:42,1500,The main experiment item,yes,Flankertask.osexp,C:/Users/borna.000/Documents/PSYC/PSYC5316,no,mono,no,18,no,white,no,yes,768,legacy,16,16,C:/Users/borna.000/Desktop/TM-subject-4.csv,legacy,Lentiform Loewenfeld,3.3.9,0,s,NA,s,NA,NA,s,871,NA,132261,NA,NA,871,2,legacy,1024,2,48000,-16,experiment,HHSHH,4,even,NA,167455,134499,NA,NA,NA,2234,NA,168523,2237,NA,NA,168624,169496,168521,168624,Flanker task,17,15934,17,yes,1024
100,100,924.9444444,924.9444444,black,legacy,legacy,legacy,0,congruent,uniform,1,undefined,1,s,0,17,0,0,0,17,0,17,17,0,0,0,17,17,17,17,9/25/2021 18:42,1500,The main experiment item,yes,Flankertask.osexp,C:/Users/borna.000/Documents/PSYC/PSYC5316,no,mono,no,18,no,white,no,yes,768,legacy,17,17,C:/Users/borna.000/Desktop/TM-subject-4.csv,legacy,Lentiform Loewenfeld,3.3.9,0,s,NA,s,NA,NA,s,715,NA,132261,NA,NA,715,2,legacy,1024,2,48000,-16,experiment,SSSSS,4,even,NA,169505,134499,NA,NA,NA,2234,NA,170580,2237,NA,NA,170683,171399,170578,170682,Flanker task,18,16649,18,yes,1024
100,100,896.0526316,896.0526316,black,legacy,legacy,legacy,0,congruent,uniform,1,undefined,1,s,0,18,0,0,0,18,0,18,18,0,0,0,18,18,18,18,9/25/2021 18:42,1500,The main experiment item,yes,Flankertask.osexp,C:/Users/borna.000/Documents/PSYC/PSYC5316,no,mono,no,18,no,white,no,yes,768,legacy,18,18,C:/Users/borna.000/Desktop/TM-subject-4.csv,legacy,Lentiform Loewenfeld,3.3.9,0,s,NA,s,NA,NA,s,376,NA,132261,NA,NA,376,2,legacy,1024,2,48000,-16,experiment,SSSSS,4,even,NA,171403,134499,NA,NA,NA,2234,NA,172459,2237,NA,NA,172561,172938,172457,172560,Flanker task,19,17025,19,yes,1024
95,95,867.7,867.7,black,legacy,legacy,legacy,0,incongruent,uniform,0,undefined,0,h,0,19,0,0,0,19,0,19,19,0,0,0,19,19,19,19,9/25/2021 18:42,1500,The main experiment item,yes,Flankertask.osexp,C:/Users/borna.000/Documents/PSYC/PSYC5316,no,mono,no,18,no,white,no,yes,768,legacy,19,19,C:/Users/borna.000/Desktop/TM-subject-4.csv,legacy,Lentiform Loewenfeld,3.3.9,0,s,NA,s,NA,NA,s,329,NA,132261,NA,NA,329,2,legacy,1024,2,48000,-16,experiment,SSHSS,4,even,NA,172946,134499,NA,NA,NA,2234,NA,174018,2237,NA,NA,174120,174450,174016,174120,Flanker task,19,17354,20,yes,1024
95.23809524,95.23809524,851.952381,851.952381,black,legacy,legacy,legacy,0,congruent,uniform,1,undefined,1,h,0,20,0,0,0,20,0,20,20,0,0,0,20,20,20,20,9/25/2021 18:42,1500,The main experiment item,yes,Flankertask.osexp,C:/Users/borna.000/Documents/PSYC/PSYC5316,no,mono,no,18,no,white,no,yes,768,legacy,20,20,C:/Users/borna.000/Desktop/TM-subject-4.csv,legacy,Lentiform Loewenfeld,3.3.9,0,h,NA,s,NA,NA,h,537,NA,132261,NA,NA,537,2,legacy,1024,2,48000,-16,experiment,HHHHH,4,even,NA,174957,134499,NA,NA,174455,2234,NA,176016,2237,NA,NA,176118,176656,176014,176118,Flanker task,20,17891,21,yes,1024
95.45454545,95.45454545,838.4545455,838.4545455,black,legacy,legacy,legacy,0,incongruent,uniform,1,undefined,1,h,0,21,0,0,0,21,0,21,21,0,0,0,21,21,21,21,9/25/2021 18:42,1500,The main experiment item,yes,Flankertask.osexp,C:/Users/borna.000/Documents/PSYC/PSYC5316,no,mono,no,18,no,white,no,yes,768,legacy,21,21,C:/Users/borna.000/Desktop/TM-subject-4.csv,legacy,Lentiform Loewenfeld,3.3.9,0,h,NA,s,NA,NA,h,555,NA,132261,NA,NA,555,2,legacy,1024,2,48000,-16,experiment,SSHSS,4,even,NA,176664,134499,NA,NA,174455,2234,NA,177736,2237,NA,NA,177837,178392,177734,177837,Flanker task,21,18446,22,yes,1024
95.65217391,95.65217391,820.826087,820.826087,black,legacy,legacy,legacy,0,congruent,uniform,1,undefined,1,h,0,22,0,0,0,22,0,22,22,0,0,0,22,22,22,22,9/25/2021 18:42,1500,The main experiment item,yes,Flankertask.osexp,C:/Users/borna.000/Documents/PSYC/PSYC5316,no,mono,no,18,no,white,no,yes,768,legacy,22,22,C:/Users/borna.000/Desktop/TM-subject-4.csv,legacy,Lentiform Loewenfeld,3.3.9,0,h,NA,s,NA,NA,h,433,NA,132261,NA,NA,433,2,legacy,1024,2,48000,-16,experiment,HHHHH,4,even,NA,178400,134499,NA,NA,174455,2234,NA,179469,2237,NA,NA,179571,180004,179467,179571,Flanker task,22,18879,23,yes,1024
95.83333333,95.83333333,807.9583333,807.9583333,black,legacy,legacy,legacy,0,incongruent,uniform,1,undefined,1,s,0,23,0,0,0,23,0,23,23,0,0,0,23,23,23,23,9/25/2021 18:42,1500,The main experiment item,yes,Flankertask.osexp,C:/Users/borna.000/Documents/PSYC/PSYC5316,no,mono,no,18,no,white,no,yes,768,legacy,23,23,C:/Users/borna.000/Desktop/TM-subject-4.csv,legacy,Lentiform Loewenfeld,3.3.9,0,s,NA,s,NA,NA,s,512,NA,132261,NA,NA,512,2,legacy,1024,2,48000,-16,experiment,HHSHH,4,even,NA,180013,134499,NA,NA,174455,2234,NA,181084,2237,NA,NA,181186,181699,181082,181186,Flanker task,23,19391,24,yes,1024
92,92,794.36,794.36,black,legacy,legacy,legacy,0,congruent,uniform,0,undefined,0,s,0,24,0,0,0,24,0,24,24,0,0,0,24,24,24,24,9/25/2021 18:42,1500,The main experiment item,yes,Flankertask.osexp,C:/Users/borna.000/Documents/PSYC/PSYC5316,no,mono,no,18,no,white,no,yes,768,legacy,24,24,C:/Users/borna.000/Desktop/TM-subject-4.csv,legacy,Lentiform Loewenfeld,3.3.9,0,h,NA,s,NA,NA,h,468,NA,132261,NA,NA,468,2,legacy,1024,2,48000,-16,experiment,SSSSS,4,even,NA,181707,134499,NA,NA,174455,2234,NA,182771,2237,NA,NA,182873,183342,182768,182873,Flanker task,23,19859,25,yes,1024
92.30769231,92.30769231,803.5384615,803.5384615,black,legacy,legacy,legacy,0,incongruent,uniform,1,undefined,1,h,0,25,0,0,0,25,0,25,25,0,0,0,25,25,25,25,9/25/2021 18:42,1500,The main experiment item,yes,Flankertask.osexp,C:/Users/borna.000/Documents/PSYC/PSYC5316,no,mono,no,18,no,white,no,yes,768,legacy,25,25,C:/Users/borna.000/Desktop/TM-subject-4.csv,legacy,Lentiform Loewenfeld,3.3.9,0,h,NA,s,NA,NA,h,1033,NA,132261,NA,NA,1033,2,legacy,1024,2,48000,-16,experiment,SSHSS,4,even,NA,183848,134499,NA,NA,183346,2234,NA,184914,2237,NA,NA,185016,186050,184912,185016,Flanker task,24,20892,26,yes,1024
92.59259259,92.59259259,796.1111111,796.1111111,black,legacy,legacy,legacy,0,incongruent,uniform,1,undefined,1,h,0,26,0,0,0,26,0,26,26,0,0,0,26,26,26,26,9/25/2021 18:42,1500,The main experiment item,yes,Flankertask.osexp,C:/Users/borna.000/Documents/PSYC/PSYC5316,no,mono,no,18,no,white,no,yes,768,legacy,26,26,C:/Users/borna.000/Desktop/TM-subject-4.csv,legacy,Lentiform Loewenfeld,3.3.9,0,h,NA,s,NA,NA,h,603,NA,132261,NA,NA,603,2,legacy,1024,2,48000,-16,experiment,SSHSS,4,even,NA,186053,134499,NA,NA,183346,2234,NA,187118,2237,NA,NA,187220,187823,187116,187220,Flanker task,25,21495,27,yes,1024
92.85714286,92.85714286,792.4642857,792.4642857,black,legacy,legacy,legacy,0,congruent,uniform,1,undefined,1,s,0,27,0,0,0,27,0,27,27,0,0,0,27,27,27,27,9/25/2021 18:42,1500,The main experiment item,yes,Flankertask.osexp,C:/Users/borna.000/Documents/PSYC/PSYC5316,no,mono,no,18,no,white,no,yes,768,legacy,27,27,C:/Users/borna.000/Desktop/TM-subject-4.csv,legacy,Lentiform Loewenfeld,3.3.9,0,s,NA,s,NA,NA,s,694,NA,132261,NA,NA,694,2,legacy,1024,2,48000,-16,experiment,SSSSS,4,even,NA,187831,134499,NA,NA,183346,2234,NA,188897,2237,NA,NA,188999,189694,188895,188999,Flanker task,26,22189,28,yes,1024
93.10344828,93.10344828,793.4482759,793.4482759,black,legacy,legacy,legacy,0,incongruent,uniform,1,undefined,1,s,0,28,0,0,0,28,0,28,28,0,0,0,28,28,28,28,9/25/2021 18:42,1500,The main experiment item,yes,Flankertask.osexp,C:/Users/borna.000/Documents/PSYC/PSYC5316,no,mono,no,18,no,white,no,yes,768,legacy,28,28,C:/Users/borna.000/Desktop/TM-subject-4.csv,legacy,Lentiform Loewenfeld,3.3.9,0,s,NA,s,NA,NA,s,821,NA,132261,NA,NA,821,2,legacy,1024,2,48000,-16,experiment,HHSHH,4,even,NA,189702,134499,NA,NA,183346,2234,NA,190780,2237,NA,NA,190883,191704,190778,190883,Flanker task,27,23010,29,yes,1024
93.33333333,93.33333333,791.8,791.8,black,legacy,legacy,legacy,0,congruent,uniform,1,undefined,1,s,0,29,0,0,0,29,0,29,29,0,0,0,29,29,29,29,9/25/2021 18:42,1500,The main experiment item,yes,Flankertask.osexp,C:/Users/borna.000/Documents/PSYC/PSYC5316,no,mono,no,18,no,white,no,yes,768,legacy,29,29,C:/Users/borna.000/Desktop/TM-subject-4.csv,legacy,Lentiform Loewenfeld,3.3.9,0,s,NA,s,NA,NA,s,744,NA,132261,NA,NA,744,2,legacy,1024,2,48000,-16,experiment,SSSSS,4,even,NA,191712,134499,NA,NA,183346,2234,NA,192780,2237,NA,NA,192881,193626,192778,192881,Flanker task,28,23754,30,yes,1024
93.5483871,93.5483871,783.1290323,783.1290323,black,legacy,legacy,legacy,0,congruent,uniform,1,undefined,1,s,0,30,0,0,0,30,0,30,30,0,0,0,30,30,30,30,9/25/2021 18:42,1500,The main experiment item,yes,Flankertask.osexp,C:/Users/borna.000/Documents/PSYC/PSYC5316,no,mono,no,18,no,white,no,yes,768,legacy,30,30,C:/Users/borna.000/Desktop/TM-subject-4.csv,legacy,Lentiform Loewenfeld,3.3.9,0,s,NA,s,NA,NA,s,523,NA,132261,NA,NA,523,2,legacy,1024,2,48000,-16,experiment,SSSSS,4,even,NA,193634,134499,NA,NA,183346,2234,NA,194700,2237,NA,NA,194802,195325,194698,194802,Flanker task,29,24277,31,yes,1024
93.75,93.75,780.78125,780.78125,black,legacy,legacy,legacy,0,incongruent,uniform,1,undefined,1,s,0,31,0,0,0,31,0,31,31,0,0,0,31,31,31,31,9/25/2021 18:42,1500,The main experiment item,yes,Flankertask.osexp,C:/Users/borna.000/Documents/PSYC/PSYC5316,no,mono,no,18,no,white,no,yes,768,legacy,31,31,C:/Users/borna.000/Desktop/TM-subject-4.csv,legacy,Lentiform Loewenfeld,3.3.9,0,s,NA,s,NA,NA,s,708,NA,132261,NA,NA,708,2,legacy,1024,2,48000,-16,experiment,HHSHH,4,even,NA,195333,134499,NA,NA,183346,2234,NA,196410,2237,NA,NA,196512,197220,196408,196512,Flanker task,30,24985,32,yes,1024
93.93939394,93.93939394,774.030303,774.030303,black,legacy,legacy,legacy,0,incongruent,uniform,1,undefined,1,s,0,32,0,0,0,32,0,32,32,0,0,0,32,32,32,32,9/25/2021 18:42,1500,The main experiment item,yes,Flankertask.osexp,C:/Users/borna.000/Documents/PSYC/PSYC5316,no,mono,no,18,no,white,no,yes,768,legacy,32,32,C:/Users/borna.000/Desktop/TM-subject-4.csv,legacy,Lentiform Loewenfeld,3.3.9,0,s,NA,s,NA,NA,s,558,NA,132261,NA,NA,558,2,legacy,1024,2,48000,-16,experiment,HHSHH,4,even,NA,197230,134499,NA,NA,183346,2234,NA,198305,2237,NA,NA,198406,198965,198302,198406,Flanker task,31,25543,33,yes,1024
94.11764706,94.11764706,769.4117647,769.4117647,black,legacy,legacy,legacy,0,congruent,uniform,1,undefined,1,s,0,33,0,0,0,33,0,33,33,0,0,0,33,33,33,33,9/25/2021 18:42,1500,The main experiment item,yes,Flankertask.osexp,C:/Users/borna.000/Documents/PSYC/PSYC5316,no,mono,no,18,no,white,no,yes,768,legacy,33,33,C:/Users/borna.000/Desktop/TM-subject-4.csv,legacy,Lentiform Loewenfeld,3.3.9,0,s,NA,s,NA,NA,s,617,NA,132261,NA,NA,617,2,legacy,1024,2,48000,-16,experiment,SSSSS,4,even,NA,198973,134499,NA,NA,183346,2234,NA,200036,2237,NA,NA,200138,200756,200034,200138,Flanker task,32,26160,34,yes,1024
94.28571429,94.28571429,765.5142857,765.5142857,black,legacy,legacy,legacy,0,incongruent,uniform,1,undefined,1,s,0,34,0,0,0,34,0,34,34,0,0,0,34,34,34,34,9/25/2021 18:42,1500,The main experiment item,yes,Flankertask.osexp,C:/Users/borna.000/Documents/PSYC/PSYC5316,no,mono,no,18,no,white,no,yes,768,legacy,34,34,C:/Users/borna.000/Desktop/TM-subject-4.csv,legacy,Lentiform Loewenfeld,3.3.9,0,s,NA,s,NA,NA,s,633,NA,132261,NA,NA,633,2,legacy,1024,2,48000,-16,experiment,HHSHH,4,even,NA,200764,134499,NA,NA,183346,2234,NA,201832,2237,NA,NA,201934,202568,201830,201934,Flanker task,33,26793,35,yes,1024
94.44444444,94.44444444,759.1944444,759.1944444,black,legacy,legacy,legacy,0,congruent,uniform,1,undefined,1,h,0,35,0,0,0,35,0,35,35,0,0,0,35,35,35,35,9/25/2021 18:42,1500,The main experiment item,yes,Flankertask.osexp,C:/Users/borna.000/Documents/PSYC/PSYC5316,no,mono,no,18,no,white,no,yes,768,legacy,35,35,C:/Users/borna.000/Desktop/TM-subject-4.csv,legacy,Lentiform Loewenfeld,3.3.9,0,h,NA,s,NA,NA,h,538,NA,132261,NA,NA,538,2,legacy,1024,2,48000,-16,experiment,HHHHH,4,even,NA,202577,134499,NA,NA,183346,2234,NA,203646,2237,NA,NA,203747,204285,203644,203747,Flanker task,34,27331,36,yes,1024
94.59459459,94.59459459,752.4054054,752.4054054,black,legacy,legacy,legacy,0,congruent,uniform,1,undefined,1,s,0,36,0,0,0,36,0,36,36,0,0,0,36,36,36,36,9/25/2021 18:42,1500,The main experiment item,yes,Flankertask.osexp,C:/Users/borna.000/Documents/PSYC/PSYC5316,no,mono,no,18,no,white,no,yes,768,legacy,36,36,C:/Users/borna.000/Desktop/TM-subject-4.csv,legacy,Lentiform Loewenfeld,3.3.9,0,s,NA,s,NA,NA,s,508,NA,132261,NA,NA,508,2,legacy,1024,2,48000,-16,experiment,SSSSS,4,even,NA,204293,134499,NA,NA,183346,2234,NA,205366,2237,NA,NA,205468,205976,205364,205468,Flanker task,35,27839,37,yes,1024
94.73684211,94.73684211,747.1052632,747.1052632,black,legacy,legacy,legacy,0,congruent,uniform,1,undefined,1,s,0,37,0,0,0,37,0,37,37,0,0,0,37,37,37,37,9/25/2021 18:42,1500,The main experiment item,yes,Flankertask.osexp,C:/Users/borna.000/Documents/PSYC/PSYC5316,no,mono,no,18,no,white,no,yes,768,legacy,37,37,C:/Users/borna.000/Desktop/TM-subject-4.csv,legacy,Lentiform Loewenfeld,3.3.9,0,s,NA,s,NA,NA,s,551,NA,132261,NA,NA,551,2,legacy,1024,2,48000,-16,experiment,SSSSS,4,even,NA,205985,134499,NA,NA,183346,2234,NA,207051,2237,NA,NA,207152,207704,207049,207152,Flanker task,36,28390,38,yes,1024
94.87179487,94.87179487,741.7179487,741.7179487,black,legacy,legacy,legacy,0,congruent,uniform,1,undefined,1,s,0,38,0,0,0,38,0,38,38,0,0,0,38,38,38,38,9/25/2021 18:42,1500,The main experiment item,yes,Flankertask.osexp,C:/Users/borna.000/Documents/PSYC/PSYC5316,no,mono,no,18,no,white,no,yes,768,legacy,38,38,C:/Users/borna.000/Desktop/TM-subject-4.csv,legacy,Lentiform Loewenfeld,3.3.9,0,s,NA,s,NA,NA,s,537,NA,132261,NA,NA,537,2,legacy,1024,2,48000,-16,experiment,SSSSS,4,even,NA,207712,134499,NA,NA,183346,2234,NA,208778,2237,NA,NA,208880,209418,208776,208880,Flanker task,37,28927,39,yes,1024
95,95,744.175,744.175,black,legacy,legacy,legacy,0,incongruent,uniform,1,undefined,1,h,0,39,0,0,0,39,0,39,39,0,0,0,39,39,39,39,9/25/2021 18:42,1500,The main experiment item,yes,Flankertask.osexp,C:/Users/borna.000/Documents/PSYC/PSYC5316,no,mono,no,18,no,white,no,yes,768,legacy,39,39,C:/Users/borna.000/Desktop/TM-subject-4.csv,legacy,Lentiform Loewenfeld,3.3.9,0,h,NA,s,NA,NA,h,840,NA,132261,NA,NA,840,2,legacy,1024,2,48000,-16,experiment,SSHSS,4,even,NA,209426,134499,NA,NA,183346,2234,NA,210492,2237,NA,NA,210594,211434,210490,210594,Flanker task,38,29767,40,yes,1024
95.12195122,95.12195122,741.4634146,741.4634146,black,legacy,legacy,legacy,0,incongruent,uniform,1,undefined,1,h,0,40,0,0,0,40,0,40,40,0,0,0,40,40,40,40,9/25/2021 18:42,1500,The main experiment item,yes,Flankertask.osexp,C:/Users/borna.000/Documents/PSYC/PSYC5316,no,mono,no,18,no,white,no,yes,768,legacy,40,40,C:/Users/borna.000/Desktop/TM-subject-4.csv,legacy,Lentiform Loewenfeld,3.3.9,0,h,NA,s,NA,NA,h,633,NA,132261,NA,NA,633,2,legacy,1024,2,48000,-16,experiment,SSHSS,4,even,NA,211444,134499,NA,NA,183346,2234,NA,212510,2237,NA,NA,212611,213245,212508,212611,Flanker task,39,30400,41,yes,1024
95.23809524,95.23809524,737.2857143,737.2857143,black,legacy,legacy,legacy,0,incongruent,uniform,1,undefined,1,s,0,41,0,0,0,41,0,41,41,0,0,0,41,41,41,41,9/25/2021 18:42,1500,The main experiment item,yes,Flankertask.osexp,C:/Users/borna.000/Documents/PSYC/PSYC5316,no,mono,no,18,no,white,no,yes,768,legacy,41,41,C:/Users/borna.000/Desktop/TM-subject-4.csv,legacy,Lentiform Loewenfeld,3.3.9,0,s,NA,s,NA,NA,s,566,NA,132261,NA,NA,566,2,legacy,1024,2,48000,-16,experiment,HHSHH,4,even,NA,213253,134499,NA,NA,183346,2234,NA,214322,2237,NA,NA,214424,214990,214320,214424,Flanker task,40,30966,42,yes,1024
95.34883721,95.34883721,737.9534884,737.9534884,black,legacy,legacy,legacy,0,incongruent,uniform,1,undefined,1,s,0,42,0,0,0,42,0,42,42,0,0,0,42,42,42,42,9/25/2021 18:42,1500,The main experiment item,yes,Flankertask.osexp,C:/Users/borna.000/Documents/PSYC/PSYC5316,no,mono,no,18,no,white,no,yes,768,legacy,42,42,C:/Users/borna.000/Desktop/TM-subject-4.csv,legacy,Lentiform Loewenfeld,3.3.9,0,s,NA,s,NA,NA,s,766,NA,132261,NA,NA,766,2,legacy,1024,2,48000,-16,experiment,HHSHH,4,even,NA,214998,134499,NA,NA,183346,2234,NA,216063,2237,NA,NA,216165,216932,216061,216165,Flanker task,41,31732,43,yes,1024
95.45454545,95.45454545,734.8181818,734.8181818,black,legacy,legacy,legacy,0,incongruent,uniform,1,undefined,1,s,0,43,0,0,0,43,0,43,43,0,0,0,43,43,43,43,9/25/2021 18:42,1500,The main experiment item,yes,Flankertask.osexp,C:/Users/borna.000/Documents/PSYC/PSYC5316,no,mono,no,18,no,white,no,yes,768,legacy,43,43,C:/Users/borna.000/Desktop/TM-subject-4.csv,legacy,Lentiform Loewenfeld,3.3.9,0,s,NA,s,NA,NA,s,600,NA,132261,NA,NA,600,2,legacy,1024,2,48000,-16,experiment,HHSHH,4,even,NA,216940,134499,NA,NA,183346,2234,NA,218011,2237,NA,NA,218112,218713,218010,218112,Flanker task,42,32332,44,yes,1024
95.55555556,95.55555556,734.0222222,734.0222222,black,legacy,legacy,legacy,0,congruent,uniform,1,undefined,1,h,0,44,0,0,0,44,0,44,44,0,0,0,44,44,44,44,9/25/2021 18:42,1500,The main experiment item,yes,Flankertask.osexp,C:/Users/borna.000/Documents/PSYC/PSYC5316,no,mono,no,18,no,white,no,yes,768,legacy,44,44,C:/Users/borna.000/Desktop/TM-subject-4.csv,legacy,Lentiform Loewenfeld,3.3.9,0,h,NA,s,NA,NA,h,699,NA,132261,NA,NA,699,2,legacy,1024,2,48000,-16,experiment,HHHHH,4,even,NA,218721,134499,NA,NA,183346,2234,NA,219785,2237,NA,NA,219887,220586,219783,219887,Flanker task,43,33031,45,yes,1024
95.65217391,95.65217391,731.5652174,731.5652174,black,legacy,legacy,legacy,0,congruent,uniform,1,undefined,1,h,0,45,0,0,0,45,0,45,45,0,0,0,45,45,45,45,9/25/2021 18:42,1500,The main experiment item,yes,Flankertask.osexp,C:/Users/borna.000/Documents/PSYC/PSYC5316,no,mono,no,18,no,white,no,yes,768,legacy,45,45,C:/Users/borna.000/Desktop/TM-subject-4.csv,legacy,Lentiform Loewenfeld,3.3.9,0,h,NA,s,NA,NA,h,621,NA,132261,NA,NA,621,2,legacy,1024,2,48000,-16,experiment,HHHHH,4,even,NA,220595,134499,NA,NA,183346,2234,NA,221661,2237,NA,NA,221763,222385,221659,221763,Flanker task,44,33652,46,yes,1024
95.74468085,95.74468085,728.8510638,728.8510638,black,legacy,legacy,legacy,0,incongruent,uniform,1,undefined,1,s,0,46,0,0,0,46,0,46,46,0,0,0,46,46,46,46,9/25/2021 18:42,1500,The main experiment item,yes,Flankertask.osexp,C:/Users/borna.000/Documents/PSYC/PSYC5316,no,mono,no,18,no,white,no,yes,768,legacy,46,46,C:/Users/borna.000/Desktop/TM-subject-4.csv,legacy,Lentiform Loewenfeld,3.3.9,0,s,NA,s,NA,NA,s,604,NA,132261,NA,NA,604,2,legacy,1024,2,48000,-16,experiment,HHSHH,4,even,NA,222394,134499,NA,NA,183346,2234,NA,223460,2237,NA,NA,223561,224166,223458,223561,Flanker task,45,34256,47,yes,1024
95.83333333,95.83333333,725.2291667,725.2291667,black,legacy,legacy,legacy,0,congruent,uniform,1,undefined,1,h,0,47,0,0,0,47,0,47,47,0,0,0,47,47,47,47,9/25/2021 18:42,1500,The main experiment item,yes,Flankertask.osexp,C:/Users/borna.000/Documents/PSYC/PSYC5316,no,mono,no,18,no,white,no,yes,768,legacy,47,47,C:/Users/borna.000/Desktop/TM-subject-4.csv,legacy,Lentiform Loewenfeld,3.3.9,0,h,NA,s,NA,NA,h,555,NA,132261,NA,NA,555,2,legacy,1024,2,48000,-16,experiment,HHHHH,4,even,NA,224174,134499,NA,NA,183346,2234,NA,225244,2237,NA,NA,225346,225902,225242,225346,Flanker task,46,34811,48,yes,1024
95.91836735,95.91836735,723.755102,723.755102,black,legacy,legacy,legacy,0,incongruent,uniform,1,undefined,1,s,0,48,0,0,0,48,0,48,48,0,0,0,48,48,48,48,9/25/2021 18:42,1500,The main experiment item,yes,Flankertask.osexp,C:/Users/borna.000/Documents/PSYC/PSYC5316,no,mono,no,18,no,white,no,yes,768,legacy,48,48,C:/Users/borna.000/Desktop/TM-subject-4.csv,legacy,Lentiform Loewenfeld,3.3.9,0,s,NA,s,NA,NA,s,653,NA,132261,NA,NA,653,2,legacy,1024,2,48000,-16,experiment,HHSHH,4,even,NA,225905,134499,NA,NA,183346,2234,NA,226977,2237,NA,NA,227079,227733,226974,227079,Flanker task,47,35464,49,yes,1024
96,96,719.32,719.32,black,legacy,legacy,legacy,0,congruent,uniform,1,undefined,1,h,0,49,0,0,0,49,0,49,49,0,0,0,49,49,49,49,9/25/2021 18:42,1500,The main experiment item,yes,Flankertask.osexp,C:/Users/borna.000/Documents/PSYC/PSYC5316,no,mono,no,18,no,white,no,yes,768,legacy,49,49,C:/Users/borna.000/Desktop/TM-subject-4.csv,legacy,Lentiform Loewenfeld,3.3.9,0,h,NA,s,NA,NA,h,502,NA,132261,NA,NA,502,2,legacy,1024,2,48000,-16,experiment,HHHHH,4,even,NA,227742,134499,NA,NA,183346,2234,NA,228805,2237,NA,NA,228906,229409,228803,228906,Flanker task,48,35966,50,yes,1024
96.07843137,96.07843137,715.5882353,715.5882353,black,legacy,legacy,legacy,0,incongruent,uniform,1,undefined,1,h,0,50,0,0,0,50,0,50,50,0,0,0,50,50,50,50,9/25/2021 18:42,1500,The main experiment item,yes,Flankertask.osexp,C:/Users/borna.000/Documents/PSYC/PSYC5316,no,mono,no,18,no,white,no,yes,768,legacy,50,50,C:/Users/borna.000/Desktop/TM-subject-4.csv,legacy,Lentiform Loewenfeld,3.3.9,0,h,NA,s,NA,NA,h,529,NA,132261,NA,NA,529,2,legacy,1024,2,48000,-16,experiment,SSHSS,4,even,NA,229417,134499,NA,NA,183346,2234,NA,230487,2237,NA,NA,230589,231119,230485,230589,Flanker task,49,36495,51,yes,1024
96.15384615,96.15384615,712,712,black,legacy,legacy,legacy,0,congruent,uniform,1,undefined,1,s,0,51,0,0,0,51,0,51,51,0,0,0,51,51,51,51,9/25/2021 18:42,1500,The main experiment item,yes,Flankertask.osexp,C:/Users/borna.000/Documents/PSYC/PSYC5316,no,mono,no,18,no,white,no,yes,768,legacy,51,51,C:/Users/borna.000/Desktop/TM-subject-4.csv,legacy,Lentiform Loewenfeld,3.3.9,0,s,NA,s,NA,NA,s,529,NA,132261,NA,NA,529,2,legacy,1024,2,48000,-16,experiment,SSSSS,4,even,NA,231128,134499,NA,NA,183346,2234,NA,232194,2237,NA,NA,232296,232825,232192,232296,Flanker task,50,37024,52,yes,1024
96.22641509,96.22641509,707.6792453,707.6792453,black,legacy,legacy,legacy,0,congruent,uniform,1,undefined,1,h,0,52,0,0,0,52,0,52,52,0,0,0,52,52,52,52,9/25/2021 18:42,1500,The main experiment item,yes,Flankertask.osexp,C:/Users/borna.000/Documents/PSYC/PSYC5316,no,mono,no,18,no,white,no,yes,768,legacy,52,52,C:/Users/borna.000/Desktop/TM-subject-4.csv,legacy,Lentiform Loewenfeld,3.3.9,0,h,NA,s,NA,NA,h,483,NA,132261,NA,NA,483,2,legacy,1024,2,48000,-16,experiment,HHHHH,4,even,NA,232834,134499,NA,NA,183346,2234,NA,233900,2237,NA,NA,234001,234485,233898,234001,Flanker task,51,37507,53,yes,1024
96.2962963,96.2962963,706.2407407,706.2407407,black,legacy,legacy,legacy,0,congruent,uniform,1,undefined,1,h,0,53,0,0,0,53,0,53,53,0,0,0,53,53,53,53,9/25/2021 18:42,1500,The main experiment item,yes,Flankertask.osexp,C:/Users/borna.000/Documents/PSYC/PSYC5316,no,mono,no,18,no,white,no,yes,768,legacy,53,53,C:/Users/borna.000/Desktop/TM-subject-4.csv,legacy,Lentiform Loewenfeld,3.3.9,0,h,NA,s,NA,NA,h,630,NA,132261,NA,NA,630,2,legacy,1024,2,48000,-16,experiment,HHHHH,4,even,NA,234493,134499,NA,NA,183346,2234,NA,235561,2237,NA,NA,235663,236294,235558,235663,Flanker task,52,38137,54,yes,1024
96.36363636,96.36363636,705.7090909,705.7090909,black,legacy,legacy,legacy,0,incongruent,uniform,1,undefined,1,h,0,54,0,0,0,54,0,54,54,0,0,0,54,54,54,54,9/25/2021 18:42,1500,The main experiment item,yes,Flankertask.osexp,C:/Users/borna.000/Documents/PSYC/PSYC5316,no,mono,no,18,no,white,no,yes,768,legacy,54,54,C:/Users/borna.000/Desktop/TM-subject-4.csv,legacy,Lentiform Loewenfeld,3.3.9,0,h,NA,s,NA,NA,h,677,NA,132261,NA,NA,677,2,legacy,1024,2,48000,-16,experiment,SSHSS,4,even,NA,236303,134499,NA,NA,183346,2234,NA,237371,2237,NA,NA,237472,238150,237368,237472,Flanker task,53,38814,55,yes,1024
96.42857143,96.42857143,703.5,703.5,black,legacy,legacy,legacy,0,congruent,uniform,1,undefined,1,s,0,55,0,0,0,55,0,55,55,0,0,0,55,55,55,55,9/25/2021 18:42,1500,The main experiment item,yes,Flankertask.osexp,C:/Users/borna.000/Documents/PSYC/PSYC5316,no,mono,no,18,no,white,no,yes,768,legacy,55,55,C:/Users/borna.000/Desktop/TM-subject-4.csv,legacy,Lentiform Loewenfeld,3.3.9,0,s,NA,s,NA,NA,s,582,NA,132261,NA,NA,582,2,legacy,1024,2,48000,-16,experiment,SSSSS,4,even,NA,238158,134499,NA,NA,183346,2234,NA,239226,2237,NA,NA,239328,239911,239223,239328,Flanker task,54,39396,56,yes,1024
96.49122807,96.49122807,701.0877193,701.0877193,black,legacy,legacy,legacy,0,incongruent,uniform,1,undefined,1,h,0,56,0,0,0,56,0,56,56,0,0,0,56,56,56,56,9/25/2021 18:42,1500,The main experiment item,yes,Flankertask.osexp,C:/Users/borna.000/Documents/PSYC/PSYC5316,no,mono,no,18,no,white,no,yes,768,legacy,56,56,C:/Users/borna.000/Desktop/TM-subject-4.csv,legacy,Lentiform Loewenfeld,3.3.9,0,h,NA,s,NA,NA,h,566,NA,132261,NA,NA,566,2,legacy,1024,2,48000,-16,experiment,SSHSS,4,even,NA,239919,134499,NA,NA,183346,2234,NA,240997,2237,NA,NA,241099,241666,240995,241099,Flanker task,55,39962,57,yes,1024
96.55172414,96.55172414,696.1206897,696.1206897,black,legacy,legacy,legacy,0,incongruent,uniform,1,undefined,1,s,0,57,0,0,0,57,0,57,57,0,0,0,57,57,57,57,9/25/2021 18:42,1500,The main experiment item,yes,Flankertask.osexp,C:/Users/borna.000/Documents/PSYC/PSYC5316,no,mono,no,18,no,white,no,yes,768,legacy,57,57,C:/Users/borna.000/Desktop/TM-subject-4.csv,legacy,Lentiform Loewenfeld,3.3.9,0,s,NA,s,NA,NA,s,413,NA,132261,NA,NA,413,2,legacy,1024,2,48000,-16,experiment,HHSHH,4,even,NA,241674,134499,NA,NA,183346,2234,NA,242748,2237,NA,NA,242850,243264,242745,242850,Flanker task,56,40375,58,yes,1024
96.61016949,96.61016949,695.7627119,695.7627119,black,legacy,legacy,legacy,0,congruent,uniform,1,undefined,1,s,0,58,0,0,0,58,0,58,58,0,0,0,58,58,58,58,9/25/2021 18:42,1500,The main experiment item,yes,Flankertask.osexp,C:/Users/borna.000/Documents/PSYC/PSYC5316,no,mono,no,18,no,white,no,yes,768,legacy,58,58,C:/Users/borna.000/Desktop/TM-subject-4.csv,legacy,Lentiform Loewenfeld,3.3.9,0,s,NA,s,NA,NA,s,675,NA,132261,NA,NA,675,2,legacy,1024,2,48000,-16,experiment,SSSSS,4,even,NA,243272,134499,NA,NA,183346,2234,NA,244336,2237,NA,NA,244438,245113,244334,244438,Flanker task,57,41050,59,yes,1024
96.66666667,96.66666667,692.4166667,692.4166667,black,legacy,legacy,legacy,0,congruent,uniform,1,undefined,1,h,0,59,0,0,0,59,0,59,59,0,0,0,59,59,59,59,9/25/2021 18:42,1500,The main experiment item,yes,Flankertask.osexp,C:/Users/borna.000/Documents/PSYC/PSYC5316,no,mono,no,18,no,white,no,yes,768,legacy,59,59,C:/Users/borna.000/Desktop/TM-subject-4.csv,legacy,Lentiform Loewenfeld,3.3.9,0,h,NA,s,NA,NA,h,495,NA,132261,NA,NA,495,2,legacy,1024,2,48000,-16,experiment,HHHHH,4,even,NA,245122,134499,NA,NA,183346,2234,NA,246193,2237,NA,NA,246296,246792,246191,246295,Flanker task,58,41545,60,yes,1024
96.72131148,96.72131148,687.704918,687.704918,black,legacy,legacy,legacy,0,congruent,uniform,1,undefined,1,s,0,60,0,0,0,60,0,60,60,0,0,0,60,60,60,60,9/25/2021 18:42,1500,The main experiment item,yes,Flankertask.osexp,C:/Users/borna.000/Documents/PSYC/PSYC5316,no,mono,no,18,no,white,no,yes,768,legacy,60,60,C:/Users/borna.000/Desktop/TM-subject-4.csv,legacy,Lentiform Loewenfeld,3.3.9,0,s,NA,s,NA,NA,s,405,NA,132261,NA,NA,405,2,legacy,1024,2,48000,-16,experiment,SSSSS,4,even,NA,246800,134499,NA,NA,183346,2234,NA,247867,2237,NA,NA,247969,248375,247864,247969,Flanker task,59,41950,61,yes,1024
96.77419355,96.77419355,685.1451613,685.1451613,black,legacy,legacy,legacy,0,incongruent,uniform,1,undefined,1,h,0,61,0,0,0,61,0,61,61,0,0,0,61,61,61,61,9/25/2021 18:42,1500,The main experiment item,yes,Flankertask.osexp,C:/Users/borna.000/Documents/PSYC/PSYC5316,no,mono,no,18,no,white,no,yes,768,legacy,61,61,C:/Users/borna.000/Desktop/TM-subject-4.csv,legacy,Lentiform Loewenfeld,3.3.9,0,h,NA,s,NA,NA,h,529,NA,132261,NA,NA,529,2,legacy,1024,2,48000,-16,experiment,SSHSS,4,even,NA,248383,134499,NA,NA,183346,2234,NA,249452,2237,NA,NA,249554,250084,249449,249554,Flanker task,60,42479,62,yes,1024
96.82539683,96.82539683,682.4285714,682.4285714,black,legacy,legacy,legacy,0,congruent,uniform,1,undefined,1,s,0,62,0,0,0,62,0,62,62,0,0,0,62,62,62,62,9/25/2021 18:42,1500,The main experiment item,yes,Flankertask.osexp,C:/Users/borna.000/Documents/PSYC/PSYC5316,no,mono,no,18,no,white,no,yes,768,legacy,62,62,C:/Users/borna.000/Desktop/TM-subject-4.csv,legacy,Lentiform Loewenfeld,3.3.9,0,s,NA,s,NA,NA,s,514,NA,132261,NA,NA,514,2,legacy,1024,2,48000,-16,experiment,SSSSS,4,even,NA,250092,134499,NA,NA,183346,2234,NA,251168,2237,NA,NA,251270,251785,251166,251270,Flanker task,61,42993,63,yes,1024
96.875,96.875,684.1875,684.1875,black,legacy,legacy,legacy,0,incongruent,uniform,1,undefined,1,s,0,63,0,0,0,63,0,63,63,0,0,0,63,63,63,63,9/25/2021 18:42,1500,The main experiment item,yes,Flankertask.osexp,C:/Users/borna.000/Documents/PSYC/PSYC5316,no,mono,no,18,no,white,no,yes,768,legacy,63,63,C:/Users/borna.000/Desktop/TM-subject-4.csv,legacy,Lentiform Loewenfeld,3.3.9,0,s,NA,s,NA,NA,s,795,NA,132261,NA,NA,795,2,legacy,1024,2,48000,-16,experiment,HHSHH,4,even,NA,251794,134499,NA,NA,183346,2234,NA,252864,2237,NA,NA,252966,253762,252862,252966,Flanker task,62,43788,64,yes,1024
96.92307692,96.92307692,683.0615385,683.0615385,black,legacy,legacy,legacy,0,incongruent,uniform,1,undefined,1,h,0,64,0,0,0,64,0,64,64,0,0,0,64,64,64,64,9/25/2021 18:42,1500,The main experiment item,yes,Flankertask.osexp,C:/Users/borna.000/Documents/PSYC/PSYC5316,no,mono,no,18,no,white,no,yes,768,legacy,64,64,C:/Users/borna.000/Desktop/TM-subject-4.csv,legacy,Lentiform Loewenfeld,3.3.9,0,h,NA,s,NA,NA,h,611,NA,132261,NA,NA,611,2,legacy,1024,2,48000,-16,experiment,SSHSS,4,even,NA,253770,134499,NA,NA,183346,2234,NA,254839,2237,NA,NA,254941,255553,254837,254941,Flanker task,63,44399,65,yes,1024
96.96969697,96.96969697,682.7575758,682.7575758,black,legacy,legacy,legacy,0,incongruent,uniform,1,undefined,1,s,0,65,0,0,0,65,0,65,65,0,0,0,65,65,65,65,9/25/2021 18:42,1500,The main experiment item,yes,Flankertask.osexp,C:/Users/borna.000/Documents/PSYC/PSYC5316,no,mono,no,18,no,white,no,yes,768,legacy,65,65,C:/Users/borna.000/Desktop/TM-subject-4.csv,legacy,Lentiform Loewenfeld,3.3.9,0,s,NA,s,NA,NA,s,663,NA,132261,NA,NA,663,2,legacy,1024,2,48000,-16,experiment,HHSHH,4,even,NA,255556,134499,NA,NA,183346,2234,NA,256623,2237,NA,NA,256723,257387,256621,256723,Flanker task,64,45062,66,yes,1024
97.01492537,97.01492537,679.3432836,679.3432836,black,legacy,legacy,legacy,0,congruent,uniform,1,undefined,1,h,0,66,0,0,0,66,0,66,66,0,0,0,66,66,66,66,9/25/2021 18:42,1500,The main experiment item,yes,Flankertask.osexp,C:/Users/borna.000/Documents/PSYC/PSYC5316,no,mono,no,18,no,white,no,yes,768,legacy,66,66,C:/Users/borna.000/Desktop/TM-subject-4.csv,legacy,Lentiform Loewenfeld,3.3.9,0,h,NA,s,NA,NA,h,454,NA,132261,NA,NA,454,2,legacy,1024,2,48000,-16,experiment,HHHHH,4,even,NA,257395,134499,NA,NA,183346,2234,NA,258459,2237,NA,NA,258562,259017,258457,258562,Flanker task,65,45516,67,yes,1024
95.58823529,95.58823529,691.4117647,691.4117647,black,legacy,legacy,legacy,0,incongruent,uniform,0,undefined,0,h,0,67,0,0,0,67,0,67,67,0,0,0,67,67,67,67,9/25/2021 18:42,1500,The main experiment item,yes,Flankertask.osexp,C:/Users/borna.000/Documents/PSYC/PSYC5316,no,mono,no,18,no,white,no,yes,768,legacy,67,67,C:/Users/borna.000/Desktop/TM-subject-4.csv,legacy,Lentiform Loewenfeld,3.3.9,0,None,NA,s,NA,NA,None,1500,NA,132261,NA,NA,1500,2,legacy,1024,2,48000,-16,experiment,SSHSS,4,even,NA,259025,134499,NA,NA,183346,2234,NA,260098,2237,NA,NA,260199,261699,260095,260199,Flanker task,65,47016,68,yes,1024
95.65217391,95.65217391,701.4782609,701.4782609,black,legacy,legacy,legacy,0,incongruent,uniform,1,undefined,1,h,0,68,0,0,0,68,0,68,68,0,0,0,68,68,68,68,9/25/2021 18:42,1500,The main experiment item,yes,Flankertask.osexp,C:/Users/borna.000/Documents/PSYC/PSYC5316,no,mono,no,18,no,white,no,yes,768,legacy,68,68,C:/Users/borna.000/Desktop/TM-subject-4.csv,legacy,Lentiform Loewenfeld,3.3.9,0,h,NA,s,NA,NA,h,1386,NA,132261,NA,NA,1386,2,legacy,1024,2,48000,-16,experiment,SSHSS,4,even,NA,262210,134499,NA,NA,261708,2234,NA,263269,2237,NA,NA,263371,264757,263267,263371,Flanker task,66,48402,69,yes,1024
95.71428571,95.71428571,699.8714286,699.8714286,black,legacy,legacy,legacy,0,congruent,uniform,1,undefined,1,s,0,69,0,0,0,69,0,69,69,0,0,0,69,69,69,69,9/25/2021 18:42,1500,The main experiment item,yes,Flankertask.osexp,C:/Users/borna.000/Documents/PSYC/PSYC5316,no,mono,no,18,no,white,no,yes,768,legacy,69,69,C:/Users/borna.000/Desktop/TM-subject-4.csv,legacy,Lentiform Loewenfeld,3.3.9,0,s,NA,s,NA,NA,s,589,NA,132261,NA,NA,589,2,legacy,1024,2,48000,-16,experiment,SSSSS,4,even,NA,264766,134499,NA,NA,261708,2234,NA,265840,2237,NA,NA,265942,266532,265837,265942,Flanker task,67,48991,70,yes,1024
95.77464789,95.77464789,699.8873239,699.8873239,black,legacy,legacy,legacy,0,incongruent,uniform,1,undefined,1,s,0,70,0,0,0,70,0,70,70,0,0,0,70,70,70,70,9/25/2021 18:42,1500,The main experiment item,yes,Flankertask.osexp,C:/Users/borna.000/Documents/PSYC/PSYC5316,no,mono,no,18,no,white,no,yes,768,legacy,70,70,C:/Users/borna.000/Desktop/TM-subject-4.csv,legacy,Lentiform Loewenfeld,3.3.9,0,s,NA,s,NA,NA,s,701,NA,132261,NA,NA,701,2,legacy,1024,2,48000,-16,experiment,HHSHH,4,even,NA,266540,134499,NA,NA,261708,2234,NA,267606,2237,NA,NA,267707,268408,267603,267707,Flanker task,68,49692,71,yes,1024
95.83333333,95.83333333,698.5277778,698.5277778,black,legacy,legacy,legacy,0,incongruent,uniform,1,undefined,1,s,0,71,0,0,0,71,0,71,71,0,0,0,71,71,71,71,9/25/2021 18:42,1500,The main experiment item,yes,Flankertask.osexp,C:/Users/borna.000/Documents/PSYC/PSYC5316,no,mono,no,18,no,white,no,yes,768,legacy,71,71,C:/Users/borna.000/Desktop/TM-subject-4.csv,legacy,Lentiform Loewenfeld,3.3.9,0,s,NA,s,NA,NA,s,602,NA,132261,NA,NA,602,2,legacy,1024,2,48000,-16,experiment,HHSHH,4,even,NA,268416,134499,NA,NA,261708,2234,NA,269487,2237,NA,NA,269589,270192,269485,269589,Flanker task,69,50294,72,yes,1024
95.89041096,95.89041096,695.9863014,695.9863014,black,legacy,legacy,legacy,0,incongruent,uniform,1,undefined,1,s,0,72,0,0,0,72,0,72,72,0,0,0,72,72,72,72,9/25/2021 18:42,1500,The main experiment item,yes,Flankertask.osexp,C:/Users/borna.000/Documents/PSYC/PSYC5316,no,mono,no,18,no,white,no,yes,768,legacy,72,72,C:/Users/borna.000/Desktop/TM-subject-4.csv,legacy,Lentiform Loewenfeld,3.3.9,0,s,NA,s,NA,NA,s,513,NA,132261,NA,NA,513,2,legacy,1024,2,48000,-16,experiment,HHSHH,4,even,NA,270199,134499,NA,NA,261708,2234,NA,271265,2237,NA,NA,271366,271880,271263,271366,Flanker task,70,50807,73,yes,1024
95.94594595,95.94594595,692.0810811,692.0810811,black,legacy,legacy,legacy,0,congruent,uniform,1,undefined,1,s,0,73,0,0,0,73,0,73,73,0,0,0,73,73,73,73,9/25/2021 18:42,1500,The main experiment item,yes,Flankertask.osexp,C:/Users/borna.000/Documents/PSYC/PSYC5316,no,mono,no,18,no,white,no,yes,768,legacy,73,73,C:/Users/borna.000/Desktop/TM-subject-4.csv,legacy,Lentiform Loewenfeld,3.3.9,0,s,NA,s,NA,NA,s,407,NA,132261,NA,NA,407,2,legacy,1024,2,48000,-16,experiment,SSSSS,4,even,NA,271888,134499,NA,NA,261708,2234,NA,272956,2237,NA,NA,273059,273467,272954,273059,Flanker task,71,51214,74,yes,1024
96,96,691.5333333,691.5333333,black,legacy,legacy,legacy,0,incongruent,uniform,1,undefined,1,s,0,74,0,0,0,74,0,74,74,0,0,0,74,74,74,74,9/25/2021 18:42,1500,The main experiment item,yes,Flankertask.osexp,C:/Users/borna.000/Documents/PSYC/PSYC5316,no,mono,no,18,no,white,no,yes,768,legacy,74,74,C:/Users/borna.000/Desktop/TM-subject-4.csv,legacy,Lentiform Loewenfeld,3.3.9,0,s,NA,s,NA,NA,s,651,NA,132261,NA,NA,651,2,legacy,1024,2,48000,-16,experiment,HHSHH,4,even,NA,273475,134499,NA,NA,261708,2234,NA,274539,2237,NA,NA,274641,275293,274537,274641,Flanker task,72,51865,75,yes,1024
96.05263158,96.05263158,690.3684211,690.3684211,black,legacy,legacy,legacy,0,congruent,uniform,1,undefined,1,h,0,75,0,0,0,75,0,75,75,0,0,0,75,75,75,75,9/25/2021 18:42,1500,The main experiment item,yes,Flankertask.osexp,C:/Users/borna.000/Documents/PSYC/PSYC5316,no,mono,no,18,no,white,no,yes,768,legacy,75,75,C:/Users/borna.000/Desktop/TM-subject-4.csv,legacy,Lentiform Loewenfeld,3.3.9,0,h,NA,s,NA,NA,h,603,NA,132261,NA,NA,603,2,legacy,1024,2,48000,-16,experiment,HHHHH,4,even,NA,275301,134499,NA,NA,261708,2234,NA,276367,2237,NA,NA,276469,277073,276365,276469,Flanker task,73,52468,76,yes,1024
96.1038961,96.1038961,691.2987013,691.2987013,black,legacy,legacy,legacy,0,congruent,uniform,1,undefined,1,s,0,76,0,0,0,76,0,76,76,0,0,0,76,76,76,76,9/25/2021 18:42,1500,The main experiment item,yes,Flankertask.osexp,C:/Users/borna.000/Documents/PSYC/PSYC5316,no,mono,no,18,no,white,no,yes,768,legacy,76,76,C:/Users/borna.000/Desktop/TM-subject-4.csv,legacy,Lentiform Loewenfeld,3.3.9,0,s,NA,s,NA,NA,s,762,NA,132261,NA,NA,762,2,legacy,1024,2,48000,-16,experiment,SSSSS,4,even,NA,277082,134499,NA,NA,261708,2234,NA,278148,2237,NA,NA,278250,279012,278146,278250,Flanker task,74,53230,77,yes,1024
96.15384615,96.15384615,692.7179487,692.7179487,black,legacy,legacy,legacy,0,incongruent,uniform,1,undefined,1,h,0,77,0,0,0,77,0,77,77,0,0,0,77,77,77,77,9/25/2021 18:42,1500,The main experiment item,yes,Flankertask.osexp,C:/Users/borna.000/Documents/PSYC/PSYC5316,no,mono,no,18,no,white,no,yes,768,legacy,77,77,C:/Users/borna.000/Desktop/TM-subject-4.csv,legacy,Lentiform Loewenfeld,3.3.9,0,h,NA,s,NA,NA,h,802,NA,132261,NA,NA,802,2,legacy,1024,2,48000,-16,experiment,SSHSS,4,even,NA,279021,134499,NA,NA,261708,2234,NA,280095,2237,NA,NA,280197,280999,280093,280197,Flanker task,75,54032,78,yes,1024
96.20253165,96.20253165,690.5063291,690.5063291,black,legacy,legacy,legacy,0,incongruent,uniform,1,undefined,1,h,0,78,0,0,0,78,0,78,78,0,0,0,78,78,78,78,9/25/2021 18:42,1500,The main experiment item,yes,Flankertask.osexp,C:/Users/borna.000/Documents/PSYC/PSYC5316,no,mono,no,18,no,white,no,yes,768,legacy,78,78,C:/Users/borna.000/Desktop/TM-subject-4.csv,legacy,Lentiform Loewenfeld,3.3.9,0,h,NA,s,NA,NA,h,518,NA,132261,NA,NA,518,2,legacy,1024,2,48000,-16,experiment,SSHSS,4,even,NA,281008,134499,NA,NA,261708,2234,NA,282069,2237,NA,NA,282171,282690,282067,282171,Flanker task,76,54550,79,yes,1024
96.25,96.25,688,688,black,legacy,legacy,legacy,0,incongruent,uniform,1,undefined,1,h,0,79,0,0,0,79,0,79,79,0,0,0,79,79,79,79,9/25/2021 18:42,1500,The main experiment item,yes,Flankertask.osexp,C:/Users/borna.000/Documents/PSYC/PSYC5316,no,mono,no,18,no,white,no,yes,768,legacy,79,79,C:/Users/borna.000/Desktop/TM-subject-4.csv,legacy,Lentiform Loewenfeld,3.3.9,0,h,NA,s,NA,NA,h,490,NA,132261,NA,NA,490,2,legacy,1024,2,48000,-16,experiment,SSHSS,4,even,NA,282698,134499,NA,NA,261708,2234,NA,283768,2237,NA,NA,283870,284361,283767,283870,Flanker task,77,55040,80,yes,1024
96.2962963,96.2962963,684.8765432,684.8765432,black,legacy,legacy,legacy,0,congruent,uniform,1,undefined,1,s,0,80,0,0,0,80,0,80,80,0,0,0,80,80,80,80,9/25/2021 18:42,600,The main experiment item,yes,Flankertask.osexp,C:/Users/borna.000/Documents/PSYC/PSYC5316,no,mono,no,18,no,white,no,yes,768,legacy,0,79,C:/Users/borna.000/Desktop/TM-subject-4.csv,legacy,Lentiform Loewenfeld,3.3.9,0,s,NA,s,h,NA,s,435,NA,132261,27163,NA,435,2,legacy,1024,2,48000,-16,experiment,SSSSS,4,even,NA,284370,134499,312554,NA,261708,2234,NA,312621,2237,285390,NA,312722,313158,312619,312722,Flanker task,78,55475,81,yes,1024
96.34146341,96.34146341,683.2560976,683.2560976,black,legacy,legacy,legacy,0,incongruent,uniform,1,undefined,1,h,0,81,0,0,0,81,0,81,81,0,0,0,81,81,81,81,9/25/2021 18:42,600,The main experiment item,yes,Flankertask.osexp,C:/Users/borna.000/Documents/PSYC/PSYC5316,no,mono,no,18,no,white,no,yes,768,legacy,1,79,C:/Users/borna.000/Desktop/TM-subject-4.csv,legacy,Lentiform Loewenfeld,3.3.9,0,h,NA,s,h,NA,h,552,NA,132261,27163,NA,552,2,legacy,1024,2,48000,-16,experiment,SSHSS,4,even,NA,313167,134499,312554,NA,261708,2234,NA,314239,2237,285390,NA,314341,314894,314237,314341,Flanker task,79,56027,82,yes,1024
96.38554217,96.38554217,679.2771084,679.2771084,black,legacy,legacy,legacy,0,congruent,uniform,1,undefined,1,h,0,82,0,0,0,82,0,82,82,0,0,0,82,82,82,82,9/25/2021 18:42,600,The main experiment item,yes,Flankertask.osexp,C:/Users/borna.000/Documents/PSYC/PSYC5316,no,mono,no,18,no,white,no,yes,768,legacy,2,79,C:/Users/borna.000/Desktop/TM-subject-4.csv,legacy,Lentiform Loewenfeld,3.3.9,0,h,NA,s,h,NA,h,353,NA,132261,27163,NA,353,2,legacy,1024,2,48000,-16,experiment,HHHHH,4,even,NA,314902,134499,312554,NA,261708,2234,NA,315973,2237,285390,NA,316075,316429,315970,316075,Flanker task,80,56380,83,yes,1024
96.42857143,96.42857143,676.6785714,676.6785714,black,legacy,legacy,legacy,0,congruent,uniform,1,undefined,1,s,0,83,0,0,0,83,0,83,83,0,0,0,83,83,83,83,9/25/2021 18:42,600,The main experiment item,yes,Flankertask.osexp,C:/Users/borna.000/Documents/PSYC/PSYC5316,no,mono,no,18,no,white,no,yes,768,legacy,3,79,C:/Users/borna.000/Desktop/TM-subject-4.csv,legacy,Lentiform Loewenfeld,3.3.9,0,s,NA,s,h,NA,s,461,NA,132261,27163,NA,461,2,legacy,1024,2,48000,-16,experiment,SSSSS,4,even,NA,316438,134499,312554,NA,261708,2234,NA,317505,2237,285390,NA,317607,318069,317503,317607,Flanker task,81,56841,84,yes,1024
96.47058824,96.47058824,673.5882353,673.5882353,black,legacy,legacy,legacy,0,incongruent,uniform,1,undefined,1,h,0,84,0,0,0,84,0,84,84,0,0,0,84,84,84,84,9/25/2021 18:42,600,The main experiment item,yes,Flankertask.osexp,C:/Users/borna.000/Documents/PSYC/PSYC5316,no,mono,no,18,no,white,no,yes,768,legacy,4,79,C:/Users/borna.000/Desktop/TM-subject-4.csv,legacy,Lentiform Loewenfeld,3.3.9,0,h,NA,s,h,NA,h,414,NA,132261,27163,NA,414,2,legacy,1024,2,48000,-16,experiment,SSHSS,4,even,NA,318077,134499,312554,NA,261708,2234,NA,319144,2237,285390,NA,319246,319661,319142,319246,Flanker task,82,57255,85,yes,1024
95.34883721,95.34883721,669.4534884,669.4534884,black,legacy,legacy,legacy,0,congruent,uniform,0,undefined,0,h,0,85,0,0,0,85,0,85,85,0,0,0,85,85,85,85,9/25/2021 18:42,600,The main experiment item,yes,Flankertask.osexp,C:/Users/borna.000/Documents/PSYC/PSYC5316,no,mono,no,18,no,white,no,yes,768,legacy,5,79,C:/Users/borna.000/Desktop/TM-subject-4.csv,legacy,Lentiform Loewenfeld,3.3.9,0,s,NA,s,h,NA,s,318,NA,132261,27163,NA,318,2,legacy,1024,2,48000,-16,experiment,HHHHH,4,even,NA,319670,134499,312554,NA,261708,2234,NA,320734,2237,285390,NA,320835,321154,320732,320835,Flanker task,82,57573,86,yes,1024
95.40229885,95.40229885,669.1724138,669.1724138,black,legacy,legacy,legacy,0,incongruent,uniform,1,undefined,1,s,0,86,0,0,0,86,0,86,86,0,0,0,86,86,86,86,9/25/2021 18:42,600,The main experiment item,yes,Flankertask.osexp,C:/Users/borna.000/Documents/PSYC/PSYC5316,no,mono,no,18,no,white,no,yes,768,legacy,6,79,C:/Users/borna.000/Desktop/TM-subject-4.csv,legacy,Lentiform Loewenfeld,3.3.9,0,s,NA,s,h,NA,s,645,NA,132261,27163,NA,645,2,legacy,1024,2,48000,-16,experiment,HHSHH,4,even,NA,321664,134499,312554,NA,321162,2234,NA,322724,2237,285390,NA,322826,323471,322721,322826,Flanker task,83,58218,87,yes,1024
95.45454545,95.45454545,666.5454545,666.5454545,black,legacy,legacy,legacy,0,incongruent,uniform,1,undefined,1,h,0,87,0,0,0,87,0,87,87,0,0,0,87,87,87,87,9/25/2021 18:42,600,The main experiment item,yes,Flankertask.osexp,C:/Users/borna.000/Documents/PSYC/PSYC5316,no,mono,no,18,no,white,no,yes,768,legacy,7,79,C:/Users/borna.000/Desktop/TM-subject-4.csv,legacy,Lentiform Loewenfeld,3.3.9,0,h,NA,s,h,NA,h,438,NA,132261,27163,NA,438,2,legacy,1024,2,48000,-16,experiment,SSHSS,4,even,NA,323981,134499,312554,NA,321162,2234,323479,325039,2237,285390,NA,325140,325579,325037,325140,Flanker task,84,58656,88,yes,1024
94.38202247,94.38202247,663.1910112,663.1910112,black,legacy,legacy,legacy,0,incongruent,uniform,0,undefined,0,h,0,88,0,0,0,88,0,88,88,0,0,0,88,88,88,88,9/25/2021 18:42,600,The main experiment item,yes,Flankertask.osexp,C:/Users/borna.000/Documents/PSYC/PSYC5316,no,mono,no,18,no,white,no,yes,768,legacy,8,79,C:/Users/borna.000/Desktop/TM-subject-4.csv,legacy,Lentiform Loewenfeld,3.3.9,0,s,NA,s,h,NA,s,368,NA,132261,27163,NA,368,2,legacy,1024,2,48000,-16,experiment,SSHSS,4,even,NA,325587,134499,312554,NA,321162,2234,323479,326649,2237,285390,NA,326751,327120,326647,326751,Flanker task,84,59024,89,yes,1024
94.44444444,94.44444444,660.0888889,660.0888889,black,legacy,legacy,legacy,0,congruent,uniform,1,undefined,1,h,0,89,0,0,0,89,0,89,89,0,0,0,89,89,89,89,9/25/2021 18:42,600,The main experiment item,yes,Flankertask.osexp,C:/Users/borna.000/Documents/PSYC/PSYC5316,no,mono,no,18,no,white,no,yes,768,legacy,9,79,C:/Users/borna.000/Desktop/TM-subject-4.csv,legacy,Lentiform Loewenfeld,3.3.9,0,h,NA,s,h,NA,h,384,NA,132261,27163,NA,384,2,legacy,1024,2,48000,-16,experiment,HHHHH,4,even,NA,327630,134499,312554,NA,327128,2234,323479,328688,2237,285390,NA,328790,329175,328685,328790,Flanker task,85,59408,90,yes,1024
94.50549451,94.50549451,657.2967033,657.2967033,black,legacy,legacy,legacy,0,incongruent,uniform,1,undefined,1,s,0,90,0,0,0,90,0,90,90,0,0,0,90,90,90,90,9/25/2021 18:42,600,The main experiment item,yes,Flankertask.osexp,C:/Users/borna.000/Documents/PSYC/PSYC5316,no,mono,no,18,no,white,no,yes,768,legacy,10,79,C:/Users/borna.000/Desktop/TM-subject-4.csv,legacy,Lentiform Loewenfeld,3.3.9,0,s,NA,s,h,NA,s,406,NA,132261,27163,NA,406,2,legacy,1024,2,48000,-16,experiment,HHSHH,4,even,NA,329178,134499,312554,NA,327128,2234,323479,330246,2237,285390,NA,330348,330755,330244,330348,Flanker task,86,59814,91,yes,1024
93.47826087,93.47826087,654.8586957,654.8586957,black,legacy,legacy,legacy,0,congruent,uniform,0,undefined,0,s,0,91,0,0,0,91,0,91,91,0,0,0,91,91,91,91,9/25/2021 18:42,600,The main experiment item,yes,Flankertask.osexp,C:/Users/borna.000/Documents/PSYC/PSYC5316,no,mono,no,18,no,white,no,yes,768,legacy,11,79,C:/Users/borna.000/Desktop/TM-subject-4.csv,legacy,Lentiform Loewenfeld,3.3.9,0,h,NA,s,h,NA,h,433,NA,132261,27163,NA,433,2,legacy,1024,2,48000,-16,experiment,SSSSS,4,even,NA,330763,134499,312554,NA,327128,2234,323479,331833,2237,285390,NA,331934,332368,331830,331934,Flanker task,86,60247,92,yes,1024
93.5483871,93.5483871,652.6989247,652.6989247,black,legacy,legacy,legacy,0,congruent,uniform,1,undefined,1,h,0,92,0,0,0,92,0,92,92,0,0,0,92,92,92,92,9/25/2021 18:42,600,The main experiment item,yes,Flankertask.osexp,C:/Users/borna.000/Documents/PSYC/PSYC5316,no,mono,no,18,no,white,no,yes,768,legacy,12,79,C:/Users/borna.000/Desktop/TM-subject-4.csv,legacy,Lentiform Loewenfeld,3.3.9,0,h,NA,s,h,NA,h,454,NA,132261,27163,NA,454,2,legacy,1024,2,48000,-16,experiment,HHHHH,4,even,NA,332878,134499,312554,NA,332376,2234,323479,333936,2237,285390,NA,334037,334492,333934,334037,Flanker task,87,60701,93,yes,1024
93.61702128,93.61702128,650.6276596,650.6276596,black,legacy,legacy,legacy,0,incongruent,uniform,1,undefined,1,h,0,93,0,0,0,93,0,93,93,0,0,0,93,93,93,93,9/25/2021 18:42,600,The main experiment item,yes,Flankertask.osexp,C:/Users/borna.000/Documents/PSYC/PSYC5316,no,mono,no,18,no,white,no,yes,768,legacy,13,79,C:/Users/borna.000/Desktop/TM-subject-4.csv,legacy,Lentiform Loewenfeld,3.3.9,0,h,NA,s,h,NA,h,458,NA,132261,27163,NA,458,2,legacy,1024,2,48000,-16,experiment,SSHSS,4,even,NA,334500,134499,312554,NA,332376,2234,323479,335568,2237,285390,NA,335670,336129,335566,335670,Flanker task,88,61159,94,yes,1024
93.68421053,93.68421053,648.4,648.4,black,legacy,legacy,legacy,0,incongruent,uniform,1,undefined,1,s,0,94,0,0,0,94,0,94,94,0,0,0,94,94,94,94,9/25/2021 18:42,600,The main experiment item,yes,Flankertask.osexp,C:/Users/borna.000/Documents/PSYC/PSYC5316,no,mono,no,18,no,white,no,yes,768,legacy,14,79,C:/Users/borna.000/Desktop/TM-subject-4.csv,legacy,Lentiform Loewenfeld,3.3.9,0,s,NA,s,h,NA,s,439,NA,132261,27163,NA,439,2,legacy,1024,2,48000,-16,experiment,HHSHH,4,even,NA,336138,134499,312554,NA,332376,2234,323479,337206,2237,285390,NA,337307,337747,337203,337307,Flanker task,89,61598,95,yes,1024
93.75,93.75,646.2708333,646.2708333,black,legacy,legacy,legacy,0,incongruent,uniform,1,undefined,1,s,0,95,0,0,0,95,0,95,95,0,0,0,95,95,95,95,9/25/2021 18:42,600,The main experiment item,yes,Flankertask.osexp,C:/Users/borna.000/Documents/PSYC/PSYC5316,no,mono,no,18,no,white,no,yes,768,legacy,15,79,C:/Users/borna.000/Desktop/TM-subject-4.csv,legacy,Lentiform Loewenfeld,3.3.9,0,s,NA,s,h,NA,s,444,NA,132261,27163,NA,444,2,legacy,1024,2,48000,-16,experiment,HHSHH,4,even,NA,337755,134499,312554,NA,332376,2234,323479,338823,2237,285390,NA,338925,339369,338820,338925,Flanker task,90,62042,96,yes,1024
93.81443299,93.81443299,643.8659794,643.8659794,black,legacy,legacy,legacy,0,congruent,uniform,1,undefined,1,h,0,96,0,0,0,96,0,96,96,0,0,0,96,96,96,96,9/25/2021 18:42,600,The main experiment item,yes,Flankertask.osexp,C:/Users/borna.000/Documents/PSYC/PSYC5316,no,mono,no,18,no,white,no,yes,768,legacy,16,79,C:/Users/borna.000/Desktop/TM-subject-4.csv,legacy,Lentiform Loewenfeld,3.3.9,0,h,NA,s,h,NA,h,413,NA,132261,27163,NA,413,2,legacy,1024,2,48000,-16,experiment,HHHHH,4,even,NA,339377,134499,312554,NA,332376,2234,323479,340445,2237,285390,NA,340546,340960,340442,340546,Flanker task,91,62455,97,yes,1024
93.87755102,93.87755102,641.2346939,641.2346939,black,legacy,legacy,legacy,0,incongruent,uniform,1,undefined,1,s,0,97,0,0,0,97,0,97,97,0,0,0,97,97,97,97,9/25/2021 18:42,600,The main experiment item,yes,Flankertask.osexp,C:/Users/borna.000/Documents/PSYC/PSYC5316,no,mono,no,18,no,white,no,yes,768,legacy,17,79,C:/Users/borna.000/Desktop/TM-subject-4.csv,legacy,Lentiform Loewenfeld,3.3.9,0,s,NA,s,h,NA,s,386,NA,132261,27163,NA,386,2,legacy,1024,2,48000,-16,experiment,HHSHH,4,even,NA,340969,134499,312554,NA,332376,2234,323479,342035,2237,285390,NA,342137,342524,342033,342137,Flanker task,92,62841,98,yes,1024
93.93939394,93.93939394,638.979798,638.979798,black,legacy,legacy,legacy,0,incongruent,uniform,1,undefined,1,s,0,98,0,0,0,98,0,98,98,0,0,0,98,98,98,98,9/25/2021 18:42,600,The main experiment item,yes,Flankertask.osexp,C:/Users/borna.000/Documents/PSYC/PSYC5316,no,mono,no,18,no,white,no,yes,768,legacy,18,79,C:/Users/borna.000/Desktop/TM-subject-4.csv,legacy,Lentiform Loewenfeld,3.3.9,0,s,NA,s,h,NA,s,418,NA,132261,27163,NA,418,2,legacy,1024,2,48000,-16,experiment,HHSHH,4,even,NA,342531,134499,312554,NA,332376,2234,323479,343597,2237,285390,NA,343698,344117,343595,343698,Flanker task,93,63259,99,yes,1024
93,93,636.81,636.81,black,legacy,legacy,legacy,0,incongruent,uniform,0,undefined,0,s,0,99,0,0,0,99,0,99,99,0,0,0,99,99,99,99,9/25/2021 18:42,600,The main experiment item,yes,Flankertask.osexp,C:/Users/borna.000/Documents/PSYC/PSYC5316,no,mono,no,18,no,white,no,yes,768,legacy,19,79,C:/Users/borna.000/Desktop/TM-subject-4.csv,legacy,Lentiform Loewenfeld,3.3.9,0,h,NA,s,h,NA,h,422,NA,132261,27163,NA,422,2,legacy,1024,2,48000,-16,experiment,HHSHH,4,even,NA,344126,134499,312554,NA,332376,2234,323479,345201,2237,285390,NA,345302,345725,345198,345302,Flanker task,93,63681,100,yes,1024
93.06930693,93.06930693,634.5742574,634.5742574,black,legacy,legacy,legacy,0,incongruent,uniform,1,undefined,1,s,0,100,0,0,0,100,0,100,100,0,0,0,100,100,100,100,9/25/2021 18:42,600,The main experiment item,yes,Flankertask.osexp,C:/Users/borna.000/Documents/PSYC/PSYC5316,no,mono,no,18,no,white,no,yes,768,legacy,20,79,C:/Users/borna.000/Desktop/TM-subject-4.csv,legacy,Lentiform Loewenfeld,3.3.9,0,s,NA,s,h,NA,s,411,NA,132261,27163,NA,411,2,legacy,1024,2,48000,-16,experiment,HHSHH,4,even,NA,346234,134499,312554,NA,345733,2234,323479,347291,2237,285390,NA,347393,347805,347288,347393,Flanker task,94,64092,101,yes,1024
92.15686275,92.15686275,632.8039216,632.8039216,black,legacy,legacy,legacy,0,incongruent,uniform,0,undefined,0,h,0,101,0,0,0,101,0,101,101,0,0,0,101,101,101,101,9/25/2021 18:42,600,The main experiment item,yes,Flankertask.osexp,C:/Users/borna.000/Documents/PSYC/PSYC5316,no,mono,no,18,no,white,no,yes,768,legacy,21,79,C:/Users/borna.000/Desktop/TM-subject-4.csv,legacy,Lentiform Loewenfeld,3.3.9,0,s,NA,s,h,NA,s,454,NA,132261,27163,NA,454,2,legacy,1024,2,48000,-16,experiment,SSHSS,4,even,NA,347814,134499,312554,NA,345733,2234,323479,348878,2237,285390,NA,348980,349435,348876,348980,Flanker task,94,64546,102,yes,1024
92.23300971,92.23300971,633.0679612,633.0679612,black,legacy,legacy,legacy,0,congruent,uniform,1,undefined,1,s,0,102,0,0,0,102,0,102,102,0,0,0,102,102,102,102,9/25/2021 18:42,600,The main experiment item,yes,Flankertask.osexp,C:/Users/borna.000/Documents/PSYC/PSYC5316,no,mono,no,18,no,white,no,yes,768,legacy,22,79,C:/Users/borna.000/Desktop/TM-subject-4.csv,legacy,Lentiform Loewenfeld,3.3.9,0,s,NA,s,h,NA,s,660,NA,132261,27163,NA,660,2,legacy,1024,2,48000,-16,experiment,SSSSS,4,even,NA,349945,134499,312554,NA,349443,2234,323479,351006,2237,285390,NA,351108,351769,351003,351108,Flanker task,95,65206,103,yes,1024
92.30769231,92.30769231,630.9134615,630.9134615,black,legacy,legacy,legacy,0,congruent,uniform,1,undefined,1,s,0,103,0,0,0,103,0,103,103,0,0,0,103,103,103,103,9/25/2021 18:42,600,The main experiment item,yes,Flankertask.osexp,C:/Users/borna.000/Documents/PSYC/PSYC5316,no,mono,no,18,no,white,no,yes,768,legacy,23,79,C:/Users/borna.000/Desktop/TM-subject-4.csv,legacy,Lentiform Loewenfeld,3.3.9,0,s,NA,s,h,NA,s,409,NA,132261,27163,NA,409,2,legacy,1024,2,48000,-16,experiment,SSSSS,4,even,NA,352279,134499,312554,NA,349443,2234,351778,353335,2237,285390,NA,353437,353848,353333,353437,Flanker task,96,65615,104,yes,1024
92.38095238,92.38095238,628.0857143,628.0857143,black,legacy,legacy,legacy,0,incongruent,uniform,1,undefined,1,h,0,104,0,0,0,104,0,104,104,0,0,0,104,104,104,104,9/25/2021 18:42,600,The main experiment item,yes,Flankertask.osexp,C:/Users/borna.000/Documents/PSYC/PSYC5316,no,mono,no,18,no,white,no,yes,768,legacy,24,79,C:/Users/borna.000/Desktop/TM-subject-4.csv,legacy,Lentiform Loewenfeld,3.3.9,0,h,NA,s,h,NA,h,334,NA,132261,27163,NA,334,2,legacy,1024,2,48000,-16,experiment,SSHSS,4,even,NA,353856,134499,312554,NA,349443,2234,351778,354920,2237,285390,NA,355021,355356,354918,355021,Flanker task,97,65949,105,yes,1024
92.45283019,92.45283019,627.1037736,627.1037736,black,legacy,legacy,legacy,0,congruent,uniform,1,undefined,1,s,0,105,0,0,0,105,0,105,105,0,0,0,105,105,105,105,9/25/2021 18:42,600,The main experiment item,yes,Flankertask.osexp,C:/Users/borna.000/Documents/PSYC/PSYC5316,no,mono,no,18,no,white,no,yes,768,legacy,25,79,C:/Users/borna.000/Desktop/TM-subject-4.csv,legacy,Lentiform Loewenfeld,3.3.9,0,s,NA,s,h,NA,s,524,NA,132261,27163,NA,524,2,legacy,1024,2,48000,-16,experiment,SSSSS,4,even,NA,355364,134499,312554,NA,349443,2234,351778,356432,2237,285390,NA,356534,357059,356430,356534,Flanker task,98,66473,106,yes,1024
91.58878505,91.58878505,624.953271,624.953271,black,legacy,legacy,legacy,0,incongruent,uniform,0,undefined,0,h,0,106,0,0,0,106,0,106,106,0,0,0,106,106,106,106,9/25/2021 18:42,600,The main experiment item,yes,Flankertask.osexp,C:/Users/borna.000/Documents/PSYC/PSYC5316,no,mono,no,18,no,white,no,yes,768,legacy,26,79,C:/Users/borna.000/Desktop/TM-subject-4.csv,legacy,Lentiform Loewenfeld,3.3.9,0,s,NA,s,h,NA,s,397,NA,132261,27163,NA,397,2,legacy,1024,2,48000,-16,experiment,SSHSS,4,even,NA,357067,134499,312554,NA,349443,2234,351778,358133,2237,285390,NA,358235,358634,358131,358235,Flanker task,98,66870,107,yes,1024
91.66666667,91.66666667,625.5185185,625.5185185,black,legacy,legacy,legacy,0,incongruent,uniform,1,undefined,1,s,0,107,0,0,0,107,0,107,107,0,0,0,107,107,107,107,9/25/2021 18:42,600,The main experiment item,yes,Flankertask.osexp,C:/Users/borna.000/Documents/PSYC/PSYC5316,no,mono,no,18,no,white,no,yes,768,legacy,27,79,C:/Users/borna.000/Desktop/TM-subject-4.csv,legacy,Lentiform Loewenfeld,3.3.9,0,s,NA,s,h,NA,s,686,NA,132261,27163,NA,686,2,legacy,1024,2,48000,-16,experiment,HHSHH,4,even,NA,359143,134499,312554,NA,358642,2234,351778,360205,2237,285390,NA,360308,360996,360203,360308,Flanker task,99,67556,108,yes,1024
91.74311927,91.74311927,624.6330275,624.6330275,black,legacy,legacy,legacy,0,incongruent,uniform,1,undefined,1,s,0,108,0,0,0,108,0,108,108,0,0,0,108,108,108,108,9/25/2021 18:42,600,The main experiment item,yes,Flankertask.osexp,C:/Users/borna.000/Documents/PSYC/PSYC5316,no,mono,no,18,no,white,no,yes,768,legacy,28,79,C:/Users/borna.000/Desktop/TM-subject-4.csv,legacy,Lentiform Loewenfeld,3.3.9,0,s,NA,s,h,NA,s,529,NA,132261,27163,NA,529,2,legacy,1024,2,48000,-16,experiment,HHSHH,4,even,NA,361506,134499,312554,NA,358642,2234,361005,362562,2237,285390,NA,362664,363194,362559,362664,Flanker task,100,68085,109,yes,1024
90.90909091,90.90909091,622.1272727,622.1272727,black,legacy,legacy,legacy,0,congruent,uniform,0,undefined,0,h,0,109,0,0,0,109,0,109,109,0,0,0,109,109,109,109,9/25/2021 18:42,600,The main experiment item,yes,Flankertask.osexp,C:/Users/borna.000/Documents/PSYC/PSYC5316,no,mono,no,18,no,white,no,yes,768,legacy,29,79,C:/Users/borna.000/Desktop/TM-subject-4.csv,legacy,Lentiform Loewenfeld,3.3.9,0,s,NA,s,h,NA,s,349,NA,132261,27163,NA,349,2,legacy,1024,2,48000,-16,experiment,HHHHH,4,even,NA,363202,134499,312554,NA,358642,2234,361005,364273,2237,285390,NA,364374,364724,364270,364374,Flanker task,100,68434,110,yes,1024
90.99099099,90.99099099,620.7567568,620.7567568,black,legacy,legacy,legacy,0,congruent,uniform,1,undefined,1,h,0,110,0,0,0,110,0,110,110,0,0,0,110,110,110,110,9/25/2021 18:42,600,The main experiment item,yes,Flankertask.osexp,C:/Users/borna.000/Documents/PSYC/PSYC5316,no,mono,no,18,no,white,no,yes,768,legacy,30,79,C:/Users/borna.000/Desktop/TM-subject-4.csv,legacy,Lentiform Loewenfeld,3.3.9,0,h,NA,s,h,NA,h,470,NA,132261,27163,NA,470,2,legacy,1024,2,48000,-16,experiment,HHHHH,4,even,NA,365235,134499,312554,NA,364733,2234,361005,366291,2237,285390,NA,366393,366864,366289,366393,Flanker task,101,68904,111,yes,1024
91.07142857,91.07142857,619.5714286,619.5714286,black,legacy,legacy,legacy,0,incongruent,uniform,1,undefined,1,h,0,111,0,0,0,111,0,111,111,0,0,0,111,111,111,111,9/25/2021 18:42,600,The main experiment item,yes,Flankertask.osexp,C:/Users/borna.000/Documents/PSYC/PSYC5316,no,mono,no,18,no,white,no,yes,768,legacy,31,79,C:/Users/borna.000/Desktop/TM-subject-4.csv,legacy,Lentiform Loewenfeld,3.3.9,0,h,NA,s,h,NA,h,488,NA,132261,27163,NA,488,2,legacy,1024,2,48000,-16,experiment,SSHSS,4,even,NA,366873,134499,312554,NA,364733,2234,361005,367940,2237,285390,NA,368042,368531,367938,368042,Flanker task,102,69392,112,yes,1024
91.15044248,91.15044248,618.4424779,618.4424779,black,legacy,legacy,legacy,0,incongruent,uniform,1,undefined,1,s,0,112,0,0,0,112,0,112,112,0,0,0,112,112,112,112,9/25/2021 18:42,600,The main experiment item,yes,Flankertask.osexp,C:/Users/borna.000/Documents/PSYC/PSYC5316,no,mono,no,18,no,white,no,yes,768,legacy,32,79,C:/Users/borna.000/Desktop/TM-subject-4.csv,legacy,Lentiform Loewenfeld,3.3.9,0,s,NA,s,h,NA,s,492,NA,132261,27163,NA,492,2,legacy,1024,2,48000,-16,experiment,HHSHH,4,even,NA,368540,134499,312554,NA,364733,2234,361005,369614,2237,285390,NA,369716,370209,369612,369716,Flanker task,103,69884,113,yes,1024
91.22807018,91.22807018,617.377193,617.377193,black,legacy,legacy,legacy,0,incongruent,uniform,1,undefined,1,h,0,113,0,0,0,113,0,113,113,0,0,0,113,113,113,113,9/25/2021 18:42,600,The main experiment item,yes,Flankertask.osexp,C:/Users/borna.000/Documents/PSYC/PSYC5316,no,mono,no,18,no,white,no,yes,768,legacy,33,79,C:/Users/borna.000/Desktop/TM-subject-4.csv,legacy,Lentiform Loewenfeld,3.3.9,0,h,NA,s,h,NA,h,497,NA,132261,27163,NA,497,2,legacy,1024,2,48000,-16,experiment,SSHSS,4,even,NA,370217,134499,312554,NA,364733,2234,361005,371286,2237,285390,NA,371388,371886,371284,371388,Flanker task,104,70381,114,yes,1024
91.30434783,91.30434783,616.3913043,616.3913043,black,legacy,legacy,legacy,0,incongruent,uniform,1,undefined,1,h,0,114,0,0,0,114,0,114,114,0,0,0,114,114,114,114,9/25/2021 18:42,600,The main experiment item,yes,Flankertask.osexp,C:/Users/borna.000/Documents/PSYC/PSYC5316,no,mono,no,18,no,white,no,yes,768,legacy,34,79,C:/Users/borna.000/Desktop/TM-subject-4.csv,legacy,Lentiform Loewenfeld,3.3.9,0,h,NA,s,h,NA,h,504,NA,132261,27163,NA,504,2,legacy,1024,2,48000,-16,experiment,SSHSS,4,even,NA,371895,134499,312554,NA,364733,2234,361005,372963,2237,285390,NA,373066,373571,372961,373066,Flanker task,105,70885,115,yes,1024
91.37931034,91.37931034,614.5948276,614.5948276,black,legacy,legacy,legacy,0,congruent,uniform,1,undefined,1,h,0,115,0,0,0,115,0,115,115,0,0,0,115,115,115,115,9/25/2021 18:42,600,The main experiment item,yes,Flankertask.osexp,C:/Users/borna.000/Documents/PSYC/PSYC5316,no,mono,no,18,no,white,no,yes,768,legacy,35,79,C:/Users/borna.000/Desktop/TM-subject-4.csv,legacy,Lentiform Loewenfeld,3.3.9,0,h,NA,s,h,NA,h,408,NA,132261,27163,NA,408,2,legacy,1024,2,48000,-16,experiment,HHHHH,4,even,NA,373579,134499,312554,NA,364733,2234,361005,374649,2237,285390,NA,374751,375160,374647,374751,Flanker task,106,71293,116,yes,1024
91.45299145,91.45299145,612.7179487,612.7179487,black,legacy,legacy,legacy,0,congruent,uniform,1,undefined,1,h,0,116,0,0,0,116,0,116,116,0,0,0,116,116,116,116,9/25/2021 18:42,600,The main experiment item,yes,Flankertask.osexp,C:/Users/borna.000/Documents/PSYC/PSYC5316,no,mono,no,18,no,white,no,yes,768,legacy,36,79,C:/Users/borna.000/Desktop/TM-subject-4.csv,legacy,Lentiform Loewenfeld,3.3.9,0,h,NA,s,h,NA,h,395,NA,132261,27163,NA,395,2,legacy,1024,2,48000,-16,experiment,HHHHH,4,even,NA,375169,134499,312554,NA,364733,2234,361005,376236,2237,285390,NA,376338,376734,376234,376338,Flanker task,107,71688,117,yes,1024
91.52542373,91.52542373,611.8813559,611.8813559,black,legacy,legacy,legacy,0,incongruent,uniform,1,undefined,1,h,0,117,0,0,0,117,0,117,117,0,0,0,117,117,117,117,9/25/2021 18:42,600,The main experiment item,yes,Flankertask.osexp,C:/Users/borna.000/Documents/PSYC/PSYC5316,no,mono,no,18,no,white,no,yes,768,legacy,37,79,C:/Users/borna.000/Desktop/TM-subject-4.csv,legacy,Lentiform Loewenfeld,3.3.9,0,h,NA,s,h,NA,h,514,NA,132261,27163,NA,514,2,legacy,1024,2,48000,-16,experiment,SSHSS,4,even,NA,376742,134499,312554,NA,364733,2234,361005,377807,2237,285390,NA,377908,378423,377804,377908,Flanker task,108,72202,118,yes,1024
91.59663866,91.59663866,610.6554622,610.6554622,black,legacy,legacy,legacy,0,congruent,uniform,1,undefined,1,h,0,118,0,0,0,118,0,118,118,0,0,0,118,118,118,118,9/25/2021 18:42,600,The main experiment item,yes,Flankertask.osexp,C:/Users/borna.000/Documents/PSYC/PSYC5316,no,mono,no,18,no,white,no,yes,768,legacy,38,79,C:/Users/borna.000/Desktop/TM-subject-4.csv,legacy,Lentiform Loewenfeld,3.3.9,0,h,NA,s,h,NA,h,466,NA,132261,27163,NA,466,2,legacy,1024,2,48000,-16,experiment,HHHHH,4,even,NA,378432,134499,312554,NA,364733,2234,361005,379499,2237,285390,NA,379601,380068,379497,379601,Flanker task,109,72668,119,yes,1024
91.66666667,91.66666667,610.075,610.075,black,legacy,legacy,legacy,0,congruent,uniform,1,undefined,1,s,0,119,0,0,0,119,0,119,119,0,0,0,119,119,119,119,9/25/2021 18:42,600,The main experiment item,yes,Flankertask.osexp,C:/Users/borna.000/Documents/PSYC/PSYC5316,no,mono,no,18,no,white,no,yes,768,legacy,39,79,C:/Users/borna.000/Desktop/TM-subject-4.csv,legacy,Lentiform Loewenfeld,3.3.9,0,s,NA,s,h,NA,s,541,NA,132261,27163,NA,541,2,legacy,1024,2,48000,-16,experiment,SSSSS,4,even,NA,380077,134499,312554,NA,364733,2234,361005,381148,2237,285390,NA,381250,381793,381146,381250,Flanker task,110,73209,120,yes,1024
91.73553719,91.73553719,607.9173554,607.9173554,black,legacy,legacy,legacy,0,congruent,uniform,1,undefined,1,h,0,120,0,0,0,120,0,120,120,0,0,0,120,120,120,120,9/25/2021 18:42,600,The main experiment item,yes,Flankertask.osexp,C:/Users/borna.000/Documents/PSYC/PSYC5316,no,mono,no,18,no,white,no,yes,768,legacy,40,79,C:/Users/borna.000/Desktop/TM-subject-4.csv,legacy,Lentiform Loewenfeld,3.3.9,0,h,NA,s,h,NA,h,349,NA,132261,27163,NA,349,2,legacy,1024,2,48000,-16,experiment,HHHHH,4,even,NA,381801,134499,312554,NA,364733,2234,361005,382865,2237,285390,NA,382966,383316,382863,382966,Flanker task,111,73558,121,yes,1024
90.98360656,90.98360656,605.7459016,605.7459016,black,legacy,legacy,legacy,0,congruent,uniform,0,undefined,0,s,0,121,0,0,0,121,0,121,121,0,0,0,121,121,121,121,9/25/2021 18:42,600,The main experiment item,yes,Flankertask.osexp,C:/Users/borna.000/Documents/PSYC/PSYC5316,no,mono,no,18,no,white,no,yes,768,legacy,41,79,C:/Users/borna.000/Desktop/TM-subject-4.csv,legacy,Lentiform Loewenfeld,3.3.9,0,h,NA,s,h,NA,h,343,NA,132261,27163,NA,343,2,legacy,1024,2,48000,-16,experiment,SSSSS,4,even,NA,383325,134499,312554,NA,364733,2234,361005,384393,2237,285390,NA,384495,384839,384390,384495,Flanker task,111,73901,122,yes,1024
91.05691057,91.05691057,606.6097561,606.6097561,black,legacy,legacy,legacy,0,incongruent,uniform,1,undefined,1,s,0,122,0,0,0,122,0,122,122,0,0,0,122,122,122,122,9/25/2021 18:42,600,The main experiment item,yes,Flankertask.osexp,C:/Users/borna.000/Documents/PSYC/PSYC5316,no,mono,no,18,no,white,no,yes,768,legacy,42,79,C:/Users/borna.000/Desktop/TM-subject-4.csv,legacy,Lentiform Loewenfeld,3.3.9,0,s,NA,s,h,NA,s,712,NA,132261,27163,NA,712,2,legacy,1024,2,48000,-16,experiment,HHSHH,4,even,NA,385351,134499,312554,NA,384849,2234,361005,386408,2237,285390,NA,386510,387223,386405,386510,Flanker task,112,74613,123,yes,1024
91.12903226,91.12903226,605.3387097,605.3387097,black,legacy,legacy,legacy,0,congruent,uniform,1,undefined,1,h,0,123,0,0,0,123,0,123,123,0,0,0,123,123,123,123,9/25/2021 18:42,600,The main experiment item,yes,Flankertask.osexp,C:/Users/borna.000/Documents/PSYC/PSYC5316,no,mono,no,18,no,white,no,yes,768,legacy,43,79,C:/Users/borna.000/Desktop/TM-subject-4.csv,legacy,Lentiform Loewenfeld,3.3.9,0,h,NA,s,h,NA,h,449,NA,132261,27163,NA,449,2,legacy,1024,2,48000,-16,experiment,HHHHH,4,even,NA,387735,134499,312554,NA,384849,2234,387232,388793,2237,285390,NA,388894,389344,388791,388894,Flanker task,113,75062,124,yes,1024
91.2,91.2,604.368,604.368,black,legacy,legacy,legacy,0,incongruent,uniform,1,undefined,1,s,0,124,0,0,0,124,0,124,124,0,0,0,124,124,124,124,9/25/2021 18:42,600,The main experiment item,yes,Flankertask.osexp,C:/Users/borna.000/Documents/PSYC/PSYC5316,no,mono,no,18,no,white,no,yes,768,legacy,44,79,C:/Users/borna.000/Desktop/TM-subject-4.csv,legacy,Lentiform Loewenfeld,3.3.9,0,s,NA,s,h,NA,s,484,NA,132261,27163,NA,484,2,legacy,1024,2,48000,-16,experiment,HHSHH,4,even,NA,389353,134499,312554,NA,384849,2234,387232,390422,2237,285390,NA,390524,391009,390420,390524,Flanker task,114,75546,125,yes,1024
91.26984127,91.26984127,602.5,602.5,black,legacy,legacy,legacy,0,incongruent,uniform,1,undefined,1,h,0,125,0,0,0,125,0,125,125,0,0,0,125,125,125,125,9/25/2021 18:42,600,The main experiment item,yes,Flankertask.osexp,C:/Users/borna.000/Documents/PSYC/PSYC5316,no,mono,no,18,no,white,no,yes,768,legacy,45,79,C:/Users/borna.000/Desktop/TM-subject-4.csv,legacy,Lentiform Loewenfeld,3.3.9,0,h,NA,s,h,NA,h,369,NA,132261,27163,NA,369,2,legacy,1024,2,48000,-16,experiment,SSHSS,4,even,NA,391013,134499,312554,NA,384849,2234,387232,392084,2237,285390,NA,392187,392558,392082,392187,Flanker task,115,75915,126,yes,1024
90.5511811,90.5511811,601.4015748,601.4015748,black,legacy,legacy,legacy,0,incongruent,uniform,0,undefined,0,h,0,126,0,0,0,126,0,126,126,0,0,0,126,126,126,126,9/25/2021 18:42,600,The main experiment item,yes,Flankertask.osexp,C:/Users/borna.000/Documents/PSYC/PSYC5316,no,mono,no,18,no,white,no,yes,768,legacy,46,79,C:/Users/borna.000/Desktop/TM-subject-4.csv,legacy,Lentiform Loewenfeld,3.3.9,0,s,NA,s,h,NA,s,463,NA,132261,27163,NA,463,2,legacy,1024,2,48000,-16,experiment,SSHSS,4,even,NA,392567,134499,312554,NA,384849,2234,387232,393632,2237,285390,NA,393734,394198,393630,393734,Flanker task,115,76378,127,yes,1024
90.625,90.625,599.9375,599.9375,black,legacy,legacy,legacy,0,congruent,uniform,1,undefined,1,h,0,127,0,0,0,127,0,127,127,0,0,0,127,127,127,127,9/25/2021 18:42,600,The main experiment item,yes,Flankertask.osexp,C:/Users/borna.000/Documents/PSYC/PSYC5316,no,mono,no,18,no,white,no,yes,768,legacy,47,79,C:/Users/borna.000/Desktop/TM-subject-4.csv,legacy,Lentiform Loewenfeld,3.3.9,0,h,NA,s,h,NA,h,414,NA,132261,27163,NA,414,2,legacy,1024,2,48000,-16,experiment,HHHHH,4,even,NA,394707,134499,312554,NA,394206,2234,387232,395768,2237,285390,NA,395870,396285,395766,395870,Flanker task,116,76792,128,yes,1024
90.69767442,90.69767442,598.6356589,598.6356589,black,legacy,legacy,legacy,0,incongruent,uniform,1,undefined,1,s,0,128,0,0,0,128,0,128,128,0,0,0,128,128,128,128,9/25/2021 18:42,600,The main experiment item,yes,Flankertask.osexp,C:/Users/borna.000/Documents/PSYC/PSYC5316,no,mono,no,18,no,white,no,yes,768,legacy,48,79,C:/Users/borna.000/Desktop/TM-subject-4.csv,legacy,Lentiform Loewenfeld,3.3.9,0,s,NA,s,h,NA,s,432,NA,132261,27163,NA,432,2,legacy,1024,2,48000,-16,experiment,HHSHH,4,even,NA,396293,134499,312554,NA,394206,2234,387232,397361,2237,285390,NA,397462,397895,397358,397462,Flanker task,117,77224,129,yes,1024
90.76923077,90.76923077,598.1615385,598.1615385,black,legacy,legacy,legacy,0,congruent,uniform,1,undefined,1,s,0,129,0,0,0,129,0,129,129,0,0,0,129,129,129,129,9/25/2021 18:42,600,The main experiment item,yes,Flankertask.osexp,C:/Users/borna.000/Documents/PSYC/PSYC5316,no,mono,no,18,no,white,no,yes,768,legacy,49,79,C:/Users/borna.000/Desktop/TM-subject-4.csv,legacy,Lentiform Loewenfeld,3.3.9,0,s,NA,s,h,NA,s,537,NA,132261,27163,NA,537,2,legacy,1024,2,48000,-16,experiment,SSSSS,4,even,NA,397903,134499,312554,NA,394206,2234,387232,398970,2237,285390,NA,399072,399610,398967,399072,Flanker task,118,77761,130,yes,1024
90.83969466,90.83969466,596.5877863,596.5877863,black,legacy,legacy,legacy,0,congruent,uniform,1,undefined,1,s,0,130,0,0,0,130,0,130,130,0,0,0,130,130,130,130,9/25/2021 18:42,600,The main experiment item,yes,Flankertask.osexp,C:/Users/borna.000/Documents/PSYC/PSYC5316,no,mono,no,18,no,white,no,yes,768,legacy,50,79,C:/Users/borna.000/Desktop/TM-subject-4.csv,legacy,Lentiform Loewenfeld,3.3.9,0,s,NA,s,h,NA,s,392,NA,132261,27163,NA,392,2,legacy,1024,2,48000,-16,experiment,SSSSS,4,even,NA,399619,134499,312554,NA,394206,2234,387232,400686,2237,285390,NA,400788,401182,400684,400788,Flanker task,119,78153,131,yes,1024
90.90909091,90.90909091,596.2272727,596.2272727,black,legacy,legacy,legacy,0,incongruent,uniform,1,undefined,1,h,0,131,0,0,0,131,0,131,131,0,0,0,131,131,131,131,9/25/2021 18:42,600,The main experiment item,yes,Flankertask.osexp,C:/Users/borna.000/Documents/PSYC/PSYC5316,no,mono,no,18,no,white,no,yes,768,legacy,51,79,C:/Users/borna.000/Desktop/TM-subject-4.csv,legacy,Lentiform Loewenfeld,3.3.9,0,h,NA,s,h,NA,h,549,NA,132261,27163,NA,549,2,legacy,1024,2,48000,-16,experiment,SSHSS,4,even,NA,401190,134499,312554,NA,394206,2234,387232,402259,2237,285390,NA,402361,402912,402257,402361,Flanker task,120,78702,132,yes,1024
90.97744361,90.97744361,595.4586466,595.4586466,black,legacy,legacy,legacy,0,congruent,uniform,1,undefined,1,s,0,132,0,0,0,132,0,132,132,0,0,0,132,132,132,132,9/25/2021 18:42,600,The main experiment item,yes,Flankertask.osexp,C:/Users/borna.000/Documents/PSYC/PSYC5316,no,mono,no,18,no,white,no,yes,768,legacy,52,79,C:/Users/borna.000/Desktop/TM-subject-4.csv,legacy,Lentiform Loewenfeld,3.3.9,0,s,NA,s,h,NA,s,494,NA,132261,27163,NA,494,2,legacy,1024,2,48000,-16,experiment,SSSSS,4,even,NA,402921,134499,312554,NA,394206,2234,387232,403985,2237,285390,NA,404086,404581,403983,404086,Flanker task,121,79196,133,yes,1024
91.04477612,91.04477612,594.8358209,594.8358209,black,legacy,legacy,legacy,0,incongruent,uniform,1,undefined,1,s,0,133,0,0,0,133,0,133,133,0,0,0,133,133,133,133,9/25/2021 18:42,600,The main experiment item,yes,Flankertask.osexp,C:/Users/borna.000/Documents/PSYC/PSYC5316,no,mono,no,18,no,white,no,yes,768,legacy,53,79,C:/Users/borna.000/Desktop/TM-subject-4.csv,legacy,Lentiform Loewenfeld,3.3.9,0,s,NA,s,h,NA,s,512,NA,132261,27163,NA,512,2,legacy,1024,2,48000,-16,experiment,HHSHH,4,even,NA,404590,134499,312554,NA,394206,2234,387232,405661,2237,285390,NA,405762,406275,405659,405762,Flanker task,122,79708,134,yes,1024
91.11111111,91.11111111,594.1481481,594.1481481,black,legacy,legacy,legacy,0,congruent,uniform,1,undefined,1,h,0,134,0,0,0,134,0,134,134,0,0,0,134,134,134,134,9/25/2021 18:42,600,The main experiment item,yes,Flankertask.osexp,C:/Users/borna.000/Documents/PSYC/PSYC5316,no,mono,no,18,no,white,no,yes,768,legacy,54,79,C:/Users/borna.000/Desktop/TM-subject-4.csv,legacy,Lentiform Loewenfeld,3.3.9,0,h,NA,s,h,NA,h,502,NA,132261,27163,NA,502,2,legacy,1024,2,48000,-16,experiment,HHHHH,4,even,NA,406283,134499,312554,NA,394206,2234,387232,407348,2237,285390,NA,407450,407953,407346,407450,Flanker task,123,80210,135,yes,1024
91.17647059,91.17647059,593.4338235,593.4338235,black,legacy,legacy,legacy,0,incongruent,uniform,1,undefined,1,h,0,135,0,0,0,135,0,135,135,0,0,0,135,135,135,135,9/25/2021 18:42,600,The main experiment item,yes,Flankertask.osexp,C:/Users/borna.000/Documents/PSYC/PSYC5316,no,mono,no,18,no,white,no,yes,768,legacy,55,79,C:/Users/borna.000/Desktop/TM-subject-4.csv,legacy,Lentiform Loewenfeld,3.3.9,0,h,NA,s,h,NA,h,497,NA,132261,27163,NA,497,2,legacy,1024,2,48000,-16,experiment,SSHSS,4,even,NA,407962,134499,312554,NA,394206,2234,387232,409023,2237,285390,NA,409125,409623,409021,409125,Flanker task,124,80707,136,yes,1024
91.24087591,91.24087591,592.7445255,592.7445255,black,legacy,legacy,legacy,0,congruent,uniform,1,undefined,1,s,0,136,0,0,0,136,0,136,136,0,0,0,136,136,136,136,9/25/2021 18:42,600,The main experiment item,yes,Flankertask.osexp,C:/Users/borna.000/Documents/PSYC/PSYC5316,no,mono,no,18,no,white,no,yes,768,legacy,56,79,C:/Users/borna.000/Desktop/TM-subject-4.csv,legacy,Lentiform Loewenfeld,3.3.9,0,s,NA,s,h,NA,s,499,NA,132261,27163,NA,499,2,legacy,1024,2,48000,-16,experiment,SSSSS,4,even,NA,409627,134499,312554,NA,394206,2234,387232,410694,2237,285390,NA,410795,411296,410692,410795,Flanker task,125,81206,137,yes,1024
91.30434783,91.30434783,591.8913043,591.8913043,black,legacy,legacy,legacy,0,congruent,uniform,1,undefined,1,s,0,137,0,0,0,137,0,137,137,0,0,0,137,137,137,137,9/25/2021 18:42,600,The main experiment item,yes,Flankertask.osexp,C:/Users/borna.000/Documents/PSYC/PSYC5316,no,mono,no,18,no,white,no,yes,768,legacy,57,79,C:/Users/borna.000/Desktop/TM-subject-4.csv,legacy,Lentiform Loewenfeld,3.3.9,0,s,NA,s,h,NA,s,475,NA,132261,27163,NA,475,2,legacy,1024,2,48000,-16,experiment,SSSSS,4,even,NA,411304,134499,312554,NA,394206,2234,387232,412370,2237,285390,NA,412472,412948,412369,412472,Flanker task,126,81681,138,yes,1024
91.36690647,91.36690647,590.7553957,590.7553957,black,legacy,legacy,legacy,0,congruent,uniform,1,undefined,1,s,0,138,0,0,0,138,0,138,138,0,0,0,138,138,138,138,9/25/2021 18:42,600,The main experiment item,yes,Flankertask.osexp,C:/Users/borna.000/Documents/PSYC/PSYC5316,no,mono,no,18,no,white,no,yes,768,legacy,58,79,C:/Users/borna.000/Desktop/TM-subject-4.csv,legacy,Lentiform Loewenfeld,3.3.9,0,s,NA,s,h,NA,s,434,NA,132261,27163,NA,434,2,legacy,1024,2,48000,-16,experiment,SSSSS,4,even,NA,412957,134499,312554,NA,394206,2234,387232,414023,2237,285390,NA,414125,414560,414021,414125,Flanker task,127,82115,139,yes,1024
91.42857143,91.42857143,589.0714286,589.0714286,black,legacy,legacy,legacy,0,congruent,uniform,1,undefined,1,s,0,139,0,0,0,139,0,139,139,0,0,0,139,139,139,139,9/25/2021 18:42,600,The main experiment item,yes,Flankertask.osexp,C:/Users/borna.000/Documents/PSYC/PSYC5316,no,mono,no,18,no,white,no,yes,768,legacy,59,79,C:/Users/borna.000/Desktop/TM-subject-4.csv,legacy,Lentiform Loewenfeld,3.3.9,0,s,NA,s,h,NA,s,355,NA,132261,27163,NA,355,2,legacy,1024,2,48000,-16,experiment,SSSSS,4,even,NA,414568,134499,312554,NA,394206,2234,387232,415638,2237,285390,NA,415740,416097,415636,415740,Flanker task,128,82470,140,yes,1024
91.4893617,91.4893617,587.7659574,587.7659574,black,legacy,legacy,legacy,0,congruent,uniform,1,undefined,1,s,0,140,0,0,0,140,0,140,140,0,0,0,140,140,140,140,9/25/2021 18:42,600,The main experiment item,yes,Flankertask.osexp,C:/Users/borna.000/Documents/PSYC/PSYC5316,no,mono,no,18,no,white,no,yes,768,legacy,60,79,C:/Users/borna.000/Desktop/TM-subject-4.csv,legacy,Lentiform Loewenfeld,3.3.9,0,s,NA,s,h,NA,s,405,NA,132261,27163,NA,405,2,legacy,1024,2,48000,-16,experiment,SSSSS,4,even,NA,416105,134499,312554,NA,394206,2234,387232,417172,2237,285390,NA,417274,417680,417170,417274,Flanker task,129,82875,141,yes,1024
91.54929577,91.54929577,587.2042254,587.2042254,black,legacy,legacy,legacy,0,congruent,uniform,1,undefined,1,h,0,141,0,0,0,141,0,141,141,0,0,0,141,141,141,141,9/25/2021 18:42,600,The main experiment item,yes,Flankertask.osexp,C:/Users/borna.000/Documents/PSYC/PSYC5316,no,mono,no,18,no,white,no,yes,768,legacy,61,79,C:/Users/borna.000/Desktop/TM-subject-4.csv,legacy,Lentiform Loewenfeld,3.3.9,0,h,NA,s,h,NA,h,508,NA,132261,27163,NA,508,2,legacy,1024,2,48000,-16,experiment,HHHHH,4,even,NA,417689,134499,312554,NA,394206,2234,387232,418760,2237,285390,NA,418861,419370,418758,418861,Flanker task,130,83383,142,yes,1024
90.90909091,90.90909091,586.951049,586.951049,black,legacy,legacy,legacy,0,incongruent,uniform,0,undefined,0,s,0,142,0,0,0,142,0,142,142,0,0,0,142,142,142,142,9/25/2021 18:42,600,The main experiment item,yes,Flankertask.osexp,C:/Users/borna.000/Documents/PSYC/PSYC5316,no,mono,no,18,no,white,no,yes,768,legacy,62,79,C:/Users/borna.000/Desktop/TM-subject-4.csv,legacy,Lentiform Loewenfeld,3.3.9,0,h,NA,s,h,NA,h,551,NA,132261,27163,NA,551,2,legacy,1024,2,48000,-16,experiment,HHSHH,4,even,NA,419378,134499,312554,NA,394206,2234,387232,420443,2237,285390,NA,420544,421097,420440,420544,Flanker task,130,83934,143,yes,1024
90.97222222,90.97222222,586.3611111,586.3611111,black,legacy,legacy,legacy,0,congruent,uniform,1,undefined,1,h,0,143,0,0,0,143,0,143,143,0,0,0,143,143,143,143,9/25/2021 18:42,600,The main experiment item,yes,Flankertask.osexp,C:/Users/borna.000/Documents/PSYC/PSYC5316,no,mono,no,18,no,white,no,yes,768,legacy,63,79,C:/Users/borna.000/Desktop/TM-subject-4.csv,legacy,Lentiform Loewenfeld,3.3.9,0,h,NA,s,h,NA,h,502,NA,132261,27163,NA,502,2,legacy,1024,2,48000,-16,experiment,HHHHH,4,even,NA,421607,134499,312554,NA,421105,2234,387232,422664,2237,285390,NA,422766,423269,422662,422766,Flanker task,131,84436,144,yes,1024
91.03448276,91.03448276,586.4137931,586.4137931,black,legacy,legacy,legacy,0,congruent,uniform,1,undefined,1,s,0,144,0,0,0,144,0,144,144,0,0,0,144,144,144,144,9/25/2021 18:42,600,The main experiment item,yes,Flankertask.osexp,C:/Users/borna.000/Documents/PSYC/PSYC5316,no,mono,no,18,no,white,no,yes,768,legacy,64,79,C:/Users/borna.000/Desktop/TM-subject-4.csv,legacy,Lentiform Loewenfeld,3.3.9,0,s,NA,s,h,NA,s,594,NA,132261,27163,NA,594,2,legacy,1024,2,48000,-16,experiment,SSSSS,4,even,NA,423279,134499,312554,NA,421105,2234,387232,424349,2237,285390,NA,424451,425047,424347,424451,Flanker task,132,85030,145,yes,1024
90.4109589,90.4109589,585.0547945,585.0547945,black,legacy,legacy,legacy,0,incongruent,uniform,0,undefined,0,s,0,145,0,0,0,145,0,145,145,0,0,0,145,145,145,145,9/25/2021 18:42,600,The main experiment item,yes,Flankertask.osexp,C:/Users/borna.000/Documents/PSYC/PSYC5316,no,mono,no,18,no,white,no,yes,768,legacy,65,79,C:/Users/borna.000/Desktop/TM-subject-4.csv,legacy,Lentiform Loewenfeld,3.3.9,0,h,NA,s,h,NA,h,388,NA,132261,27163,NA,388,2,legacy,1024,2,48000,-16,experiment,HHSHH,4,even,NA,425055,134499,312554,NA,421105,2234,387232,426119,2237,285390,NA,426221,426610,426117,426221,Flanker task,132,85418,146,yes,1024
89.79591837,89.79591837,584.244898,584.244898,black,legacy,legacy,legacy,0,incongruent,uniform,0,undefined,0,h,0,146,0,0,0,146,0,146,146,0,0,0,146,146,146,146,9/25/2021 18:42,600,The main experiment item,yes,Flankertask.osexp,C:/Users/borna.000/Documents/PSYC/PSYC5316,no,mono,no,18,no,white,no,yes,768,legacy,66,79,C:/Users/borna.000/Desktop/TM-subject-4.csv,legacy,Lentiform Loewenfeld,3.3.9,0,s,NA,s,h,NA,s,466,NA,132261,27163,NA,466,2,legacy,1024,2,48000,-16,experiment,SSHSS,4,even,NA,427120,134499,312554,NA,426619,2234,387232,428181,2237,285390,NA,428282,428750,428179,428282,Flanker task,132,85884,147,yes,1024
89.86486486,89.86486486,583.7162162,583.7162162,black,legacy,legacy,legacy,0,congruent,uniform,1,undefined,1,s,0,147,0,0,0,147,0,147,147,0,0,0,147,147,147,147,9/25/2021 18:42,600,The main experiment item,yes,Flankertask.osexp,C:/Users/borna.000/Documents/PSYC/PSYC5316,no,mono,no,18,no,white,no,yes,768,legacy,67,79,C:/Users/borna.000/Desktop/TM-subject-4.csv,legacy,Lentiform Loewenfeld,3.3.9,0,s,NA,s,h,NA,s,506,NA,132261,27163,NA,506,2,legacy,1024,2,48000,-16,experiment,SSSSS,4,even,NA,429259,134499,312554,NA,428758,2234,387232,430321,2237,285390,NA,430423,430930,430318,430423,Flanker task,133,86390,148,yes,1024
89.26174497,89.26174497,582.3087248,582.3087248,black,legacy,legacy,legacy,0,incongruent,uniform,0,undefined,0,s,0,148,0,0,0,148,0,148,148,0,0,0,148,148,148,148,9/25/2021 18:42,600,The main experiment item,yes,Flankertask.osexp,C:/Users/borna.000/Documents/PSYC/PSYC5316,no,mono,no,18,no,white,no,yes,768,legacy,68,79,C:/Users/borna.000/Desktop/TM-subject-4.csv,legacy,Lentiform Loewenfeld,3.3.9,0,h,NA,s,h,NA,h,374,NA,132261,27163,NA,374,2,legacy,1024,2,48000,-16,experiment,HHSHH,4,even,NA,430939,134499,312554,NA,428758,2234,387232,432010,2237,285390,NA,432112,432487,432008,432112,Flanker task,133,86764,149,yes,1024
89.33333333,89.33333333,582.7066667,582.7066667,black,legacy,legacy,legacy,0,congruent,uniform,1,undefined,1,h,0,149,0,0,0,149,0,149,149,0,0,0,149,149,149,149,9/25/2021 18:42,600,The main experiment item,yes,Flankertask.osexp,C:/Users/borna.000/Documents/PSYC/PSYC5316,no,mono,no,18,no,white,no,yes,768,legacy,69,79,C:/Users/borna.000/Desktop/TM-subject-4.csv,legacy,Lentiform Loewenfeld,3.3.9,0,h,NA,s,h,NA,h,642,NA,132261,27163,NA,642,2,legacy,1024,2,48000,-16,experiment,HHHHH,4,even,NA,432997,134499,312554,NA,432495,2234,387232,434060,2237,285390,NA,434161,434804,434058,434161,Flanker task,134,87406,150,yes,1024
88.74172185,88.74172185,581.615894,581.615894,black,legacy,legacy,legacy,0,incongruent,uniform,0,undefined,0,h,0,150,0,0,0,150,0,150,150,0,0,0,150,150,150,150,9/25/2021 18:42,600,The main experiment item,yes,Flankertask.osexp,C:/Users/borna.000/Documents/PSYC/PSYC5316,no,mono,no,18,no,white,no,yes,768,legacy,70,79,C:/Users/borna.000/Desktop/TM-subject-4.csv,legacy,Lentiform Loewenfeld,3.3.9,0,s,NA,s,h,NA,s,418,NA,132261,27163,NA,418,2,legacy,1024,2,48000,-16,experiment,SSHSS,4,even,NA,435313,134499,312554,NA,432495,2234,434812,436381,2237,285390,NA,436483,436903,436378,436483,Flanker task,134,87824,151,yes,1024
88.81578947,88.81578947,580.5328947,580.5328947,black,legacy,legacy,legacy,0,incongruent,uniform,1,undefined,1,h,0,151,0,0,0,151,0,151,151,0,0,0,151,151,151,151,9/25/2021 18:42,600,The main experiment item,yes,Flankertask.osexp,C:/Users/borna.000/Documents/PSYC/PSYC5316,no,mono,no,18,no,white,no,yes,768,legacy,71,79,C:/Users/borna.000/Desktop/TM-subject-4.csv,legacy,Lentiform Loewenfeld,3.3.9,0,h,NA,s,h,NA,h,417,NA,132261,27163,NA,417,2,legacy,1024,2,48000,-16,experiment,SSHSS,4,even,NA,437413,134499,312554,NA,436911,2234,434812,438471,2237,285390,NA,438573,438991,438468,438573,Flanker task,135,88241,152,yes,1024
88.88888889,88.88888889,579.1372549,579.1372549,black,legacy,legacy,legacy,0,incongruent,uniform,1,undefined,1,h,0,152,0,0,0,152,0,152,152,0,0,0,152,152,152,152,9/25/2021 18:42,600,The main experiment item,yes,Flankertask.osexp,C:/Users/borna.000/Documents/PSYC/PSYC5316,no,mono,no,18,no,white,no,yes,768,legacy,72,79,C:/Users/borna.000/Desktop/TM-subject-4.csv,legacy,Lentiform Loewenfeld,3.3.9,0,h,NA,s,h,NA,h,367,NA,132261,27163,NA,367,2,legacy,1024,2,48000,-16,experiment,SSHSS,4,even,NA,438999,134499,312554,NA,436911,2234,434812,440066,2237,285390,NA,440168,440537,440064,440168,Flanker task,136,88608,153,yes,1024
88.96103896,88.96103896,577.6363636,577.6363636,black,legacy,legacy,legacy,0,congruent,uniform,1,undefined,1,h,0,153,0,0,0,153,0,153,153,0,0,0,153,153,153,153,9/25/2021 18:42,600,The main experiment item,yes,Flankertask.osexp,C:/Users/borna.000/Documents/PSYC/PSYC5316,no,mono,no,18,no,white,no,yes,768,legacy,73,79,C:/Users/borna.000/Desktop/TM-subject-4.csv,legacy,Lentiform Loewenfeld,3.3.9,0,h,NA,s,h,NA,h,348,NA,132261,27163,NA,348,2,legacy,1024,2,48000,-16,experiment,HHHHH,4,even,NA,440545,134499,312554,NA,436911,2234,434812,441615,2237,285390,NA,441717,442066,441613,441717,Flanker task,137,88956,154,yes,1024
89.03225806,89.03225806,576.5548387,576.5548387,black,legacy,legacy,legacy,0,congruent,uniform,1,undefined,1,h,0,154,0,0,0,154,0,154,154,0,0,0,154,154,154,154,9/25/2021 18:42,600,The main experiment item,yes,Flankertask.osexp,C:/Users/borna.000/Documents/PSYC/PSYC5316,no,mono,no,18,no,white,no,yes,768,legacy,74,79,C:/Users/borna.000/Desktop/TM-subject-4.csv,legacy,Lentiform Loewenfeld,3.3.9,0,h,NA,s,h,NA,h,410,NA,132261,27163,NA,410,2,legacy,1024,2,48000,-16,experiment,HHHHH,4,even,NA,442075,134499,312554,NA,436911,2234,434812,443148,2237,285390,NA,443250,443661,443145,443250,Flanker task,138,89366,155,yes,1024
89.1025641,89.1025641,576.8717949,576.8717949,black,legacy,legacy,legacy,0,incongruent,uniform,1,undefined,1,s,0,155,0,0,0,155,0,155,155,0,0,0,155,155,155,155,9/25/2021 18:42,600,The main experiment item,yes,Flankertask.osexp,C:/Users/borna.000/Documents/PSYC/PSYC5316,no,mono,no,18,no,white,no,yes,768,legacy,75,79,C:/Users/borna.000/Desktop/TM-subject-4.csv,legacy,Lentiform Loewenfeld,3.3.9,0,s,NA,s,h,NA,s,626,NA,132261,27163,NA,626,2,legacy,1024,2,48000,-16,experiment,HHSHH,4,even,NA,443665,134499,312554,NA,436911,2234,434812,444735,2237,285390,NA,444836,445463,444733,444836,Flanker task,139,89992,156,yes,1024
88.53503185,88.53503185,575.4076433,575.4076433,black,legacy,legacy,legacy,0,incongruent,uniform,0,undefined,0,s,0,156,0,0,0,156,0,156,156,0,0,0,156,156,156,156,9/25/2021 18:42,600,The main experiment item,yes,Flankertask.osexp,C:/Users/borna.000/Documents/PSYC/PSYC5316,no,mono,no,18,no,white,no,yes,768,legacy,76,79,C:/Users/borna.000/Desktop/TM-subject-4.csv,legacy,Lentiform Loewenfeld,3.3.9,0,h,NA,s,h,NA,h,347,NA,132261,27163,NA,347,2,legacy,1024,2,48000,-16,experiment,HHSHH,4,even,NA,445974,134499,312554,NA,436911,2234,445472,447033,2237,285390,NA,447134,447482,447030,447134,Flanker task,139,90339,157,yes,1024
88.60759494,88.60759494,575.943038,575.943038,black,legacy,legacy,legacy,0,congruent,uniform,1,undefined,1,h,0,157,0,0,0,157,0,157,157,0,0,0,157,157,157,157,9/25/2021 18:42,600,The main experiment item,yes,Flankertask.osexp,C:/Users/borna.000/Documents/PSYC/PSYC5316,no,mono,no,18,no,white,no,yes,768,legacy,77,79,C:/Users/borna.000/Desktop/TM-subject-4.csv,legacy,Lentiform Loewenfeld,3.3.9,0,h,NA,s,h,NA,h,660,NA,132261,27163,NA,660,2,legacy,1024,2,48000,-16,experiment,HHHHH,4,even,NA,447993,134499,312554,NA,447491,2234,445472,449050,2237,285390,NA,449152,449814,449048,449152,Flanker task,140,90999,158,yes,1024
88.67924528,88.67924528,575.0943396,575.0943396,black,legacy,legacy,legacy,0,congruent,uniform,1,undefined,1,s,0,158,0,0,0,158,0,158,158,0,0,0,158,158,158,158,9/25/2021 18:42,600,The main experiment item,yes,Flankertask.osexp,C:/Users/borna.000/Documents/PSYC/PSYC5316,no,mono,no,18,no,white,no,yes,768,legacy,78,79,C:/Users/borna.000/Desktop/TM-subject-4.csv,legacy,Lentiform Loewenfeld,3.3.9,0,s,NA,s,h,NA,s,441,NA,132261,27163,NA,441,2,legacy,1024,2,48000,-16,experiment,SSSSS,4,even,NA,450325,134499,312554,NA,447491,2234,449822,451387,2237,285390,NA,451489,451931,451385,451489,Flanker task,141,91440,159,yes,1024
88.75,88.75,575.1,575.1,black,legacy,legacy,legacy,0,congruent,uniform,1,undefined,1,s,0,159,0,0,0,159,0,159,159,0,0,0,159,159,159,159,9/25/2021 18:42,600,The main experiment item,yes,Flankertask.osexp,C:/Users/borna.000/Documents/PSYC/PSYC5316,no,mono,no,18,no,white,no,yes,768,legacy,79,79,C:/Users/borna.000/Desktop/TM-subject-4.csv,legacy,Lentiform Loewenfeld,3.3.9,0,s,NA,s,h,NA,s,576,NA,132261,27163,NA,576,2,legacy,1024,2,48000,-16,experiment,SSSSS,4,even,NA,451939,134499,312554,NA,447491,2234,449822,453003,2237,285390,NA,453105,453682,453001,453105,Flanker task,142,92016,160,yes,1024
88.19875776,88.19875776,573.9689441,573.9689441,black,legacy,legacy,legacy,0,incongruent,uniform,0,undefined,0,s,0,160,0,0,0,160,0,160,160,0,0,0,160,160,160,160,9/25/2021 18:42,300,The main experiment item,yes,Flankertask.osexp,C:/Users/borna.000/Documents/PSYC/PSYC5316,no,mono,no,18,no,white,no,yes,768,legacy,0,79,C:/Users/borna.000/Desktop/TM-subject-4.csv,legacy,Lentiform Loewenfeld,3.3.9,0,h,NA,s,h,h,h,393,NA,132261,27163,101486,393,2,legacy,1024,2,48000,-16,experiment,HHSHH,4,even,NA,453690,134499,312554,556195,447491,2234,449822,556255,2237,285390,454707,556357,556751,556253,556356,Flanker task,142,92409,161,yes,1024
87.65432099,87.65432099,572.2283951,572.2283951,black,legacy,legacy,legacy,0,congruent,uniform,0,undefined,0,h,0,161,0,0,0,161,0,161,161,0,0,0,161,161,161,161,9/25/2021 18:42,300,The main experiment item,yes,Flankertask.osexp,C:/Users/borna.000/Documents/PSYC/PSYC5316,no,mono,no,18,no,white,no,yes,768,legacy,1,79,C:/Users/borna.000/Desktop/TM-subject-4.csv,legacy,Lentiform Loewenfeld,3.3.9,0,s,NA,s,h,h,s,292,NA,132261,27163,101486,292,2,legacy,1024,2,48000,-16,experiment,HHHHH,4,even,NA,557763,134499,312554,556195,556759,2234,557262,558821,2237,285390,454707,558924,559217,558819,558924,Flanker task,142,92701,162,yes,1024
87.73006135,87.73006135,571.5644172,571.5644172,black,legacy,legacy,legacy,0,congruent,uniform,1,undefined,1,s,0,162,0,0,0,162,0,162,162,0,0,0,162,162,162,162,9/25/2021 18:42,300,The main experiment item,yes,Flankertask.osexp,C:/Users/borna.000/Documents/PSYC/PSYC5316,no,mono,no,18,no,white,no,yes,768,legacy,2,79,C:/Users/borna.000/Desktop/TM-subject-4.csv,legacy,Lentiform Loewenfeld,3.3.9,0,s,NA,s,h,h,s,464,NA,132261,27163,101486,464,2,legacy,1024,2,48000,-16,experiment,SSSSS,4,even,NA,559727,134499,312554,556195,559226,2234,557262,560784,2237,285390,454707,560885,561350,560781,560885,Flanker task,143,93165,163,yes,1024
