"acc","accuracy","average_response_time","avg_rt","background","canvas_backend","clock_backend","color_backend","condition","correct","correct_Instructions1","correct_Keyboard_response","correct_response","count_Block1","count_Block2","count_Block3","count_ErrorFeedback","count_Faster","count_Finish","count_Fixation","count_ISI","count_Instructions1","count_Instructions2","count_Instructions3","count_Keyboard_response","count_Logger","count_Sequence","count_Stimulus","count_experiment","datetime","deadline","description","disable_garbage_collection","experiment_file","experiment_path","font_bold","font_family","font_italic","font_size","font_underline","foreground","form_clicks","fullscreen","height","keyboard_backend","live_row","live_row_Block1","logfile","mouse_backend","opensesame_codename","opensesame_version","repeat_cycle","response","response_Finish","response_Instructions1","response_Instructions2","response_Instructions3","response_Keyboard_response","response_time","response_time_Finish","response_time_Instructions1","response_time_Instructions2","response_time_Instructions3","response_time_Keyboard_response","round_decimals","sampler_backend","sound_buf_size","sound_channels","sound_freq","sound_sample_size","start","stimulus","subject_nr","subject_parity","time_Block1","time_Block2","time_Block3","time_ErrorFeedback","time_Faster","time_Finish","time_Fixation","time_ISI","time_Instructions1","time_Instructions2","time_Instructions3","time_Keyboard_response","time_Logger","time_Sequence","time_Stimulus","time_experiment","title","total_correct","total_response_time","total_responses","width"
"100","100","1250","1250","#3d3846","legacy","legacy","legacy","incongruent","1","undefined","1","h","0","0","0","0","0","0","0","0","0","0","0","0","0","0","0","0","Mon Sep 18 14:52:55 2023","1500","The main experiment item","False","FlankerEffectTest.osexp","C:/Users/stcka/OneDrive/Sam Docs/Psychology Program/AP Textbooks/Quantitative Methods","False","mono","False","18","no","white","no","yes","768","legacy","0","0","C:/Users/stcka/OneDrive/Sam Docs/Psychology Program/AP Textbooks/Quantitative Methods/SA-subject-1.csv","legacy","Melodramatic Milgram","4.0.5","0","h","NA","s","NA","NA","h","1250.0","NA","7137","NA","NA","1250","2","legacy","1024","2","48000","-16","experiment","SSHSS","1","odd","10559","NA","NA","NA","NA","NA","10657","NA","3421","NA","NA","10760","12011","10656","10758","3419","Flanker Effect Test","1","1250.0","1","1024"
"100","100","984","984","#3d3846","legacy","legacy","legacy","congruent","1","undefined","1","s","0","0","0","1","1","0","1","1","0","0","0","1","1","1","1","0","Mon Sep 18 14:52:55 2023","1500","The main experiment item","False","FlankerEffectTest.osexp","C:/Users/stcka/OneDrive/Sam Docs/Psychology Program/AP Textbooks/Quantitative Methods","False","mono","False","18","no","white","no","yes","768","legacy","1","1","C:/Users/stcka/OneDrive/Sam Docs/Psychology Program/AP Textbooks/Quantitative Methods/SA-subject-1.csv","legacy","Melodramatic Milgram","4.0.5","0","s","NA","s","NA","NA","s","718.0","NA","7137","NA","NA","718","2","legacy","1024","2","48000","-16","experiment","SSSSS","1","odd","10559","NA","NA","NA","NA","NA","13042","12019","3421","NA","NA","13142","13860","13041","13142","3419","Flanker Effect Test","2","1968.0","2","1024"
"100","100","848","848","#3d3846","legacy","legacy","legacy","congruent","1","undefined","1","s","0","0","0","2","2","0","2","2","0","0","0","2","2","2","2","0","Mon Sep 18 14:52:55 2023","1500","The main experiment item","False","FlankerEffectTest.osexp","C:/Users/stcka/OneDrive/Sam Docs/Psychology Program/AP Textbooks/Quantitative Methods","False","mono","False","18","no","white","no","yes","768","legacy","2","2","C:/Users/stcka/OneDrive/Sam Docs/Psychology Program/AP Textbooks/Quantitative Methods/SA-subject-1.csv","legacy","Melodramatic Milgram","4.0.5","0","s","NA","s","NA","NA","s","578.0","NA","7137","NA","NA","578","2","legacy","1024","2","48000","-16","experiment","SSSSS","1","odd","10559","NA","NA","NA","NA","NA","14890","13865","3421","NA","NA","14990","15569","14889","14990","3419","Flanker Effect Test","3","2546.0","3","1024"
"100","100","757","757","#3d3846","legacy","legacy","legacy","congruent","1","undefined","1","s","0","0","0","3","3","0","3","3","0","0","0","3","3","3","3","0","Mon Sep 18 14:52:55 2023","1500","The main experiment item","False","FlankerEffectTest.osexp","C:/Users/stcka/OneDrive/Sam Docs/Psychology Program/AP Textbooks/Quantitative Methods","False","mono","False","18","no","white","no","yes","768","legacy","3","3","C:/Users/stcka/OneDrive/Sam Docs/Psychology Program/AP Textbooks/Quantitative Methods/SA-subject-1.csv","legacy","Melodramatic Milgram","4.0.5","0","s","NA","s","NA","NA","s","482.0","NA","7137","NA","NA","482","2","legacy","1024","2","48000","-16","experiment","SSSSS","1","odd","10559","NA","NA","NA","NA","NA","16595","15573","3421","NA","NA","16696","17178","16593","16695","3419","Flanker Effect Test","4","3028.0","4","1024"
"100","100","696","696","#3d3846","legacy","legacy","legacy","congruent","1","undefined","1","s","0","0","0","4","4","0","4","4","0","0","0","4","4","4","4","0","Mon Sep 18 14:52:55 2023","1500","The main experiment item","False","FlankerEffectTest.osexp","C:/Users/stcka/OneDrive/Sam Docs/Psychology Program/AP Textbooks/Quantitative Methods","False","mono","False","18","no","white","no","yes","768","legacy","4","4","C:/Users/stcka/OneDrive/Sam Docs/Psychology Program/AP Textbooks/Quantitative Methods/SA-subject-1.csv","legacy","Melodramatic Milgram","4.0.5","0","s","NA","s","NA","NA","s","455.0","NA","7137","NA","NA","455","2","legacy","1024","2","48000","-16","experiment","SSSSS","1","odd","10559","NA","NA","NA","NA","NA","18221","17183","3421","NA","NA","18322","18777","18219","18321","3419","Flanker Effect Test","5","3483.0","5","1024"
"100","100","655","655","#3d3846","legacy","legacy","legacy","incongruent","1","undefined","1","h","0","0","0","5","5","0","5","5","0","0","0","5","5","5","5","0","Mon Sep 18 14:52:55 2023","1500","The main experiment item","False","FlankerEffectTest.osexp","C:/Users/stcka/OneDrive/Sam Docs/Psychology Program/AP Textbooks/Quantitative Methods","False","mono","False","18","no","white","no","yes","768","legacy","5","5","C:/Users/stcka/OneDrive/Sam Docs/Psychology Program/AP Textbooks/Quantitative Methods/SA-subject-1.csv","legacy","Melodramatic Milgram","4.0.5","0","h","NA","s","NA","NA","h","447.0","NA","7137","NA","NA","447","2","legacy","1024","2","48000","-16","experiment","SSHSS","1","odd","10559","NA","NA","NA","NA","NA","19805","18782","3421","NA","NA","19905","20353","19804","19905","3419","Flanker Effect Test","6","3930.0","6","1024"
"100","100","631","631","#3d3846","legacy","legacy","legacy","congruent","1","undefined","1","s","0","0","0","6","6","0","6","6","0","0","0","6","6","6","6","0","Mon Sep 18 14:52:55 2023","1500","The main experiment item","False","FlankerEffectTest.osexp","C:/Users/stcka/OneDrive/Sam Docs/Psychology Program/AP Textbooks/Quantitative Methods","False","mono","False","18","no","white","no","yes","768","legacy","6","6","C:/Users/stcka/OneDrive/Sam Docs/Psychology Program/AP Textbooks/Quantitative Methods/SA-subject-1.csv","legacy","Melodramatic Milgram","4.0.5","0","s","NA","s","NA","NA","s","487.0","NA","7137","NA","NA","487","2","legacy","1024","2","48000","-16","experiment","SSSSS","1","odd","10559","NA","NA","NA","NA","NA","21381","20359","3421","NA","NA","21482","21970","21380","21482","3419","Flanker Effect Test","7","4417.0","7","1024"
"87","87","621","621","#3d3846","legacy","legacy","legacy","incongruent","0","undefined","0","s","0","0","0","7","7","0","7","7","0","0","0","7","7","7","7","0","Mon Sep 18 14:52:55 2023","1500","The main experiment item","False","FlankerEffectTest.osexp","C:/Users/stcka/OneDrive/Sam Docs/Psychology Program/AP Textbooks/Quantitative Methods","False","mono","False","18","no","white","no","yes","768","legacy","7","7","C:/Users/stcka/OneDrive/Sam Docs/Psychology Program/AP Textbooks/Quantitative Methods/SA-subject-1.csv","legacy","Melodramatic Milgram","4.0.5","0","h","NA","s","NA","NA","h","555.0","NA","7137","NA","NA","555","2","legacy","1024","2","48000","-16","experiment","HHSHH","1","odd","10559","NA","NA","NA","NA","NA","22995","21974","3421","NA","NA","23095","23651","22994","23095","3419","Flanker Effect Test","7","4972.0","8","1024"
"88","88","702","702","#3d3846","legacy","legacy","legacy","congruent","1","undefined","1","h","0","0","0","8","8","0","8","8","0","0","0","8","8","8","8","0","Mon Sep 18 14:52:55 2023","1500","The main experiment item","False","FlankerEffectTest.osexp","C:/Users/stcka/OneDrive/Sam Docs/Psychology Program/AP Textbooks/Quantitative Methods","False","mono","False","18","no","white","no","yes","768","legacy","8","8","C:/Users/stcka/OneDrive/Sam Docs/Psychology Program/AP Textbooks/Quantitative Methods/SA-subject-1.csv","legacy","Melodramatic Milgram","4.0.5","0","h","NA","s","NA","NA","h","1349.0","NA","7137","NA","NA","1349","2","legacy","1024","2","48000","-16","experiment","HHHHH","1","odd","10559","NA","NA","23655","NA","NA","25181","24156","3421","NA","NA","25282","26631","25180","25281","3419","Flanker Effect Test","8","6321.0","9","1024"
"90","90","706","706","#3d3846","legacy","legacy","legacy","congruent","1","undefined","1","h","0","0","0","9","9","0","9","9","0","0","0","9","9","9","9","0","Mon Sep 18 14:52:55 2023","1500","The main experiment item","False","FlankerEffectTest.osexp","C:/Users/stcka/OneDrive/Sam Docs/Psychology Program/AP Textbooks/Quantitative Methods","False","mono","False","18","no","white","no","yes","768","legacy","9","9","C:/Users/stcka/OneDrive/Sam Docs/Psychology Program/AP Textbooks/Quantitative Methods/SA-subject-1.csv","legacy","Melodramatic Milgram","4.0.5","0","h","NA","s","NA","NA","h","740.0","NA","7137","NA","NA","740","2","legacy","1024","2","48000","-16","experiment","HHHHH","1","odd","10559","NA","NA","23655","NA","NA","27659","26635","3421","NA","NA","27760","28501","27657","27760","3419","Flanker Effect Test","9","7061.0","10","1024"
"90","90","705","705","#3d3846","legacy","legacy","legacy","incongruent","1","undefined","1","h","0","0","0","10","10","0","10","10","0","0","0","10","10","10","10","0","Mon Sep 18 14:52:55 2023","1500","The main experiment item","False","FlankerEffectTest.osexp","C:/Users/stcka/OneDrive/Sam Docs/Psychology Program/AP Textbooks/Quantitative Methods","False","mono","False","18","no","white","no","yes","768","legacy","10","10","C:/Users/stcka/OneDrive/Sam Docs/Psychology Program/AP Textbooks/Quantitative Methods/SA-subject-1.csv","legacy","Melodramatic Milgram","4.0.5","0","h","NA","s","NA","NA","h","698.0","NA","7137","NA","NA","698","2","legacy","1024","2","48000","-16","experiment","SSHSS","1","odd","10559","NA","NA","23655","NA","NA","29529","28505","3421","NA","NA","29629","30327","29528","29629","3419","Flanker Effect Test","10","7759.0","11","1024"
"91","91","689","689","#3d3846","legacy","legacy","legacy","congruent","1","undefined","1","h","0","0","0","11","11","0","11","11","0","0","0","11","11","11","11","0","Mon Sep 18 14:52:55 2023","1500","The main experiment item","False","FlankerEffectTest.osexp","C:/Users/stcka/OneDrive/Sam Docs/Psychology Program/AP Textbooks/Quantitative Methods","False","mono","False","18","no","white","no","yes","768","legacy","11","11","C:/Users/stcka/OneDrive/Sam Docs/Psychology Program/AP Textbooks/Quantitative Methods/SA-subject-1.csv","legacy","Melodramatic Milgram","4.0.5","0","h","NA","s","NA","NA","h","520.0","NA","7137","NA","NA","520","2","legacy","1024","2","48000","-16","experiment","HHHHH","1","odd","10559","NA","NA","23655","NA","NA","31355","30332","3421","NA","NA","31455","31975","31352","31455","3419","Flanker Effect Test","11","8279.0","12","1024"
"92","92","689","689","#3d3846","legacy","legacy","legacy","incongruent","1","undefined","1","h","0","0","0","12","12","0","12","12","0","0","0","12","12","12","12","0","Mon Sep 18 14:52:55 2023","1500","The main experiment item","False","FlankerEffectTest.osexp","C:/Users/stcka/OneDrive/Sam Docs/Psychology Program/AP Textbooks/Quantitative Methods","False","mono","False","18","no","white","no","yes","768","legacy","12","12","C:/Users/stcka/OneDrive/Sam Docs/Psychology Program/AP Textbooks/Quantitative Methods/SA-subject-1.csv","legacy","Melodramatic Milgram","4.0.5","0","h","NA","s","NA","NA","h","686.0","NA","7137","NA","NA","686","2","legacy","1024","2","48000","-16","experiment","SSHSS","1","odd","10559","NA","NA","23655","NA","NA","33000","31980","3421","NA","NA","33101","33788","32999","33100","3419","Flanker Effect Test","12","8965.0","13","1024"
"92","92","678","678","#3d3846","legacy","legacy","legacy","congruent","1","undefined","1","h","0","0","0","13","13","0","13","13","0","0","0","13","13","13","13","0","Mon Sep 18 14:52:55 2023","1500","The main experiment item","False","FlankerEffectTest.osexp","C:/Users/stcka/OneDrive/Sam Docs/Psychology Program/AP Textbooks/Quantitative Methods","False","mono","False","18","no","white","no","yes","768","legacy","13","13","C:/Users/stcka/OneDrive/Sam Docs/Psychology Program/AP Textbooks/Quantitative Methods/SA-subject-1.csv","legacy","Melodramatic Milgram","4.0.5","0","h","NA","s","NA","NA","h","534.0","NA","7137","NA","NA","534","2","legacy","1024","2","48000","-16","experiment","HHHHH","1","odd","10559","NA","NA","23655","NA","NA","34814","33793","3421","NA","NA","34915","35449","34813","34915","3419","Flanker Effect Test","13","9499.0","14","1024"
"93","93","674","674","#3d3846","legacy","legacy","legacy","congruent","1","undefined","1","h","0","0","0","14","14","0","14","14","0","0","0","14","14","14","14","0","Mon Sep 18 14:52:55 2023","1500","The main experiment item","False","FlankerEffectTest.osexp","C:/Users/stcka/OneDrive/Sam Docs/Psychology Program/AP Textbooks/Quantitative Methods","False","mono","False","18","no","white","no","yes","768","legacy","14","14","C:/Users/stcka/OneDrive/Sam Docs/Psychology Program/AP Textbooks/Quantitative Methods/SA-subject-1.csv","legacy","Melodramatic Milgram","4.0.5","0","h","NA","s","NA","NA","h","621.0","NA","7137","NA","NA","621","2","legacy","1024","2","48000","-16","experiment","HHHHH","1","odd","10559","NA","NA","23655","NA","NA","36474","35454","3421","NA","NA","36574","37196","36473","36574","3419","Flanker Effect Test","14","10120.0","15","1024"
"93","93","665","665","#3d3846","legacy","legacy","legacy","incongruent","1","undefined","1","s","0","0","0","15","15","0","15","15","0","0","0","15","15","15","15","0","Mon Sep 18 14:52:55 2023","1500","The main experiment item","False","FlankerEffectTest.osexp","C:/Users/stcka/OneDrive/Sam Docs/Psychology Program/AP Textbooks/Quantitative Methods","False","mono","False","18","no","white","no","yes","768","legacy","15","15","C:/Users/stcka/OneDrive/Sam Docs/Psychology Program/AP Textbooks/Quantitative Methods/SA-subject-1.csv","legacy","Melodramatic Milgram","4.0.5","0","s","NA","s","NA","NA","s","534.0","NA","7137","NA","NA","534","2","legacy","1024","2","48000","-16","experiment","HHSHH","1","odd","10559","NA","NA","23655","NA","NA","38227","37201","3421","NA","NA","38328","38863","38226","38328","3419","Flanker Effect Test","15","10654.0","16","1024"
"94","94","661","661","#3d3846","legacy","legacy","legacy","incongruent","1","undefined","1","s","0","0","0","16","16","0","16","16","0","0","0","16","16","16","16","0","Mon Sep 18 14:52:55 2023","1500","The main experiment item","False","FlankerEffectTest.osexp","C:/Users/stcka/OneDrive/Sam Docs/Psychology Program/AP Textbooks/Quantitative Methods","False","mono","False","18","no","white","no","yes","768","legacy","16","16","C:/Users/stcka/OneDrive/Sam Docs/Psychology Program/AP Textbooks/Quantitative Methods/SA-subject-1.csv","legacy","Melodramatic Milgram","4.0.5","0","s","NA","s","NA","NA","s","587.0","NA","7137","NA","NA","587","2","legacy","1024","2","48000","-16","experiment","HHSHH","1","odd","10559","NA","NA","23655","NA","NA","39893","38868","3421","NA","NA","39994","40581","39892","39993","3419","Flanker Effect Test","16","11241.0","17","1024"
"94","94","650","650","#3d3846","legacy","legacy","legacy","incongruent","1","undefined","1","s","0","0","0","17","17","0","17","17","0","0","0","17","17","17","17","0","Mon Sep 18 14:52:55 2023","1500","The main experiment item","False","FlankerEffectTest.osexp","C:/Users/stcka/OneDrive/Sam Docs/Psychology Program/AP Textbooks/Quantitative Methods","False","mono","False","18","no","white","no","yes","768","legacy","17","17","C:/Users/stcka/OneDrive/Sam Docs/Psychology Program/AP Textbooks/Quantitative Methods/SA-subject-1.csv","legacy","Melodramatic Milgram","4.0.5","0","s","NA","s","NA","NA","s","468.0","NA","7137","NA","NA","468","2","legacy","1024","2","48000","-16","experiment","HHSHH","1","odd","10559","NA","NA","23655","NA","NA","41612","40586","3421","NA","NA","41713","42181","41611","41713","3419","Flanker Effect Test","17","11709.0","18","1024"
"94","94","645","645","#3d3846","legacy","legacy","legacy","incongruent","1","undefined","1","h","0","0","0","18","18","0","18","18","0","0","0","18","18","18","18","0","Mon Sep 18 14:52:55 2023","1500","The main experiment item","False","FlankerEffectTest.osexp","C:/Users/stcka/OneDrive/Sam Docs/Psychology Program/AP Textbooks/Quantitative Methods","False","mono","False","18","no","white","no","yes","768","legacy","18","18","C:/Users/stcka/OneDrive/Sam Docs/Psychology Program/AP Textbooks/Quantitative Methods/SA-subject-1.csv","legacy","Melodramatic Milgram","4.0.5","0","h","NA","s","NA","NA","h","554.0","NA","7137","NA","NA","554","2","legacy","1024","2","48000","-16","experiment","SSHSS","1","odd","10559","NA","NA","23655","NA","NA","43207","42186","3421","NA","NA","43308","43863","43205","43307","3419","Flanker Effect Test","18","12263.0","19","1024"
"95","95","644","644","#3d3846","legacy","legacy","legacy","incongruent","1","undefined","1","h","0","0","0","19","19","0","19","19","0","0","0","19","19","19","19","0","Mon Sep 18 14:52:55 2023","1500","The main experiment item","False","FlankerEffectTest.osexp","C:/Users/stcka/OneDrive/Sam Docs/Psychology Program/AP Textbooks/Quantitative Methods","False","mono","False","18","no","white","no","yes","768","legacy","19","19","C:/Users/stcka/OneDrive/Sam Docs/Psychology Program/AP Textbooks/Quantitative Methods/SA-subject-1.csv","legacy","Melodramatic Milgram","4.0.5","0","h","NA","s","NA","NA","h","617.0","NA","7137","NA","NA","617","2","legacy","1024","2","48000","-16","experiment","SSHSS","1","odd","10559","NA","NA","23655","NA","NA","44888","43867","3421","NA","NA","44988","45606","44887","44988","3419","Flanker Effect Test","19","12880.0","20","1024"
"95","95","636","636","#3d3846","legacy","legacy","legacy","congruent","1","undefined","1","s","0","0","0","20","20","0","20","20","0","0","0","20","20","20","20","0","Mon Sep 18 14:52:55 2023","1500","The main experiment item","False","FlankerEffectTest.osexp","C:/Users/stcka/OneDrive/Sam Docs/Psychology Program/AP Textbooks/Quantitative Methods","False","mono","False","18","no","white","no","yes","768","legacy","20","20","C:/Users/stcka/OneDrive/Sam Docs/Psychology Program/AP Textbooks/Quantitative Methods/SA-subject-1.csv","legacy","Melodramatic Milgram","4.0.5","0","s","NA","s","NA","NA","s","488.0","NA","7137","NA","NA","488","2","legacy","1024","2","48000","-16","experiment","SSSSS","1","odd","10559","NA","NA","23655","NA","NA","46632","45611","3421","NA","NA","46733","47222","46630","46733","3419","Flanker Effect Test","20","13368.0","21","1024"
"95","95","629","629","#3d3846","legacy","legacy","legacy","congruent","1","undefined","1","h","0","0","0","21","21","0","21","21","0","0","0","21","21","21","21","0","Mon Sep 18 14:52:55 2023","1500","The main experiment item","False","FlankerEffectTest.osexp","C:/Users/stcka/OneDrive/Sam Docs/Psychology Program/AP Textbooks/Quantitative Methods","False","mono","False","18","no","white","no","yes","768","legacy","21","21","C:/Users/stcka/OneDrive/Sam Docs/Psychology Program/AP Textbooks/Quantitative Methods/SA-subject-1.csv","legacy","Melodramatic Milgram","4.0.5","0","h","NA","s","NA","NA","h","479.0","NA","7137","NA","NA","479","2","legacy","1024","2","48000","-16","experiment","HHHHH","1","odd","10559","NA","NA","23655","NA","NA","48246","47227","3421","NA","NA","48347","48826","48245","48347","3419","Flanker Effect Test","21","13847.0","22","1024"
"95","95","623","623","#3d3846","legacy","legacy","legacy","incongruent","1","undefined","1","s","0","0","0","22","22","0","22","22","0","0","0","22","22","22","22","0","Mon Sep 18 14:52:55 2023","1500","The main experiment item","False","FlankerEffectTest.osexp","C:/Users/stcka/OneDrive/Sam Docs/Psychology Program/AP Textbooks/Quantitative Methods","False","mono","False","18","no","white","no","yes","768","legacy","22","22","C:/Users/stcka/OneDrive/Sam Docs/Psychology Program/AP Textbooks/Quantitative Methods/SA-subject-1.csv","legacy","Melodramatic Milgram","4.0.5","0","s","NA","s","NA","NA","s","504.0","NA","7137","NA","NA","504","2","legacy","1024","2","48000","-16","experiment","HHSHH","1","odd","10559","NA","NA","23655","NA","NA","49857","48831","3421","NA","NA","49958","50464","49856","49958","3419","Flanker Effect Test","22","14351.0","23","1024"
"95","95","618","618","#3d3846","legacy","legacy","legacy","congruent","1","undefined","1","s","0","0","0","23","23","0","23","23","0","0","0","23","23","23","23","0","Mon Sep 18 14:52:55 2023","1500","The main experiment item","False","FlankerEffectTest.osexp","C:/Users/stcka/OneDrive/Sam Docs/Psychology Program/AP Textbooks/Quantitative Methods","False","mono","False","18","no","white","no","yes","768","legacy","23","23","C:/Users/stcka/OneDrive/Sam Docs/Psychology Program/AP Textbooks/Quantitative Methods/SA-subject-1.csv","legacy","Melodramatic Milgram","4.0.5","0","s","NA","s","NA","NA","s","483.0","NA","7137","NA","NA","483","2","legacy","1024","2","48000","-16","experiment","SSSSS","1","odd","10559","NA","NA","23655","NA","NA","51492","50469","3421","NA","NA","51593","52077","51491","51593","3419","Flanker Effect Test","23","14834.0","24","1024"
"96","96","612","612","#3d3846","legacy","legacy","legacy","incongruent","1","undefined","1","h","0","0","0","24","24","0","24","24","0","0","0","24","24","24","24","0","Mon Sep 18 14:52:55 2023","1500","The main experiment item","False","FlankerEffectTest.osexp","C:/Users/stcka/OneDrive/Sam Docs/Psychology Program/AP Textbooks/Quantitative Methods","False","mono","False","18","no","white","no","yes","768","legacy","24","24","C:/Users/stcka/OneDrive/Sam Docs/Psychology Program/AP Textbooks/Quantitative Methods/SA-subject-1.csv","legacy","Melodramatic Milgram","4.0.5","0","h","NA","s","NA","NA","h","486.0","NA","7137","NA","NA","486","2","legacy","1024","2","48000","-16","experiment","SSHSS","1","odd","10559","NA","NA","23655","NA","NA","53104","52082","3421","NA","NA","53205","53692","53102","53205","3419","Flanker Effect Test","24","15320.0","25","1024"
"96","96","609","609","#3d3846","legacy","legacy","legacy","congruent","1","undefined","1","s","0","0","0","25","25","0","25","25","0","0","0","25","25","25","25","0","Mon Sep 18 14:52:55 2023","1500","The main experiment item","False","FlankerEffectTest.osexp","C:/Users/stcka/OneDrive/Sam Docs/Psychology Program/AP Textbooks/Quantitative Methods","False","mono","False","18","no","white","no","yes","768","legacy","25","25","C:/Users/stcka/OneDrive/Sam Docs/Psychology Program/AP Textbooks/Quantitative Methods/SA-subject-1.csv","legacy","Melodramatic Milgram","4.0.5","0","s","NA","s","NA","NA","s","515.0","NA","7137","NA","NA","515","2","legacy","1024","2","48000","-16","experiment","SSSSS","1","odd","10559","NA","NA","23655","NA","NA","54717","53697","3421","NA","NA","54818","55333","54716","54817","3419","Flanker Effect Test","25","15835.0","26","1024"
"96","96","609","609","#3d3846","legacy","legacy","legacy","incongruent","1","undefined","1","s","0","0","0","26","26","0","26","26","0","0","0","26","26","26","26","0","Mon Sep 18 14:52:55 2023","1500","The main experiment item","False","FlankerEffectTest.osexp","C:/Users/stcka/OneDrive/Sam Docs/Psychology Program/AP Textbooks/Quantitative Methods","False","mono","False","18","no","white","no","yes","768","legacy","26","26","C:/Users/stcka/OneDrive/Sam Docs/Psychology Program/AP Textbooks/Quantitative Methods/SA-subject-1.csv","legacy","Melodramatic Milgram","4.0.5","0","s","NA","s","NA","NA","s","633.0","NA","7137","NA","NA","633","2","legacy","1024","2","48000","-16","experiment","HHSHH","1","odd","10559","NA","NA","23655","NA","NA","56375","55350","3421","NA","NA","56476","57110","56374","56475","3419","Flanker Effect Test","26","16468.0","27","1024"
"96","96","606","606","#3d3846","legacy","legacy","legacy","congruent","1","undefined","1","h","0","0","0","27","27","0","27","27","0","0","0","27","27","27","27","0","Mon Sep 18 14:52:55 2023","1500","The main experiment item","False","FlankerEffectTest.osexp","C:/Users/stcka/OneDrive/Sam Docs/Psychology Program/AP Textbooks/Quantitative Methods","False","mono","False","18","no","white","no","yes","768","legacy","27","27","C:/Users/stcka/OneDrive/Sam Docs/Psychology Program/AP Textbooks/Quantitative Methods/SA-subject-1.csv","legacy","Melodramatic Milgram","4.0.5","0","h","NA","s","NA","NA","h","506.0","NA","7137","NA","NA","506","2","legacy","1024","2","48000","-16","experiment","HHHHH","1","odd","10559","NA","NA","23655","NA","NA","58134","57115","3421","NA","NA","58236","58742","58133","58236","3419","Flanker Effect Test","27","16974.0","28","1024"
"96","96","600","600","#3d3846","legacy","legacy","legacy","congruent","1","undefined","1","h","0","0","0","28","28","0","28","28","0","0","0","28","28","28","28","0","Mon Sep 18 14:52:55 2023","1500","The main experiment item","False","FlankerEffectTest.osexp","C:/Users/stcka/OneDrive/Sam Docs/Psychology Program/AP Textbooks/Quantitative Methods","False","mono","False","18","no","white","no","yes","768","legacy","28","28","C:/Users/stcka/OneDrive/Sam Docs/Psychology Program/AP Textbooks/Quantitative Methods/SA-subject-1.csv","legacy","Melodramatic Milgram","4.0.5","0","h","NA","s","NA","NA","h","452.0","NA","7137","NA","NA","452","2","legacy","1024","2","48000","-16","experiment","HHHHH","1","odd","10559","NA","NA","23655","NA","NA","59767","58747","3421","NA","NA","59868","60320","59766","59867","3419","Flanker Effect Test","28","17426.0","29","1024"
"96","96","597","597","#3d3846","legacy","legacy","legacy","congruent","1","undefined","1","h","0","0","0","29","29","0","29","29","0","0","0","29","29","29","29","0","Mon Sep 18 14:52:55 2023","1500","The main experiment item","False","FlankerEffectTest.osexp","C:/Users/stcka/OneDrive/Sam Docs/Psychology Program/AP Textbooks/Quantitative Methods","False","mono","False","18","no","white","no","yes","768","legacy","29","29","C:/Users/stcka/OneDrive/Sam Docs/Psychology Program/AP Textbooks/Quantitative Methods/SA-subject-1.csv","legacy","Melodramatic Milgram","4.0.5","0","h","NA","s","NA","NA","h","500.0","NA","7137","NA","NA","500","2","legacy","1024","2","48000","-16","experiment","HHHHH","1","odd","10559","NA","NA","23655","NA","NA","61345","60325","3421","NA","NA","61445","61946","61344","61445","3419","Flanker Effect Test","29","17926.0","30","1024"
"96","96","597","597","#3d3846","legacy","legacy","legacy","incongruent","1","undefined","1","s","0","0","0","30","30","0","30","30","0","0","0","30","30","30","30","0","Mon Sep 18 14:52:55 2023","1500","The main experiment item","False","FlankerEffectTest.osexp","C:/Users/stcka/OneDrive/Sam Docs/Psychology Program/AP Textbooks/Quantitative Methods","False","mono","False","18","no","white","no","yes","768","legacy","30","30","C:/Users/stcka/OneDrive/Sam Docs/Psychology Program/AP Textbooks/Quantitative Methods/SA-subject-1.csv","legacy","Melodramatic Milgram","4.0.5","0","s","NA","s","NA","NA","s","587.0","NA","7137","NA","NA","587","2","legacy","1024","2","48000","-16","experiment","HHSHH","1","odd","10559","NA","NA","23655","NA","NA","62975","61951","3421","NA","NA","63076","63663","62974","63076","3419","Flanker Effect Test","30","18513.0","31","1024"
"96","96","592","592","#3d3846","legacy","legacy","legacy","congruent","1","undefined","1","s","0","0","0","31","31","0","31","31","0","0","0","31","31","31","31","0","Mon Sep 18 14:52:55 2023","1500","The main experiment item","False","FlankerEffectTest.osexp","C:/Users/stcka/OneDrive/Sam Docs/Psychology Program/AP Textbooks/Quantitative Methods","False","mono","False","18","no","white","no","yes","768","legacy","31","31","C:/Users/stcka/OneDrive/Sam Docs/Psychology Program/AP Textbooks/Quantitative Methods/SA-subject-1.csv","legacy","Melodramatic Milgram","4.0.5","0","s","NA","s","NA","NA","s","461.0","NA","7137","NA","NA","461","2","legacy","1024","2","48000","-16","experiment","SSSSS","1","odd","10559","NA","NA","23655","NA","NA","64693","63668","3421","NA","NA","64794","65255","64691","64794","3419","Flanker Effect Test","31","18974.0","32","1024"
"96","96","590","590","#3d3846","legacy","legacy","legacy","congruent","1","undefined","1","h","0","0","0","32","32","0","32","32","0","0","0","32","32","32","32","0","Mon Sep 18 14:52:55 2023","1500","The main experiment item","False","FlankerEffectTest.osexp","C:/Users/stcka/OneDrive/Sam Docs/Psychology Program/AP Textbooks/Quantitative Methods","False","mono","False","18","no","white","no","yes","768","legacy","32","32","C:/Users/stcka/OneDrive/Sam Docs/Psychology Program/AP Textbooks/Quantitative Methods/SA-subject-1.csv","legacy","Melodramatic Milgram","4.0.5","0","h","NA","s","NA","NA","h","496.0","NA","7137","NA","NA","496","2","legacy","1024","2","48000","-16","experiment","HHHHH","1","odd","10559","NA","NA","23655","NA","NA","66284","65260","3421","NA","NA","66384","66881","66282","66384","3419","Flanker Effect Test","32","19470.0","33","1024"
"97","97","586","586","#3d3846","legacy","legacy","legacy","incongruent","1","undefined","1","s","0","0","0","33","33","0","33","33","0","0","0","33","33","33","33","0","Mon Sep 18 14:52:55 2023","1500","The main experiment item","False","FlankerEffectTest.osexp","C:/Users/stcka/OneDrive/Sam Docs/Psychology Program/AP Textbooks/Quantitative Methods","False","mono","False","18","no","white","no","yes","768","legacy","33","33","C:/Users/stcka/OneDrive/Sam Docs/Psychology Program/AP Textbooks/Quantitative Methods/SA-subject-1.csv","legacy","Melodramatic Milgram","4.0.5","0","s","NA","s","NA","NA","s","482.0","NA","7137","NA","NA","482","2","legacy","1024","2","48000","-16","experiment","HHSHH","1","odd","10559","NA","NA","23655","NA","NA","67907","66886","3421","NA","NA","68007","68489","67906","68007","3419","Flanker Effect Test","33","19952.0","34","1024"
"97","97","582","582","#3d3846","legacy","legacy","legacy","incongruent","1","undefined","1","s","0","0","0","34","34","0","34","34","0","0","0","34","34","34","34","0","Mon Sep 18 14:52:55 2023","1500","The main experiment item","False","FlankerEffectTest.osexp","C:/Users/stcka/OneDrive/Sam Docs/Psychology Program/AP Textbooks/Quantitative Methods","False","mono","False","18","no","white","no","yes","768","legacy","34","34","C:/Users/stcka/OneDrive/Sam Docs/Psychology Program/AP Textbooks/Quantitative Methods/SA-subject-1.csv","legacy","Melodramatic Milgram","4.0.5","0","s","NA","s","NA","NA","s","426.0","NA","7137","NA","NA","426","2","legacy","1024","2","48000","-16","experiment","HHSHH","1","odd","10559","NA","NA","23655","NA","NA","69529","68509","3421","NA","NA","69630","70057","69528","69630","3419","Flanker Effect Test","34","20378.0","35","1024"
"97","97","577","577","#3d3846","legacy","legacy","legacy","congruent","1","undefined","1","s","0","0","0","35","35","0","35","35","0","0","0","35","35","35","35","0","Mon Sep 18 14:52:55 2023","1500","The main experiment item","False","FlankerEffectTest.osexp","C:/Users/stcka/OneDrive/Sam Docs/Psychology Program/AP Textbooks/Quantitative Methods","False","mono","False","18","no","white","no","yes","768","legacy","35","35","C:/Users/stcka/OneDrive/Sam Docs/Psychology Program/AP Textbooks/Quantitative Methods/SA-subject-1.csv","legacy","Melodramatic Milgram","4.0.5","0","s","NA","s","NA","NA","s","413.0","NA","7137","NA","NA","413","2","legacy","1024","2","48000","-16","experiment","SSSSS","1","odd","10559","NA","NA","23655","NA","NA","71087","70062","3421","NA","NA","71187","71600","71085","71187","3419","Flanker Effect Test","35","20791.0","36","1024"
"97","97","575","575","#3d3846","legacy","legacy","legacy","congruent","1","undefined","1","h","0","0","0","36","36","0","36","36","0","0","0","36","36","36","36","0","Mon Sep 18 14:52:55 2023","1500","The main experiment item","False","FlankerEffectTest.osexp","C:/Users/stcka/OneDrive/Sam Docs/Psychology Program/AP Textbooks/Quantitative Methods","False","mono","False","18","no","white","no","yes","768","legacy","36","36","C:/Users/stcka/OneDrive/Sam Docs/Psychology Program/AP Textbooks/Quantitative Methods/SA-subject-1.csv","legacy","Melodramatic Milgram","4.0.5","0","h","NA","s","NA","NA","h","500.0","NA","7137","NA","NA","500","2","legacy","1024","2","48000","-16","experiment","HHHHH","1","odd","10559","NA","NA","23655","NA","NA","72625","71605","3421","NA","NA","72725","73226","72622","72725","3419","Flanker Effect Test","36","21291.0","37","1024"
"97","97","571","571","#3d3846","legacy","legacy","legacy","congruent","1","undefined","1","s","0","0","0","37","37","0","37","37","0","0","0","37","37","37","37","0","Mon Sep 18 14:52:55 2023","1500","The main experiment item","False","FlankerEffectTest.osexp","C:/Users/stcka/OneDrive/Sam Docs/Psychology Program/AP Textbooks/Quantitative Methods","False","mono","False","18","no","white","no","yes","768","legacy","37","37","C:/Users/stcka/OneDrive/Sam Docs/Psychology Program/AP Textbooks/Quantitative Methods/SA-subject-1.csv","legacy","Melodramatic Milgram","4.0.5","0","s","NA","s","NA","NA","s","439.0","NA","7137","NA","NA","439","2","legacy","1024","2","48000","-16","experiment","SSSSS","1","odd","10559","NA","NA","23655","NA","NA","74252","73231","3421","NA","NA","74352","74792","74251","74352","3419","Flanker Effect Test","37","21730.0","38","1024"
"97","97","570","570","#3d3846","legacy","legacy","legacy","congruent","1","undefined","1","h","0","0","0","38","38","0","38","38","0","0","0","38","38","38","38","0","Mon Sep 18 14:52:55 2023","1500","The main experiment item","False","FlankerEffectTest.osexp","C:/Users/stcka/OneDrive/Sam Docs/Psychology Program/AP Textbooks/Quantitative Methods","False","mono","False","18","no","white","no","yes","768","legacy","38","38","C:/Users/stcka/OneDrive/Sam Docs/Psychology Program/AP Textbooks/Quantitative Methods/SA-subject-1.csv","legacy","Melodramatic Milgram","4.0.5","0","h","NA","s","NA","NA","h","512.0","NA","7137","NA","NA","512","2","legacy","1024","2","48000","-16","experiment","HHHHH","1","odd","10559","NA","NA","23655","NA","NA","75816","74797","3421","NA","NA","75916","76428","75815","75916","3419","Flanker Effect Test","38","22242.0","39","1024"
"97","97","569","569","#3d3846","legacy","legacy","legacy","incongruent","1","undefined","1","h","0","0","0","39","39","0","39","39","0","0","0","39","39","39","39","0","Mon Sep 18 14:52:55 2023","1500","The main experiment item","False","FlankerEffectTest.osexp","C:/Users/stcka/OneDrive/Sam Docs/Psychology Program/AP Textbooks/Quantitative Methods","False","mono","False","18","no","white","no","yes","768","legacy","39","39","C:/Users/stcka/OneDrive/Sam Docs/Psychology Program/AP Textbooks/Quantitative Methods/SA-subject-1.csv","legacy","Melodramatic Milgram","4.0.5","0","h","NA","s","NA","NA","h","551.0","NA","7137","NA","NA","551","2","legacy","1024","2","48000","-16","experiment","SSHSS","1","odd","10559","NA","NA","23655","NA","NA","77454","76432","3421","NA","NA","77554","78105","77452","77554","3419","Flanker Effect Test","39","22793.0","40","1024"
"97","97","566","566","#3d3846","legacy","legacy","legacy","congruent","1","undefined","1","s","0","0","0","40","40","0","40","40","0","0","0","40","40","40","40","0","Mon Sep 18 14:52:55 2023","1500","The main experiment item","False","FlankerEffectTest.osexp","C:/Users/stcka/OneDrive/Sam Docs/Psychology Program/AP Textbooks/Quantitative Methods","False","mono","False","18","no","white","no","yes","768","legacy","40","40","C:/Users/stcka/OneDrive/Sam Docs/Psychology Program/AP Textbooks/Quantitative Methods/SA-subject-1.csv","legacy","Melodramatic Milgram","4.0.5","0","s","NA","s","NA","NA","s","436.0","NA","7137","NA","NA","436","2","legacy","1024","2","48000","-16","experiment","SSSSS","1","odd","10559","NA","NA","23655","NA","NA","79129","78110","3421","NA","NA","79229","79666","79128","79229","3419","Flanker Effect Test","40","23229.0","41","1024"
"97","97","568","568","#3d3846","legacy","legacy","legacy","congruent","1","undefined","1","h","0","0","0","41","41","0","41","41","0","0","0","41","41","41","41","0","Mon Sep 18 14:52:55 2023","1500","The main experiment item","False","FlankerEffectTest.osexp","C:/Users/stcka/OneDrive/Sam Docs/Psychology Program/AP Textbooks/Quantitative Methods","False","mono","False","18","no","white","no","yes","768","legacy","41","41","C:/Users/stcka/OneDrive/Sam Docs/Psychology Program/AP Textbooks/Quantitative Methods/SA-subject-1.csv","legacy","Melodramatic Milgram","4.0.5","0","h","NA","s","NA","NA","h","648.0","NA","7137","NA","NA","648","2","legacy","1024","2","48000","-16","experiment","HHHHH","1","odd","10559","NA","NA","23655","NA","NA","80695","79670","3421","NA","NA","80796","81445","80693","80796","3419","Flanker Effect Test","41","23877.0","42","1024"
"97","97","565","565","#3d3846","legacy","legacy","legacy","congruent","1","undefined","1","s","0","0","0","42","42","0","42","42","0","0","0","42","42","42","42","0","Mon Sep 18 14:52:55 2023","1500","The main experiment item","False","FlankerEffectTest.osexp","C:/Users/stcka/OneDrive/Sam Docs/Psychology Program/AP Textbooks/Quantitative Methods","False","mono","False","18","no","white","no","yes","768","legacy","42","42","C:/Users/stcka/OneDrive/Sam Docs/Psychology Program/AP Textbooks/Quantitative Methods/SA-subject-1.csv","legacy","Melodramatic Milgram","4.0.5","0","s","NA","s","NA","NA","s","424.0","NA","7137","NA","NA","424","2","legacy","1024","2","48000","-16","experiment","SSSSS","1","odd","10559","NA","NA","23655","NA","NA","82472","81450","3421","NA","NA","82573","82998","82470","82573","3419","Flanker Effect Test","42","24301.0","43","1024"
"95","95","563","563","#3d3846","legacy","legacy","legacy","congruent","0","undefined","0","h","0","0","0","43","43","0","43","43","0","0","0","43","43","43","43","0","Mon Sep 18 14:52:55 2023","1500","The main experiment item","False","FlankerEffectTest.osexp","C:/Users/stcka/OneDrive/Sam Docs/Psychology Program/AP Textbooks/Quantitative Methods","False","mono","False","18","no","white","no","yes","768","legacy","43","43","C:/Users/stcka/OneDrive/Sam Docs/Psychology Program/AP Textbooks/Quantitative Methods/SA-subject-1.csv","legacy","Melodramatic Milgram","4.0.5","0","s","NA","s","NA","NA","s","471.0","NA","7137","NA","NA","471","2","legacy","1024","2","48000","-16","experiment","HHHHH","1","odd","10559","NA","NA","23655","NA","NA","84028","83003","3421","NA","NA","84129","84602","84026","84129","3419","Flanker Effect Test","42","24772.0","44","1024"
"95","95","565","565","#3d3846","legacy","legacy","legacy","incongruent","1","undefined","1","s","0","0","0","44","44","0","44","44","0","0","0","44","44","44","44","0","Mon Sep 18 14:52:55 2023","1500","The main experiment item","False","FlankerEffectTest.osexp","C:/Users/stcka/OneDrive/Sam Docs/Psychology Program/AP Textbooks/Quantitative Methods","False","mono","False","18","no","white","no","yes","768","legacy","44","44","C:/Users/stcka/OneDrive/Sam Docs/Psychology Program/AP Textbooks/Quantitative Methods/SA-subject-1.csv","legacy","Melodramatic Milgram","4.0.5","0","s","NA","s","NA","NA","s","658.0","NA","7137","NA","NA","658","2","legacy","1024","2","48000","-16","experiment","HHSHH","1","odd","10559","NA","NA","84606","NA","NA","86133","85107","3421","NA","NA","86234","86893","86131","86233","3419","Flanker Effect Test","43","25430.0","45","1024"
"95","95","565","565","#3d3846","legacy","legacy","legacy","incongruent","1","undefined","1","s","0","0","0","45","45","0","45","45","0","0","0","45","45","45","45","0","Mon Sep 18 14:52:55 2023","1500","The main experiment item","False","FlankerEffectTest.osexp","C:/Users/stcka/OneDrive/Sam Docs/Psychology Program/AP Textbooks/Quantitative Methods","False","mono","False","18","no","white","no","yes","768","legacy","45","45","C:/Users/stcka/OneDrive/Sam Docs/Psychology Program/AP Textbooks/Quantitative Methods/SA-subject-1.csv","legacy","Melodramatic Milgram","4.0.5","0","s","NA","s","NA","NA","s","576.0","NA","7137","NA","NA","576","2","legacy","1024","2","48000","-16","experiment","HHSHH","1","odd","10559","NA","NA","84606","NA","NA","87919","86898","3421","NA","NA","88019","88595","87917","88019","3419","Flanker Effect Test","44","26006.0","46","1024"
"95","95","563","563","#3d3846","legacy","legacy","legacy","congruent","1","undefined","1","h","0","0","0","46","46","0","46","46","0","0","0","46","46","46","46","0","Mon Sep 18 14:52:55 2023","1500","The main experiment item","False","FlankerEffectTest.osexp","C:/Users/stcka/OneDrive/Sam Docs/Psychology Program/AP Textbooks/Quantitative Methods","False","mono","False","18","no","white","no","yes","768","legacy","46","46","C:/Users/stcka/OneDrive/Sam Docs/Psychology Program/AP Textbooks/Quantitative Methods/SA-subject-1.csv","legacy","Melodramatic Milgram","4.0.5","0","h","NA","s","NA","NA","h","486.0","NA","7137","NA","NA","486","2","legacy","1024","2","48000","-16","experiment","HHHHH","1","odd","10559","NA","NA","84606","NA","NA","89628","88600","3421","NA","NA","89729","90216","89627","89729","3419","Flanker Effect Test","45","26492.0","47","1024"
"95","95","563","563","#3d3846","legacy","legacy","legacy","incongruent","1","undefined","1","h","0","0","0","47","47","0","47","47","0","0","0","47","47","47","47","0","Mon Sep 18 14:52:55 2023","1500","The main experiment item","False","FlankerEffectTest.osexp","C:/Users/stcka/OneDrive/Sam Docs/Psychology Program/AP Textbooks/Quantitative Methods","False","mono","False","18","no","white","no","yes","768","legacy","47","47","C:/Users/stcka/OneDrive/Sam Docs/Psychology Program/AP Textbooks/Quantitative Methods/SA-subject-1.csv","legacy","Melodramatic Milgram","4.0.5","0","h","NA","s","NA","NA","h","564.0","NA","7137","NA","NA","564","2","legacy","1024","2","48000","-16","experiment","SSHSS","1","odd","10559","NA","NA","84606","NA","NA","91248","90220","3421","NA","NA","91348","91913","91247","91348","3419","Flanker Effect Test","46","27056.0","48","1024"
"95","95","561","561","#3d3846","legacy","legacy","legacy","congruent","1","undefined","1","s","0","0","0","48","48","0","48","48","0","0","0","48","48","48","48","0","Mon Sep 18 14:52:55 2023","1500","The main experiment item","False","FlankerEffectTest.osexp","C:/Users/stcka/OneDrive/Sam Docs/Psychology Program/AP Textbooks/Quantitative Methods","False","mono","False","18","no","white","no","yes","768","legacy","48","48","C:/Users/stcka/OneDrive/Sam Docs/Psychology Program/AP Textbooks/Quantitative Methods/SA-subject-1.csv","legacy","Melodramatic Milgram","4.0.5","0","s","NA","s","NA","NA","s","455.0","NA","7137","NA","NA","455","2","legacy","1024","2","48000","-16","experiment","SSSSS","1","odd","10559","NA","NA","84606","NA","NA","92945","91917","3421","NA","NA","93046","93501","92943","93045","3419","Flanker Effect Test","47","27511.0","49","1024"
"96","96","558","558","#3d3846","legacy","legacy","legacy","congruent","1","undefined","1","h","0","0","0","49","49","0","49","49","0","0","0","49","49","49","49","0","Mon Sep 18 14:52:55 2023","1500","The main experiment item","False","FlankerEffectTest.osexp","C:/Users/stcka/OneDrive/Sam Docs/Psychology Program/AP Textbooks/Quantitative Methods","False","mono","False","18","no","white","no","yes","768","legacy","49","49","C:/Users/stcka/OneDrive/Sam Docs/Psychology Program/AP Textbooks/Quantitative Methods/SA-subject-1.csv","legacy","Melodramatic Milgram","4.0.5","0","h","NA","s","NA","NA","h","425.0","NA","7137","NA","NA","425","2","legacy","1024","2","48000","-16","experiment","HHHHH","1","odd","10559","NA","NA","84606","NA","NA","94527","93507","3421","NA","NA","94628","95053","94526","94628","3419","Flanker Effect Test","48","27936.0","50","1024"
"96","96","557","557","#3d3846","legacy","legacy","legacy","congruent","1","undefined","1","s","0","0","0","50","50","0","50","50","0","0","0","50","50","50","50","0","Mon Sep 18 14:52:55 2023","1500","The main experiment item","False","FlankerEffectTest.osexp","C:/Users/stcka/OneDrive/Sam Docs/Psychology Program/AP Textbooks/Quantitative Methods","False","mono","False","18","no","white","no","yes","768","legacy","50","50","C:/Users/stcka/OneDrive/Sam Docs/Psychology Program/AP Textbooks/Quantitative Methods/SA-subject-1.csv","legacy","Melodramatic Milgram","4.0.5","0","s","NA","s","NA","NA","s","500.0","NA","7137","NA","NA","500","2","legacy","1024","2","48000","-16","experiment","SSSSS","1","odd","10559","NA","NA","84606","NA","NA","96080","95058","3421","NA","NA","96181","96682","96078","96180","3419","Flanker Effect Test","49","28436.0","51","1024"
"96","96","555","555","#3d3846","legacy","legacy","legacy","congruent","1","undefined","1","h","0","0","0","51","51","0","51","51","0","0","0","51","51","51","51","0","Mon Sep 18 14:52:55 2023","1500","The main experiment item","False","FlankerEffectTest.osexp","C:/Users/stcka/OneDrive/Sam Docs/Psychology Program/AP Textbooks/Quantitative Methods","False","mono","False","18","no","white","no","yes","768","legacy","51","51","C:/Users/stcka/OneDrive/Sam Docs/Psychology Program/AP Textbooks/Quantitative Methods/SA-subject-1.csv","legacy","Melodramatic Milgram","4.0.5","0","h","NA","s","NA","NA","h","467.0","NA","7137","NA","NA","467","2","legacy","1024","2","48000","-16","experiment","HHHHH","1","odd","10559","NA","NA","84606","NA","NA","97709","96689","3421","NA","NA","97809","98277","97707","97809","3419","Flanker Effect Test","50","28903.0","52","1024"
"96","96","556","556","#3d3846","legacy","legacy","legacy","incongruent","1","undefined","1","s","0","0","0","52","52","0","52","52","0","0","0","52","52","52","52","0","Mon Sep 18 14:52:55 2023","1500","The main experiment item","False","FlankerEffectTest.osexp","C:/Users/stcka/OneDrive/Sam Docs/Psychology Program/AP Textbooks/Quantitative Methods","False","mono","False","18","no","white","no","yes","768","legacy","52","52","C:/Users/stcka/OneDrive/Sam Docs/Psychology Program/AP Textbooks/Quantitative Methods/SA-subject-1.csv","legacy","Melodramatic Milgram","4.0.5","0","s","NA","s","NA","NA","s","616.0","NA","7137","NA","NA","616","2","legacy","1024","2","48000","-16","experiment","HHSHH","1","odd","10559","NA","NA","84606","NA","NA","99303","98281","3421","NA","NA","99404","100021","99301","99403","3419","Flanker Effect Test","51","29519.0","53","1024"
"96","96","556","556","#3d3846","legacy","legacy","legacy","incongruent","1","undefined","1","s","0","0","0","53","53","0","53","53","0","0","0","53","53","53","53","0","Mon Sep 18 14:52:55 2023","1500","The main experiment item","False","FlankerEffectTest.osexp","C:/Users/stcka/OneDrive/Sam Docs/Psychology Program/AP Textbooks/Quantitative Methods","False","mono","False","18","no","white","no","yes","768","legacy","53","53","C:/Users/stcka/OneDrive/Sam Docs/Psychology Program/AP Textbooks/Quantitative Methods/SA-subject-1.csv","legacy","Melodramatic Milgram","4.0.5","0","s","NA","s","NA","NA","s","516.0","NA","7137","NA","NA","516","2","legacy","1024","2","48000","-16","experiment","HHSHH","1","odd","10559","NA","NA","84606","NA","NA","101053","100024","3421","NA","NA","101153","101670","101052","101153","3419","Flanker Effect Test","52","30035.0","54","1024"
"96","96","557","557","#3d3846","legacy","legacy","legacy","incongruent","1","undefined","1","h","0","0","0","54","54","0","54","54","0","0","0","54","54","54","54","0","Mon Sep 18 14:52:55 2023","1500","The main experiment item","False","FlankerEffectTest.osexp","C:/Users/stcka/OneDrive/Sam Docs/Psychology Program/AP Textbooks/Quantitative Methods","False","mono","False","18","no","white","no","yes","768","legacy","54","54","C:/Users/stcka/OneDrive/Sam Docs/Psychology Program/AP Textbooks/Quantitative Methods/SA-subject-1.csv","legacy","Melodramatic Milgram","4.0.5","0","h","NA","s","NA","NA","h","600.0","NA","7137","NA","NA","600","2","legacy","1024","2","48000","-16","experiment","SSHSS","1","odd","10559","NA","NA","84606","NA","NA","102697","101674","3421","NA","NA","102798","103399","102696","102797","3419","Flanker Effect Test","53","30635.0","55","1024"
"96","96","555","555","#3d3846","legacy","legacy","legacy","incongruent","1","undefined","1","h","0","0","0","55","55","0","55","55","0","0","0","55","55","55","55","0","Mon Sep 18 14:52:55 2023","1500","The main experiment item","False","FlankerEffectTest.osexp","C:/Users/stcka/OneDrive/Sam Docs/Psychology Program/AP Textbooks/Quantitative Methods","False","mono","False","18","no","white","no","yes","768","legacy","55","55","C:/Users/stcka/OneDrive/Sam Docs/Psychology Program/AP Textbooks/Quantitative Methods/SA-subject-1.csv","legacy","Melodramatic Milgram","4.0.5","0","h","NA","s","NA","NA","h","445.0","NA","7137","NA","NA","445","2","legacy","1024","2","48000","-16","experiment","SSHSS","1","odd","10559","NA","NA","84606","NA","NA","104426","103404","3421","NA","NA","104527","104972","104424","104526","3419","Flanker Effect Test","54","31080.0","56","1024"
"96","96","554","554","#3d3846","legacy","legacy","legacy","congruent","1","undefined","1","h","0","0","0","56","56","0","56","56","0","0","0","56","56","56","56","0","Mon Sep 18 14:52:55 2023","1500","The main experiment item","False","FlankerEffectTest.osexp","C:/Users/stcka/OneDrive/Sam Docs/Psychology Program/AP Textbooks/Quantitative Methods","False","mono","False","18","no","white","no","yes","768","legacy","56","56","C:/Users/stcka/OneDrive/Sam Docs/Psychology Program/AP Textbooks/Quantitative Methods/SA-subject-1.csv","legacy","Melodramatic Milgram","4.0.5","0","h","NA","s","NA","NA","h","526.0","NA","7137","NA","NA","526","2","legacy","1024","2","48000","-16","experiment","HHHHH","1","odd","10559","NA","NA","84606","NA","NA","106001","104977","3421","NA","NA","106101","106628","105999","106101","3419","Flanker Effect Test","55","31606.0","57","1024"
"96","96","554","554","#3d3846","legacy","legacy","legacy","incongruent","1","undefined","1","h","0","0","0","57","57","0","57","57","0","0","0","57","57","57","57","0","Mon Sep 18 14:52:55 2023","1500","The main experiment item","False","FlankerEffectTest.osexp","C:/Users/stcka/OneDrive/Sam Docs/Psychology Program/AP Textbooks/Quantitative Methods","False","mono","False","18","no","white","no","yes","768","legacy","57","57","C:/Users/stcka/OneDrive/Sam Docs/Psychology Program/AP Textbooks/Quantitative Methods/SA-subject-1.csv","legacy","Melodramatic Milgram","4.0.5","0","h","NA","s","NA","NA","h","536.0","NA","7137","NA","NA","536","2","legacy","1024","2","48000","-16","experiment","SSHSS","1","odd","10559","NA","NA","84606","NA","NA","107653","106632","3421","NA","NA","107753","108290","107652","107753","3419","Flanker Effect Test","56","32142.0","58","1024"
"96","96","552","552","#3d3846","legacy","legacy","legacy","incongruent","1","undefined","1","s","0","0","0","58","58","0","58","58","0","0","0","58","58","58","58","0","Mon Sep 18 14:52:55 2023","1500","The main experiment item","False","FlankerEffectTest.osexp","C:/Users/stcka/OneDrive/Sam Docs/Psychology Program/AP Textbooks/Quantitative Methods","False","mono","False","18","no","white","no","yes","768","legacy","58","58","C:/Users/stcka/OneDrive/Sam Docs/Psychology Program/AP Textbooks/Quantitative Methods/SA-subject-1.csv","legacy","Melodramatic Milgram","4.0.5","0","s","NA","s","NA","NA","s","482.0","NA","7137","NA","NA","482","2","legacy","1024","2","48000","-16","experiment","HHSHH","1","odd","10559","NA","NA","84606","NA","NA","109320","108295","3421","NA","NA","109420","109903","109317","109420","3419","Flanker Effect Test","57","32624.0","59","1024"
"96","96","551","551","#3d3846","legacy","legacy","legacy","congruent","1","undefined","1","s","0","0","0","59","59","0","59","59","0","0","0","59","59","59","59","0","Mon Sep 18 14:52:55 2023","1500","The main experiment item","False","FlankerEffectTest.osexp","C:/Users/stcka/OneDrive/Sam Docs/Psychology Program/AP Textbooks/Quantitative Methods","False","mono","False","18","no","white","no","yes","768","legacy","59","59","C:/Users/stcka/OneDrive/Sam Docs/Psychology Program/AP Textbooks/Quantitative Methods/SA-subject-1.csv","legacy","Melodramatic Milgram","4.0.5","0","s","NA","s","NA","NA","s","495.0","NA","7137","NA","NA","495","2","legacy","1024","2","48000","-16","experiment","SSSSS","1","odd","10559","NA","NA","84606","NA","NA","110934","109908","3421","NA","NA","111034","111530","110933","111034","3419","Flanker Effect Test","58","33119.0","60","1024"
"96","96","550","550","#3d3846","legacy","legacy","legacy","incongruent","1","undefined","1","h","0","0","0","60","60","0","60","60","0","0","0","60","60","60","60","0","Mon Sep 18 14:52:55 2023","1500","The main experiment item","False","FlankerEffectTest.osexp","C:/Users/stcka/OneDrive/Sam Docs/Psychology Program/AP Textbooks/Quantitative Methods","False","mono","False","18","no","white","no","yes","768","legacy","60","60","C:/Users/stcka/OneDrive/Sam Docs/Psychology Program/AP Textbooks/Quantitative Methods/SA-subject-1.csv","legacy","Melodramatic Milgram","4.0.5","0","h","NA","s","NA","NA","h","434.0","NA","7137","NA","NA","434","2","legacy","1024","2","48000","-16","experiment","SSHSS","1","odd","10559","NA","NA","84606","NA","NA","112558","111535","3421","NA","NA","112659","113094","112556","112658","3419","Flanker Effect Test","59","33553.0","61","1024"
"96","96","549","549","#3d3846","legacy","legacy","legacy","congruent","1","undefined","1","s","0","0","0","61","61","0","61","61","0","0","0","61","61","61","61","0","Mon Sep 18 14:52:55 2023","1500","The main experiment item","False","FlankerEffectTest.osexp","C:/Users/stcka/OneDrive/Sam Docs/Psychology Program/AP Textbooks/Quantitative Methods","False","mono","False","18","no","white","no","yes","768","legacy","61","61","C:/Users/stcka/OneDrive/Sam Docs/Psychology Program/AP Textbooks/Quantitative Methods/SA-subject-1.csv","legacy","Melodramatic Milgram","4.0.5","0","s","NA","s","NA","NA","s","493.0","NA","7137","NA","NA","493","2","legacy","1024","2","48000","-16","experiment","SSSSS","1","odd","10559","NA","NA","84606","NA","NA","114122","113099","3421","NA","NA","114223","114717","114120","114223","3419","Flanker Effect Test","60","34046.0","62","1024"
"96","96","547","547","#3d3846","legacy","legacy","legacy","congruent","1","undefined","1","s","0","0","0","62","62","0","62","62","0","0","0","62","62","62","62","0","Mon Sep 18 14:52:55 2023","1500","The main experiment item","False","FlankerEffectTest.osexp","C:/Users/stcka/OneDrive/Sam Docs/Psychology Program/AP Textbooks/Quantitative Methods","False","mono","False","18","no","white","no","yes","768","legacy","62","62","C:/Users/stcka/OneDrive/Sam Docs/Psychology Program/AP Textbooks/Quantitative Methods/SA-subject-1.csv","legacy","Melodramatic Milgram","4.0.5","0","s","NA","s","NA","NA","s","423.0","NA","7137","NA","NA","423","2","legacy","1024","2","48000","-16","experiment","SSSSS","1","odd","10559","NA","NA","84606","NA","NA","115759","114723","3421","NA","NA","115859","116283","115757","115859","3419","Flanker Effect Test","61","34469.0","63","1024"
"96","96","545","545","#3d3846","legacy","legacy","legacy","incongruent","1","undefined","1","h","0","0","0","63","63","0","63","63","0","0","0","63","63","63","63","0","Mon Sep 18 14:52:55 2023","1500","The main experiment item","False","FlankerEffectTest.osexp","C:/Users/stcka/OneDrive/Sam Docs/Psychology Program/AP Textbooks/Quantitative Methods","False","mono","False","18","no","white","no","yes","768","legacy","63","63","C:/Users/stcka/OneDrive/Sam Docs/Psychology Program/AP Textbooks/Quantitative Methods/SA-subject-1.csv","legacy","Melodramatic Milgram","4.0.5","0","h","NA","s","NA","NA","h","453.0","NA","7137","NA","NA","453","2","legacy","1024","2","48000","-16","experiment","SSHSS","1","odd","10559","NA","NA","84606","NA","NA","117310","116289","3421","NA","NA","117411","117866","117309","117411","3419","Flanker Effect Test","62","34922.0","64","1024"
"96","96","545","545","#3d3846","legacy","legacy","legacy","incongruent","1","undefined","1","h","0","0","0","64","64","0","64","64","0","0","0","64","64","64","64","0","Mon Sep 18 14:52:55 2023","1500","The main experiment item","False","FlankerEffectTest.osexp","C:/Users/stcka/OneDrive/Sam Docs/Psychology Program/AP Textbooks/Quantitative Methods","False","mono","False","18","no","white","no","yes","768","legacy","64","64","C:/Users/stcka/OneDrive/Sam Docs/Psychology Program/AP Textbooks/Quantitative Methods/SA-subject-1.csv","legacy","Melodramatic Milgram","4.0.5","0","h","NA","s","NA","NA","h","536.0","NA","7137","NA","NA","536","2","legacy","1024","2","48000","-16","experiment","SSHSS","1","odd","10559","NA","NA","84606","NA","NA","118891","117871","3421","NA","NA","118992","119529","118890","118992","3419","Flanker Effect Test","63","35458.0","65","1024"
"96","96","544","544","#3d3846","legacy","legacy","legacy","congruent","1","undefined","1","s","0","0","0","65","65","0","65","65","0","0","0","65","65","65","65","0","Mon Sep 18 14:52:55 2023","1500","The main experiment item","False","FlankerEffectTest.osexp","C:/Users/stcka/OneDrive/Sam Docs/Psychology Program/AP Textbooks/Quantitative Methods","False","mono","False","18","no","white","no","yes","768","legacy","65","65","C:/Users/stcka/OneDrive/Sam Docs/Psychology Program/AP Textbooks/Quantitative Methods/SA-subject-1.csv","legacy","Melodramatic Milgram","4.0.5","0","s","NA","s","NA","NA","s","483.0","NA","7137","NA","NA","483","2","legacy","1024","2","48000","-16","experiment","SSSSS","1","odd","10559","NA","NA","84606","NA","NA","120556","119534","3421","NA","NA","120657","121141","120555","120657","3419","Flanker Effect Test","64","35941.0","66","1024"
"97","97","544","544","#3d3846","legacy","legacy","legacy","incongruent","1","undefined","1","h","0","0","0","66","66","0","66","66","0","0","0","66","66","66","66","0","Mon Sep 18 14:52:55 2023","1500","The main experiment item","False","FlankerEffectTest.osexp","C:/Users/stcka/OneDrive/Sam Docs/Psychology Program/AP Textbooks/Quantitative Methods","False","mono","False","18","no","white","no","yes","768","legacy","66","66","C:/Users/stcka/OneDrive/Sam Docs/Psychology Program/AP Textbooks/Quantitative Methods/SA-subject-1.csv","legacy","Melodramatic Milgram","4.0.5","0","h","NA","s","NA","NA","h","527.0","NA","7137","NA","NA","527","2","legacy","1024","2","48000","-16","experiment","SSHSS","1","odd","10559","NA","NA","84606","NA","NA","122171","121146","3421","NA","NA","122272","122800","122170","122271","3419","Flanker Effect Test","65","36468.0","67","1024"
"97","97","543","543","#3d3846","legacy","legacy","legacy","incongruent","1","undefined","1","h","0","0","0","67","67","0","67","67","0","0","0","67","67","67","67","0","Mon Sep 18 14:52:55 2023","1500","The main experiment item","False","FlankerEffectTest.osexp","C:/Users/stcka/OneDrive/Sam Docs/Psychology Program/AP Textbooks/Quantitative Methods","False","mono","False","18","no","white","no","yes","768","legacy","67","67","C:/Users/stcka/OneDrive/Sam Docs/Psychology Program/AP Textbooks/Quantitative Methods/SA-subject-1.csv","legacy","Melodramatic Milgram","4.0.5","0","h","NA","s","NA","NA","h","520.0","NA","7137","NA","NA","520","2","legacy","1024","2","48000","-16","experiment","SSHSS","1","odd","10559","NA","NA","84606","NA","NA","123830","122805","3421","NA","NA","123931","124452","123828","123931","3419","Flanker Effect Test","66","36988.0","68","1024"
"97","97","544","544","#3d3846","legacy","legacy","legacy","incongruent","1","undefined","1","s","0","0","0","68","68","0","68","68","0","0","0","68","68","68","68","0","Mon Sep 18 14:52:55 2023","1500","The main experiment item","False","FlankerEffectTest.osexp","C:/Users/stcka/OneDrive/Sam Docs/Psychology Program/AP Textbooks/Quantitative Methods","False","mono","False","18","no","white","no","yes","768","legacy","68","68","C:/Users/stcka/OneDrive/Sam Docs/Psychology Program/AP Textbooks/Quantitative Methods/SA-subject-1.csv","legacy","Melodramatic Milgram","4.0.5","0","s","NA","s","NA","NA","s","572.0","NA","7137","NA","NA","572","2","legacy","1024","2","48000","-16","experiment","HHSHH","1","odd","10559","NA","NA","84606","NA","NA","125477","124457","3421","NA","NA","125578","126152","125476","125577","3419","Flanker Effect Test","67","37560.0","69","1024"
"97","97","543","543","#3d3846","legacy","legacy","legacy","congruent","1","undefined","1","s","0","0","0","69","69","0","69","69","0","0","0","69","69","69","69","0","Mon Sep 18 14:52:55 2023","1500","The main experiment item","False","FlankerEffectTest.osexp","C:/Users/stcka/OneDrive/Sam Docs/Psychology Program/AP Textbooks/Quantitative Methods","False","mono","False","18","no","white","no","yes","768","legacy","69","69","C:/Users/stcka/OneDrive/Sam Docs/Psychology Program/AP Textbooks/Quantitative Methods/SA-subject-1.csv","legacy","Melodramatic Milgram","4.0.5","0","s","NA","s","NA","NA","s","496.0","NA","7137","NA","NA","496","2","legacy","1024","2","48000","-16","experiment","SSSSS","1","odd","10559","NA","NA","84606","NA","NA","127176","126156","3421","NA","NA","127277","127774","127175","127277","3419","Flanker Effect Test","68","38056.0","70","1024"
"97","97","542","542","#3d3846","legacy","legacy","legacy","incongruent","1","undefined","1","s","0","0","0","70","70","0","70","70","0","0","0","70","70","70","70","0","Mon Sep 18 14:52:55 2023","1500","The main experiment item","False","FlankerEffectTest.osexp","C:/Users/stcka/OneDrive/Sam Docs/Psychology Program/AP Textbooks/Quantitative Methods","False","mono","False","18","no","white","no","yes","768","legacy","70","70","C:/Users/stcka/OneDrive/Sam Docs/Psychology Program/AP Textbooks/Quantitative Methods/SA-subject-1.csv","legacy","Melodramatic Milgram","4.0.5","0","s","NA","s","NA","NA","s","486.0","NA","7137","NA","NA","486","2","legacy","1024","2","48000","-16","experiment","HHSHH","1","odd","10559","NA","NA","84606","NA","NA","128802","127779","3421","NA","NA","128903","129389","128800","128903","3419","Flanker Effect Test","69","38542.0","71","1024"
"97","97","542","542","#3d3846","legacy","legacy","legacy","congruent","1","undefined","1","h","0","0","0","71","71","0","71","71","0","0","0","71","71","71","71","0","Mon Sep 18 14:52:55 2023","1500","The main experiment item","False","FlankerEffectTest.osexp","C:/Users/stcka/OneDrive/Sam Docs/Psychology Program/AP Textbooks/Quantitative Methods","False","mono","False","18","no","white","no","yes","768","legacy","71","71","C:/Users/stcka/OneDrive/Sam Docs/Psychology Program/AP Textbooks/Quantitative Methods/SA-subject-1.csv","legacy","Melodramatic Milgram","4.0.5","0","h","NA","s","NA","NA","h","504.0","NA","7137","NA","NA","504","2","legacy","1024","2","48000","-16","experiment","HHHHH","1","odd","10559","NA","NA","84606","NA","NA","130419","129394","3421","NA","NA","130520","131025","130418","130520","3419","Flanker Effect Test","70","39046.0","72","1024"
"97","97","542","542","#3d3846","legacy","legacy","legacy","incongruent","1","undefined","1","h","0","0","0","72","72","0","72","72","0","0","0","72","72","72","72","0","Mon Sep 18 14:52:55 2023","1500","The main experiment item","False","FlankerEffectTest.osexp","C:/Users/stcka/OneDrive/Sam Docs/Psychology Program/AP Textbooks/Quantitative Methods","False","mono","False","18","no","white","no","yes","768","legacy","72","72","C:/Users/stcka/OneDrive/Sam Docs/Psychology Program/AP Textbooks/Quantitative Methods/SA-subject-1.csv","legacy","Melodramatic Milgram","4.0.5","0","h","NA","s","NA","NA","h","592.0","NA","7137","NA","NA","592","2","legacy","1024","2","48000","-16","experiment","SSHSS","1","odd","10559","NA","NA","84606","NA","NA","132052","131029","3421","NA","NA","132152","132745","132050","132152","3419","Flanker Effect Test","71","39638.0","73","1024"
"97","97","543","543","#3d3846","legacy","legacy","legacy","incongruent","1","undefined","1","s","0","0","0","73","73","0","73","73","0","0","0","73","73","73","73","0","Mon Sep 18 14:52:55 2023","1500","The main experiment item","False","FlankerEffectTest.osexp","C:/Users/stcka/OneDrive/Sam Docs/Psychology Program/AP Textbooks/Quantitative Methods","False","mono","False","18","no","white","no","yes","768","legacy","73","73","C:/Users/stcka/OneDrive/Sam Docs/Psychology Program/AP Textbooks/Quantitative Methods/SA-subject-1.csv","legacy","Melodramatic Milgram","4.0.5","0","s","NA","s","NA","NA","s","568.0","NA","7137","NA","NA","568","2","legacy","1024","2","48000","-16","experiment","HHSHH","1","odd","10559","NA","NA","84606","NA","NA","133773","132750","3421","NA","NA","133873","134442","133772","133873","3419","Flanker Effect Test","72","40206.0","74","1024"
"97","97","543","543","#3d3846","legacy","legacy","legacy","congruent","1","undefined","1","h","0","0","0","74","74","0","74","74","0","0","0","74","74","74","74","0","Mon Sep 18 14:52:55 2023","1500","The main experiment item","False","FlankerEffectTest.osexp","C:/Users/stcka/OneDrive/Sam Docs/Psychology Program/AP Textbooks/Quantitative Methods","False","mono","False","18","no","white","no","yes","768","legacy","74","74","C:/Users/stcka/OneDrive/Sam Docs/Psychology Program/AP Textbooks/Quantitative Methods/SA-subject-1.csv","legacy","Melodramatic Milgram","4.0.5","0","h","NA","s","NA","NA","h","571.0","NA","7137","NA","NA","571","2","legacy","1024","2","48000","-16","experiment","HHHHH","1","odd","10559","NA","NA","84606","NA","NA","135471","134447","3421","NA","NA","135572","136144","135470","135571","3419","Flanker Effect Test","73","40777.0","75","1024"
"97","97","536","536","#3d3846","legacy","legacy","legacy","incongruent","1","undefined","1","h","0","0","0","75","75","0","75","75","0","0","0","75","75","75","75","0","Mon Sep 18 14:52:55 2023","1500","The main experiment item","False","FlankerEffectTest.osexp","C:/Users/stcka/OneDrive/Sam Docs/Psychology Program/AP Textbooks/Quantitative Methods","False","mono","False","18","no","white","no","yes","768","legacy","75","75","C:/Users/stcka/OneDrive/Sam Docs/Psychology Program/AP Textbooks/Quantitative Methods/SA-subject-1.csv","legacy","Melodramatic Milgram","4.0.5","0","h","NA","s","NA","NA","h","1.0","NA","7137","NA","NA","1","2","legacy","1024","2","48000","-16","experiment","SSHSS","1","odd","10559","NA","NA","84606","NA","NA","137169","136149","3421","NA","NA","137269","137271","137168","137269","3419","Flanker Effect Test","74","40778.0","76","1024"
"97","97","539","539","#3d3846","legacy","legacy","legacy","incongruent","1","undefined","1","h","0","0","0","76","76","0","76","76","0","0","0","76","76","76","76","0","Mon Sep 18 14:52:55 2023","1500","The main experiment item","False","FlankerEffectTest.osexp","C:/Users/stcka/OneDrive/Sam Docs/Psychology Program/AP Textbooks/Quantitative Methods","False","mono","False","18","no","white","no","yes","768","legacy","76","76","C:/Users/stcka/OneDrive/Sam Docs/Psychology Program/AP Textbooks/Quantitative Methods/SA-subject-1.csv","legacy","Melodramatic Milgram","4.0.5","0","h","NA","s","NA","NA","h","739.0","NA","7137","NA","NA","739","2","legacy","1024","2","48000","-16","experiment","SSHSS","1","odd","10559","NA","NA","84606","NA","NA","138304","137276","3421","NA","NA","138404","139145","138302","138404","3419","Flanker Effect Test","75","41517.0","77","1024"
"97","97","540","540","#3d3846","legacy","legacy","legacy","incongruent","1","undefined","1","s","0","0","0","77","77","0","77","77","0","0","0","77","77","77","77","0","Mon Sep 18 14:52:55 2023","1500","The main experiment item","False","FlankerEffectTest.osexp","C:/Users/stcka/OneDrive/Sam Docs/Psychology Program/AP Textbooks/Quantitative Methods","False","mono","False","18","no","white","no","yes","768","legacy","77","77","C:/Users/stcka/OneDrive/Sam Docs/Psychology Program/AP Textbooks/Quantitative Methods/SA-subject-1.csv","legacy","Melodramatic Milgram","4.0.5","0","s","NA","s","NA","NA","s","622.0","NA","7137","NA","NA","622","2","legacy","1024","2","48000","-16","experiment","HHSHH","1","odd","10559","NA","NA","84606","NA","NA","140169","139149","3421","NA","NA","140269","140892","140167","140269","3419","Flanker Effect Test","76","42139.0","78","1024"
"97","97","540","540","#3d3846","legacy","legacy","legacy","incongruent","1","undefined","1","s","0","0","0","78","78","0","78","78","0","0","0","78","78","78","78","0","Mon Sep 18 14:52:55 2023","1500","The main experiment item","False","FlankerEffectTest.osexp","C:/Users/stcka/OneDrive/Sam Docs/Psychology Program/AP Textbooks/Quantitative Methods","False","mono","False","18","no","white","no","yes","768","legacy","78","78","C:/Users/stcka/OneDrive/Sam Docs/Psychology Program/AP Textbooks/Quantitative Methods/SA-subject-1.csv","legacy","Melodramatic Milgram","4.0.5","0","s","NA","s","NA","NA","s","526.0","NA","7137","NA","NA","526","2","legacy","1024","2","48000","-16","experiment","HHSHH","1","odd","10559","NA","NA","84606","NA","NA","141917","140897","3421","NA","NA","142018","142546","141916","142017","3419","Flanker Effect Test","77","42665.0","79","1024"
"97","97","540","540","#3d3846","legacy","legacy","legacy","incongruent","1","undefined","1","s","0","0","0","79","79","0","79","79","0","0","0","79","79","79","79","0","Mon Sep 18 14:52:55 2023","1500","The main experiment item","False","FlankerEffectTest.osexp","C:/Users/stcka/OneDrive/Sam Docs/Psychology Program/AP Textbooks/Quantitative Methods","False","mono","False","18","no","white","no","yes","768","legacy","79","79","C:/Users/stcka/OneDrive/Sam Docs/Psychology Program/AP Textbooks/Quantitative Methods/SA-subject-1.csv","legacy","Melodramatic Milgram","4.0.5","0","s","NA","s","NA","NA","s","572.0","NA","7137","NA","NA","572","2","legacy","1024","2","48000","-16","experiment","HHSHH","1","odd","10559","NA","NA","84606","NA","NA","143573","142550","3421","NA","NA","143674","144247","143571","143673","3419","Flanker Effect Test","78","43237.0","80","1024"
"97","97","541","541","#3d3846","legacy","legacy","legacy","congruent","1","undefined","1","h","0","0","0","80","80","0","80","80","0","0","0","80","80","80","80","0","Mon Sep 18 14:52:55 2023","600","The main experiment item","False","FlankerEffectTest.osexp","C:/Users/stcka/OneDrive/Sam Docs/Psychology Program/AP Textbooks/Quantitative Methods","False","mono","False","18","no","white","no","yes","768","legacy","0","79","C:/Users/stcka/OneDrive/Sam Docs/Psychology Program/AP Textbooks/Quantitative Methods/SA-subject-1.csv","legacy","Melodramatic Milgram","4.0.5","0","h","NA","s","s","NA","h","659.0","NA","7137","3909","NA","659","2","legacy","1024","2","48000","-16","experiment","HHHHH","1","odd","10559","149163","NA","84606","NA","NA","149204","144252","3421","145253","NA","149304","149963","149203","149304","3419","Flanker Effect Test","79","43896.0","81","1024"
"97","97","540","540","#3d3846","legacy","legacy","legacy","congruent","1","undefined","1","h","0","0","0","81","81","0","81","81","0","0","0","81","81","81","81","0","Mon Sep 18 14:52:55 2023","600","The main experiment item","False","FlankerEffectTest.osexp","C:/Users/stcka/OneDrive/Sam Docs/Psychology Program/AP Textbooks/Quantitative Methods","False","mono","False","18","no","white","no","yes","768","legacy","1","79","C:/Users/stcka/OneDrive/Sam Docs/Psychology Program/AP Textbooks/Quantitative Methods/SA-subject-1.csv","legacy","Melodramatic Milgram","4.0.5","0","h","NA","s","s","NA","h","432.0","NA","7137","3909","NA","432","2","legacy","1024","2","48000","-16","experiment","HHHHH","1","odd","10559","149163","NA","84606","149968","NA","151489","150469","3421","145253","NA","151590","152024","151487","151590","3419","Flanker Effect Test","80","44328.0","82","1024"
"97","97","539","539","#3d3846","legacy","legacy","legacy","congruent","1","undefined","1","h","0","0","0","82","82","0","82","82","0","0","0","82","82","82","82","0","Mon Sep 18 14:52:55 2023","600","The main experiment item","False","FlankerEffectTest.osexp","C:/Users/stcka/OneDrive/Sam Docs/Psychology Program/AP Textbooks/Quantitative Methods","False","mono","False","18","no","white","no","yes","768","legacy","2","79","C:/Users/stcka/OneDrive/Sam Docs/Psychology Program/AP Textbooks/Quantitative Methods/SA-subject-1.csv","legacy","Melodramatic Milgram","4.0.5","0","h","NA","s","s","NA","h","416.0","NA","7137","3909","NA","416","2","legacy","1024","2","48000","-16","experiment","HHHHH","1","odd","10559","149163","NA","84606","149968","NA","153053","152029","3421","145253","NA","153153","153570","153052","153153","3419","Flanker Effect Test","81","44744.0","83","1024"
"96","96","536","536","#3d3846","legacy","legacy","legacy","incongruent","0","undefined","0","h","0","0","0","83","83","0","83","83","0","0","0","83","83","83","83","0","Mon Sep 18 14:52:55 2023","600","The main experiment item","False","FlankerEffectTest.osexp","C:/Users/stcka/OneDrive/Sam Docs/Psychology Program/AP Textbooks/Quantitative Methods","False","mono","False","18","no","white","no","yes","768","legacy","3","79","C:/Users/stcka/OneDrive/Sam Docs/Psychology Program/AP Textbooks/Quantitative Methods/SA-subject-1.csv","legacy","Melodramatic Milgram","4.0.5","0","s","NA","s","s","NA","s","340.0","NA","7137","3909","NA","340","2","legacy","1024","2","48000","-16","experiment","SSHSS","1","odd","10559","149163","NA","84606","149968","NA","154598","153575","3421","145253","NA","154698","155040","154597","154698","3419","Flanker Effect Test","81","45084.0","84","1024"
"96","96","534","534","#3d3846","legacy","legacy","legacy","congruent","1","undefined","1","s","0","0","0","84","84","0","84","84","0","0","0","84","84","84","84","0","Mon Sep 18 14:52:55 2023","600","The main experiment item","False","FlankerEffectTest.osexp","C:/Users/stcka/OneDrive/Sam Docs/Psychology Program/AP Textbooks/Quantitative Methods","False","mono","False","18","no","white","no","yes","768","legacy","4","79","C:/Users/stcka/OneDrive/Sam Docs/Psychology Program/AP Textbooks/Quantitative Methods/SA-subject-1.csv","legacy","Melodramatic Milgram","4.0.5","0","s","NA","s","s","NA","s","336.0","NA","7137","3909","NA","336","2","legacy","1024","2","48000","-16","experiment","SSSSS","1","odd","10559","149163","NA","155044","149968","NA","156564","155544","3421","145253","NA","156664","157000","156563","156664","3419","Flanker Effect Test","82","45420.0","85","1024"
"96","96","533","533","#3d3846","legacy","legacy","legacy","congruent","1","undefined","1","h","0","0","0","85","85","0","85","85","0","0","0","85","85","85","85","0","Mon Sep 18 14:52:55 2023","600","The main experiment item","False","FlankerEffectTest.osexp","C:/Users/stcka/OneDrive/Sam Docs/Psychology Program/AP Textbooks/Quantitative Methods","False","mono","False","18","no","white","no","yes","768","legacy","5","79","C:/Users/stcka/OneDrive/Sam Docs/Psychology Program/AP Textbooks/Quantitative Methods/SA-subject-1.csv","legacy","Melodramatic Milgram","4.0.5","0","h","NA","s","s","NA","h","431.0","NA","7137","3909","NA","431","2","legacy","1024","2","48000","-16","experiment","HHHHH","1","odd","10559","149163","NA","155044","149968","NA","158026","157004","3421","145253","NA","158127","158559","158025","158127","3419","Flanker Effect Test","83","45851.0","86","1024"
"96","96","531","531","#3d3846","legacy","legacy","legacy","congruent","1","undefined","1","s","0","0","0","86","86","0","86","86","0","0","0","86","86","86","86","0","Mon Sep 18 14:52:55 2023","600","The main experiment item","False","FlankerEffectTest.osexp","C:/Users/stcka/OneDrive/Sam Docs/Psychology Program/AP Textbooks/Quantitative Methods","False","mono","False","18","no","white","no","yes","768","legacy","6","79","C:/Users/stcka/OneDrive/Sam Docs/Psychology Program/AP Textbooks/Quantitative Methods/SA-subject-1.csv","legacy","Melodramatic Milgram","4.0.5","0","s","NA","s","s","NA","s","346.0","NA","7137","3909","NA","346","2","legacy","1024","2","48000","-16","experiment","SSSSS","1","odd","10559","149163","NA","155044","149968","NA","159589","158564","3421","145253","NA","159690","160037","159588","159689","3419","Flanker Effect Test","84","46197.0","87","1024"
"96","96","529","529","#3d3846","legacy","legacy","legacy","congruent","1","undefined","1","s","0","0","0","87","87","0","87","87","0","0","0","87","87","87","87","0","Mon Sep 18 14:52:55 2023","600","The main experiment item","False","FlankerEffectTest.osexp","C:/Users/stcka/OneDrive/Sam Docs/Psychology Program/AP Textbooks/Quantitative Methods","False","mono","False","18","no","white","no","yes","768","legacy","7","79","C:/Users/stcka/OneDrive/Sam Docs/Psychology Program/AP Textbooks/Quantitative Methods/SA-subject-1.csv","legacy","Melodramatic Milgram","4.0.5","0","s","NA","s","s","NA","s","409.0","NA","7137","3909","NA","409","2","legacy","1024","2","48000","-16","experiment","SSSSS","1","odd","10559","149163","NA","155044","149968","NA","161060","160041","3421","145253","NA","161161","161571","161059","161160","3419","Flanker Effect Test","85","46606.0","88","1024"
"96","96","528","528","#3d3846","legacy","legacy","legacy","incongruent","1","undefined","1","s","0","0","0","88","88","0","88","88","0","0","0","88","88","88","88","0","Mon Sep 18 14:52:55 2023","600","The main experiment item","False","FlankerEffectTest.osexp","C:/Users/stcka/OneDrive/Sam Docs/Psychology Program/AP Textbooks/Quantitative Methods","False","mono","False","18","no","white","no","yes","768","legacy","8","79","C:/Users/stcka/OneDrive/Sam Docs/Psychology Program/AP Textbooks/Quantitative Methods/SA-subject-1.csv","legacy","Melodramatic Milgram","4.0.5","0","s","NA","s","s","NA","s","444.0","NA","7137","3909","NA","444","2","legacy","1024","2","48000","-16","experiment","HHSHH","1","odd","10559","149163","NA","155044","149968","NA","162599","161577","3421","145253","NA","162701","163146","162598","162701","3419","Flanker Effect Test","86","47050.0","89","1024"
"96","96","526","526","#3d3846","legacy","legacy","legacy","incongruent","1","undefined","1","h","0","0","0","89","89","0","89","89","0","0","0","89","89","89","89","0","Mon Sep 18 14:52:55 2023","600","The main experiment item","False","FlankerEffectTest.osexp","C:/Users/stcka/OneDrive/Sam Docs/Psychology Program/AP Textbooks/Quantitative Methods","False","mono","False","18","no","white","no","yes","768","legacy","9","79","C:/Users/stcka/OneDrive/Sam Docs/Psychology Program/AP Textbooks/Quantitative Methods/SA-subject-1.csv","legacy","Melodramatic Milgram","4.0.5","0","h","NA","s","s","NA","h","316.0","NA","7137","3909","NA","316","2","legacy","1024","2","48000","-16","experiment","SSHSS","1","odd","10559","149163","NA","155044","149968","NA","164169","163149","3421","145253","NA","164269","164585","164167","164269","3419","Flanker Effect Test","87","47366.0","90","1024"
"95","95","523","523","#3d3846","legacy","legacy","legacy","incongruent","0","undefined","0","h","0","0","0","90","90","0","90","90","0","0","0","90","90","90","90","0","Mon Sep 18 14:52:55 2023","600","The main experiment item","False","FlankerEffectTest.osexp","C:/Users/stcka/OneDrive/Sam Docs/Psychology Program/AP Textbooks/Quantitative Methods","False","mono","False","18","no","white","no","yes","768","legacy","10","79","C:/Users/stcka/OneDrive/Sam Docs/Psychology Program/AP Textbooks/Quantitative Methods/SA-subject-1.csv","legacy","Melodramatic Milgram","4.0.5","0","s","NA","s","s","NA","s","279.0","NA","7137","3909","NA","279","2","legacy","1024","2","48000","-16","experiment","SSHSS","1","odd","10559","149163","NA","155044","149968","NA","165611","164590","3421","145253","NA","165711","165991","165610","165711","3419","Flanker Effect Test","87","47645.0","91","1024"
"95","95","523","523","#3d3846","legacy","legacy","legacy","incongruent","1","undefined","1","h","0","0","0","91","91","0","91","91","0","0","0","91","91","91","91","0","Mon Sep 18 14:52:55 2023","600","The main experiment item","False","FlankerEffectTest.osexp","C:/Users/stcka/OneDrive/Sam Docs/Psychology Program/AP Textbooks/Quantitative Methods","False","mono","False","18","no","white","no","yes","768","legacy","11","79","C:/Users/stcka/OneDrive/Sam Docs/Psychology Program/AP Textbooks/Quantitative Methods/SA-subject-1.csv","legacy","Melodramatic Milgram","4.0.5","0","h","NA","s","s","NA","h","535.0","NA","7137","3909","NA","535","2","legacy","1024","2","48000","-16","experiment","SSHSS","1","odd","10559","149163","NA","165996","149968","NA","167516","166496","3421","145253","NA","167617","168153","167515","167616","3419","Flanker Effect Test","88","48180.0","92","1024"
"95","95","522","522","#3d3846","legacy","legacy","legacy","congruent","1","undefined","1","s","0","0","0","92","92","0","92","92","0","0","0","92","92","92","92","0","Mon Sep 18 14:52:55 2023","600","The main experiment item","False","FlankerEffectTest.osexp","C:/Users/stcka/OneDrive/Sam Docs/Psychology Program/AP Textbooks/Quantitative Methods","False","mono","False","18","no","white","no","yes","768","legacy","12","79","C:/Users/stcka/OneDrive/Sam Docs/Psychology Program/AP Textbooks/Quantitative Methods/SA-subject-1.csv","legacy","Melodramatic Milgram","4.0.5","0","s","NA","s","s","NA","s","414.0","NA","7137","3909","NA","414","2","legacy","1024","2","48000","-16","experiment","SSSSS","1","odd","10559","149163","NA","165996","149968","NA","169179","168158","3421","145253","NA","169280","169696","169177","169280","3419","Flanker Effect Test","89","48594.0","93","1024"
"95","95","521","521","#3d3846","legacy","legacy","legacy","incongruent","1","undefined","1","s","0","0","0","93","93","0","93","93","0","0","0","93","93","93","93","0","Mon Sep 18 14:52:55 2023","600","The main experiment item","False","FlankerEffectTest.osexp","C:/Users/stcka/OneDrive/Sam Docs/Psychology Program/AP Textbooks/Quantitative Methods","False","mono","False","18","no","white","no","yes","768","legacy","13","79","C:/Users/stcka/OneDrive/Sam Docs/Psychology Program/AP Textbooks/Quantitative Methods/SA-subject-1.csv","legacy","Melodramatic Milgram","4.0.5","0","s","NA","s","s","NA","s","459.0","NA","7137","3909","NA","459","2","legacy","1024","2","48000","-16","experiment","HHSHH","1","odd","10559","149163","NA","165996","149968","NA","170724","169701","3421","145253","NA","170825","171284","170723","170825","3419","Flanker Effect Test","90","49053.0","94","1024"
"95","95","520","520","#3d3846","legacy","legacy","legacy","congruent","1","undefined","1","h","0","0","0","94","94","0","94","94","0","0","0","94","94","94","94","0","Mon Sep 18 14:52:55 2023","600","The main experiment item","False","FlankerEffectTest.osexp","C:/Users/stcka/OneDrive/Sam Docs/Psychology Program/AP Textbooks/Quantitative Methods","False","mono","False","18","no","white","no","yes","768","legacy","14","79","C:/Users/stcka/OneDrive/Sam Docs/Psychology Program/AP Textbooks/Quantitative Methods/SA-subject-1.csv","legacy","Melodramatic Milgram","4.0.5","0","h","NA","s","s","NA","h","433.0","NA","7137","3909","NA","433","2","legacy","1024","2","48000","-16","experiment","HHHHH","1","odd","10559","149163","NA","165996","149968","NA","172317","171289","3421","145253","NA","172421","172856","172316","172421","3419","Flanker Effect Test","91","49486.0","95","1024"
"95","95","520","520","#3d3846","legacy","legacy","legacy","congruent","1","undefined","1","h","0","0","0","95","95","0","95","95","0","0","0","95","95","95","95","0","Mon Sep 18 14:52:55 2023","600","The main experiment item","False","FlankerEffectTest.osexp","C:/Users/stcka/OneDrive/Sam Docs/Psychology Program/AP Textbooks/Quantitative Methods","False","mono","False","18","no","white","no","yes","768","legacy","15","79","C:/Users/stcka/OneDrive/Sam Docs/Psychology Program/AP Textbooks/Quantitative Methods/SA-subject-1.csv","legacy","Melodramatic Milgram","4.0.5","0","h","NA","s","s","NA","h","436.0","NA","7137","3909","NA","436","2","legacy","1024","2","48000","-16","experiment","HHHHH","1","odd","10559","149163","NA","165996","149968","NA","173888","172861","3421","145253","NA","173989","174426","173886","173989","3419","Flanker Effect Test","92","49922.0","96","1024"
"95","95","519","519","#3d3846","legacy","legacy","legacy","incongruent","1","undefined","1","s","0","0","0","96","96","0","96","96","0","0","0","96","96","96","96","0","Mon Sep 18 14:52:55 2023","600","The main experiment item","False","FlankerEffectTest.osexp","C:/Users/stcka/OneDrive/Sam Docs/Psychology Program/AP Textbooks/Quantitative Methods","False","mono","False","18","no","white","no","yes","768","legacy","16","79","C:/Users/stcka/OneDrive/Sam Docs/Psychology Program/AP Textbooks/Quantitative Methods/SA-subject-1.csv","legacy","Melodramatic Milgram","4.0.5","0","s","NA","s","s","NA","s","468.0","NA","7137","3909","NA","468","2","legacy","1024","2","48000","-16","experiment","HHSHH","1","odd","10559","149163","NA","165996","149968","NA","175451","174430","3421","145253","NA","175552","176021","175449","175552","3419","Flanker Effect Test","93","50390.0","97","1024"
"95","95","518","518","#3d3846","legacy","legacy","legacy","congruent","1","undefined","1","s","0","0","0","97","97","0","97","97","0","0","0","97","97","97","97","0","Mon Sep 18 14:52:55 2023","600","The main experiment item","False","FlankerEffectTest.osexp","C:/Users/stcka/OneDrive/Sam Docs/Psychology Program/AP Textbooks/Quantitative Methods","False","mono","False","18","no","white","no","yes","768","legacy","17","79","C:/Users/stcka/OneDrive/Sam Docs/Psychology Program/AP Textbooks/Quantitative Methods/SA-subject-1.csv","legacy","Melodramatic Milgram","4.0.5","0","s","NA","s","s","NA","s","426.0","NA","7137","3909","NA","426","2","legacy","1024","2","48000","-16","experiment","SSSSS","1","odd","10559","149163","NA","165996","149968","NA","177046","176026","3421","145253","NA","177146","177573","177045","177146","3419","Flanker Effect Test","94","50816.0","98","1024"
"95","95","516","516","#3d3846","legacy","legacy","legacy","congruent","1","undefined","1","s","0","0","0","98","98","0","98","98","0","0","0","98","98","98","98","0","Mon Sep 18 14:52:55 2023","600","The main experiment item","False","FlankerEffectTest.osexp","C:/Users/stcka/OneDrive/Sam Docs/Psychology Program/AP Textbooks/Quantitative Methods","False","mono","False","18","no","white","no","yes","768","legacy","18","79","C:/Users/stcka/OneDrive/Sam Docs/Psychology Program/AP Textbooks/Quantitative Methods/SA-subject-1.csv","legacy","Melodramatic Milgram","4.0.5","0","s","NA","s","s","NA","s","346.0","NA","7137","3909","NA","346","2","legacy","1024","2","48000","-16","experiment","SSSSS","1","odd","10559","149163","NA","165996","149968","NA","178599","177579","3421","145253","NA","178700","179047","178597","178700","3419","Flanker Effect Test","95","51162.0","99","1024"
"95","95","515","515","#3d3846","legacy","legacy","legacy","incongruent","0","undefined","0","h","0","0","0","99","99","0","99","99","0","0","0","99","99","99","99","0","Mon Sep 18 14:52:55 2023","600","The main experiment item","False","FlankerEffectTest.osexp","C:/Users/stcka/OneDrive/Sam Docs/Psychology Program/AP Textbooks/Quantitative Methods","False","mono","False","18","no","white","no","yes","768","legacy","19","79","C:/Users/stcka/OneDrive/Sam Docs/Psychology Program/AP Textbooks/Quantitative Methods/SA-subject-1.csv","legacy","Melodramatic Milgram","4.0.5","0","s","NA","s","s","NA","s","437.0","NA","7137","3909","NA","437","2","legacy","1024","2","48000","-16","experiment","SSHSS","1","odd","10559","149163","NA","165996","149968","NA","180073","179052","3421","145253","NA","180174","180613","180071","180174","3419","Flanker Effect Test","95","51599.0","100","1024"
"95","95","514","514","#3d3846","legacy","legacy","legacy","congruent","1","undefined","1","h","0","0","0","100","100","0","100","100","0","0","0","100","100","100","100","0","Mon Sep 18 14:52:55 2023","600","The main experiment item","False","FlankerEffectTest.osexp","C:/Users/stcka/OneDrive/Sam Docs/Psychology Program/AP Textbooks/Quantitative Methods","False","mono","False","18","no","white","no","yes","768","legacy","20","79","C:/Users/stcka/OneDrive/Sam Docs/Psychology Program/AP Textbooks/Quantitative Methods/SA-subject-1.csv","legacy","Melodramatic Milgram","4.0.5","0","h","NA","s","s","NA","h","407.0","NA","7137","3909","NA","407","2","legacy","1024","2","48000","-16","experiment","HHHHH","1","odd","10559","149163","NA","180617","149968","NA","182139","181118","3421","145253","NA","182240","182648","182137","182240","3419","Flanker Effect Test","96","52006.0","101","1024"
"95","95","514","514","#3d3846","legacy","legacy","legacy","congruent","1","undefined","1","h","0","0","0","101","101","0","101","101","0","0","0","101","101","101","101","0","Mon Sep 18 14:52:55 2023","600","The main experiment item","False","FlankerEffectTest.osexp","C:/Users/stcka/OneDrive/Sam Docs/Psychology Program/AP Textbooks/Quantitative Methods","False","mono","False","18","no","white","no","yes","768","legacy","21","79","C:/Users/stcka/OneDrive/Sam Docs/Psychology Program/AP Textbooks/Quantitative Methods/SA-subject-1.csv","legacy","Melodramatic Milgram","4.0.5","0","h","NA","s","s","NA","h","448.0","NA","7137","3909","NA","448","2","legacy","1024","2","48000","-16","experiment","HHHHH","1","odd","10559","149163","NA","180617","149968","NA","183673","182653","3421","145253","NA","183774","184223","183671","183773","3419","Flanker Effect Test","97","52454.0","102","1024"
"95","95","514","514","#3d3846","legacy","legacy","legacy","incongruent","1","undefined","1","h","0","0","0","102","102","0","102","102","0","0","0","102","102","102","102","0","Mon Sep 18 14:52:55 2023","600","The main experiment item","False","FlankerEffectTest.osexp","C:/Users/stcka/OneDrive/Sam Docs/Psychology Program/AP Textbooks/Quantitative Methods","False","mono","False","18","no","white","no","yes","768","legacy","22","79","C:/Users/stcka/OneDrive/Sam Docs/Psychology Program/AP Textbooks/Quantitative Methods/SA-subject-1.csv","legacy","Melodramatic Milgram","4.0.5","0","h","NA","s","s","NA","h","555.0","NA","7137","3909","NA","555","2","legacy","1024","2","48000","-16","experiment","SSHSS","1","odd","10559","149163","NA","180617","149968","NA","185248","184228","3421","145253","NA","185349","185905","185247","185349","3419","Flanker Effect Test","98","53009.0","103","1024"
"95","95","513","513","#3d3846","legacy","legacy","legacy","congruent","1","undefined","1","s","0","0","0","103","103","0","103","103","0","0","0","103","103","103","103","0","Mon Sep 18 14:52:55 2023","600","The main experiment item","False","FlankerEffectTest.osexp","C:/Users/stcka/OneDrive/Sam Docs/Psychology Program/AP Textbooks/Quantitative Methods","False","mono","False","18","no","white","no","yes","768","legacy","23","79","C:/Users/stcka/OneDrive/Sam Docs/Psychology Program/AP Textbooks/Quantitative Methods/SA-subject-1.csv","legacy","Melodramatic Milgram","4.0.5","0","s","NA","s","s","NA","s","420.0","NA","7137","3909","NA","420","2","legacy","1024","2","48000","-16","experiment","SSSSS","1","odd","10559","149163","NA","180617","149968","NA","186939","185910","3421","145253","NA","187040","187461","186937","187040","3419","Flanker Effect Test","99","53429.0","104","1024"
"95","95","513","513","#3d3846","legacy","legacy","legacy","incongruent","1","undefined","1","s","0","0","0","104","104","0","104","104","0","0","0","104","104","104","104","0","Mon Sep 18 14:52:55 2023","600","The main experiment item","False","FlankerEffectTest.osexp","C:/Users/stcka/OneDrive/Sam Docs/Psychology Program/AP Textbooks/Quantitative Methods","False","mono","False","18","no","white","no","yes","768","legacy","24","79","C:/Users/stcka/OneDrive/Sam Docs/Psychology Program/AP Textbooks/Quantitative Methods/SA-subject-1.csv","legacy","Melodramatic Milgram","4.0.5","0","s","NA","s","s","NA","s","528.0","NA","7137","3909","NA","528","2","legacy","1024","2","48000","-16","experiment","HHSHH","1","odd","10559","149163","NA","180617","149968","NA","188493","187466","3421","145253","NA","188594","189123","188492","188593","3419","Flanker Effect Test","100","53957.0","105","1024"
"95","95","513","513","#3d3846","legacy","legacy","legacy","congruent","1","undefined","1","h","0","0","0","105","105","0","105","105","0","0","0","105","105","105","105","0","Mon Sep 18 14:52:55 2023","600","The main experiment item","False","FlankerEffectTest.osexp","C:/Users/stcka/OneDrive/Sam Docs/Psychology Program/AP Textbooks/Quantitative Methods","False","mono","False","18","no","white","no","yes","768","legacy","25","79","C:/Users/stcka/OneDrive/Sam Docs/Psychology Program/AP Textbooks/Quantitative Methods/SA-subject-1.csv","legacy","Melodramatic Milgram","4.0.5","0","h","NA","s","s","NA","h","451.0","NA","7137","3909","NA","451","2","legacy","1024","2","48000","-16","experiment","HHHHH","1","odd","10559","149163","NA","180617","149968","NA","190147","189127","3421","145253","NA","190248","190700","190145","190248","3419","Flanker Effect Test","101","54408.0","106","1024"
"95","95","512","512","#3d3846","legacy","legacy","legacy","incongruent","1","undefined","1","s","0","0","0","106","106","0","106","106","0","0","0","106","106","106","106","0","Mon Sep 18 14:52:55 2023","600","The main experiment item","False","FlankerEffectTest.osexp","C:/Users/stcka/OneDrive/Sam Docs/Psychology Program/AP Textbooks/Quantitative Methods","False","mono","False","18","no","white","no","yes","768","legacy","26","79","C:/Users/stcka/OneDrive/Sam Docs/Psychology Program/AP Textbooks/Quantitative Methods/SA-subject-1.csv","legacy","Melodramatic Milgram","4.0.5","0","s","NA","s","s","NA","s","416.0","NA","7137","3909","NA","416","2","legacy","1024","2","48000","-16","experiment","HHSHH","1","odd","10559","149163","NA","180617","149968","NA","191725","190705","3421","145253","NA","191826","192243","191724","191826","3419","Flanker Effect Test","102","54824.0","107","1024"
"95","95","511","511","#3d3846","legacy","legacy","legacy","congruent","1","undefined","1","h","0","0","0","107","107","0","107","107","0","0","0","107","107","107","107","0","Mon Sep 18 14:52:55 2023","600","The main experiment item","False","FlankerEffectTest.osexp","C:/Users/stcka/OneDrive/Sam Docs/Psychology Program/AP Textbooks/Quantitative Methods","False","mono","False","18","no","white","no","yes","768","legacy","27","79","C:/Users/stcka/OneDrive/Sam Docs/Psychology Program/AP Textbooks/Quantitative Methods/SA-subject-1.csv","legacy","Melodramatic Milgram","4.0.5","0","h","NA","s","s","NA","h","418.0","NA","7137","3909","NA","418","2","legacy","1024","2","48000","-16","experiment","HHHHH","1","odd","10559","149163","NA","180617","149968","NA","193270","192248","3421","145253","NA","193370","193790","193268","193370","3419","Flanker Effect Test","103","55242.0","108","1024"
"95","95","510","510","#3d3846","legacy","legacy","legacy","congruent","1","undefined","1","s","0","0","0","108","108","0","108","108","0","0","0","108","108","108","108","0","Mon Sep 18 14:52:55 2023","600","The main experiment item","False","FlankerEffectTest.osexp","C:/Users/stcka/OneDrive/Sam Docs/Psychology Program/AP Textbooks/Quantitative Methods","False","mono","False","18","no","white","no","yes","768","legacy","28","79","C:/Users/stcka/OneDrive/Sam Docs/Psychology Program/AP Textbooks/Quantitative Methods/SA-subject-1.csv","legacy","Melodramatic Milgram","4.0.5","0","s","NA","s","s","NA","s","385.0","NA","7137","3909","NA","385","2","legacy","1024","2","48000","-16","experiment","SSSSS","1","odd","10559","149163","NA","180617","149968","NA","194815","193794","3421","145253","NA","194916","195302","194814","194916","3419","Flanker Effect Test","104","55627.0","109","1024"
"95","95","509","509","#3d3846","legacy","legacy","legacy","congruent","1","undefined","1","s","0","0","0","109","109","0","109","109","0","0","0","109","109","109","109","0","Mon Sep 18 14:52:55 2023","600","The main experiment item","False","FlankerEffectTest.osexp","C:/Users/stcka/OneDrive/Sam Docs/Psychology Program/AP Textbooks/Quantitative Methods","False","mono","False","18","no","white","no","yes","768","legacy","29","79","C:/Users/stcka/OneDrive/Sam Docs/Psychology Program/AP Textbooks/Quantitative Methods/SA-subject-1.csv","legacy","Melodramatic Milgram","4.0.5","0","s","NA","s","s","NA","s","396.0","NA","7137","3909","NA","396","2","legacy","1024","2","48000","-16","experiment","SSSSS","1","odd","10559","149163","NA","180617","149968","NA","196333","195306","3421","145253","NA","196434","196832","196331","196434","3419","Flanker Effect Test","105","56023.0","110","1024"
"95","95","508","508","#3d3846","legacy","legacy","legacy","incongruent","1","undefined","1","h","0","0","0","110","110","0","110","110","0","0","0","110","110","110","110","0","Mon Sep 18 14:52:55 2023","600","The main experiment item","False","FlankerEffectTest.osexp","C:/Users/stcka/OneDrive/Sam Docs/Psychology Program/AP Textbooks/Quantitative Methods","False","mono","False","18","no","white","no","yes","768","legacy","30","79","C:/Users/stcka/OneDrive/Sam Docs/Psychology Program/AP Textbooks/Quantitative Methods/SA-subject-1.csv","legacy","Melodramatic Milgram","4.0.5","0","h","NA","s","s","NA","h","414.0","NA","7137","3909","NA","414","2","legacy","1024","2","48000","-16","experiment","SSHSS","1","odd","10559","149163","NA","180617","149968","NA","197866","196838","3421","145253","NA","197966","198382","197865","197966","3419","Flanker Effect Test","106","56437.0","111","1024"
"95","95","507","507","#3d3846","legacy","legacy","legacy","congruent","1","undefined","1","s","0","0","0","111","111","0","111","111","0","0","0","111","111","111","111","0","Mon Sep 18 14:52:55 2023","600","The main experiment item","False","FlankerEffectTest.osexp","C:/Users/stcka/OneDrive/Sam Docs/Psychology Program/AP Textbooks/Quantitative Methods","False","mono","False","18","no","white","no","yes","768","legacy","31","79","C:/Users/stcka/OneDrive/Sam Docs/Psychology Program/AP Textbooks/Quantitative Methods/SA-subject-1.csv","legacy","Melodramatic Milgram","4.0.5","0","s","NA","s","s","NA","s","456.0","NA","7137","3909","NA","456","2","legacy","1024","2","48000","-16","experiment","SSSSS","1","odd","10559","149163","NA","180617","149968","NA","199406","198386","3421","145253","NA","199507","199964","199405","199506","3419","Flanker Effect Test","107","56893.0","112","1024"
