acc,accuracy,average_response_time,avg_rt,background,canvas_backend,clock_backend,color_backend,compensation,condition,coordinates,correct,correct_instructions1,correct_keyboard_response,correct_response,count_Block1,count_Block2,count_Block3,count_ISI,count_errorFeedback,count_experiment,count_faster,count_finish,count_fixation,count_instructions1,count_instructions3,count_instrutions2,count_keyboard_response,count_logger,count_sequence,count_stimulus,datetime,deadline,description,disable_garbage_collection,experiment_file,experiment_path,font_bold,font_family,font_italic,font_size,font_underline,foreground,form_clicks,fullscreen,height,keyboard_backend,live_row,live_row_Block1,logfile,mouse_backend,opensesame_codename,opensesame_version,repeat_cycle,response,response_finish,response_instructions1,response_instructions3,response_instrutions2,response_keyboard_response,response_time,response_time_finish,response_time_instructions1,response_time_instructions3,response_time_instrutions2,response_time_keyboard_response,round_decimals,sampler_backend,sound_buf_size,sound_channels,sound_freq,sound_sample_size,start,stimulus,subject_nr,subject_parity,time_Block1,time_Block2,time_Block3,time_ISI,time_errorFeedback,time_experiment,time_faster,time_finish,time_fixation,time_instructions1,time_instructions3,time_instrutions2,time_keyboard_response,time_logger,time_sequence,time_stimulus,title,total_correct,total_response_time,total_responses,uniform_coordinates,width
100,100,819,819,black,legacy,legacy,legacy,0,incongruent,uniform,1,undefined,1,h,0,0,0,0,0,0,0,0,0,0,0,0,0,0,0,0,Sun Sep 24 12:33:15 2023,1500,The main experiment item,yes,Flankertask.osexp,/Users/Thingtwo/Desktop,no,mono,no,18,no,white,no,yes,768,legacy,0,0,/Users/Thingtwo/Desktop/NC-subject-2.csv,legacy,Lentiform Loewenfeld,3.3.14,0,h,NA,h,NA,NA,h,819,NA,9439,NA,NA,819,2,legacy,1024,2,48000,-16,experiment,SSHSS,2,even,11550,NA,NA,NA,NA,2077,NA,NA,11580,2104,NA,NA,11686,12512,11575,11686,New experiment,1,819,1,yes,1024
100,100,639.5,639.5,black,legacy,legacy,legacy,0,incongruent,uniform,1,undefined,1,h,0,0,0,1,1,0,1,0,1,0,0,0,1,1,1,1,Sun Sep 24 12:33:15 2023,1500,The main experiment item,yes,Flankertask.osexp,/Users/Thingtwo/Desktop,no,mono,no,18,no,white,no,yes,768,legacy,1,1,/Users/Thingtwo/Desktop/NC-subject-2.csv,legacy,Lentiform Loewenfeld,3.3.14,0,h,NA,h,NA,NA,h,460,NA,9439,NA,NA,460,2,legacy,1024,2,48000,-16,experiment,SSHSS,2,even,11550,NA,NA,12518,NA,2077,NA,NA,13580,2104,NA,NA,13687,14147,13572,13687,New experiment,2,1279,2,yes,1024
100,100,544,544,black,legacy,legacy,legacy,0,incongruent,uniform,1,undefined,1,h,0,0,0,2,2,0,2,0,2,0,0,0,2,2,2,2,Sun Sep 24 12:33:15 2023,1500,The main experiment item,yes,Flankertask.osexp,/Users/Thingtwo/Desktop,no,mono,no,18,no,white,no,yes,768,legacy,2,2,/Users/Thingtwo/Desktop/NC-subject-2.csv,legacy,Lentiform Loewenfeld,3.3.14,0,h,NA,h,NA,NA,h,353,NA,9439,NA,NA,353,2,legacy,1024,2,48000,-16,experiment,SSHSS,2,even,11550,NA,NA,14152,NA,2077,NA,NA,15207,2104,NA,NA,15314,15667,15200,15314,New experiment,3,1632,3,yes,1024
100,100,517,517,black,legacy,legacy,legacy,0,congruent,uniform,1,undefined,1,h,0,0,0,3,3,0,3,0,3,0,0,0,3,3,3,3,Sun Sep 24 12:33:15 2023,1500,The main experiment item,yes,Flankertask.osexp,/Users/Thingtwo/Desktop,no,mono,no,18,no,white,no,yes,768,legacy,3,3,/Users/Thingtwo/Desktop/NC-subject-2.csv,legacy,Lentiform Loewenfeld,3.3.14,0,h,NA,h,NA,NA,h,436,NA,9439,NA,NA,436,2,legacy,1024,2,48000,-16,experiment,HHHHH,2,even,11550,NA,NA,15672,NA,2077,NA,NA,16725,2104,NA,NA,16831,17267,16717,16831,New experiment,4,2068,4,yes,1024
100,100,489,489,black,legacy,legacy,legacy,0,incongruent,uniform,1,undefined,1,h,0,0,0,4,4,0,4,0,4,0,0,0,4,4,4,4,Sun Sep 24 12:33:15 2023,1500,The main experiment item,yes,Flankertask.osexp,/Users/Thingtwo/Desktop,no,mono,no,18,no,white,no,yes,768,legacy,4,4,/Users/Thingtwo/Desktop/NC-subject-2.csv,legacy,Lentiform Loewenfeld,3.3.14,0,h,NA,h,NA,NA,h,377,NA,9439,NA,NA,377,2,legacy,1024,2,48000,-16,experiment,SSHSS,2,even,11550,NA,NA,17272,NA,2077,NA,NA,18322,2104,NA,NA,18428,18805,18316,18428,New experiment,5,2445,5,yes,1024
100,100,475.6666667,475.6666667,black,legacy,legacy,legacy,0,incongruent,uniform,1,undefined,1,h,0,0,0,5,5,0,5,0,5,0,0,0,5,5,5,5,Sun Sep 24 12:33:15 2023,1500,The main experiment item,yes,Flankertask.osexp,/Users/Thingtwo/Desktop,no,mono,no,18,no,white,no,yes,768,legacy,5,5,/Users/Thingtwo/Desktop/NC-subject-2.csv,legacy,Lentiform Loewenfeld,3.3.14,0,h,NA,h,NA,NA,h,409,NA,9439,NA,NA,409,2,legacy,1024,2,48000,-16,experiment,SSHSS,2,even,11550,NA,NA,18810,NA,2077,NA,NA,19859,2104,NA,NA,19966,20375,19853,19966,New experiment,6,2854,6,yes,1024
100,100,462.5714286,462.5714286,black,legacy,legacy,legacy,0,congruent,uniform,1,undefined,1,s,0,0,0,6,6,0,6,0,6,0,0,0,6,6,6,6,Sun Sep 24 12:33:15 2023,1500,The main experiment item,yes,Flankertask.osexp,/Users/Thingtwo/Desktop,no,mono,no,18,no,white,no,yes,768,legacy,6,6,/Users/Thingtwo/Desktop/NC-subject-2.csv,legacy,Lentiform Loewenfeld,3.3.14,0,s,NA,h,NA,NA,s,384,NA,9439,NA,NA,384,2,legacy,1024,2,48000,-16,experiment,SSSSS,2,even,11550,NA,NA,20380,NA,2077,NA,NA,21429,2104,NA,NA,21536,21920,21423,21536,New experiment,7,3238,7,yes,1024
100,100,449.75,449.75,black,legacy,legacy,legacy,0,congruent,uniform,1,undefined,1,s,0,0,0,7,7,0,7,0,7,0,0,0,7,7,7,7,Sun Sep 24 12:33:15 2023,1500,The main experiment item,yes,Flankertask.osexp,/Users/Thingtwo/Desktop,no,mono,no,18,no,white,no,yes,768,legacy,7,7,/Users/Thingtwo/Desktop/NC-subject-2.csv,legacy,Lentiform Loewenfeld,3.3.14,0,s,NA,h,NA,NA,s,360,NA,9439,NA,NA,360,2,legacy,1024,2,48000,-16,experiment,SSSSS,2,even,11550,NA,NA,21925,NA,2077,NA,NA,22973,2104,NA,NA,23079,23440,22967,23079,New experiment,8,3598,8,yes,1024
100,100,442.3333333,442.3333333,black,legacy,legacy,legacy,0,incongruent,uniform,1,undefined,1,s,0,0,0,8,8,0,8,0,8,0,0,0,8,8,8,8,Sun Sep 24 12:33:15 2023,1500,The main experiment item,yes,Flankertask.osexp,/Users/Thingtwo/Desktop,no,mono,no,18,no,white,no,yes,768,legacy,8,8,/Users/Thingtwo/Desktop/NC-subject-2.csv,legacy,Lentiform Loewenfeld,3.3.14,0,s,NA,h,NA,NA,s,383,NA,9439,NA,NA,383,2,legacy,1024,2,48000,-16,experiment,HHSHH,2,even,11550,NA,NA,23444,NA,2077,NA,NA,24494,2104,NA,NA,24601,24984,24488,24601,New experiment,9,3981,9,yes,1024
90,90,430,430,black,legacy,legacy,legacy,0,incongruent,uniform,0,undefined,0,h,0,0,0,9,9,0,9,0,9,0,0,0,9,9,9,9,Sun Sep 24 12:33:15 2023,1500,The main experiment item,yes,Flankertask.osexp,/Users/Thingtwo/Desktop,no,mono,no,18,no,white,no,yes,768,legacy,9,9,/Users/Thingtwo/Desktop/NC-subject-2.csv,legacy,Lentiform Loewenfeld,3.3.14,0,s,NA,h,NA,NA,s,319,NA,9439,NA,NA,319,2,legacy,1024,2,48000,-16,experiment,SSHSS,2,even,11550,NA,NA,24988,NA,2077,NA,NA,26037,2104,NA,NA,26144,26464,26031,26143,New experiment,9,4300,10,yes,1024
90.90909091,90.90909091,431.3636364,431.3636364,black,legacy,legacy,legacy,0,congruent,uniform,1,undefined,1,s,0,0,0,10,10,0,10,0,10,0,0,0,10,10,10,10,Sun Sep 24 12:33:15 2023,1500,The main experiment item,yes,Flankertask.osexp,/Users/Thingtwo/Desktop,no,mono,no,18,no,white,no,yes,768,legacy,10,10,/Users/Thingtwo/Desktop/NC-subject-2.csv,legacy,Lentiform Loewenfeld,3.3.14,0,s,NA,h,NA,NA,s,445,NA,9439,NA,NA,445,2,legacy,1024,2,48000,-16,experiment,SSSSS,2,even,11550,NA,NA,26978,26468,2077,NA,NA,28026,2104,NA,NA,28133,28578,28021,28133,New experiment,10,4745,11,yes,1024
91.66666667,91.66666667,429.8333333,429.8333333,black,legacy,legacy,legacy,0,incongruent,uniform,1,undefined,1,h,0,0,0,11,11,0,11,0,11,0,0,0,11,11,11,11,Sun Sep 24 12:33:15 2023,1500,The main experiment item,yes,Flankertask.osexp,/Users/Thingtwo/Desktop,no,mono,no,18,no,white,no,yes,768,legacy,11,11,/Users/Thingtwo/Desktop/NC-subject-2.csv,legacy,Lentiform Loewenfeld,3.3.14,0,h,NA,h,NA,NA,h,413,NA,9439,NA,NA,413,2,legacy,1024,2,48000,-16,experiment,SSHSS,2,even,11550,NA,NA,28583,26468,2077,NA,NA,29630,2104,NA,NA,29738,30152,29625,29738,New experiment,11,5158,12,yes,1024
92.30769231,92.30769231,425.7692308,425.7692308,black,legacy,legacy,legacy,0,congruent,uniform,1,undefined,1,s,0,0,0,12,12,0,12,0,12,0,0,0,12,12,12,12,Sun Sep 24 12:33:15 2023,1500,The main experiment item,yes,Flankertask.osexp,/Users/Thingtwo/Desktop,no,mono,no,18,no,white,no,yes,768,legacy,12,12,/Users/Thingtwo/Desktop/NC-subject-2.csv,legacy,Lentiform Loewenfeld,3.3.14,0,s,NA,h,NA,NA,s,377,NA,9439,NA,NA,377,2,legacy,1024,2,48000,-16,experiment,SSSSS,2,even,11550,NA,NA,30156,26468,2077,NA,NA,31205,2104,NA,NA,31311,31688,31199,31311,New experiment,12,5535,13,yes,1024
92.85714286,92.85714286,426.7142857,426.7142857,black,legacy,legacy,legacy,0,incongruent,uniform,1,undefined,1,h,0,0,0,13,13,0,13,0,13,0,0,0,13,13,13,13,Sun Sep 24 12:33:15 2023,1500,The main experiment item,yes,Flankertask.osexp,/Users/Thingtwo/Desktop,no,mono,no,18,no,white,no,yes,768,legacy,13,13,/Users/Thingtwo/Desktop/NC-subject-2.csv,legacy,Lentiform Loewenfeld,3.3.14,0,h,NA,h,NA,NA,h,439,NA,9439,NA,NA,439,2,legacy,1024,2,48000,-16,experiment,SSHSS,2,even,11550,NA,NA,31693,26468,2077,NA,NA,32741,2104,NA,NA,32848,33287,32735,32847,New experiment,13,5974,14,yes,1024
93.33333333,93.33333333,423.0666667,423.0666667,black,legacy,legacy,legacy,0,incongruent,uniform,1,undefined,1,s,0,0,0,14,14,0,14,0,14,0,0,0,14,14,14,14,Sun Sep 24 12:33:15 2023,1500,The main experiment item,yes,Flankertask.osexp,/Users/Thingtwo/Desktop,no,mono,no,18,no,white,no,yes,768,legacy,14,14,/Users/Thingtwo/Desktop/NC-subject-2.csv,legacy,Lentiform Loewenfeld,3.3.14,0,s,NA,h,NA,NA,s,372,NA,9439,NA,NA,372,2,legacy,1024,2,48000,-16,experiment,HHSHH,2,even,11550,NA,NA,33292,26468,2077,NA,NA,34342,2104,NA,NA,34448,34820,34336,34448,New experiment,14,6346,15,yes,1024
93.75,93.75,417.0625,417.0625,black,legacy,legacy,legacy,0,congruent,uniform,1,undefined,1,h,0,0,0,15,15,0,15,0,15,0,0,0,15,15,15,15,Sun Sep 24 12:33:15 2023,1500,The main experiment item,yes,Flankertask.osexp,/Users/Thingtwo/Desktop,no,mono,no,18,no,white,no,yes,768,legacy,15,15,/Users/Thingtwo/Desktop/NC-subject-2.csv,legacy,Lentiform Loewenfeld,3.3.14,0,h,NA,h,NA,NA,h,327,NA,9439,NA,NA,327,2,legacy,1024,2,48000,-16,experiment,HHHHH,2,even,11550,NA,NA,34824,26468,2077,NA,NA,35872,2104,NA,NA,35979,36306,35866,35978,New experiment,15,6673,16,yes,1024
94.11764706,94.11764706,413,413,black,legacy,legacy,legacy,0,congruent,uniform,1,undefined,1,s,0,0,0,16,16,0,16,0,16,0,0,0,16,16,16,16,Sun Sep 24 12:33:15 2023,1500,The main experiment item,yes,Flankertask.osexp,/Users/Thingtwo/Desktop,no,mono,no,18,no,white,no,yes,768,legacy,16,16,/Users/Thingtwo/Desktop/NC-subject-2.csv,legacy,Lentiform Loewenfeld,3.3.14,0,s,NA,h,NA,NA,s,348,NA,9439,NA,NA,348,2,legacy,1024,2,48000,-16,experiment,SSSSS,2,even,11550,NA,NA,36311,26468,2077,NA,NA,37359,2104,NA,NA,37466,37815,37353,37466,New experiment,16,7021,17,yes,1024
94.44444444,94.44444444,408.1111111,408.1111111,black,legacy,legacy,legacy,0,congruent,uniform,1,undefined,1,s,0,0,0,17,17,0,17,0,17,0,0,0,17,17,17,17,Sun Sep 24 12:33:15 2023,1500,The main experiment item,yes,Flankertask.osexp,/Users/Thingtwo/Desktop,no,mono,no,18,no,white,no,yes,768,legacy,17,17,/Users/Thingtwo/Desktop/NC-subject-2.csv,legacy,Lentiform Loewenfeld,3.3.14,0,s,NA,h,NA,NA,s,325,NA,9439,NA,NA,325,2,legacy,1024,2,48000,-16,experiment,SSSSS,2,even,11550,NA,NA,37819,26468,2077,NA,NA,38868,2104,NA,NA,38975,39300,38862,38974,New experiment,17,7346,18,yes,1024
94.73684211,94.73684211,403.8947368,403.8947368,black,legacy,legacy,legacy,0,incongruent,uniform,1,undefined,1,h,0,0,0,18,18,0,18,0,18,0,0,0,18,18,18,18,Sun Sep 24 12:33:15 2023,1500,The main experiment item,yes,Flankertask.osexp,/Users/Thingtwo/Desktop,no,mono,no,18,no,white,no,yes,768,legacy,18,18,/Users/Thingtwo/Desktop/NC-subject-2.csv,legacy,Lentiform Loewenfeld,3.3.14,0,h,NA,h,NA,NA,h,328,NA,9439,NA,NA,328,2,legacy,1024,2,48000,-16,experiment,SSHSS,2,even,11550,NA,NA,39305,26468,2077,NA,NA,40355,2104,NA,NA,40462,40790,40349,40462,New experiment,18,7674,19,yes,1024
95,95,400.6,400.6,black,legacy,legacy,legacy,0,incongruent,uniform,1,undefined,1,h,0,0,0,19,19,0,19,0,19,0,0,0,19,19,19,19,Sun Sep 24 12:33:15 2023,1500,The main experiment item,yes,Flankertask.osexp,/Users/Thingtwo/Desktop,no,mono,no,18,no,white,no,yes,768,legacy,19,19,/Users/Thingtwo/Desktop/NC-subject-2.csv,legacy,Lentiform Loewenfeld,3.3.14,0,h,NA,h,NA,NA,h,338,NA,9439,NA,NA,338,2,legacy,1024,2,48000,-16,experiment,SSHSS,2,even,11550,NA,NA,40795,26468,2077,NA,NA,41846,2104,NA,NA,41952,42291,41840,41952,New experiment,19,8012,20,yes,1024
95.23809524,95.23809524,400.952381,400.952381,black,legacy,legacy,legacy,0,incongruent,uniform,1,undefined,1,s,0,0,0,20,20,0,20,0,20,0,0,0,20,20,20,20,Sun Sep 24 12:33:15 2023,1500,The main experiment item,yes,Flankertask.osexp,/Users/Thingtwo/Desktop,no,mono,no,18,no,white,no,yes,768,legacy,20,20,/Users/Thingtwo/Desktop/NC-subject-2.csv,legacy,Lentiform Loewenfeld,3.3.14,0,s,NA,h,NA,NA,s,408,NA,9439,NA,NA,408,2,legacy,1024,2,48000,-16,experiment,HHSHH,2,even,11550,NA,NA,42295,26468,2077,NA,NA,43345,2104,NA,NA,43451,43860,43339,43451,New experiment,20,8420,21,yes,1024
95.45454545,95.45454545,398.8636364,398.8636364,black,legacy,legacy,legacy,0,congruent,uniform,1,undefined,1,h,0,0,0,21,21,0,21,0,21,0,0,0,21,21,21,21,Sun Sep 24 12:33:15 2023,1500,The main experiment item,yes,Flankertask.osexp,/Users/Thingtwo/Desktop,no,mono,no,18,no,white,no,yes,768,legacy,21,21,/Users/Thingtwo/Desktop/NC-subject-2.csv,legacy,Lentiform Loewenfeld,3.3.14,0,h,NA,h,NA,NA,h,355,NA,9439,NA,NA,355,2,legacy,1024,2,48000,-16,experiment,HHHHH,2,even,11550,NA,NA,43864,26468,2077,NA,NA,44912,2104,NA,NA,45019,45374,44906,45019,New experiment,21,8775,22,yes,1024
95.65217391,95.65217391,399.9130435,399.9130435,black,legacy,legacy,legacy,0,congruent,uniform,1,undefined,1,s,0,0,0,22,22,0,22,0,22,0,0,0,22,22,22,22,Sun Sep 24 12:33:15 2023,1500,The main experiment item,yes,Flankertask.osexp,/Users/Thingtwo/Desktop,no,mono,no,18,no,white,no,yes,768,legacy,22,22,/Users/Thingtwo/Desktop/NC-subject-2.csv,legacy,Lentiform Loewenfeld,3.3.14,0,s,NA,h,NA,NA,s,423,NA,9439,NA,NA,423,2,legacy,1024,2,48000,-16,experiment,SSSSS,2,even,11550,NA,NA,45379,26468,2077,NA,NA,46428,2104,NA,NA,46535,46958,46422,46534,New experiment,22,9198,23,yes,1024
95.83333333,95.83333333,397.9166667,397.9166667,black,legacy,legacy,legacy,0,congruent,uniform,1,undefined,1,h,0,0,0,23,23,0,23,0,23,0,0,0,23,23,23,23,Sun Sep 24 12:33:15 2023,1500,The main experiment item,yes,Flankertask.osexp,/Users/Thingtwo/Desktop,no,mono,no,18,no,white,no,yes,768,legacy,23,23,/Users/Thingtwo/Desktop/NC-subject-2.csv,legacy,Lentiform Loewenfeld,3.3.14,0,h,NA,h,NA,NA,h,352,NA,9439,NA,NA,352,2,legacy,1024,2,48000,-16,experiment,HHHHH,2,even,11550,NA,NA,46963,26468,2077,NA,NA,48011,2104,NA,NA,48118,48470,48005,48117,New experiment,23,9550,24,yes,1024
96,96,398,398,black,legacy,legacy,legacy,0,congruent,uniform,1,undefined,1,h,0,0,0,24,24,0,24,0,24,0,0,0,24,24,24,24,Sun Sep 24 12:33:15 2023,1500,The main experiment item,yes,Flankertask.osexp,/Users/Thingtwo/Desktop,no,mono,no,18,no,white,no,yes,768,legacy,24,24,/Users/Thingtwo/Desktop/NC-subject-2.csv,legacy,Lentiform Loewenfeld,3.3.14,0,h,NA,h,NA,NA,h,400,NA,9439,NA,NA,400,2,legacy,1024,2,48000,-16,experiment,HHHHH,2,even,11550,NA,NA,48475,26468,2077,NA,NA,49523,2104,NA,NA,49629,50030,49517,49629,New experiment,24,9950,25,yes,1024
96.15384615,96.15384615,397.6153846,397.6153846,black,legacy,legacy,legacy,0,incongruent,uniform,1,undefined,1,s,0,0,0,25,25,0,25,0,25,0,0,0,25,25,25,25,Sun Sep 24 12:33:15 2023,1500,The main experiment item,yes,Flankertask.osexp,/Users/Thingtwo/Desktop,no,mono,no,18,no,white,no,yes,768,legacy,25,25,/Users/Thingtwo/Desktop/NC-subject-2.csv,legacy,Lentiform Loewenfeld,3.3.14,0,s,NA,h,NA,NA,s,388,NA,9439,NA,NA,388,2,legacy,1024,2,48000,-16,experiment,HHSHH,2,even,11550,NA,NA,50034,26468,2077,NA,NA,51082,2104,NA,NA,51189,51578,51076,51188,New experiment,25,10338,26,yes,1024
96.2962963,96.2962963,395.037037,395.037037,black,legacy,legacy,legacy,0,incongruent,uniform,1,undefined,1,s,0,0,0,26,26,0,26,0,26,0,0,0,26,26,26,26,Sun Sep 24 12:33:15 2023,1500,The main experiment item,yes,Flankertask.osexp,/Users/Thingtwo/Desktop,no,mono,no,18,no,white,no,yes,768,legacy,26,26,/Users/Thingtwo/Desktop/NC-subject-2.csv,legacy,Lentiform Loewenfeld,3.3.14,0,s,NA,h,NA,NA,s,328,NA,9439,NA,NA,328,2,legacy,1024,2,48000,-16,experiment,HHSHH,2,even,11550,NA,NA,51582,26468,2077,NA,NA,52631,2104,NA,NA,52738,53066,52625,52738,New experiment,26,10666,27,yes,1024
96.42857143,96.42857143,392.5357143,392.5357143,black,legacy,legacy,legacy,0,incongruent,uniform,1,undefined,1,h,0,0,0,27,27,0,27,0,27,0,0,0,27,27,27,27,Sun Sep 24 12:33:15 2023,1500,The main experiment item,yes,Flankertask.osexp,/Users/Thingtwo/Desktop,no,mono,no,18,no,white,no,yes,768,legacy,27,27,/Users/Thingtwo/Desktop/NC-subject-2.csv,legacy,Lentiform Loewenfeld,3.3.14,0,h,NA,h,NA,NA,h,325,NA,9439,NA,NA,325,2,legacy,1024,2,48000,-16,experiment,SSHSS,2,even,11550,NA,NA,53071,26468,2077,NA,NA,54119,2104,NA,NA,54227,54552,54113,54227,New experiment,27,10991,28,yes,1024
96.55172414,96.55172414,390.1724138,390.1724138,black,legacy,legacy,legacy,0,congruent,uniform,1,undefined,1,s,0,0,0,28,28,0,28,0,28,0,0,0,28,28,28,28,Sun Sep 24 12:33:15 2023,1500,The main experiment item,yes,Flankertask.osexp,/Users/Thingtwo/Desktop,no,mono,no,18,no,white,no,yes,768,legacy,28,28,/Users/Thingtwo/Desktop/NC-subject-2.csv,legacy,Lentiform Loewenfeld,3.3.14,0,s,NA,h,NA,NA,s,324,NA,9439,NA,NA,324,2,legacy,1024,2,48000,-16,experiment,SSSSS,2,even,11550,NA,NA,54557,26468,2077,NA,NA,55606,2104,NA,NA,55713,56038,55599,55713,New experiment,28,11315,29,yes,1024
96.66666667,96.66666667,389.6666667,389.6666667,black,legacy,legacy,legacy,0,congruent,uniform,1,undefined,1,h,0,0,0,29,29,0,29,0,29,0,0,0,29,29,29,29,Sun Sep 24 12:33:15 2023,1500,The main experiment item,yes,Flankertask.osexp,/Users/Thingtwo/Desktop,no,mono,no,18,no,white,no,yes,768,legacy,29,29,/Users/Thingtwo/Desktop/NC-subject-2.csv,legacy,Lentiform Loewenfeld,3.3.14,0,h,NA,h,NA,NA,h,375,NA,9439,NA,NA,375,2,legacy,1024,2,48000,-16,experiment,HHHHH,2,even,11550,NA,NA,56042,26468,2077,NA,NA,57090,2104,NA,NA,57196,57572,57084,57196,New experiment,29,11690,30,yes,1024
96.77419355,96.77419355,390.0645161,390.0645161,black,legacy,legacy,legacy,0,incongruent,uniform,1,undefined,1,s,0,0,0,30,30,0,30,0,30,0,0,0,30,30,30,30,Sun Sep 24 12:33:15 2023,1500,The main experiment item,yes,Flankertask.osexp,/Users/Thingtwo/Desktop,no,mono,no,18,no,white,no,yes,768,legacy,30,30,/Users/Thingtwo/Desktop/NC-subject-2.csv,legacy,Lentiform Loewenfeld,3.3.14,0,s,NA,h,NA,NA,s,402,NA,9439,NA,NA,402,2,legacy,1024,2,48000,-16,experiment,HHSHH,2,even,11550,NA,NA,57576,26468,2077,NA,NA,58626,2104,NA,NA,58732,59135,58619,58732,New experiment,30,12092,31,yes,1024
96.875,96.875,387.3125,387.3125,black,legacy,legacy,legacy,0,incongruent,uniform,1,undefined,1,h,0,0,0,31,31,0,31,0,31,0,0,0,31,31,31,31,Sun Sep 24 12:33:15 2023,1500,The main experiment item,yes,Flankertask.osexp,/Users/Thingtwo/Desktop,no,mono,no,18,no,white,no,yes,768,legacy,31,31,/Users/Thingtwo/Desktop/NC-subject-2.csv,legacy,Lentiform Loewenfeld,3.3.14,0,h,NA,h,NA,NA,h,302,NA,9439,NA,NA,302,2,legacy,1024,2,48000,-16,experiment,SSHSS,2,even,11550,NA,NA,59139,26468,2077,NA,NA,60188,2104,NA,NA,60294,60596,60182,60294,New experiment,31,12394,32,yes,1024
96.96969697,96.96969697,384.3333333,384.3333333,black,legacy,legacy,legacy,0,incongruent,uniform,1,undefined,1,s,0,0,0,32,32,0,32,0,32,0,0,0,32,32,32,32,Sun Sep 24 12:33:15 2023,1500,The main experiment item,yes,Flankertask.osexp,/Users/Thingtwo/Desktop,no,mono,no,18,no,white,no,yes,768,legacy,32,32,/Users/Thingtwo/Desktop/NC-subject-2.csv,legacy,Lentiform Loewenfeld,3.3.14,0,s,NA,h,NA,NA,s,289,NA,9439,NA,NA,289,2,legacy,1024,2,48000,-16,experiment,HHSHH,2,even,11550,NA,NA,60601,26468,2077,NA,NA,61649,2104,NA,NA,61755,62044,61643,61755,New experiment,32,12683,33,yes,1024
97.05882353,97.05882353,382.7941176,382.7941176,black,legacy,legacy,legacy,0,incongruent,uniform,1,undefined,1,s,0,0,0,33,33,0,33,0,33,0,0,0,33,33,33,33,Sun Sep 24 12:33:15 2023,1500,The main experiment item,yes,Flankertask.osexp,/Users/Thingtwo/Desktop,no,mono,no,18,no,white,no,yes,768,legacy,33,33,/Users/Thingtwo/Desktop/NC-subject-2.csv,legacy,Lentiform Loewenfeld,3.3.14,0,s,NA,h,NA,NA,s,332,NA,9439,NA,NA,332,2,legacy,1024,2,48000,-16,experiment,HHSHH,2,even,11550,NA,NA,62049,26468,2077,NA,NA,63098,2104,NA,NA,63205,63538,63092,63204,New experiment,33,13015,34,yes,1024
97.14285714,97.14285714,382.0857143,382.0857143,black,legacy,legacy,legacy,0,congruent,uniform,1,undefined,1,h,0,0,0,34,34,0,34,0,34,0,0,0,34,34,34,34,Sun Sep 24 12:33:15 2023,1500,The main experiment item,yes,Flankertask.osexp,/Users/Thingtwo/Desktop,no,mono,no,18,no,white,no,yes,768,legacy,34,34,/Users/Thingtwo/Desktop/NC-subject-2.csv,legacy,Lentiform Loewenfeld,3.3.14,0,h,NA,h,NA,NA,h,358,NA,9439,NA,NA,358,2,legacy,1024,2,48000,-16,experiment,HHHHH,2,even,11550,NA,NA,63543,26468,2077,NA,NA,64593,2104,NA,NA,64700,65058,64587,64700,New experiment,34,13373,35,yes,1024
97.22222222,97.22222222,381.8055556,381.8055556,black,legacy,legacy,legacy,0,incongruent,uniform,1,undefined,1,s,0,0,0,35,35,0,35,0,35,0,0,0,35,35,35,35,Sun Sep 24 12:33:15 2023,1500,The main experiment item,yes,Flankertask.osexp,/Users/Thingtwo/Desktop,no,mono,no,18,no,white,no,yes,768,legacy,35,35,/Users/Thingtwo/Desktop/NC-subject-2.csv,legacy,Lentiform Loewenfeld,3.3.14,0,s,NA,h,NA,NA,s,372,NA,9439,NA,NA,372,2,legacy,1024,2,48000,-16,experiment,HHSHH,2,even,11550,NA,NA,65063,26468,2077,NA,NA,66113,2104,NA,NA,66220,66593,66107,66220,New experiment,35,13745,36,yes,1024
94.59459459,94.59459459,379.1351351,379.1351351,black,legacy,legacy,legacy,0,congruent,uniform,0,undefined,0,h,0,0,0,36,36,0,36,0,36,0,0,0,36,36,36,36,Sun Sep 24 12:33:15 2023,1500,The main experiment item,yes,Flankertask.osexp,/Users/Thingtwo/Desktop,no,mono,no,18,no,white,no,yes,768,legacy,36,36,/Users/Thingtwo/Desktop/NC-subject-2.csv,legacy,Lentiform Loewenfeld,3.3.14,0,s,NA,h,NA,NA,s,283,NA,9439,NA,NA,283,2,legacy,1024,2,48000,-16,experiment,HHHHH,2,even,11550,NA,NA,66597,26468,2077,NA,NA,67646,2104,NA,NA,67753,68037,67640,67753,New experiment,35,14028,37,yes,1024
94.73684211,94.73684211,377.9473684,377.9473684,black,legacy,legacy,legacy,0,congruent,uniform,1,undefined,1,s,0,0,0,37,37,0,37,0,37,0,0,0,37,37,37,37,Sun Sep 24 12:33:15 2023,1500,The main experiment item,yes,Flankertask.osexp,/Users/Thingtwo/Desktop,no,mono,no,18,no,white,no,yes,768,legacy,37,37,/Users/Thingtwo/Desktop/NC-subject-2.csv,legacy,Lentiform Loewenfeld,3.3.14,0,s,NA,h,NA,NA,s,334,NA,9439,NA,NA,334,2,legacy,1024,2,48000,-16,experiment,SSSSS,2,even,11550,NA,NA,68550,68041,2077,NA,NA,69596,2104,NA,NA,69702,70037,69591,69702,New experiment,36,14362,38,yes,1024
94.87179487,94.87179487,377.4615385,377.4615385,black,legacy,legacy,legacy,0,congruent,uniform,1,undefined,1,h,0,0,0,38,38,0,38,0,38,0,0,0,38,38,38,38,Sun Sep 24 12:33:15 2023,1500,The main experiment item,yes,Flankertask.osexp,/Users/Thingtwo/Desktop,no,mono,no,18,no,white,no,yes,768,legacy,38,38,/Users/Thingtwo/Desktop/NC-subject-2.csv,legacy,Lentiform Loewenfeld,3.3.14,0,h,NA,h,NA,NA,h,359,NA,9439,NA,NA,359,2,legacy,1024,2,48000,-16,experiment,HHHHH,2,even,11550,NA,NA,70041,68041,2077,NA,NA,71090,2104,NA,NA,71197,71556,71085,71196,New experiment,37,14721,39,yes,1024
95,95,378.925,378.925,black,legacy,legacy,legacy,0,incongruent,uniform,1,undefined,1,h,0,0,0,39,39,0,39,0,39,0,0,0,39,39,39,39,Sun Sep 24 12:33:15 2023,1500,The main experiment item,yes,Flankertask.osexp,/Users/Thingtwo/Desktop,no,mono,no,18,no,white,no,yes,768,legacy,39,39,/Users/Thingtwo/Desktop/NC-subject-2.csv,legacy,Lentiform Loewenfeld,3.3.14,0,h,NA,h,NA,NA,h,436,NA,9439,NA,NA,436,2,legacy,1024,2,48000,-16,experiment,SSHSS,2,even,11550,NA,NA,71561,68041,2077,NA,NA,72610,2104,NA,NA,72716,73152,72603,72716,New experiment,38,15157,40,yes,1024
95.12195122,95.12195122,379.3658537,379.3658537,black,legacy,legacy,legacy,0,congruent,uniform,1,undefined,1,s,0,0,0,40,40,0,40,0,40,0,0,0,40,40,40,40,Sun Sep 24 12:33:15 2023,1500,The main experiment item,yes,Flankertask.osexp,/Users/Thingtwo/Desktop,no,mono,no,18,no,white,no,yes,768,legacy,40,40,/Users/Thingtwo/Desktop/NC-subject-2.csv,legacy,Lentiform Loewenfeld,3.3.14,0,s,NA,h,NA,NA,s,397,NA,9439,NA,NA,397,2,legacy,1024,2,48000,-16,experiment,SSSSS,2,even,11550,NA,NA,73157,68041,2077,NA,NA,74206,2104,NA,NA,74312,74709,74199,74312,New experiment,39,15554,41,yes,1024
95.23809524,95.23809524,378.8333333,378.8333333,black,legacy,legacy,legacy,0,incongruent,uniform,1,undefined,1,s,0,0,0,41,41,0,41,0,41,0,0,0,41,41,41,41,Sun Sep 24 12:33:15 2023,1500,The main experiment item,yes,Flankertask.osexp,/Users/Thingtwo/Desktop,no,mono,no,18,no,white,no,yes,768,legacy,41,41,/Users/Thingtwo/Desktop/NC-subject-2.csv,legacy,Lentiform Loewenfeld,3.3.14,0,s,NA,h,NA,NA,s,357,NA,9439,NA,NA,357,2,legacy,1024,2,48000,-16,experiment,HHSHH,2,even,11550,NA,NA,74714,68041,2077,NA,NA,75763,2104,NA,NA,75869,76226,75756,75869,New experiment,40,15911,42,yes,1024
95.34883721,95.34883721,379.4883721,379.4883721,black,legacy,legacy,legacy,0,incongruent,uniform,1,undefined,1,s,0,0,0,42,42,0,42,0,42,0,0,0,42,42,42,42,Sun Sep 24 12:33:15 2023,1500,The main experiment item,yes,Flankertask.osexp,/Users/Thingtwo/Desktop,no,mono,no,18,no,white,no,yes,768,legacy,42,42,/Users/Thingtwo/Desktop/NC-subject-2.csv,legacy,Lentiform Loewenfeld,3.3.14,0,s,NA,h,NA,NA,s,407,NA,9439,NA,NA,407,2,legacy,1024,2,48000,-16,experiment,HHSHH,2,even,11550,NA,NA,76231,68041,2077,NA,NA,77280,2104,NA,NA,77386,77794,77273,77386,New experiment,41,16318,43,yes,1024
95.45454545,95.45454545,379.3181818,379.3181818,black,legacy,legacy,legacy,0,congruent,uniform,1,undefined,1,h,0,0,0,43,43,0,43,0,43,0,0,0,43,43,43,43,Sun Sep 24 12:33:15 2023,1500,The main experiment item,yes,Flankertask.osexp,/Users/Thingtwo/Desktop,no,mono,no,18,no,white,no,yes,768,legacy,43,43,/Users/Thingtwo/Desktop/NC-subject-2.csv,legacy,Lentiform Loewenfeld,3.3.14,0,h,NA,h,NA,NA,h,372,NA,9439,NA,NA,372,2,legacy,1024,2,48000,-16,experiment,HHHHH,2,even,11550,NA,NA,77799,68041,2077,NA,NA,78847,2104,NA,NA,78953,79326,78841,78953,New experiment,42,16690,44,yes,1024
95.55555556,95.55555556,378.1777778,378.1777778,black,legacy,legacy,legacy,0,incongruent,uniform,1,undefined,1,s,0,0,0,44,44,0,44,0,44,0,0,0,44,44,44,44,Sun Sep 24 12:33:15 2023,1500,The main experiment item,yes,Flankertask.osexp,/Users/Thingtwo/Desktop,no,mono,no,18,no,white,no,yes,768,legacy,44,44,/Users/Thingtwo/Desktop/NC-subject-2.csv,legacy,Lentiform Loewenfeld,3.3.14,0,s,NA,h,NA,NA,s,328,NA,9439,NA,NA,328,2,legacy,1024,2,48000,-16,experiment,HHSHH,2,even,11550,NA,NA,79331,68041,2077,NA,NA,80381,2104,NA,NA,80487,80816,80374,80487,New experiment,43,17018,45,yes,1024
95.65217391,95.65217391,378.8695652,378.8695652,black,legacy,legacy,legacy,0,incongruent,uniform,1,undefined,1,s,0,0,0,45,45,0,45,0,45,0,0,0,45,45,45,45,Sun Sep 24 12:33:15 2023,1500,The main experiment item,yes,Flankertask.osexp,/Users/Thingtwo/Desktop,no,mono,no,18,no,white,no,yes,768,legacy,45,45,/Users/Thingtwo/Desktop/NC-subject-2.csv,legacy,Lentiform Loewenfeld,3.3.14,0,s,NA,h,NA,NA,s,410,NA,9439,NA,NA,410,2,legacy,1024,2,48000,-16,experiment,HHSHH,2,even,11550,NA,NA,80820,68041,2077,NA,NA,81869,2104,NA,NA,81975,82386,81863,81975,New experiment,44,17428,46,yes,1024
95.74468085,95.74468085,378.3404255,378.3404255,black,legacy,legacy,legacy,0,congruent,uniform,1,undefined,1,h,0,0,0,46,46,0,46,0,46,0,0,0,46,46,46,46,Sun Sep 24 12:33:15 2023,1500,The main experiment item,yes,Flankertask.osexp,/Users/Thingtwo/Desktop,no,mono,no,18,no,white,no,yes,768,legacy,46,46,/Users/Thingtwo/Desktop/NC-subject-2.csv,legacy,Lentiform Loewenfeld,3.3.14,0,h,NA,h,NA,NA,h,354,NA,9439,NA,NA,354,2,legacy,1024,2,48000,-16,experiment,HHHHH,2,even,11550,NA,NA,82390,68041,2077,NA,NA,83439,2104,NA,NA,83546,83901,83433,83545,New experiment,45,17782,47,yes,1024
95.83333333,95.83333333,378.5416667,378.5416667,black,legacy,legacy,legacy,0,incongruent,uniform,1,undefined,1,s,0,0,0,47,47,0,47,0,47,0,0,0,47,47,47,47,Sun Sep 24 12:33:15 2023,1500,The main experiment item,yes,Flankertask.osexp,/Users/Thingtwo/Desktop,no,mono,no,18,no,white,no,yes,768,legacy,47,47,/Users/Thingtwo/Desktop/NC-subject-2.csv,legacy,Lentiform Loewenfeld,3.3.14,0,s,NA,h,NA,NA,s,388,NA,9439,NA,NA,388,2,legacy,1024,2,48000,-16,experiment,HHSHH,2,even,11550,NA,NA,83905,68041,2077,NA,NA,84955,2104,NA,NA,85062,85451,84948,85062,New experiment,46,18170,48,yes,1024
95.91836735,95.91836735,378.5102041,378.5102041,black,legacy,legacy,legacy,0,incongruent,uniform,1,undefined,1,s,0,0,0,48,48,0,48,0,48,0,0,0,48,48,48,48,Sun Sep 24 12:33:15 2023,1500,The main experiment item,yes,Flankertask.osexp,/Users/Thingtwo/Desktop,no,mono,no,18,no,white,no,yes,768,legacy,48,48,/Users/Thingtwo/Desktop/NC-subject-2.csv,legacy,Lentiform Loewenfeld,3.3.14,0,s,NA,h,NA,NA,s,377,NA,9439,NA,NA,377,2,legacy,1024,2,48000,-16,experiment,HHSHH,2,even,11550,NA,NA,85455,68041,2077,NA,NA,86503,2104,NA,NA,86609,86986,86497,86609,New experiment,47,18547,49,yes,1024
96,96,378.74,378.74,black,legacy,legacy,legacy,0,congruent,uniform,1,undefined,1,h,0,0,0,49,49,0,49,0,49,0,0,0,49,49,49,49,Sun Sep 24 12:33:15 2023,1500,The main experiment item,yes,Flankertask.osexp,/Users/Thingtwo/Desktop,no,mono,no,18,no,white,no,yes,768,legacy,49,49,/Users/Thingtwo/Desktop/NC-subject-2.csv,legacy,Lentiform Loewenfeld,3.3.14,0,h,NA,h,NA,NA,h,390,NA,9439,NA,NA,390,2,legacy,1024,2,48000,-16,experiment,HHHHH,2,even,11550,NA,NA,86991,68041,2077,NA,NA,88039,2104,NA,NA,88145,88535,88034,88145,New experiment,48,18937,50,yes,1024
96.07843137,96.07843137,378.9607843,378.9607843,black,legacy,legacy,legacy,0,congruent,uniform,1,undefined,1,h,0,0,0,50,50,0,50,0,50,0,0,0,50,50,50,50,Sun Sep 24 12:33:15 2023,1500,The main experiment item,yes,Flankertask.osexp,/Users/Thingtwo/Desktop,no,mono,no,18,no,white,no,yes,768,legacy,50,50,/Users/Thingtwo/Desktop/NC-subject-2.csv,legacy,Lentiform Loewenfeld,3.3.14,0,h,NA,h,NA,NA,h,390,NA,9439,NA,NA,390,2,legacy,1024,2,48000,-16,experiment,HHHHH,2,even,11550,NA,NA,88540,68041,2077,NA,NA,89590,2104,NA,NA,89697,90087,89583,89696,New experiment,49,19327,51,yes,1024
96.15384615,96.15384615,378.6923077,378.6923077,black,legacy,legacy,legacy,0,incongruent,uniform,1,undefined,1,h,0,0,0,51,51,0,51,0,51,0,0,0,51,51,51,51,Sun Sep 24 12:33:15 2023,1500,The main experiment item,yes,Flankertask.osexp,/Users/Thingtwo/Desktop,no,mono,no,18,no,white,no,yes,768,legacy,51,51,/Users/Thingtwo/Desktop/NC-subject-2.csv,legacy,Lentiform Loewenfeld,3.3.14,0,h,NA,h,NA,NA,h,365,NA,9439,NA,NA,365,2,legacy,1024,2,48000,-16,experiment,SSHSS,2,even,11550,NA,NA,90092,68041,2077,NA,NA,91143,2104,NA,NA,91250,91615,91136,91250,New experiment,50,19692,52,yes,1024
96.22641509,96.22641509,382.245283,382.245283,black,legacy,legacy,legacy,0,incongruent,uniform,1,undefined,1,h,0,0,0,52,52,0,52,0,52,0,0,0,52,52,52,52,Sun Sep 24 12:33:15 2023,1500,The main experiment item,yes,Flankertask.osexp,/Users/Thingtwo/Desktop,no,mono,no,18,no,white,no,yes,768,legacy,52,52,/Users/Thingtwo/Desktop/NC-subject-2.csv,legacy,Lentiform Loewenfeld,3.3.14,0,h,NA,h,NA,NA,h,567,NA,9439,NA,NA,567,2,legacy,1024,2,48000,-16,experiment,SSHSS,2,even,11550,NA,NA,91620,68041,2077,NA,NA,92668,2104,NA,NA,92774,93342,92661,92774,New experiment,51,20259,53,yes,1024
96.2962963,96.2962963,382.3518519,382.3518519,black,legacy,legacy,legacy,0,congruent,uniform,1,undefined,1,s,0,0,0,53,53,0,53,0,53,0,0,0,53,53,53,53,Sun Sep 24 12:33:15 2023,1500,The main experiment item,yes,Flankertask.osexp,/Users/Thingtwo/Desktop,no,mono,no,18,no,white,no,yes,768,legacy,53,53,/Users/Thingtwo/Desktop/NC-subject-2.csv,legacy,Lentiform Loewenfeld,3.3.14,0,s,NA,h,NA,NA,s,388,NA,9439,NA,NA,388,2,legacy,1024,2,48000,-16,experiment,SSSSS,2,even,11550,NA,NA,93347,68041,2077,NA,NA,94402,2104,NA,NA,94508,94897,94395,94508,New experiment,52,20647,54,yes,1024
96.36363636,96.36363636,386.1454545,386.1454545,black,legacy,legacy,legacy,0,incongruent,uniform,1,undefined,1,s,0,0,0,54,54,0,54,0,54,0,0,0,54,54,54,54,Sun Sep 24 12:33:15 2023,1500,The main experiment item,yes,Flankertask.osexp,/Users/Thingtwo/Desktop,no,mono,no,18,no,white,no,yes,768,legacy,54,54,/Users/Thingtwo/Desktop/NC-subject-2.csv,legacy,Lentiform Loewenfeld,3.3.14,0,s,NA,h,NA,NA,s,591,NA,9439,NA,NA,591,2,legacy,1024,2,48000,-16,experiment,HHSHH,2,even,11550,NA,NA,94902,68041,2077,NA,NA,95950,2104,NA,NA,96057,96649,95944,96056,New experiment,53,21238,55,yes,1024
96.42857143,96.42857143,385.7857143,385.7857143,black,legacy,legacy,legacy,0,congruent,uniform,1,undefined,1,s,0,0,0,55,55,0,55,0,55,0,0,0,55,55,55,55,Sun Sep 24 12:33:15 2023,1500,The main experiment item,yes,Flankertask.osexp,/Users/Thingtwo/Desktop,no,mono,no,18,no,white,no,yes,768,legacy,55,55,/Users/Thingtwo/Desktop/NC-subject-2.csv,legacy,Lentiform Loewenfeld,3.3.14,0,s,NA,h,NA,NA,s,366,NA,9439,NA,NA,366,2,legacy,1024,2,48000,-16,experiment,SSSSS,2,even,11550,NA,NA,96653,68041,2077,NA,NA,97702,2104,NA,NA,97809,98176,97696,97809,New experiment,54,21604,56,yes,1024
96.49122807,96.49122807,384.2631579,384.2631579,black,legacy,legacy,legacy,0,congruent,uniform,1,undefined,1,h,0,0,0,56,56,0,56,0,56,0,0,0,56,56,56,56,Sun Sep 24 12:33:15 2023,1500,The main experiment item,yes,Flankertask.osexp,/Users/Thingtwo/Desktop,no,mono,no,18,no,white,no,yes,768,legacy,56,56,/Users/Thingtwo/Desktop/NC-subject-2.csv,legacy,Lentiform Loewenfeld,3.3.14,0,h,NA,h,NA,NA,h,299,NA,9439,NA,NA,299,2,legacy,1024,2,48000,-16,experiment,HHHHH,2,even,11550,NA,NA,98181,68041,2077,NA,NA,99228,2104,NA,NA,99334,99633,99222,99334,New experiment,55,21903,57,yes,1024
96.55172414,96.55172414,383.7931034,383.7931034,black,legacy,legacy,legacy,0,congruent,uniform,1,undefined,1,h,0,0,0,57,57,0,57,0,57,0,0,0,57,57,57,57,Sun Sep 24 12:33:15 2023,1500,The main experiment item,yes,Flankertask.osexp,/Users/Thingtwo/Desktop,no,mono,no,18,no,white,no,yes,768,legacy,57,57,/Users/Thingtwo/Desktop/NC-subject-2.csv,legacy,Lentiform Loewenfeld,3.3.14,0,h,NA,h,NA,NA,h,357,NA,9439,NA,NA,357,2,legacy,1024,2,48000,-16,experiment,HHHHH,2,even,11550,NA,NA,99638,68041,2077,NA,NA,100685,2104,NA,NA,100791,101148,100679,100791,New experiment,56,22260,58,yes,1024
96.61016949,96.61016949,384.1186441,384.1186441,black,legacy,legacy,legacy,0,incongruent,uniform,1,undefined,1,s,0,0,0,58,58,0,58,0,58,0,0,0,58,58,58,58,Sun Sep 24 12:33:15 2023,1500,The main experiment item,yes,Flankertask.osexp,/Users/Thingtwo/Desktop,no,mono,no,18,no,white,no,yes,768,legacy,58,58,/Users/Thingtwo/Desktop/NC-subject-2.csv,legacy,Lentiform Loewenfeld,3.3.14,0,s,NA,h,NA,NA,s,403,NA,9439,NA,NA,403,2,legacy,1024,2,48000,-16,experiment,HHSHH,2,even,11550,NA,NA,101153,68041,2077,NA,NA,102203,2104,NA,NA,102309,102713,102196,102309,New experiment,57,22663,59,yes,1024
96.66666667,96.66666667,386.8166667,386.8166667,black,legacy,legacy,legacy,0,congruent,uniform,1,undefined,1,s,0,0,0,59,59,0,59,0,59,0,0,0,59,59,59,59,Sun Sep 24 12:33:15 2023,1500,The main experiment item,yes,Flankertask.osexp,/Users/Thingtwo/Desktop,no,mono,no,18,no,white,no,yes,768,legacy,59,59,/Users/Thingtwo/Desktop/NC-subject-2.csv,legacy,Lentiform Loewenfeld,3.3.14,0,s,NA,h,NA,NA,s,546,NA,9439,NA,NA,546,2,legacy,1024,2,48000,-16,experiment,SSSSS,2,even,11550,NA,NA,102718,68041,2077,NA,NA,103766,2104,NA,NA,103873,104420,103760,103873,New experiment,58,23209,60,yes,1024
96.72131148,96.72131148,386.9672131,386.9672131,black,legacy,legacy,legacy,0,incongruent,uniform,1,undefined,1,h,0,0,0,60,60,0,60,0,60,0,0,0,60,60,60,60,Sun Sep 24 12:33:15 2023,1500,The main experiment item,yes,Flankertask.osexp,/Users/Thingtwo/Desktop,no,mono,no,18,no,white,no,yes,768,legacy,60,60,/Users/Thingtwo/Desktop/NC-subject-2.csv,legacy,Lentiform Loewenfeld,3.3.14,0,h,NA,h,NA,NA,h,396,NA,9439,NA,NA,396,2,legacy,1024,2,48000,-16,experiment,SSHSS,2,even,11550,NA,NA,104424,68041,2077,NA,NA,105473,2104,NA,NA,105579,105975,105467,105579,New experiment,59,23605,61,yes,1024
96.77419355,96.77419355,386.8548387,386.8548387,black,legacy,legacy,legacy,0,incongruent,uniform,1,undefined,1,s,0,0,0,61,61,0,61,0,61,0,0,0,61,61,61,61,Sun Sep 24 12:33:15 2023,1500,The main experiment item,yes,Flankertask.osexp,/Users/Thingtwo/Desktop,no,mono,no,18,no,white,no,yes,768,legacy,61,61,/Users/Thingtwo/Desktop/NC-subject-2.csv,legacy,Lentiform Loewenfeld,3.3.14,0,s,NA,h,NA,NA,s,380,NA,9439,NA,NA,380,2,legacy,1024,2,48000,-16,experiment,HHSHH,2,even,11550,NA,NA,105980,68041,2077,NA,NA,107031,2104,NA,NA,107138,107519,107024,107138,New experiment,60,23985,62,yes,1024
96.82539683,96.82539683,386.4285714,386.4285714,black,legacy,legacy,legacy,0,congruent,uniform,1,undefined,1,h,0,0,0,62,62,0,62,0,62,0,0,0,62,62,62,62,Sun Sep 24 12:33:15 2023,1500,The main experiment item,yes,Flankertask.osexp,/Users/Thingtwo/Desktop,no,mono,no,18,no,white,no,yes,768,legacy,62,62,/Users/Thingtwo/Desktop/NC-subject-2.csv,legacy,Lentiform Loewenfeld,3.3.14,0,h,NA,h,NA,NA,h,360,NA,9439,NA,NA,360,2,legacy,1024,2,48000,-16,experiment,HHHHH,2,even,11550,NA,NA,107523,68041,2077,NA,NA,108571,2104,NA,NA,108677,109038,108565,108677,New experiment,61,24345,63,yes,1024
96.875,96.875,387.0625,387.0625,black,legacy,legacy,legacy,0,congruent,uniform,1,undefined,1,s,0,0,0,63,63,0,63,0,63,0,0,0,63,63,63,63,Sun Sep 24 12:33:15 2023,1500,The main experiment item,yes,Flankertask.osexp,/Users/Thingtwo/Desktop,no,mono,no,18,no,white,no,yes,768,legacy,63,63,/Users/Thingtwo/Desktop/NC-subject-2.csv,legacy,Lentiform Loewenfeld,3.3.14,0,s,NA,h,NA,NA,s,427,NA,9439,NA,NA,427,2,legacy,1024,2,48000,-16,experiment,SSSSS,2,even,11550,NA,NA,109042,68041,2077,NA,NA,110092,2104,NA,NA,110198,110625,110085,110198,New experiment,62,24772,64,yes,1024
96.92307692,96.92307692,386.2769231,386.2769231,black,legacy,legacy,legacy,0,congruent,uniform,1,undefined,1,h,0,0,0,64,64,0,64,0,64,0,0,0,64,64,64,64,Sun Sep 24 12:33:15 2023,1500,The main experiment item,yes,Flankertask.osexp,/Users/Thingtwo/Desktop,no,mono,no,18,no,white,no,yes,768,legacy,64,64,/Users/Thingtwo/Desktop/NC-subject-2.csv,legacy,Lentiform Loewenfeld,3.3.14,0,h,NA,h,NA,NA,h,336,NA,9439,NA,NA,336,2,legacy,1024,2,48000,-16,experiment,HHHHH,2,even,11550,NA,NA,110630,68041,2077,NA,NA,111680,2104,NA,NA,111786,112122,111672,111786,New experiment,63,25108,65,yes,1024
96.96969697,96.96969697,386,386,black,legacy,legacy,legacy,0,incongruent,uniform,1,undefined,1,s,0,0,0,65,65,0,65,0,65,0,0,0,65,65,65,65,Sun Sep 24 12:33:15 2023,1500,The main experiment item,yes,Flankertask.osexp,/Users/Thingtwo/Desktop,no,mono,no,18,no,white,no,yes,768,legacy,65,65,/Users/Thingtwo/Desktop/NC-subject-2.csv,legacy,Lentiform Loewenfeld,3.3.14,0,s,NA,h,NA,NA,s,368,NA,9439,NA,NA,368,2,legacy,1024,2,48000,-16,experiment,HHSHH,2,even,11550,NA,NA,112127,68041,2077,NA,NA,113176,2104,NA,NA,113282,113651,113170,113282,New experiment,64,25476,66,yes,1024
97.01492537,97.01492537,385.2238806,385.2238806,black,legacy,legacy,legacy,0,incongruent,uniform,1,undefined,1,h,0,0,0,66,66,0,66,0,66,0,0,0,66,66,66,66,Sun Sep 24 12:33:15 2023,1500,The main experiment item,yes,Flankertask.osexp,/Users/Thingtwo/Desktop,no,mono,no,18,no,white,no,yes,768,legacy,66,66,/Users/Thingtwo/Desktop/NC-subject-2.csv,legacy,Lentiform Loewenfeld,3.3.14,0,h,NA,h,NA,NA,h,334,NA,9439,NA,NA,334,2,legacy,1024,2,48000,-16,experiment,SSHSS,2,even,11550,NA,NA,113655,68041,2077,NA,NA,114704,2104,NA,NA,114811,115146,114698,114810,New experiment,65,25810,67,yes,1024
97.05882353,97.05882353,387.6470588,387.6470588,black,legacy,legacy,legacy,0,incongruent,uniform,1,undefined,1,h,0,0,0,67,67,0,67,0,67,0,0,0,67,67,67,67,Sun Sep 24 12:33:15 2023,1500,The main experiment item,yes,Flankertask.osexp,/Users/Thingtwo/Desktop,no,mono,no,18,no,white,no,yes,768,legacy,67,67,/Users/Thingtwo/Desktop/NC-subject-2.csv,legacy,Lentiform Loewenfeld,3.3.14,0,h,NA,h,NA,NA,h,550,NA,9439,NA,NA,550,2,legacy,1024,2,48000,-16,experiment,SSHSS,2,even,11550,NA,NA,115151,68041,2077,NA,NA,116195,2104,NA,NA,116302,116853,116188,116302,New experiment,66,26360,68,yes,1024
97.10144928,97.10144928,386.9130435,386.9130435,black,legacy,legacy,legacy,0,congruent,uniform,1,undefined,1,h,0,0,0,68,68,0,68,0,68,0,0,0,68,68,68,68,Sun Sep 24 12:33:15 2023,1500,The main experiment item,yes,Flankertask.osexp,/Users/Thingtwo/Desktop,no,mono,no,18,no,white,no,yes,768,legacy,68,68,/Users/Thingtwo/Desktop/NC-subject-2.csv,legacy,Lentiform Loewenfeld,3.3.14,0,h,NA,h,NA,NA,h,337,NA,9439,NA,NA,337,2,legacy,1024,2,48000,-16,experiment,HHHHH,2,even,11550,NA,NA,116858,68041,2077,NA,NA,117908,2104,NA,NA,118015,118353,117901,118014,New experiment,67,26697,69,yes,1024
97.14285714,97.14285714,385.4285714,385.4285714,black,legacy,legacy,legacy,0,incongruent,uniform,1,undefined,1,h,0,0,0,69,69,0,69,0,69,0,0,0,69,69,69,69,Sun Sep 24 12:33:15 2023,1500,The main experiment item,yes,Flankertask.osexp,/Users/Thingtwo/Desktop,no,mono,no,18,no,white,no,yes,768,legacy,69,69,/Users/Thingtwo/Desktop/NC-subject-2.csv,legacy,Lentiform Loewenfeld,3.3.14,0,h,NA,h,NA,NA,h,283,NA,9439,NA,NA,283,2,legacy,1024,2,48000,-16,experiment,SSHSS,2,even,11550,NA,NA,118357,68041,2077,NA,NA,119405,2104,NA,NA,119511,119795,119398,119511,New experiment,68,26980,70,yes,1024
95.77464789,95.77464789,383.9014085,383.9014085,black,legacy,legacy,legacy,0,incongruent,uniform,0,undefined,0,s,0,0,0,70,70,0,70,0,70,0,0,0,70,70,70,70,Sun Sep 24 12:33:15 2023,1500,The main experiment item,yes,Flankertask.osexp,/Users/Thingtwo/Desktop,no,mono,no,18,no,white,no,yes,768,legacy,70,70,/Users/Thingtwo/Desktop/NC-subject-2.csv,legacy,Lentiform Loewenfeld,3.3.14,0,h,NA,h,NA,NA,h,277,NA,9439,NA,NA,277,2,legacy,1024,2,48000,-16,experiment,HHSHH,2,even,11550,NA,NA,119800,68041,2077,NA,NA,120849,2104,NA,NA,120956,121233,120842,120955,New experiment,68,27257,71,yes,1024
95.83333333,95.83333333,382.4305556,382.4305556,black,legacy,legacy,legacy,0,congruent,uniform,1,undefined,1,s,0,0,0,71,71,0,71,0,71,0,0,0,71,71,71,71,Sun Sep 24 12:33:15 2023,1500,The main experiment item,yes,Flankertask.osexp,/Users/Thingtwo/Desktop,no,mono,no,18,no,white,no,yes,768,legacy,71,71,/Users/Thingtwo/Desktop/NC-subject-2.csv,legacy,Lentiform Loewenfeld,3.3.14,0,s,NA,h,NA,NA,s,278,NA,9439,NA,NA,278,2,legacy,1024,2,48000,-16,experiment,SSSSS,2,even,11550,NA,NA,121749,121238,2077,NA,NA,122801,2104,NA,NA,122908,123187,122796,122907,New experiment,69,27535,72,yes,1024
95.89041096,95.89041096,382.0684932,382.0684932,black,legacy,legacy,legacy,0,congruent,uniform,1,undefined,1,s,0,0,0,72,72,0,72,0,72,0,0,0,72,72,72,72,Sun Sep 24 12:33:15 2023,1500,The main experiment item,yes,Flankertask.osexp,/Users/Thingtwo/Desktop,no,mono,no,18,no,white,no,yes,768,legacy,72,72,/Users/Thingtwo/Desktop/NC-subject-2.csv,legacy,Lentiform Loewenfeld,3.3.14,0,s,NA,h,NA,NA,s,356,NA,9439,NA,NA,356,2,legacy,1024,2,48000,-16,experiment,SSSSS,2,even,11550,NA,NA,123192,121238,2077,NA,NA,124246,2104,NA,NA,124352,124709,124241,124352,New experiment,70,27891,73,yes,1024
95.94594595,95.94594595,380.7567568,380.7567568,black,legacy,legacy,legacy,0,congruent,uniform,1,undefined,1,s,0,0,0,73,73,0,73,0,73,0,0,0,73,73,73,73,Sun Sep 24 12:33:15 2023,1500,The main experiment item,yes,Flankertask.osexp,/Users/Thingtwo/Desktop,no,mono,no,18,no,white,no,yes,768,legacy,73,73,/Users/Thingtwo/Desktop/NC-subject-2.csv,legacy,Lentiform Loewenfeld,3.3.14,0,s,NA,h,NA,NA,s,285,NA,9439,NA,NA,285,2,legacy,1024,2,48000,-16,experiment,SSSSS,2,even,11550,NA,NA,124714,121238,2077,NA,NA,125765,2104,NA,NA,125872,126157,125759,125872,New experiment,71,28176,74,yes,1024
96,96,379.9333333,379.9333333,black,legacy,legacy,legacy,0,congruent,uniform,1,undefined,1,s,0,0,0,74,74,0,74,0,74,0,0,0,74,74,74,74,Sun Sep 24 12:33:15 2023,1500,The main experiment item,yes,Flankertask.osexp,/Users/Thingtwo/Desktop,no,mono,no,18,no,white,no,yes,768,legacy,74,74,/Users/Thingtwo/Desktop/NC-subject-2.csv,legacy,Lentiform Loewenfeld,3.3.14,0,s,NA,h,NA,NA,s,319,NA,9439,NA,NA,319,2,legacy,1024,2,48000,-16,experiment,SSSSS,2,even,11550,NA,NA,126162,121238,2077,NA,NA,127213,2104,NA,NA,127319,127639,127206,127319,New experiment,72,28495,75,yes,1024
96.05263158,96.05263158,380.1052632,380.1052632,black,legacy,legacy,legacy,0,incongruent,uniform,1,undefined,1,h,0,0,0,75,75,0,75,0,75,0,0,0,75,75,75,75,Sun Sep 24 12:33:15 2023,1500,The main experiment item,yes,Flankertask.osexp,/Users/Thingtwo/Desktop,no,mono,no,18,no,white,no,yes,768,legacy,75,75,/Users/Thingtwo/Desktop/NC-subject-2.csv,legacy,Lentiform Loewenfeld,3.3.14,0,h,NA,h,NA,NA,h,393,NA,9439,NA,NA,393,2,legacy,1024,2,48000,-16,experiment,SSHSS,2,even,11550,NA,NA,127644,121238,2077,NA,NA,128699,2104,NA,NA,128806,129200,128693,128806,New experiment,73,28888,76,yes,1024
96.1038961,96.1038961,379.1948052,379.1948052,black,legacy,legacy,legacy,0,congruent,uniform,1,undefined,1,s,0,0,0,76,76,0,76,0,76,0,0,0,76,76,76,76,Sun Sep 24 12:33:15 2023,1500,The main experiment item,yes,Flankertask.osexp,/Users/Thingtwo/Desktop,no,mono,no,18,no,white,no,yes,768,legacy,76,76,/Users/Thingtwo/Desktop/NC-subject-2.csv,legacy,Lentiform Loewenfeld,3.3.14,0,s,NA,h,NA,NA,s,310,NA,9439,NA,NA,310,2,legacy,1024,2,48000,-16,experiment,SSSSS,2,even,11550,NA,NA,129205,121238,2077,NA,NA,130254,2104,NA,NA,130361,130672,130247,130360,New experiment,74,29198,77,yes,1024
96.15384615,96.15384615,378.0384615,378.0384615,black,legacy,legacy,legacy,0,congruent,uniform,1,undefined,1,s,0,0,0,77,77,0,77,0,77,0,0,0,77,77,77,77,Sun Sep 24 12:33:15 2023,1500,The main experiment item,yes,Flankertask.osexp,/Users/Thingtwo/Desktop,no,mono,no,18,no,white,no,yes,768,legacy,77,77,/Users/Thingtwo/Desktop/NC-subject-2.csv,legacy,Lentiform Loewenfeld,3.3.14,0,s,NA,h,NA,NA,s,289,NA,9439,NA,NA,289,2,legacy,1024,2,48000,-16,experiment,SSSSS,2,even,11550,NA,NA,130677,121238,2077,NA,NA,131725,2104,NA,NA,131832,132122,131719,131832,New experiment,75,29487,78,yes,1024
96.20253165,96.20253165,376.9873418,376.9873418,black,legacy,legacy,legacy,0,congruent,uniform,1,undefined,1,h,0,0,0,78,78,0,78,0,78,0,0,0,78,78,78,78,Sun Sep 24 12:33:15 2023,1500,The main experiment item,yes,Flankertask.osexp,/Users/Thingtwo/Desktop,no,mono,no,18,no,white,no,yes,768,legacy,78,78,/Users/Thingtwo/Desktop/NC-subject-2.csv,legacy,Lentiform Loewenfeld,3.3.14,0,h,NA,h,NA,NA,h,295,NA,9439,NA,NA,295,2,legacy,1024,2,48000,-16,experiment,HHHHH,2,even,11550,NA,NA,132127,121238,2077,NA,NA,133176,2104,NA,NA,133283,133578,133170,133282,New experiment,76,29782,79,yes,1024
96.25,96.25,376.575,376.575,black,legacy,legacy,legacy,0,congruent,uniform,1,undefined,1,h,0,0,0,79,79,0,79,0,79,0,0,0,79,79,79,79,Sun Sep 24 12:33:15 2023,1500,The main experiment item,yes,Flankertask.osexp,/Users/Thingtwo/Desktop,no,mono,no,18,no,white,no,yes,768,legacy,79,79,/Users/Thingtwo/Desktop/NC-subject-2.csv,legacy,Lentiform Loewenfeld,3.3.14,0,h,NA,h,NA,NA,h,344,NA,9439,NA,NA,344,2,legacy,1024,2,48000,-16,experiment,HHHHH,2,even,11550,NA,NA,133584,121238,2077,NA,NA,134634,2104,NA,NA,134740,135085,134627,134740,New experiment,77,30126,80,yes,1024
96.2962963,96.2962963,379.4691358,379.4691358,black,legacy,legacy,legacy,0,incongruent,uniform,1,undefined,1,h,0,0,0,80,80,0,80,0,80,0,0,0,80,80,80,80,Sun Sep 24 12:33:15 2023,600,The main experiment item,yes,Flankertask.osexp,/Users/Thingtwo/Desktop,no,mono,no,18,no,white,no,yes,768,legacy,0,79,/Users/Thingtwo/Desktop/NC-subject-2.csv,legacy,Lentiform Loewenfeld,3.3.14,0,h,NA,h,NA,h,h,611,NA,9439,NA,41963,611,2,legacy,1024,2,48000,-16,experiment,SSHSS,2,even,11550,178084,NA,135090,121238,2077,NA,NA,178107,2104,NA,136120,178213,178824,178102,178213,New experiment,78,30737,81,yes,1024
96.34146341,96.34146341,379.2317073,379.2317073,black,legacy,legacy,legacy,0,incongruent,uniform,1,undefined,1,h,0,0,0,81,81,0,81,0,81,0,0,0,81,81,81,81,Sun Sep 24 12:33:15 2023,600,The main experiment item,yes,Flankertask.osexp,/Users/Thingtwo/Desktop,no,mono,no,18,no,white,no,yes,768,legacy,1,79,/Users/Thingtwo/Desktop/NC-subject-2.csv,legacy,Lentiform Loewenfeld,3.3.14,0,h,NA,h,NA,h,h,360,NA,9439,NA,41963,360,2,legacy,1024,2,48000,-16,experiment,SSHSS,2,even,11550,178084,NA,179342,121238,2077,178830,NA,180394,2104,NA,136120,180501,180862,180386,180501,New experiment,79,31097,82,yes,1024
96.38554217,96.38554217,378.4578313,378.4578313,black,legacy,legacy,legacy,0,congruent,uniform,1,undefined,1,h,0,0,0,82,82,0,82,0,82,0,0,0,82,82,82,82,Sun Sep 24 12:33:15 2023,600,The main experiment item,yes,Flankertask.osexp,/Users/Thingtwo/Desktop,no,mono,no,18,no,white,no,yes,768,legacy,2,79,/Users/Thingtwo/Desktop/NC-subject-2.csv,legacy,Lentiform Loewenfeld,3.3.14,0,h,NA,h,NA,h,h,315,NA,9439,NA,41963,315,2,legacy,1024,2,48000,-16,experiment,HHHHH,2,even,11550,178084,NA,180867,121238,2077,178830,NA,181918,2104,NA,136120,182025,182340,181911,182025,New experiment,80,31412,83,yes,1024
95.23809524,95.23809524,377.1190476,377.1190476,black,legacy,legacy,legacy,0,incongruent,uniform,0,undefined,0,s,0,0,0,83,83,0,83,0,83,0,0,0,83,83,83,83,Sun Sep 24 12:33:15 2023,600,The main experiment item,yes,Flankertask.osexp,/Users/Thingtwo/Desktop,no,mono,no,18,no,white,no,yes,768,legacy,3,79,/Users/Thingtwo/Desktop/NC-subject-2.csv,legacy,Lentiform Loewenfeld,3.3.14,0,h,NA,h,NA,h,h,266,NA,9439,NA,41963,266,2,legacy,1024,2,48000,-16,experiment,HHSHH,2,even,11550,178084,NA,182345,121238,2077,178830,NA,183395,2104,NA,136120,183501,183768,183388,183501,New experiment,80,31678,84,yes,1024
94.11764706,94.11764706,376.4117647,376.4117647,black,legacy,legacy,legacy,0,incongruent,uniform,0,undefined,0,h,0,0,0,84,84,0,84,0,84,0,0,0,84,84,84,84,Sun Sep 24 12:33:15 2023,600,The main experiment item,yes,Flankertask.osexp,/Users/Thingtwo/Desktop,no,mono,no,18,no,white,no,yes,768,legacy,4,79,/Users/Thingtwo/Desktop/NC-subject-2.csv,legacy,Lentiform Loewenfeld,3.3.14,0,s,NA,h,NA,h,s,317,NA,9439,NA,41963,317,2,legacy,1024,2,48000,-16,experiment,SSHSS,2,even,11550,178084,NA,184283,183772,2077,178830,NA,185331,2104,NA,136120,185437,185754,185326,185437,New experiment,80,31995,85,yes,1024
94.18604651,94.18604651,375.744186,375.744186,black,legacy,legacy,legacy,0,congruent,uniform,1,undefined,1,s,0,0,0,85,85,0,85,0,85,0,0,0,85,85,85,85,Sun Sep 24 12:33:15 2023,600,The main experiment item,yes,Flankertask.osexp,/Users/Thingtwo/Desktop,no,mono,no,18,no,white,no,yes,768,legacy,5,79,/Users/Thingtwo/Desktop/NC-subject-2.csv,legacy,Lentiform Loewenfeld,3.3.14,0,s,NA,h,NA,h,s,319,NA,9439,NA,41963,319,2,legacy,1024,2,48000,-16,experiment,SSSSS,2,even,11550,178084,NA,186270,185759,2077,178830,NA,187321,2104,NA,136120,187428,187748,187315,187428,New experiment,81,32314,86,yes,1024
94.25287356,94.25287356,375.862069,375.862069,black,legacy,legacy,legacy,0,congruent,uniform,1,undefined,1,h,0,0,0,86,86,0,86,0,86,0,0,0,86,86,86,86,Sun Sep 24 12:33:15 2023,600,The main experiment item,yes,Flankertask.osexp,/Users/Thingtwo/Desktop,no,mono,no,18,no,white,no,yes,768,legacy,6,79,/Users/Thingtwo/Desktop/NC-subject-2.csv,legacy,Lentiform Loewenfeld,3.3.14,0,h,NA,h,NA,h,h,386,NA,9439,NA,41963,386,2,legacy,1024,2,48000,-16,experiment,HHHHH,2,even,11550,178084,NA,187753,185759,2077,178830,NA,188804,2104,NA,136120,188911,189297,188797,188911,New experiment,82,32700,87,yes,1024
94.31818182,94.31818182,375.0681818,375.0681818,black,legacy,legacy,legacy,0,congruent,uniform,1,undefined,1,s,0,0,0,87,87,0,87,0,87,0,0,0,87,87,87,87,Sun Sep 24 12:33:15 2023,600,The main experiment item,yes,Flankertask.osexp,/Users/Thingtwo/Desktop,no,mono,no,18,no,white,no,yes,768,legacy,7,79,/Users/Thingtwo/Desktop/NC-subject-2.csv,legacy,Lentiform Loewenfeld,3.3.14,0,s,NA,h,NA,h,s,306,NA,9439,NA,41963,306,2,legacy,1024,2,48000,-16,experiment,SSSSS,2,even,11550,178084,NA,189302,185759,2077,178830,NA,190353,2104,NA,136120,190460,190767,190345,190459,New experiment,83,33006,88,yes,1024
94.38202247,94.38202247,374.988764,374.988764,black,legacy,legacy,legacy,0,congruent,uniform,1,undefined,1,s,0,0,0,88,88,0,88,0,88,0,0,0,88,88,88,88,Sun Sep 24 12:33:15 2023,600,The main experiment item,yes,Flankertask.osexp,/Users/Thingtwo/Desktop,no,mono,no,18,no,white,no,yes,768,legacy,8,79,/Users/Thingtwo/Desktop/NC-subject-2.csv,legacy,Lentiform Loewenfeld,3.3.14,0,s,NA,h,NA,h,s,368,NA,9439,NA,41963,368,2,legacy,1024,2,48000,-16,experiment,SSSSS,2,even,11550,178084,NA,190772,185759,2077,178830,NA,191821,2104,NA,136120,191928,192296,191815,191928,New experiment,84,33374,89,yes,1024
94.44444444,94.44444444,375.1777778,375.1777778,black,legacy,legacy,legacy,0,congruent,uniform,1,undefined,1,h,0,0,0,89,89,0,89,0,89,0,0,0,89,89,89,89,Sun Sep 24 12:33:15 2023,600,The main experiment item,yes,Flankertask.osexp,/Users/Thingtwo/Desktop,no,mono,no,18,no,white,no,yes,768,legacy,9,79,/Users/Thingtwo/Desktop/NC-subject-2.csv,legacy,Lentiform Loewenfeld,3.3.14,0,h,NA,h,NA,h,h,392,NA,9439,NA,41963,392,2,legacy,1024,2,48000,-16,experiment,HHHHH,2,even,11550,178084,NA,192301,185759,2077,178830,NA,193350,2104,NA,136120,193458,193851,193344,193457,New experiment,85,33766,90,yes,1024
94.50549451,94.50549451,375.7142857,375.7142857,black,legacy,legacy,legacy,0,incongruent,uniform,1,undefined,1,s,0,0,0,90,90,0,90,0,90,0,0,0,90,90,90,90,Sun Sep 24 12:33:15 2023,600,The main experiment item,yes,Flankertask.osexp,/Users/Thingtwo/Desktop,no,mono,no,18,no,white,no,yes,768,legacy,10,79,/Users/Thingtwo/Desktop/NC-subject-2.csv,legacy,Lentiform Loewenfeld,3.3.14,0,s,NA,h,NA,h,s,424,NA,9439,NA,41963,424,2,legacy,1024,2,48000,-16,experiment,HHSHH,2,even,11550,178084,NA,193855,185759,2077,178830,NA,194903,2104,NA,136120,195009,195433,194897,195009,New experiment,86,34190,91,yes,1024
94.56521739,94.56521739,375.7717391,375.7717391,black,legacy,legacy,legacy,0,congruent,uniform,1,undefined,1,s,0,0,0,91,91,0,91,0,91,0,0,0,91,91,91,91,Sun Sep 24 12:33:15 2023,600,The main experiment item,yes,Flankertask.osexp,/Users/Thingtwo/Desktop,no,mono,no,18,no,white,no,yes,768,legacy,11,79,/Users/Thingtwo/Desktop/NC-subject-2.csv,legacy,Lentiform Loewenfeld,3.3.14,0,s,NA,h,NA,h,s,381,NA,9439,NA,41963,381,2,legacy,1024,2,48000,-16,experiment,SSSSS,2,even,11550,178084,NA,195438,185759,2077,178830,NA,196488,2104,NA,136120,196594,196976,196481,196594,New experiment,87,34571,92,yes,1024
94.62365591,94.62365591,375.7634409,375.7634409,black,legacy,legacy,legacy,0,congruent,uniform,1,undefined,1,h,0,0,0,92,92,0,92,0,92,0,0,0,92,92,92,92,Sun Sep 24 12:33:15 2023,600,The main experiment item,yes,Flankertask.osexp,/Users/Thingtwo/Desktop,no,mono,no,18,no,white,no,yes,768,legacy,12,79,/Users/Thingtwo/Desktop/NC-subject-2.csv,legacy,Lentiform Loewenfeld,3.3.14,0,h,NA,h,NA,h,h,375,NA,9439,NA,41963,375,2,legacy,1024,2,48000,-16,experiment,HHHHH,2,even,11550,178084,NA,196980,185759,2077,178830,NA,198030,2104,NA,136120,198137,198513,198025,198137,New experiment,88,34946,93,yes,1024
94.68085106,94.68085106,376.3085106,376.3085106,black,legacy,legacy,legacy,0,incongruent,uniform,1,undefined,1,s,0,0,0,93,93,0,93,0,93,0,0,0,93,93,93,93,Sun Sep 24 12:33:15 2023,600,The main experiment item,yes,Flankertask.osexp,/Users/Thingtwo/Desktop,no,mono,no,18,no,white,no,yes,768,legacy,13,79,/Users/Thingtwo/Desktop/NC-subject-2.csv,legacy,Lentiform Loewenfeld,3.3.14,0,s,NA,h,NA,h,s,427,NA,9439,NA,41963,427,2,legacy,1024,2,48000,-16,experiment,HHSHH,2,even,11550,178084,NA,198517,185759,2077,178830,NA,199567,2104,NA,136120,199674,200102,199560,199674,New experiment,89,35373,94,yes,1024
94.73684211,94.73684211,375.3789474,375.3789474,black,legacy,legacy,legacy,0,congruent,uniform,1,undefined,1,h,0,0,0,94,94,0,94,0,94,0,0,0,94,94,94,94,Sun Sep 24 12:33:15 2023,600,The main experiment item,yes,Flankertask.osexp,/Users/Thingtwo/Desktop,no,mono,no,18,no,white,no,yes,768,legacy,14,79,/Users/Thingtwo/Desktop/NC-subject-2.csv,legacy,Lentiform Loewenfeld,3.3.14,0,h,NA,h,NA,h,h,288,NA,9439,NA,41963,288,2,legacy,1024,2,48000,-16,experiment,HHHHH,2,even,11550,178084,NA,200106,185759,2077,178830,NA,201155,2104,NA,136120,201262,201551,201149,201262,New experiment,90,35661,95,yes,1024
94.79166667,94.79166667,375.78125,375.78125,black,legacy,legacy,legacy,0,incongruent,uniform,1,undefined,1,h,0,0,0,95,95,0,95,0,95,0,0,0,95,95,95,95,Sun Sep 24 12:33:15 2023,600,The main experiment item,yes,Flankertask.osexp,/Users/Thingtwo/Desktop,no,mono,no,18,no,white,no,yes,768,legacy,15,79,/Users/Thingtwo/Desktop/NC-subject-2.csv,legacy,Lentiform Loewenfeld,3.3.14,0,h,NA,h,NA,h,h,414,NA,9439,NA,41963,414,2,legacy,1024,2,48000,-16,experiment,SSHSS,2,even,11550,178084,NA,201555,185759,2077,178830,NA,202605,2104,NA,136120,202712,203127,202597,202712,New experiment,91,36075,96,yes,1024
94.84536082,94.84536082,375.8865979,375.8865979,black,legacy,legacy,legacy,0,incongruent,uniform,1,undefined,1,h,0,0,0,96,96,0,96,0,96,0,0,0,96,96,96,96,Sun Sep 24 12:33:15 2023,600,The main experiment item,yes,Flankertask.osexp,/Users/Thingtwo/Desktop,no,mono,no,18,no,white,no,yes,768,legacy,16,79,/Users/Thingtwo/Desktop/NC-subject-2.csv,legacy,Lentiform Loewenfeld,3.3.14,0,h,NA,h,NA,h,h,386,NA,9439,NA,41963,386,2,legacy,1024,2,48000,-16,experiment,SSHSS,2,even,11550,178084,NA,203131,185759,2077,178830,NA,204182,2104,NA,136120,204289,204676,204175,204289,New experiment,92,36461,97,yes,1024
94.89795918,94.89795918,376.1020408,376.1020408,black,legacy,legacy,legacy,0,incongruent,uniform,1,undefined,1,h,0,0,0,97,97,0,97,0,97,0,0,0,97,97,97,97,Sun Sep 24 12:33:15 2023,600,The main experiment item,yes,Flankertask.osexp,/Users/Thingtwo/Desktop,no,mono,no,18,no,white,no,yes,768,legacy,17,79,/Users/Thingtwo/Desktop/NC-subject-2.csv,legacy,Lentiform Loewenfeld,3.3.14,0,h,NA,h,NA,h,h,397,NA,9439,NA,41963,397,2,legacy,1024,2,48000,-16,experiment,SSHSS,2,even,11550,178084,NA,204680,185759,2077,178830,NA,205731,2104,NA,136120,205838,206236,205723,205838,New experiment,93,36858,98,yes,1024
94.94949495,94.94949495,375.979798,375.979798,black,legacy,legacy,legacy,0,incongruent,uniform,1,undefined,1,h,0,0,0,98,98,0,98,0,98,0,0,0,98,98,98,98,Sun Sep 24 12:33:15 2023,600,The main experiment item,yes,Flankertask.osexp,/Users/Thingtwo/Desktop,no,mono,no,18,no,white,no,yes,768,legacy,18,79,/Users/Thingtwo/Desktop/NC-subject-2.csv,legacy,Lentiform Loewenfeld,3.3.14,0,h,NA,h,NA,h,h,364,NA,9439,NA,41963,364,2,legacy,1024,2,48000,-16,experiment,SSHSS,2,even,11550,178084,NA,206240,185759,2077,178830,NA,207290,2104,NA,136120,207397,207762,207283,207396,New experiment,94,37222,99,yes,1024
95,95,376.51,376.51,black,legacy,legacy,legacy,0,congruent,uniform,1,undefined,1,s,0,0,0,99,99,0,99,0,99,0,0,0,99,99,99,99,Sun Sep 24 12:33:15 2023,600,The main experiment item,yes,Flankertask.osexp,/Users/Thingtwo/Desktop,no,mono,no,18,no,white,no,yes,768,legacy,19,79,/Users/Thingtwo/Desktop/NC-subject-2.csv,legacy,Lentiform Loewenfeld,3.3.14,0,s,NA,h,NA,h,s,429,NA,9439,NA,41963,429,2,legacy,1024,2,48000,-16,experiment,SSSSS,2,even,11550,178084,NA,207766,185759,2077,178830,NA,208818,2104,NA,136120,208925,209355,208810,208925,New experiment,95,37651,100,yes,1024
95.04950495,95.04950495,375.8019802,375.8019802,black,legacy,legacy,legacy,0,congruent,uniform,1,undefined,1,h,0,0,0,100,100,0,100,0,100,0,0,0,100,100,100,100,Sun Sep 24 12:33:15 2023,600,The main experiment item,yes,Flankertask.osexp,/Users/Thingtwo/Desktop,no,mono,no,18,no,white,no,yes,768,legacy,20,79,/Users/Thingtwo/Desktop/NC-subject-2.csv,legacy,Lentiform Loewenfeld,3.3.14,0,h,NA,h,NA,h,h,305,NA,9439,NA,41963,305,2,legacy,1024,2,48000,-16,experiment,HHHHH,2,even,11550,178084,NA,209359,185759,2077,178830,NA,210410,2104,NA,136120,210517,210823,210403,210517,New experiment,96,37956,101,yes,1024
95.09803922,95.09803922,375.5784314,375.5784314,black,legacy,legacy,legacy,0,incongruent,uniform,1,undefined,1,h,0,0,0,101,101,0,101,0,101,0,0,0,101,101,101,101,Sun Sep 24 12:33:15 2023,600,The main experiment item,yes,Flankertask.osexp,/Users/Thingtwo/Desktop,no,mono,no,18,no,white,no,yes,768,legacy,21,79,/Users/Thingtwo/Desktop/NC-subject-2.csv,legacy,Lentiform Loewenfeld,3.3.14,0,h,NA,h,NA,h,h,353,NA,9439,NA,41963,353,2,legacy,1024,2,48000,-16,experiment,SSHSS,2,even,11550,178084,NA,210827,185759,2077,178830,NA,211878,2104,NA,136120,211984,212338,211870,211984,New experiment,97,38309,102,yes,1024
95.14563107,95.14563107,375.7669903,375.7669903,black,legacy,legacy,legacy,0,incongruent,uniform,1,undefined,1,s,0,0,0,102,102,0,102,0,102,0,0,0,102,102,102,102,Sun Sep 24 12:33:15 2023,600,The main experiment item,yes,Flankertask.osexp,/Users/Thingtwo/Desktop,no,mono,no,18,no,white,no,yes,768,legacy,22,79,/Users/Thingtwo/Desktop/NC-subject-2.csv,legacy,Lentiform Loewenfeld,3.3.14,0,s,NA,h,NA,h,s,395,NA,9439,NA,41963,395,2,legacy,1024,2,48000,-16,experiment,HHSHH,2,even,11550,178084,NA,212342,185759,2077,178830,NA,213392,2104,NA,136120,213499,213895,213384,213499,New experiment,98,38704,103,yes,1024
95.19230769,95.19230769,375.5,375.5,black,legacy,legacy,legacy,0,congruent,uniform,1,undefined,1,h,0,0,0,103,103,0,103,0,103,0,0,0,103,103,103,103,Sun Sep 24 12:33:15 2023,600,The main experiment item,yes,Flankertask.osexp,/Users/Thingtwo/Desktop,no,mono,no,18,no,white,no,yes,768,legacy,23,79,/Users/Thingtwo/Desktop/NC-subject-2.csv,legacy,Lentiform Loewenfeld,3.3.14,0,h,NA,h,NA,h,h,348,NA,9439,NA,41963,348,2,legacy,1024,2,48000,-16,experiment,HHHHH,2,even,11550,178084,NA,213900,185759,2077,178830,NA,214949,2104,NA,136120,215055,215404,214942,215055,New experiment,99,39052,104,yes,1024
95.23809524,95.23809524,376.0761905,376.0761905,black,legacy,legacy,legacy,0,congruent,uniform,1,undefined,1,s,0,0,0,104,104,0,104,0,104,0,0,0,104,104,104,104,Sun Sep 24 12:33:15 2023,600,The main experiment item,yes,Flankertask.osexp,/Users/Thingtwo/Desktop,no,mono,no,18,no,white,no,yes,768,legacy,24,79,/Users/Thingtwo/Desktop/NC-subject-2.csv,legacy,Lentiform Loewenfeld,3.3.14,0,s,NA,h,NA,h,s,436,NA,9439,NA,41963,436,2,legacy,1024,2,48000,-16,experiment,SSSSS,2,even,11550,178084,NA,215409,185759,2077,178830,NA,216458,2104,NA,136120,216565,217001,216451,216565,New experiment,100,39488,105,yes,1024
95.28301887,95.28301887,375.4339623,375.4339623,black,legacy,legacy,legacy,0,congruent,uniform,1,undefined,1,h,0,0,0,105,105,0,105,0,105,0,0,0,105,105,105,105,Sun Sep 24 12:33:15 2023,600,The main experiment item,yes,Flankertask.osexp,/Users/Thingtwo/Desktop,no,mono,no,18,no,white,no,yes,768,legacy,25,79,/Users/Thingtwo/Desktop/NC-subject-2.csv,legacy,Lentiform Loewenfeld,3.3.14,0,h,NA,h,NA,h,h,308,NA,9439,NA,41963,308,2,legacy,1024,2,48000,-16,experiment,HHHHH,2,even,11550,178084,NA,217006,185759,2077,178830,NA,218054,2104,NA,136120,218162,218470,218049,218162,New experiment,101,39796,106,yes,1024
95.3271028,95.3271028,375.1308411,375.1308411,black,legacy,legacy,legacy,0,congruent,uniform,1,undefined,1,s,0,0,0,106,106,0,106,0,106,0,0,0,106,106,106,106,Sun Sep 24 12:33:15 2023,600,The main experiment item,yes,Flankertask.osexp,/Users/Thingtwo/Desktop,no,mono,no,18,no,white,no,yes,768,legacy,26,79,/Users/Thingtwo/Desktop/NC-subject-2.csv,legacy,Lentiform Loewenfeld,3.3.14,0,s,NA,h,NA,h,s,343,NA,9439,NA,41963,343,2,legacy,1024,2,48000,-16,experiment,SSSSS,2,even,11550,178084,NA,218475,185759,2077,178830,NA,219525,2104,NA,136120,219631,219975,219517,219631,New experiment,102,40139,107,yes,1024
95.37037037,95.37037037,376.4166667,376.4166667,black,legacy,legacy,legacy,0,incongruent,uniform,1,undefined,1,h,0,0,0,107,107,0,107,0,107,0,0,0,107,107,107,107,Sun Sep 24 12:33:15 2023,600,The main experiment item,yes,Flankertask.osexp,/Users/Thingtwo/Desktop,no,mono,no,18,no,white,no,yes,768,legacy,27,79,/Users/Thingtwo/Desktop/NC-subject-2.csv,legacy,Lentiform Loewenfeld,3.3.14,0,h,NA,h,NA,h,h,514,NA,9439,NA,41963,514,2,legacy,1024,2,48000,-16,experiment,SSHSS,2,even,11550,178084,NA,219980,185759,2077,178830,NA,221029,2104,NA,136120,221136,221650,221023,221136,New experiment,103,40653,108,yes,1024
94.49541284,94.49541284,375.6513761,375.6513761,black,legacy,legacy,legacy,0,congruent,uniform,0,undefined,0,h,0,0,0,108,108,0,108,0,108,0,0,0,108,108,108,108,Sun Sep 24 12:33:15 2023,600,The main experiment item,yes,Flankertask.osexp,/Users/Thingtwo/Desktop,no,mono,no,18,no,white,no,yes,768,legacy,28,79,/Users/Thingtwo/Desktop/NC-subject-2.csv,legacy,Lentiform Loewenfeld,3.3.14,0,s,NA,h,NA,h,s,293,NA,9439,NA,41963,293,2,legacy,1024,2,48000,-16,experiment,HHHHH,2,even,11550,178084,NA,221655,185759,2077,178830,NA,222706,2104,NA,136120,222812,223106,222699,222812,New experiment,103,40946,109,yes,1024
94.54545455,94.54545455,376.1,376.1,black,legacy,legacy,legacy,0,congruent,uniform,1,undefined,1,s,0,0,0,109,109,0,109,0,109,0,0,0,109,109,109,109,Sun Sep 24 12:33:15 2023,600,The main experiment item,yes,Flankertask.osexp,/Users/Thingtwo/Desktop,no,mono,no,18,no,white,no,yes,768,legacy,29,79,/Users/Thingtwo/Desktop/NC-subject-2.csv,legacy,Lentiform Loewenfeld,3.3.14,0,s,NA,h,NA,h,s,425,NA,9439,NA,41963,425,2,legacy,1024,2,48000,-16,experiment,SSSSS,2,even,11550,178084,NA,223620,223110,2077,178830,NA,224670,2104,NA,136120,224777,225203,224663,224776,New experiment,104,41371,110,yes,1024
94.59459459,94.59459459,375.9009009,375.9009009,black,legacy,legacy,legacy,0,congruent,uniform,1,undefined,1,h,0,0,0,110,110,0,110,0,110,0,0,0,110,110,110,110,Sun Sep 24 12:33:15 2023,600,The main experiment item,yes,Flankertask.osexp,/Users/Thingtwo/Desktop,no,mono,no,18,no,white,no,yes,768,legacy,30,79,/Users/Thingtwo/Desktop/NC-subject-2.csv,legacy,Lentiform Loewenfeld,3.3.14,0,h,NA,h,NA,h,h,354,NA,9439,NA,41963,354,2,legacy,1024,2,48000,-16,experiment,HHHHH,2,even,11550,178084,NA,225207,223110,2077,178830,NA,226256,2104,NA,136120,226362,226717,226249,226362,New experiment,105,41725,111,yes,1024
94.64285714,94.64285714,376.4107143,376.4107143,black,legacy,legacy,legacy,0,incongruent,uniform,1,undefined,1,h,0,0,0,111,111,0,111,0,111,0,0,0,111,111,111,111,Sun Sep 24 12:33:15 2023,600,The main experiment item,yes,Flankertask.osexp,/Users/Thingtwo/Desktop,no,mono,no,18,no,white,no,yes,768,legacy,31,79,/Users/Thingtwo/Desktop/NC-subject-2.csv,legacy,Lentiform Loewenfeld,3.3.14,0,h,NA,h,NA,h,h,433,NA,9439,NA,41963,433,2,legacy,1024,2,48000,-16,experiment,SSHSS,2,even,11550,178084,NA,226722,223110,2077,178830,NA,227771,2104,NA,136120,227877,228310,227764,227877,New experiment,106,42158,112,yes,1024
94.69026549,94.69026549,377.3097345,377.3097345,black,legacy,legacy,legacy,0,incongruent,uniform,1,undefined,1,s,0,0,0,112,112,0,112,0,112,0,0,0,112,112,112,112,Sun Sep 24 12:33:15 2023,600,The main experiment item,yes,Flankertask.osexp,/Users/Thingtwo/Desktop,no,mono,no,18,no,white,no,yes,768,legacy,32,79,/Users/Thingtwo/Desktop/NC-subject-2.csv,legacy,Lentiform Loewenfeld,3.3.14,0,s,NA,h,NA,h,s,478,NA,9439,NA,41963,478,2,legacy,1024,2,48000,-16,experiment,HHSHH,2,even,11550,178084,NA,228315,223110,2077,178830,NA,229365,2104,NA,136120,229472,229951,229357,229472,New experiment,107,42636,113,yes,1024
94.73684211,94.73684211,377.4298246,377.4298246,black,legacy,legacy,legacy,0,incongruent,uniform,1,undefined,1,s,0,0,0,113,113,0,113,0,113,0,0,0,113,113,113,113,Sun Sep 24 12:33:15 2023,600,The main experiment item,yes,Flankertask.osexp,/Users/Thingtwo/Desktop,no,mono,no,18,no,white,no,yes,768,legacy,33,79,/Users/Thingtwo/Desktop/NC-subject-2.csv,legacy,Lentiform Loewenfeld,3.3.14,0,s,NA,h,NA,h,s,391,NA,9439,NA,41963,391,2,legacy,1024,2,48000,-16,experiment,HHSHH,2,even,11550,178084,NA,229956,223110,2077,178830,NA,231006,2104,NA,136120,231113,231505,231000,231113,New experiment,108,43027,114,yes,1024
94.7826087,94.7826087,377.6434783,377.6434783,black,legacy,legacy,legacy,0,congruent,uniform,1,undefined,1,h,0,0,0,114,114,0,114,0,114,0,0,0,114,114,114,114,Sun Sep 24 12:33:15 2023,600,The main experiment item,yes,Flankertask.osexp,/Users/Thingtwo/Desktop,no,mono,no,18,no,white,no,yes,768,legacy,34,79,/Users/Thingtwo/Desktop/NC-subject-2.csv,legacy,Lentiform Loewenfeld,3.3.14,0,h,NA,h,NA,h,h,402,NA,9439,NA,41963,402,2,legacy,1024,2,48000,-16,experiment,HHHHH,2,even,11550,178084,NA,231510,223110,2077,178830,NA,232559,2104,NA,136120,232666,233069,232552,232666,New experiment,109,43429,115,yes,1024
94.82758621,94.82758621,379.4741379,379.4741379,black,legacy,legacy,legacy,0,congruent,uniform,1,undefined,1,s,0,0,0,115,115,0,115,0,115,0,0,0,115,115,115,115,Sun Sep 24 12:33:15 2023,600,The main experiment item,yes,Flankertask.osexp,/Users/Thingtwo/Desktop,no,mono,no,18,no,white,no,yes,768,legacy,35,79,/Users/Thingtwo/Desktop/NC-subject-2.csv,legacy,Lentiform Loewenfeld,3.3.14,0,s,NA,h,NA,h,s,590,NA,9439,NA,41963,590,2,legacy,1024,2,48000,-16,experiment,SSSSS,2,even,11550,178084,NA,233073,223110,2077,178830,NA,234124,2104,NA,136120,234230,234821,234117,234230,New experiment,110,44019,116,yes,1024
94.87179487,94.87179487,380.5213675,380.5213675,black,legacy,legacy,legacy,0,congruent,uniform,1,undefined,1,h,0,0,0,116,116,0,116,0,116,0,0,0,116,116,116,116,Sun Sep 24 12:33:15 2023,600,The main experiment item,yes,Flankertask.osexp,/Users/Thingtwo/Desktop,no,mono,no,18,no,white,no,yes,768,legacy,36,79,/Users/Thingtwo/Desktop/NC-subject-2.csv,legacy,Lentiform Loewenfeld,3.3.14,0,h,NA,h,NA,h,h,502,NA,9439,NA,41963,502,2,legacy,1024,2,48000,-16,experiment,HHHHH,2,even,11550,178084,NA,234826,223110,2077,178830,NA,235875,2104,NA,136120,235981,236484,235868,235981,New experiment,111,44521,117,yes,1024
94.91525424,94.91525424,380.1779661,380.1779661,black,legacy,legacy,legacy,0,congruent,uniform,1,undefined,1,s,0,0,0,117,117,0,117,0,117,0,0,0,117,117,117,117,Sun Sep 24 12:33:15 2023,600,The main experiment item,yes,Flankertask.osexp,/Users/Thingtwo/Desktop,no,mono,no,18,no,white,no,yes,768,legacy,37,79,/Users/Thingtwo/Desktop/NC-subject-2.csv,legacy,Lentiform Loewenfeld,3.3.14,0,s,NA,h,NA,h,s,340,NA,9439,NA,41963,340,2,legacy,1024,2,48000,-16,experiment,SSSSS,2,even,11550,178084,NA,236488,223110,2077,178830,NA,237538,2104,NA,136120,237645,237986,237531,237645,New experiment,112,44861,118,yes,1024
94.95798319,94.95798319,379.9579832,379.9579832,black,legacy,legacy,legacy,0,congruent,uniform,1,undefined,1,h,0,0,0,118,118,0,118,0,118,0,0,0,118,118,118,118,Sun Sep 24 12:33:15 2023,600,The main experiment item,yes,Flankertask.osexp,/Users/Thingtwo/Desktop,no,mono,no,18,no,white,no,yes,768,legacy,38,79,/Users/Thingtwo/Desktop/NC-subject-2.csv,legacy,Lentiform Loewenfeld,3.3.14,0,h,NA,h,NA,h,h,354,NA,9439,NA,41963,354,2,legacy,1024,2,48000,-16,experiment,HHHHH,2,even,11550,178084,NA,237990,223110,2077,178830,NA,239040,2104,NA,136120,239146,239500,239033,239146,New experiment,113,45215,119,yes,1024
94.16666667,94.16666667,379.3833333,379.3833333,black,legacy,legacy,legacy,0,incongruent,uniform,0,undefined,0,h,0,0,0,119,119,0,119,0,119,0,0,0,119,119,119,119,Sun Sep 24 12:33:15 2023,600,The main experiment item,yes,Flankertask.osexp,/Users/Thingtwo/Desktop,no,mono,no,18,no,white,no,yes,768,legacy,39,79,/Users/Thingtwo/Desktop/NC-subject-2.csv,legacy,Lentiform Loewenfeld,3.3.14,0,s,NA,h,NA,h,s,311,NA,9439,NA,41963,311,2,legacy,1024,2,48000,-16,experiment,SSHSS,2,even,11550,178084,NA,239505,223110,2077,178830,NA,240554,2104,NA,136120,240661,240973,240547,240660,New experiment,113,45526,120,yes,1024
94.21487603,94.21487603,379.0413223,379.0413223,black,legacy,legacy,legacy,0,congruent,uniform,1,undefined,1,s,0,0,0,120,120,0,120,0,120,0,0,0,120,120,120,120,Sun Sep 24 12:33:15 2023,600,The main experiment item,yes,Flankertask.osexp,/Users/Thingtwo/Desktop,no,mono,no,18,no,white,no,yes,768,legacy,40,79,/Users/Thingtwo/Desktop/NC-subject-2.csv,legacy,Lentiform Loewenfeld,3.3.14,0,s,NA,h,NA,h,s,338,NA,9439,NA,41963,338,2,legacy,1024,2,48000,-16,experiment,SSSSS,2,even,11550,178084,NA,241486,240977,2077,178830,NA,242534,2104,NA,136120,242641,242980,242529,242640,New experiment,114,45864,121,yes,1024
94.26229508,94.26229508,379.3442623,379.3442623,black,legacy,legacy,legacy,0,congruent,uniform,1,undefined,1,h,0,0,0,121,121,0,121,0,121,0,0,0,121,121,121,121,Sun Sep 24 12:33:15 2023,600,The main experiment item,yes,Flankertask.osexp,/Users/Thingtwo/Desktop,no,mono,no,18,no,white,no,yes,768,legacy,41,79,/Users/Thingtwo/Desktop/NC-subject-2.csv,legacy,Lentiform Loewenfeld,3.3.14,0,h,NA,h,NA,h,h,416,NA,9439,NA,41963,416,2,legacy,1024,2,48000,-16,experiment,HHHHH,2,even,11550,178084,NA,242985,240977,2077,178830,NA,244033,2104,NA,136120,244140,244557,244027,244140,New experiment,115,46280,122,yes,1024
94.30894309,94.30894309,379.0569106,379.0569106,black,legacy,legacy,legacy,0,incongruent,uniform,1,undefined,1,h,0,0,0,122,122,0,122,0,122,0,0,0,122,122,122,122,Sun Sep 24 12:33:15 2023,600,The main experiment item,yes,Flankertask.osexp,/Users/Thingtwo/Desktop,no,mono,no,18,no,white,no,yes,768,legacy,42,79,/Users/Thingtwo/Desktop/NC-subject-2.csv,legacy,Lentiform Loewenfeld,3.3.14,0,h,NA,h,NA,h,h,344,NA,9439,NA,41963,344,2,legacy,1024,2,48000,-16,experiment,SSHSS,2,even,11550,178084,NA,244561,240977,2077,178830,NA,245612,2104,NA,136120,245718,246063,245604,245718,New experiment,116,46624,123,yes,1024
94.35483871,94.35483871,379.0725806,379.0725806,black,legacy,legacy,legacy,0,incongruent,uniform,1,undefined,1,s,0,0,0,123,123,0,123,0,123,0,0,0,123,123,123,123,Sun Sep 24 12:33:15 2023,600,The main experiment item,yes,Flankertask.osexp,/Users/Thingtwo/Desktop,no,mono,no,18,no,white,no,yes,768,legacy,43,79,/Users/Thingtwo/Desktop/NC-subject-2.csv,legacy,Lentiform Loewenfeld,3.3.14,0,s,NA,h,NA,h,s,381,NA,9439,NA,41963,381,2,legacy,1024,2,48000,-16,experiment,HHSHH,2,even,11550,178084,NA,246068,240977,2077,178830,NA,247118,2104,NA,136120,247224,247605,247111,247224,New experiment,117,47005,124,yes,1024
94.4,94.4,379.776,379.776,black,legacy,legacy,legacy,0,incongruent,uniform,1,undefined,1,s,0,0,0,124,124,0,124,0,124,0,0,0,124,124,124,124,Sun Sep 24 12:33:15 2023,600,The main experiment item,yes,Flankertask.osexp,/Users/Thingtwo/Desktop,no,mono,no,18,no,white,no,yes,768,legacy,44,79,/Users/Thingtwo/Desktop/NC-subject-2.csv,legacy,Lentiform Loewenfeld,3.3.14,0,s,NA,h,NA,h,s,467,NA,9439,NA,41963,467,2,legacy,1024,2,48000,-16,experiment,HHSHH,2,even,11550,178084,NA,247610,240977,2077,178830,NA,248661,2104,NA,136120,248768,249236,248653,248768,New experiment,118,47472,125,yes,1024
94.44444444,94.44444444,379.7460317,379.7460317,black,legacy,legacy,legacy,0,incongruent,uniform,1,undefined,1,s,0,0,0,125,125,0,125,0,125,0,0,0,125,125,125,125,Sun Sep 24 12:33:15 2023,600,The main experiment item,yes,Flankertask.osexp,/Users/Thingtwo/Desktop,no,mono,no,18,no,white,no,yes,768,legacy,45,79,/Users/Thingtwo/Desktop/NC-subject-2.csv,legacy,Lentiform Loewenfeld,3.3.14,0,s,NA,h,NA,h,s,376,NA,9439,NA,41963,376,2,legacy,1024,2,48000,-16,experiment,HHSHH,2,even,11550,178084,NA,249240,240977,2077,178830,NA,250290,2104,NA,136120,250396,250773,250283,250396,New experiment,119,47848,126,yes,1024
94.48818898,94.48818898,379.8267717,379.8267717,black,legacy,legacy,legacy,0,congruent,uniform,1,undefined,1,s,0,0,0,126,126,0,126,0,126,0,0,0,126,126,126,126,Sun Sep 24 12:33:15 2023,600,The main experiment item,yes,Flankertask.osexp,/Users/Thingtwo/Desktop,no,mono,no,18,no,white,no,yes,768,legacy,46,79,/Users/Thingtwo/Desktop/NC-subject-2.csv,legacy,Lentiform Loewenfeld,3.3.14,0,s,NA,h,NA,h,s,390,NA,9439,NA,41963,390,2,legacy,1024,2,48000,-16,experiment,SSSSS,2,even,11550,178084,NA,250777,240977,2077,178830,NA,251828,2104,NA,136120,251935,252326,251821,251935,New experiment,120,48238,127,yes,1024
94.53125,94.53125,379.8671875,379.8671875,black,legacy,legacy,legacy,0,congruent,uniform,1,undefined,1,h,0,0,0,127,127,0,127,0,127,0,0,0,127,127,127,127,Sun Sep 24 12:33:15 2023,600,The main experiment item,yes,Flankertask.osexp,/Users/Thingtwo/Desktop,no,mono,no,18,no,white,no,yes,768,legacy,47,79,/Users/Thingtwo/Desktop/NC-subject-2.csv,legacy,Lentiform Loewenfeld,3.3.14,0,h,NA,h,NA,h,h,385,NA,9439,NA,41963,385,2,legacy,1024,2,48000,-16,experiment,HHHHH,2,even,11550,178084,NA,252330,240977,2077,178830,NA,253377,2104,NA,136120,253483,253869,253371,253483,New experiment,121,48623,128,yes,1024
94.57364341,94.57364341,381.3953488,381.3953488,black,legacy,legacy,legacy,0,incongruent,uniform,1,undefined,1,s,0,0,0,128,128,0,128,0,128,0,0,0,128,128,128,128,Sun Sep 24 12:33:15 2023,600,The main experiment item,yes,Flankertask.osexp,/Users/Thingtwo/Desktop,no,mono,no,18,no,white,no,yes,768,legacy,48,79,/Users/Thingtwo/Desktop/NC-subject-2.csv,legacy,Lentiform Loewenfeld,3.3.14,0,s,NA,h,NA,h,s,577,NA,9439,NA,41963,577,2,legacy,1024,2,48000,-16,experiment,HHSHH,2,even,11550,178084,NA,253874,240977,2077,178830,NA,254924,2104,NA,136120,255031,255609,254917,255030,New experiment,122,49200,129,yes,1024
94.61538462,94.61538462,381.3076923,381.3076923,black,legacy,legacy,legacy,0,incongruent,uniform,1,undefined,1,s,0,0,0,129,129,0,129,0,129,0,0,0,129,129,129,129,Sun Sep 24 12:33:15 2023,600,The main experiment item,yes,Flankertask.osexp,/Users/Thingtwo/Desktop,no,mono,no,18,no,white,no,yes,768,legacy,49,79,/Users/Thingtwo/Desktop/NC-subject-2.csv,legacy,Lentiform Loewenfeld,3.3.14,0,s,NA,h,NA,h,s,370,NA,9439,NA,41963,370,2,legacy,1024,2,48000,-16,experiment,HHSHH,2,even,11550,178084,NA,255613,240977,2077,178830,NA,256663,2104,NA,136120,256771,257142,256656,256771,New experiment,123,49570,130,yes,1024
94.65648855,94.65648855,381.0305344,381.0305344,black,legacy,legacy,legacy,0,incongruent,uniform,1,undefined,1,s,0,0,0,130,130,0,130,0,130,0,0,0,130,130,130,130,Sun Sep 24 12:33:15 2023,600,The main experiment item,yes,Flankertask.osexp,/Users/Thingtwo/Desktop,no,mono,no,18,no,white,no,yes,768,legacy,50,79,/Users/Thingtwo/Desktop/NC-subject-2.csv,legacy,Lentiform Loewenfeld,3.3.14,0,s,NA,h,NA,h,s,345,NA,9439,NA,41963,345,2,legacy,1024,2,48000,-16,experiment,HHSHH,2,even,11550,178084,NA,257147,240977,2077,178830,NA,258198,2104,NA,136120,258304,258650,258190,258304,New experiment,124,49915,131,yes,1024
94.6969697,94.6969697,380.6060606,380.6060606,black,legacy,legacy,legacy,0,incongruent,uniform,1,undefined,1,s,0,0,0,131,131,0,131,0,131,0,0,0,131,131,131,131,Sun Sep 24 12:33:15 2023,600,The main experiment item,yes,Flankertask.osexp,/Users/Thingtwo/Desktop,no,mono,no,18,no,white,no,yes,768,legacy,51,79,/Users/Thingtwo/Desktop/NC-subject-2.csv,legacy,Lentiform Loewenfeld,3.3.14,0,s,NA,h,NA,h,s,325,NA,9439,NA,41963,325,2,legacy,1024,2,48000,-16,experiment,HHSHH,2,even,11550,178084,NA,258655,240977,2077,178830,NA,259705,2104,NA,136120,259812,260138,259698,259811,New experiment,125,50240,132,yes,1024
93.98496241,93.98496241,379.9097744,379.9097744,black,legacy,legacy,legacy,0,incongruent,uniform,0,undefined,0,h,0,0,0,132,132,0,132,0,132,0,0,0,132,132,132,132,Sun Sep 24 12:33:15 2023,600,The main experiment item,yes,Flankertask.osexp,/Users/Thingtwo/Desktop,no,mono,no,18,no,white,no,yes,768,legacy,52,79,/Users/Thingtwo/Desktop/NC-subject-2.csv,legacy,Lentiform Loewenfeld,3.3.14,0,s,NA,h,NA,h,s,288,NA,9439,NA,41963,288,2,legacy,1024,2,48000,-16,experiment,SSHSS,2,even,11550,178084,NA,260143,240977,2077,178830,NA,261192,2104,NA,136120,261299,261587,261185,261299,New experiment,125,50528,133,yes,1024
94.02985075,94.02985075,379.2537313,379.2537313,black,legacy,legacy,legacy,0,congruent,uniform,1,undefined,1,s,0,0,0,133,133,0,133,0,133,0,0,0,133,133,133,133,Sun Sep 24 12:33:15 2023,600,The main experiment item,yes,Flankertask.osexp,/Users/Thingtwo/Desktop,no,mono,no,18,no,white,no,yes,768,legacy,53,79,/Users/Thingtwo/Desktop/NC-subject-2.csv,legacy,Lentiform Loewenfeld,3.3.14,0,s,NA,h,NA,h,s,292,NA,9439,NA,41963,292,2,legacy,1024,2,48000,-16,experiment,SSSSS,2,even,11550,178084,NA,262102,261592,2077,178830,NA,263151,2104,NA,136120,263258,263550,263145,263258,New experiment,126,50820,134,yes,1024
94.07407407,94.07407407,379.2,379.2,black,legacy,legacy,legacy,0,congruent,uniform,1,undefined,1,h,0,0,0,134,134,0,134,0,134,0,0,0,134,134,134,134,Sun Sep 24 12:33:15 2023,600,The main experiment item,yes,Flankertask.osexp,/Users/Thingtwo/Desktop,no,mono,no,18,no,white,no,yes,768,legacy,54,79,/Users/Thingtwo/Desktop/NC-subject-2.csv,legacy,Lentiform Loewenfeld,3.3.14,0,h,NA,h,NA,h,h,372,NA,9439,NA,41963,372,2,legacy,1024,2,48000,-16,experiment,HHHHH,2,even,11550,178084,NA,263555,261592,2077,178830,NA,264604,2104,NA,136120,264711,265084,264598,264711,New experiment,127,51192,135,yes,1024
94.11764706,94.11764706,378.9705882,378.9705882,black,legacy,legacy,legacy,0,incongruent,uniform,1,undefined,1,s,0,0,0,135,135,0,135,0,135,0,0,0,135,135,135,135,Sun Sep 24 12:33:15 2023,600,The main experiment item,yes,Flankertask.osexp,/Users/Thingtwo/Desktop,no,mono,no,18,no,white,no,yes,768,legacy,55,79,/Users/Thingtwo/Desktop/NC-subject-2.csv,legacy,Lentiform Loewenfeld,3.3.14,0,s,NA,h,NA,h,s,348,NA,9439,NA,41963,348,2,legacy,1024,2,48000,-16,experiment,HHSHH,2,even,11550,178084,NA,265089,261592,2077,178830,NA,266138,2104,NA,136120,266244,266592,266131,266244,New experiment,128,51540,136,yes,1024
94.16058394,94.16058394,378.6277372,378.6277372,black,legacy,legacy,legacy,0,congruent,uniform,1,undefined,1,s,0,0,0,136,136,0,136,0,136,0,0,0,136,136,136,136,Sun Sep 24 12:33:15 2023,600,The main experiment item,yes,Flankertask.osexp,/Users/Thingtwo/Desktop,no,mono,no,18,no,white,no,yes,768,legacy,56,79,/Users/Thingtwo/Desktop/NC-subject-2.csv,legacy,Lentiform Loewenfeld,3.3.14,0,s,NA,h,NA,h,s,332,NA,9439,NA,41963,332,2,legacy,1024,2,48000,-16,experiment,SSSSS,2,even,11550,178084,NA,266597,261592,2077,178830,NA,267648,2104,NA,136120,267755,268087,267641,267755,New experiment,129,51872,137,yes,1024
94.20289855,94.20289855,378.8695652,378.8695652,black,legacy,legacy,legacy,0,incongruent,uniform,1,undefined,1,h,0,0,0,137,137,0,137,0,137,0,0,0,137,137,137,137,Sun Sep 24 12:33:15 2023,600,The main experiment item,yes,Flankertask.osexp,/Users/Thingtwo/Desktop,no,mono,no,18,no,white,no,yes,768,legacy,57,79,/Users/Thingtwo/Desktop/NC-subject-2.csv,legacy,Lentiform Loewenfeld,3.3.14,0,h,NA,h,NA,h,h,412,NA,9439,NA,41963,412,2,legacy,1024,2,48000,-16,experiment,SSHSS,2,even,11550,178084,NA,268092,261592,2077,178830,NA,269140,2104,NA,136120,269247,269660,269134,269247,New experiment,130,52284,138,yes,1024
94.24460432,94.24460432,378.4532374,378.4532374,black,legacy,legacy,legacy,0,congruent,uniform,1,undefined,1,s,0,0,0,138,138,0,138,0,138,0,0,0,138,138,138,138,Sun Sep 24 12:33:15 2023,600,The main experiment item,yes,Flankertask.osexp,/Users/Thingtwo/Desktop,no,mono,no,18,no,white,no,yes,768,legacy,58,79,/Users/Thingtwo/Desktop/NC-subject-2.csv,legacy,Lentiform Loewenfeld,3.3.14,0,s,NA,h,NA,h,s,321,NA,9439,NA,41963,321,2,legacy,1024,2,48000,-16,experiment,SSSSS,2,even,11550,178084,NA,269664,261592,2077,178830,NA,270714,2104,NA,136120,270821,271142,270706,270821,New experiment,131,52605,139,yes,1024
94.28571429,94.28571429,378.35,378.35,black,legacy,legacy,legacy,0,incongruent,uniform,1,undefined,1,s,0,0,0,139,139,0,139,0,139,0,0,0,139,139,139,139,Sun Sep 24 12:33:15 2023,600,The main experiment item,yes,Flankertask.osexp,/Users/Thingtwo/Desktop,no,mono,no,18,no,white,no,yes,768,legacy,59,79,/Users/Thingtwo/Desktop/NC-subject-2.csv,legacy,Lentiform Loewenfeld,3.3.14,0,s,NA,h,NA,h,s,364,NA,9439,NA,41963,364,2,legacy,1024,2,48000,-16,experiment,HHSHH,2,even,11550,178084,NA,271147,261592,2077,178830,NA,272198,2104,NA,136120,272305,272670,272190,272305,New experiment,132,52969,140,yes,1024
94.32624113,94.32624113,378.2056738,378.2056738,black,legacy,legacy,legacy,0,incongruent,uniform,1,undefined,1,s,0,0,0,140,140,0,140,0,140,0,0,0,140,140,140,140,Sun Sep 24 12:33:15 2023,600,The main experiment item,yes,Flankertask.osexp,/Users/Thingtwo/Desktop,no,mono,no,18,no,white,no,yes,768,legacy,60,79,/Users/Thingtwo/Desktop/NC-subject-2.csv,legacy,Lentiform Loewenfeld,3.3.14,0,s,NA,h,NA,h,s,358,NA,9439,NA,41963,358,2,legacy,1024,2,48000,-16,experiment,HHSHH,2,even,11550,178084,NA,272675,261592,2077,178830,NA,273726,2104,NA,136120,273833,274191,273719,273832,New experiment,133,53327,141,yes,1024
94.36619718,94.36619718,378.1478873,378.1478873,black,legacy,legacy,legacy,0,congruent,uniform,1,undefined,1,s,0,0,0,141,141,0,141,0,141,0,0,0,141,141,141,141,Sun Sep 24 12:33:15 2023,600,The main experiment item,yes,Flankertask.osexp,/Users/Thingtwo/Desktop,no,mono,no,18,no,white,no,yes,768,legacy,61,79,/Users/Thingtwo/Desktop/NC-subject-2.csv,legacy,Lentiform Loewenfeld,3.3.14,0,s,NA,h,NA,h,s,370,NA,9439,NA,41963,370,2,legacy,1024,2,48000,-16,experiment,SSSSS,2,even,11550,178084,NA,274196,261592,2077,178830,NA,275245,2104,NA,136120,275351,275721,275239,275351,New experiment,134,53697,142,yes,1024
94.40559441,94.40559441,377.7972028,377.7972028,black,legacy,legacy,legacy,0,congruent,uniform,1,undefined,1,h,0,0,0,142,142,0,142,0,142,0,0,0,142,142,142,142,Sun Sep 24 12:33:15 2023,600,The main experiment item,yes,Flankertask.osexp,/Users/Thingtwo/Desktop,no,mono,no,18,no,white,no,yes,768,legacy,62,79,/Users/Thingtwo/Desktop/NC-subject-2.csv,legacy,Lentiform Loewenfeld,3.3.14,0,h,NA,h,NA,h,h,328,NA,9439,NA,41963,328,2,legacy,1024,2,48000,-16,experiment,HHHHH,2,even,11550,178084,NA,275726,261592,2077,178830,NA,276775,2104,NA,136120,276882,277211,276768,276882,New experiment,135,54025,143,yes,1024
94.44444444,94.44444444,378.2986111,378.2986111,black,legacy,legacy,legacy,0,congruent,uniform,1,undefined,1,h,0,0,0,143,143,0,143,0,143,0,0,0,143,143,143,143,Sun Sep 24 12:33:15 2023,600,The main experiment item,yes,Flankertask.osexp,/Users/Thingtwo/Desktop,no,mono,no,18,no,white,no,yes,768,legacy,63,79,/Users/Thingtwo/Desktop/NC-subject-2.csv,legacy,Lentiform Loewenfeld,3.3.14,0,h,NA,h,NA,h,h,450,NA,9439,NA,41963,450,2,legacy,1024,2,48000,-16,experiment,HHHHH,2,even,11550,178084,NA,277216,261592,2077,178830,NA,278266,2104,NA,136120,278372,278823,278259,278372,New experiment,136,54475,144,yes,1024
94.48275862,94.48275862,378.1931034,378.1931034,black,legacy,legacy,legacy,0,congruent,uniform,1,undefined,1,h,0,0,0,144,144,0,144,0,144,0,0,0,144,144,144,144,Sun Sep 24 12:33:15 2023,600,The main experiment item,yes,Flankertask.osexp,/Users/Thingtwo/Desktop,no,mono,no,18,no,white,no,yes,768,legacy,64,79,/Users/Thingtwo/Desktop/NC-subject-2.csv,legacy,Lentiform Loewenfeld,3.3.14,0,h,NA,h,NA,h,h,363,NA,9439,NA,41963,363,2,legacy,1024,2,48000,-16,experiment,HHHHH,2,even,11550,178084,NA,278827,261592,2077,178830,NA,279878,2104,NA,136120,279984,280348,279870,279984,New experiment,137,54838,145,yes,1024
94.52054795,94.52054795,377.9931507,377.9931507,black,legacy,legacy,legacy,0,congruent,uniform,1,undefined,1,s,0,0,0,145,145,0,145,0,145,0,0,0,145,145,145,145,Sun Sep 24 12:33:15 2023,600,The main experiment item,yes,Flankertask.osexp,/Users/Thingtwo/Desktop,no,mono,no,18,no,white,no,yes,768,legacy,65,79,/Users/Thingtwo/Desktop/NC-subject-2.csv,legacy,Lentiform Loewenfeld,3.3.14,0,s,NA,h,NA,h,s,349,NA,9439,NA,41963,349,2,legacy,1024,2,48000,-16,experiment,SSSSS,2,even,11550,178084,NA,280352,261592,2077,178830,NA,281403,2104,NA,136120,281510,281859,281395,281509,New experiment,138,55187,146,yes,1024
94.55782313,94.55782313,378.4557823,378.4557823,black,legacy,legacy,legacy,0,incongruent,uniform,1,undefined,1,h,0,0,0,146,146,0,146,0,146,0,0,0,146,146,146,146,Sun Sep 24 12:33:15 2023,600,The main experiment item,yes,Flankertask.osexp,/Users/Thingtwo/Desktop,no,mono,no,18,no,white,no,yes,768,legacy,66,79,/Users/Thingtwo/Desktop/NC-subject-2.csv,legacy,Lentiform Loewenfeld,3.3.14,0,h,NA,h,NA,h,h,446,NA,9439,NA,41963,446,2,legacy,1024,2,48000,-16,experiment,SSHSS,2,even,11550,178084,NA,281864,261592,2077,178830,NA,282914,2104,NA,136120,283020,283467,282907,283020,New experiment,139,55633,147,yes,1024
94.59459459,94.59459459,378.3581081,378.3581081,black,legacy,legacy,legacy,0,congruent,uniform,1,undefined,1,s,0,0,0,147,147,0,147,0,147,0,0,0,147,147,147,147,Sun Sep 24 12:33:15 2023,600,The main experiment item,yes,Flankertask.osexp,/Users/Thingtwo/Desktop,no,mono,no,18,no,white,no,yes,768,legacy,67,79,/Users/Thingtwo/Desktop/NC-subject-2.csv,legacy,Lentiform Loewenfeld,3.3.14,0,s,NA,h,NA,h,s,364,NA,9439,NA,41963,364,2,legacy,1024,2,48000,-16,experiment,SSSSS,2,even,11550,178084,NA,283471,261592,2077,178830,NA,284520,2104,NA,136120,284626,284990,284513,284626,New experiment,140,55997,148,yes,1024
94.63087248,94.63087248,378.3154362,378.3154362,black,legacy,legacy,legacy,0,incongruent,uniform,1,undefined,1,h,0,0,0,148,148,0,148,0,148,0,0,0,148,148,148,148,Sun Sep 24 12:33:15 2023,600,The main experiment item,yes,Flankertask.osexp,/Users/Thingtwo/Desktop,no,mono,no,18,no,white,no,yes,768,legacy,68,79,/Users/Thingtwo/Desktop/NC-subject-2.csv,legacy,Lentiform Loewenfeld,3.3.14,0,h,NA,h,NA,h,h,372,NA,9439,NA,41963,372,2,legacy,1024,2,48000,-16,experiment,SSHSS,2,even,11550,178084,NA,284995,261592,2077,178830,NA,286044,2104,NA,136120,286151,286524,286038,286150,New experiment,141,56369,149,yes,1024
94.66666667,94.66666667,377.4733333,377.4733333,black,legacy,legacy,legacy,0,incongruent,uniform,1,undefined,1,h,0,0,0,149,149,0,149,0,149,0,0,0,149,149,149,149,Sun Sep 24 12:33:15 2023,600,The main experiment item,yes,Flankertask.osexp,/Users/Thingtwo/Desktop,no,mono,no,18,no,white,no,yes,768,legacy,69,79,/Users/Thingtwo/Desktop/NC-subject-2.csv,legacy,Lentiform Loewenfeld,3.3.14,0,h,NA,h,NA,h,h,252,NA,9439,NA,41963,252,2,legacy,1024,2,48000,-16,experiment,SSHSS,2,even,11550,178084,NA,286529,261592,2077,178830,NA,287578,2104,NA,136120,287685,287938,287571,287685,New experiment,142,56621,150,yes,1024
94.70198675,94.70198675,376.5430464,376.5430464,black,legacy,legacy,legacy,0,congruent,uniform,1,undefined,1,s,0,0,0,150,150,0,150,0,150,0,0,0,150,150,150,150,Sun Sep 24 12:33:15 2023,600,The main experiment item,yes,Flankertask.osexp,/Users/Thingtwo/Desktop,no,mono,no,18,no,white,no,yes,768,legacy,70,79,/Users/Thingtwo/Desktop/NC-subject-2.csv,legacy,Lentiform Loewenfeld,3.3.14,0,s,NA,h,NA,h,s,237,NA,9439,NA,41963,237,2,legacy,1024,2,48000,-16,experiment,SSSSS,2,even,11550,178084,NA,287943,261592,2077,178830,NA,288993,2104,NA,136120,289099,289337,288985,289099,New experiment,143,56858,151,yes,1024
94.07894737,94.07894737,375.9276316,375.9276316,black,legacy,legacy,legacy,0,incongruent,uniform,0,undefined,0,h,0,0,0,151,151,0,151,0,151,0,0,0,151,151,151,151,Sun Sep 24 12:33:15 2023,600,The main experiment item,yes,Flankertask.osexp,/Users/Thingtwo/Desktop,no,mono,no,18,no,white,no,yes,768,legacy,71,79,/Users/Thingtwo/Desktop/NC-subject-2.csv,legacy,Lentiform Loewenfeld,3.3.14,0,s,NA,h,NA,h,s,283,NA,9439,NA,41963,283,2,legacy,1024,2,48000,-16,experiment,SSHSS,2,even,11550,178084,NA,289342,261592,2077,178830,NA,290392,2104,NA,136120,290499,290783,290384,290499,New experiment,143,57141,152,yes,1024
94.11764706,94.11764706,375.9215686,375.9215686,black,legacy,legacy,legacy,0,incongruent,uniform,1,undefined,1,s,0,0,0,152,152,0,152,0,152,0,0,0,152,152,152,152,Sun Sep 24 12:33:15 2023,600,The main experiment item,yes,Flankertask.osexp,/Users/Thingtwo/Desktop,no,mono,no,18,no,white,no,yes,768,legacy,72,79,/Users/Thingtwo/Desktop/NC-subject-2.csv,legacy,Lentiform Loewenfeld,3.3.14,0,s,NA,h,NA,h,s,375,NA,9439,NA,41963,375,2,legacy,1024,2,48000,-16,experiment,HHSHH,2,even,11550,178084,NA,291297,290787,2077,178830,NA,292348,2104,NA,136120,292456,292832,292342,292455,New experiment,144,57516,153,yes,1024
94.15584416,94.15584416,375.4285714,375.4285714,black,legacy,legacy,legacy,0,incongruent,uniform,1,undefined,1,h,0,0,0,153,153,0,153,0,153,0,0,0,153,153,153,153,Sun Sep 24 12:33:15 2023,600,The main experiment item,yes,Flankertask.osexp,/Users/Thingtwo/Desktop,no,mono,no,18,no,white,no,yes,768,legacy,73,79,/Users/Thingtwo/Desktop/NC-subject-2.csv,legacy,Lentiform Loewenfeld,3.3.14,0,h,NA,h,NA,h,h,300,NA,9439,NA,41963,300,2,legacy,1024,2,48000,-16,experiment,SSHSS,2,even,11550,178084,NA,292837,290787,2077,178830,NA,293886,2104,NA,136120,293993,294294,293879,293993,New experiment,145,57816,154,yes,1024
94.19354839,94.19354839,375.1806452,375.1806452,black,legacy,legacy,legacy,0,incongruent,uniform,1,undefined,1,h,0,0,0,154,154,0,154,0,154,0,0,0,154,154,154,154,Sun Sep 24 12:33:15 2023,600,The main experiment item,yes,Flankertask.osexp,/Users/Thingtwo/Desktop,no,mono,no,18,no,white,no,yes,768,legacy,74,79,/Users/Thingtwo/Desktop/NC-subject-2.csv,legacy,Lentiform Loewenfeld,3.3.14,0,h,NA,h,NA,h,h,337,NA,9439,NA,41963,337,2,legacy,1024,2,48000,-16,experiment,SSHSS,2,even,11550,178084,NA,294298,290787,2077,178830,NA,295348,2104,NA,136120,295454,295792,295341,295454,New experiment,146,58153,155,yes,1024
94.23076923,94.23076923,375.5897436,375.5897436,black,legacy,legacy,legacy,0,incongruent,uniform,1,undefined,1,s,0,0,0,155,155,0,155,0,155,0,0,0,155,155,155,155,Sun Sep 24 12:33:15 2023,600,The main experiment item,yes,Flankertask.osexp,/Users/Thingtwo/Desktop,no,mono,no,18,no,white,no,yes,768,legacy,75,79,/Users/Thingtwo/Desktop/NC-subject-2.csv,legacy,Lentiform Loewenfeld,3.3.14,0,s,NA,h,NA,h,s,439,NA,9439,NA,41963,439,2,legacy,1024,2,48000,-16,experiment,HHSHH,2,even,11550,178084,NA,295796,290787,2077,178830,NA,296848,2104,NA,136120,296954,297394,296841,296954,New experiment,147,58592,156,yes,1024
94.26751592,94.26751592,376.8980892,376.8980892,black,legacy,legacy,legacy,0,congruent,uniform,1,undefined,1,s,0,0,0,156,156,0,156,0,156,0,0,0,156,156,156,156,Sun Sep 24 12:33:15 2023,600,The main experiment item,yes,Flankertask.osexp,/Users/Thingtwo/Desktop,no,mono,no,18,no,white,no,yes,768,legacy,76,79,/Users/Thingtwo/Desktop/NC-subject-2.csv,legacy,Lentiform Loewenfeld,3.3.14,0,s,NA,h,NA,h,s,581,NA,9439,NA,41963,581,2,legacy,1024,2,48000,-16,experiment,SSSSS,2,even,11550,178084,NA,297399,290787,2077,178830,NA,298448,2104,NA,136120,298555,299137,298441,298555,New experiment,148,59173,157,yes,1024
93.67088608,93.67088608,377.2911392,377.2911392,black,legacy,legacy,legacy,0,incongruent,uniform,0,undefined,0,s,0,0,0,157,157,0,157,0,157,0,0,0,157,157,157,157,Sun Sep 24 12:33:15 2023,600,The main experiment item,yes,Flankertask.osexp,/Users/Thingtwo/Desktop,no,mono,no,18,no,white,no,yes,768,legacy,77,79,/Users/Thingtwo/Desktop/NC-subject-2.csv,legacy,Lentiform Loewenfeld,3.3.14,0,h,NA,h,NA,h,h,439,NA,9439,NA,41963,439,2,legacy,1024,2,48000,-16,experiment,HHSHH,2,even,11550,178084,NA,299142,290787,2077,178830,NA,300192,2104,NA,136120,300298,300738,300185,300298,New experiment,148,59612,158,yes,1024
93.71069182,93.71069182,377.1257862,377.1257862,black,legacy,legacy,legacy,0,incongruent,uniform,1,undefined,1,s,0,0,0,158,158,0,158,0,158,0,0,0,158,158,158,158,Sun Sep 24 12:33:15 2023,600,The main experiment item,yes,Flankertask.osexp,/Users/Thingtwo/Desktop,no,mono,no,18,no,white,no,yes,768,legacy,78,79,/Users/Thingtwo/Desktop/NC-subject-2.csv,legacy,Lentiform Loewenfeld,3.3.14,0,s,NA,h,NA,h,s,351,NA,9439,NA,41963,351,2,legacy,1024,2,48000,-16,experiment,HHSHH,2,even,11550,178084,NA,301256,300743,2077,178830,NA,302307,2104,NA,136120,302415,302767,302300,302415,New experiment,149,59963,159,yes,1024
93.75,93.75,377.125,377.125,black,legacy,legacy,legacy,0,congruent,uniform,1,undefined,1,h,0,0,0,159,159,0,159,0,159,0,0,0,159,159,159,159,Sun Sep 24 12:33:15 2023,600,The main experiment item,yes,Flankertask.osexp,/Users/Thingtwo/Desktop,no,mono,no,18,no,white,no,yes,768,legacy,79,79,/Users/Thingtwo/Desktop/NC-subject-2.csv,legacy,Lentiform Loewenfeld,3.3.14,0,h,NA,h,NA,h,h,377,NA,9439,NA,41963,377,2,legacy,1024,2,48000,-16,experiment,HHHHH,2,even,11550,178084,NA,302772,300743,2077,178830,NA,303823,2104,NA,136120,303930,304308,303815,303930,New experiment,150,60340,160,yes,1024
93.78881988,93.78881988,379.8198758,379.8198758,black,legacy,legacy,legacy,0,incongruent,uniform,1,undefined,1,s,0,0,0,160,160,0,160,0,160,0,0,0,160,160,160,160,Sun Sep 24 12:33:15 2023,300,The main experiment item,yes,Flankertask.osexp,/Users/Thingtwo/Desktop,no,mono,no,18,no,white,no,yes,768,legacy,0,79,/Users/Thingtwo/Desktop/NC-subject-2.csv,legacy,Lentiform Loewenfeld,3.3.14,0,s,NA,h,h,h,s,811,NA,9439,60157,41963,811,2,legacy,1024,2,48000,-16,experiment,HHSHH,2,even,11550,178084,365505,304313,300743,2077,178830,NA,365529,2104,305346,136120,365634,366446,365525,365634,New experiment,151,61151,161,yes,1024
93.20987654,93.20987654,379.3209877,379.3209877,black,legacy,legacy,legacy,0,incongruent,uniform,0,undefined,0,h,0,0,0,161,161,0,161,0,161,0,0,0,161,161,161,161,Sun Sep 24 12:33:15 2023,300,The main experiment item,yes,Flankertask.osexp,/Users/Thingtwo/Desktop,no,mono,no,18,no,white,no,yes,768,legacy,1,79,/Users/Thingtwo/Desktop/NC-subject-2.csv,legacy,Lentiform Loewenfeld,3.3.14,0,s,NA,h,h,h,s,299,NA,9439,60157,41963,299,2,legacy,1024,2,48000,-16,experiment,SSHSS,2,even,11550,178084,365505,366964,300743,2077,366452,NA,368017,2104,305346,136120,368123,368423,368009,368123,New experiment,151,61450,162,yes,1024
93.25153374,93.25153374,378.6196319,378.6196319,black,legacy,legacy,legacy,0,incongruent,uniform,1,undefined,1,s,0,0,0,162,162,0,162,0,162,0,0,0,162,162,162,162,Sun Sep 24 12:33:15 2023,300,The main experiment item,yes,Flankertask.osexp,/Users/Thingtwo/Desktop,no,mono,no,18,no,white,no,yes,768,legacy,2,79,/Users/Thingtwo/Desktop/NC-subject-2.csv,legacy,Lentiform Loewenfeld,3.3.14,0,s,NA,h,h,h,s,265,NA,9439,60157,41963,265,2,legacy,1024,2,48000,-16,experiment,HHSHH,2,even,11550,178084,365505,368940,368428,2077,366452,NA,369991,2104,305346,136120,370098,370363,369984,370098,New experiment,152,61715,163,yes,1024
93.29268293,93.29268293,377.9268293,377.9268293,black,legacy,legacy,legacy,0,congruent,uniform,1,undefined,1,s,0,0,0,163,163,0,163,0,163,0,0,0,163,163,163,163,Sun Sep 24 12:33:15 2023,300,The main experiment item,yes,Flankertask.osexp,/Users/Thingtwo/Desktop,no,mono,no,18,no,white,no,yes,768,legacy,3,79,/Users/Thingtwo/Desktop/NC-subject-2.csv,legacy,Lentiform Loewenfeld,3.3.14,0,s,NA,h,h,h,s,265,NA,9439,60157,41963,265,2,legacy,1024,2,48000,-16,experiment,SSSSS,2,even,11550,178084,365505,370368,368428,2077,366452,NA,371417,2104,305346,136120,371524,371790,371411,371524,New experiment,153,61980,164,yes,1024
93.33333333,93.33333333,376.8787879,376.8787879,black,legacy,legacy,legacy,0,incongruent,uniform,1,undefined,1,s,0,0,0,164,164,0,164,0,164,0,0,0,164,164,164,164,Sun Sep 24 12:33:15 2023,300,The main experiment item,yes,Flankertask.osexp,/Users/Thingtwo/Desktop,no,mono,no,18,no,white,no,yes,768,legacy,4,79,/Users/Thingtwo/Desktop/NC-subject-2.csv,legacy,Lentiform Loewenfeld,3.3.14,0,s,NA,h,h,h,s,205,NA,9439,60157,41963,205,2,legacy,1024,2,48000,-16,experiment,HHSHH,2,even,11550,178084,365505,371795,368428,2077,366452,NA,372844,2104,305346,136120,372951,373157,372838,372950,New experiment,154,62185,165,yes,1024
93.37349398,93.37349398,375.1626506,375.1626506,black,legacy,legacy,legacy,0,incongruent,uniform,1,undefined,1,h,0,0,0,165,165,0,165,0,165,0,0,0,165,165,165,165,Sun Sep 24 12:33:15 2023,300,The main experiment item,yes,Flankertask.osexp,/Users/Thingtwo/Desktop,no,mono,no,18,no,white,no,yes,768,legacy,5,79,/Users/Thingtwo/Desktop/NC-subject-2.csv,legacy,Lentiform Loewenfeld,3.3.14,0,h,NA,h,h,h,h,92,NA,9439,60157,41963,92,2,legacy,1024,2,48000,-16,experiment,SSHSS,2,even,11550,178084,365505,373161,368428,2077,366452,NA,374212,2104,305346,136120,374319,374412,374207,374319,New experiment,155,62277,166,yes,1024
93.41317365,93.41317365,374.0718563,374.0718563,black,legacy,legacy,legacy,0,congruent,uniform,1,undefined,1,h,0,0,0,166,166,0,166,0,166,0,0,0,166,166,166,166,Sun Sep 24 12:33:15 2023,300,The main experiment item,yes,Flankertask.osexp,/Users/Thingtwo/Desktop,no,mono,no,18,no,white,no,yes,768,legacy,6,79,/Users/Thingtwo/Desktop/NC-subject-2.csv,legacy,Lentiform Loewenfeld,3.3.14,0,h,NA,h,h,h,h,193,NA,9439,60157,41963,193,2,legacy,1024,2,48000,-16,experiment,HHHHH,2,even,11550,178084,365505,374417,368428,2077,366452,NA,375465,2104,305346,136120,375572,375766,375458,375572,New experiment,156,62470,167,yes,1024
