Stimulus,acc,accuracy,average_response_time,avg_rt,background,canvas_backend,clock_backend,color_backend,compensation,condition,coordinates,correct,correct_instructions1,correct_keyboard_response,correct_response,count_Block3,count_ErrorFeedback,count_ISI,count_Logger,count_block1,count_block2,count_experiment,count_faster,count_finish,count_fixation,count_instruction2,count_instructions1,count_instructions3,count_keyboard_response,count_sequence,count_stimulus,datetime,deadline,description,disable_garbage_collection,experiment_file,experiment_path,font_bold,font_family,font_italic,font_size,font_underline,foreground,form_clicks,fullscreen,height,keyboard_backend,live_row,live_row_block1,logfile,mouse_backend,opensesame_codename,opensesame_version,repeat_cycle,response,response_finish,response_instruction2,response_instructions1,response_instructions3,response_keyboard_response,response_time,response_time_finish,response_time_instruction2,response_time_instructions1,response_time_instructions3,response_time_keyboard_response,round_decimals,sampler_backend,sound_buf_size,sound_channels,sound_freq,sound_sample_size,start,subject_nr,subject_parity,time_Block3,time_ErrorFeedback,time_ISI,time_Logger,time_block1,time_block2,time_experiment,time_faster,time_finish,time_fixation,time_instruction2,time_instructions1,time_instructions3,time_keyboard_response,time_sequence,time_stimulus,title,total_correct,total_response_time,total_responses,uniform_coordinates,width
SSHSS,0,0,669,669,black,legacy,legacy,legacy,0,incongruent,uniform,0,undefined,0,h,0,0,0,0,0,0,0,0,0,0,0,0,0,0,0,0,Sat Sep 19 00:49:20 2020,1500,The main experiment item,yes,FlankerTask.osexp,C:\Users\Owner\Documents,no,mono,no,18,no,white,no,yes,768,legacy,0,0,C:/Users/Owner/Documents/KMPsubject-4.csv,legacy,Lentiform Loewenfeld,3.3.3,0,s,NA,NA,s,NA,s,669,NA,NA,578,NA,669,2,legacy,1024,2,48000,-16,experiment,4,even,NA,NA,NA,5206,4372,NA,3788,NA,NA,4432,NA,3793,NA,4536,4431,4536,Flanker Test,0,669,1,yes,1024
SSSSS,50,50,565,565,black,legacy,legacy,legacy,0,congruent,uniform,1,undefined,1,s,0,1,1,1,0,0,0,1,0,1,0,0,0,1,1,1,Sat Sep 19 00:49:20 2020,1500,The main experiment item,yes,FlankerTask.osexp,C:\Users\Owner\Documents,no,mono,no,18,no,white,no,yes,768,legacy,1,1,C:/Users/Owner/Documents/KMPsubject-4.csv,legacy,Lentiform Loewenfeld,3.3.3,0,s,NA,NA,s,NA,s,461,NA,NA,578,NA,461,2,legacy,1024,2,48000,-16,experiment,4,even,NA,5211,5716,7398,4372,NA,3788,NA,NA,6835,NA,3793,NA,6936,6833,6936,Flanker Test,1,1130,2,yes,1024
SSSSS,66.66666667,66.66666667,512.6666667,512.6666667,black,legacy,legacy,legacy,0,congruent,uniform,1,undefined,1,s,0,2,2,2,0,0,0,2,0,2,0,0,0,2,2,2,Sat Sep 19 00:49:20 2020,1500,The main experiment item,yes,FlankerTask.osexp,C:\Users\Owner\Documents,no,mono,no,18,no,white,no,yes,768,legacy,2,2,C:/Users/Owner/Documents/KMPsubject-4.csv,legacy,Lentiform Loewenfeld,3.3.3,0,s,NA,NA,s,NA,s,408,NA,NA,578,NA,408,2,legacy,1024,2,48000,-16,experiment,4,even,NA,5211,7401,9017,4372,NA,3788,NA,NA,8506,NA,3793,NA,8607,8505,8607,Flanker Test,2,1538,3,yes,1024
SSSSS,75,75,477,477,black,legacy,legacy,legacy,0,congruent,uniform,1,undefined,1,s,0,3,3,3,0,0,0,3,0,3,0,0,0,3,3,3,Sat Sep 19 00:49:20 2020,1500,The main experiment item,yes,FlankerTask.osexp,C:\Users\Owner\Documents,no,mono,no,18,no,white,no,yes,768,legacy,3,3,C:/Users/Owner/Documents/KMPsubject-4.csv,legacy,Lentiform Loewenfeld,3.3.3,0,s,NA,NA,s,NA,s,370,NA,NA,578,NA,370,2,legacy,1024,2,48000,-16,experiment,4,even,NA,5211,9020,10585,4372,NA,3788,NA,NA,10113,NA,3793,NA,10215,10112,10214,Flanker Test,3,1908,4,yes,1024
HHSHH,80,80,480.4,480.4,black,legacy,legacy,legacy,0,incongruent,uniform,1,undefined,1,s,0,4,4,4,0,0,0,4,0,4,0,0,0,4,4,4,Sat Sep 19 00:49:20 2020,1500,The main experiment item,yes,FlankerTask.osexp,C:\Users\Owner\Documents,no,mono,no,18,no,white,no,yes,768,legacy,4,4,C:/Users/Owner/Documents/KMPsubject-4.csv,legacy,Lentiform Loewenfeld,3.3.3,0,s,NA,NA,s,NA,s,494,NA,NA,578,NA,494,2,legacy,1024,2,48000,-16,experiment,4,even,NA,5211,10589,12307,4372,NA,3788,NA,NA,11708,NA,3793,NA,11812,11706,11812,Flanker Test,4,2402,5,yes,1024
HHSHH,83.33333333,83.33333333,471.5,471.5,black,legacy,legacy,legacy,0,incongruent,uniform,1,undefined,1,s,0,5,5,5,0,0,0,5,0,5,0,0,0,5,5,5,Sat Sep 19 00:49:20 2020,1500,The main experiment item,yes,FlankerTask.osexp,C:\Users\Owner\Documents,no,mono,no,18,no,white,no,yes,768,legacy,5,5,C:/Users/Owner/Documents/KMPsubject-4.csv,legacy,Lentiform Loewenfeld,3.3.3,0,s,NA,NA,s,NA,s,427,NA,NA,578,NA,427,2,legacy,1024,2,48000,-16,experiment,4,even,NA,5211,12310,13930,4372,NA,3788,NA,NA,13399,NA,3793,NA,13502,13398,13502,Flanker Test,5,2829,6,yes,1024
HHHHH,85.71428571,85.71428571,455.4285714,455.4285714,black,legacy,legacy,legacy,0,congruent,uniform,1,undefined,1,h,0,6,6,6,0,0,0,6,0,6,0,0,0,6,6,6,Sat Sep 19 00:49:20 2020,1500,The main experiment item,yes,FlankerTask.osexp,C:\Users\Owner\Documents,no,mono,no,18,no,white,no,yes,768,legacy,6,6,C:/Users/Owner/Documents/KMPsubject-4.csv,legacy,Lentiform Loewenfeld,3.3.3,0,h,NA,NA,s,NA,h,359,NA,NA,578,NA,359,2,legacy,1024,2,48000,-16,experiment,4,even,NA,5211,13935,15505,4372,NA,3788,NA,NA,15042,NA,3793,NA,15145,15040,15145,Flanker Test,6,3188,7,yes,1024
HHHHH,75,75,439.625,439.625,black,legacy,legacy,legacy,0,congruent,uniform,0,undefined,0,h,0,7,7,7,0,0,0,7,0,7,0,0,0,7,7,7,Sat Sep 19 00:49:20 2020,1500,The main experiment item,yes,FlankerTask.osexp,C:\Users\Owner\Documents,no,mono,no,18,no,white,no,yes,768,legacy,7,7,C:/Users/Owner/Documents/KMPsubject-4.csv,legacy,Lentiform Loewenfeld,3.3.3,0,s,NA,NA,s,NA,s,329,NA,NA,578,NA,329,2,legacy,1024,2,48000,-16,experiment,4,even,NA,5211,15508,17002,4372,NA,3788,NA,NA,16569,NA,3793,NA,16672,16567,16672,Flanker Test,6,3517,8,yes,1024
HHHHH,66.66666667,66.66666667,425.8888889,425.8888889,black,legacy,legacy,legacy,0,congruent,uniform,0,undefined,0,h,0,8,8,8,0,0,0,8,0,8,0,0,0,8,8,8,Sat Sep 19 00:49:20 2020,1500,The main experiment item,yes,FlankerTask.osexp,C:\Users\Owner\Documents,no,mono,no,18,no,white,no,yes,768,legacy,8,8,C:/Users/Owner/Documents/KMPsubject-4.csv,legacy,Lentiform Loewenfeld,3.3.3,0,s,NA,NA,s,NA,s,316,NA,NA,578,NA,316,2,legacy,1024,2,48000,-16,experiment,4,even,NA,17005,17509,19037,4372,NA,3788,NA,NA,18619,NA,3793,NA,18720,18617,18720,Flanker Test,6,3833,9,yes,1024
SSHSS,60,60,415.8,415.8,black,legacy,legacy,legacy,0,incongruent,uniform,0,undefined,0,h,0,9,9,9,0,0,0,9,0,9,0,0,0,9,9,9,Sat Sep 19 00:49:20 2020,1500,The main experiment item,yes,FlankerTask.osexp,C:\Users\Owner\Documents,no,mono,no,18,no,white,no,yes,768,legacy,9,9,C:/Users/Owner/Documents/KMPsubject-4.csv,legacy,Lentiform Loewenfeld,3.3.3,0,s,NA,NA,s,NA,s,325,NA,NA,578,NA,325,2,legacy,1024,2,48000,-16,experiment,4,even,NA,19040,19544,21098,4372,NA,3788,NA,NA,20668,NA,3793,NA,20771,20667,20771,Flanker Test,6,4158,10,yes,1024
SSSSS,63.63636364,63.63636364,407.2727273,407.2727273,black,legacy,legacy,legacy,0,congruent,uniform,1,undefined,1,s,0,10,10,10,0,0,0,10,0,10,0,0,0,10,10,10,Sat Sep 19 00:49:20 2020,1500,The main experiment item,yes,FlankerTask.osexp,C:\Users\Owner\Documents,no,mono,no,18,no,white,no,yes,768,legacy,10,10,C:/Users/Owner/Documents/KMPsubject-4.csv,legacy,Lentiform Loewenfeld,3.3.3,0,s,NA,NA,s,NA,s,322,NA,NA,578,NA,322,2,legacy,1024,2,48000,-16,experiment,4,even,NA,21101,21605,23134,4372,NA,3788,NA,NA,22708,NA,3793,NA,22811,22706,22811,Flanker Test,7,4480,11,yes,1024
HHHHH,66.66666667,66.66666667,403.25,403.25,black,legacy,legacy,legacy,0,congruent,uniform,1,undefined,1,h,0,11,11,11,0,0,0,11,0,11,0,0,0,11,11,11,Sat Sep 19 00:49:20 2020,1500,The main experiment item,yes,FlankerTask.osexp,C:\Users\Owner\Documents,no,mono,no,18,no,white,no,yes,768,legacy,11,11,C:/Users/Owner/Documents/KMPsubject-4.csv,legacy,Lentiform Loewenfeld,3.3.3,0,h,NA,NA,s,NA,h,359,NA,NA,578,NA,359,2,legacy,1024,2,48000,-16,experiment,4,even,NA,21101,23138,24654,4372,NA,3788,NA,NA,24190,NA,3793,NA,24294,24189,24294,Flanker Test,8,4839,12,yes,1024
HHSHH,69.23076923,69.23076923,397,397,black,legacy,legacy,legacy,0,incongruent,uniform,1,undefined,1,s,0,12,12,12,0,0,0,12,0,12,0,0,0,12,12,12,Sat Sep 19 00:49:20 2020,1500,The main experiment item,yes,FlankerTask.osexp,C:\Users\Owner\Documents,no,mono,no,18,no,white,no,yes,768,legacy,12,12,C:/Users/Owner/Documents/KMPsubject-4.csv,legacy,Lentiform Loewenfeld,3.3.3,0,s,NA,NA,s,NA,s,322,NA,NA,578,NA,322,2,legacy,1024,2,48000,-16,experiment,4,even,NA,21101,24658,26195,4372,NA,3788,NA,NA,25767,NA,3793,NA,25871,25766,25871,Flanker Test,9,5161,13,yes,1024
SSSSS,71.42857143,71.42857143,393.5,393.5,black,legacy,legacy,legacy,0,congruent,uniform,1,undefined,1,s,0,13,13,13,0,0,0,13,0,13,0,0,0,13,13,13,Sat Sep 19 00:49:20 2020,1500,The main experiment item,yes,FlankerTask.osexp,C:\Users\Owner\Documents,no,mono,no,18,no,white,no,yes,768,legacy,13,13,C:/Users/Owner/Documents/KMPsubject-4.csv,legacy,Lentiform Loewenfeld,3.3.3,0,s,NA,NA,s,NA,s,348,NA,NA,578,NA,348,2,legacy,1024,2,48000,-16,experiment,4,even,NA,21101,26198,27754,4372,NA,3788,NA,NA,27304,NA,3793,NA,27405,27302,27405,Flanker Test,10,5509,14,yes,1024
SSSSS,73.33333333,73.33333333,394.8,394.8,black,legacy,legacy,legacy,0,congruent,uniform,1,undefined,1,s,0,14,14,14,0,0,0,14,0,14,0,0,0,14,14,14,Sat Sep 19 00:49:20 2020,1500,The main experiment item,yes,FlankerTask.osexp,C:\Users\Owner\Documents,no,mono,no,18,no,white,no,yes,768,legacy,14,14,C:/Users/Owner/Documents/KMPsubject-4.csv,legacy,Lentiform Loewenfeld,3.3.3,0,s,NA,NA,s,NA,s,413,NA,NA,578,NA,413,2,legacy,1024,2,48000,-16,experiment,4,even,NA,21101,27757,29382,4372,NA,3788,NA,NA,28864,NA,3793,NA,28968,28862,28967,Flanker Test,11,5922,15,yes,1024
SSSSS,75,75,395.25,395.25,black,legacy,legacy,legacy,0,congruent,uniform,1,undefined,1,s,0,15,15,15,0,0,0,15,0,15,0,0,0,15,15,15,Sat Sep 19 00:49:20 2020,1500,The main experiment item,yes,FlankerTask.osexp,C:\Users\Owner\Documents,no,mono,no,18,no,white,no,yes,768,legacy,15,15,C:/Users/Owner/Documents/KMPsubject-4.csv,legacy,Lentiform Loewenfeld,3.3.3,0,s,NA,NA,s,NA,s,402,NA,NA,578,NA,402,2,legacy,1024,2,48000,-16,experiment,4,even,NA,21101,29385,30994,4372,NA,3788,NA,NA,30490,NA,3793,NA,30591,30489,30591,Flanker Test,12,6324,16,yes,1024
HHHHH,76.47058824,76.47058824,393,393,black,legacy,legacy,legacy,0,congruent,uniform,1,undefined,1,h,0,16,16,16,0,0,0,16,0,16,0,0,0,16,16,16,Sat Sep 19 00:49:20 2020,1500,The main experiment item,yes,FlankerTask.osexp,C:\Users\Owner\Documents,no,mono,no,18,no,white,no,yes,768,legacy,16,16,C:/Users/Owner/Documents/KMPsubject-4.csv,legacy,Lentiform Loewenfeld,3.3.3,0,h,NA,NA,s,NA,h,357,NA,NA,578,NA,357,2,legacy,1024,2,48000,-16,experiment,4,even,NA,21101,30997,32562,4372,NA,3788,NA,NA,32101,NA,3793,NA,32204,32100,32204,Flanker Test,13,6681,17,yes,1024
SSSSS,77.77777778,77.77777778,388.8888889,388.8888889,black,legacy,legacy,legacy,0,congruent,uniform,1,undefined,1,s,0,17,17,17,0,0,0,17,0,17,0,0,0,17,17,17,Sat Sep 19 00:49:20 2020,1500,The main experiment item,yes,FlankerTask.osexp,C:\Users\Owner\Documents,no,mono,no,18,no,white,no,yes,768,legacy,17,17,C:/Users/Owner/Documents/KMPsubject-4.csv,legacy,Lentiform Loewenfeld,3.3.3,0,s,NA,NA,s,NA,s,319,NA,NA,578,NA,319,2,legacy,1024,2,48000,-16,experiment,4,even,NA,21101,32566,34107,4372,NA,3788,NA,NA,33686,NA,3793,NA,33787,33684,33787,Flanker Test,14,7000,18,yes,1024
HHHHH,73.68421053,73.68421053,388.4210526,388.4210526,black,legacy,legacy,legacy,0,congruent,uniform,0,undefined,0,h,0,18,18,18,0,0,0,18,0,18,0,0,0,18,18,18,Sat Sep 19 00:49:20 2020,1500,The main experiment item,yes,FlankerTask.osexp,C:\Users\Owner\Documents,no,mono,no,18,no,white,no,yes,768,legacy,18,18,C:/Users/Owner/Documents/KMPsubject-4.csv,legacy,Lentiform Loewenfeld,3.3.3,0,s,NA,NA,s,NA,s,380,NA,NA,578,NA,380,2,legacy,1024,2,48000,-16,experiment,4,even,NA,21101,34110,35696,4372,NA,3788,NA,NA,35212,NA,3793,NA,35315,35210,35315,Flanker Test,14,7380,19,yes,1024
HHHHH,75,75,389.85,389.85,black,legacy,legacy,legacy,0,congruent,uniform,1,undefined,1,h,0,19,19,19,0,0,0,19,0,19,0,0,0,19,19,19,Sat Sep 19 00:49:20 2020,1500,The main experiment item,yes,FlankerTask.osexp,C:\Users\Owner\Documents,no,mono,no,18,no,white,no,yes,768,legacy,19,19,C:/Users/Owner/Documents/KMPsubject-4.csv,legacy,Lentiform Loewenfeld,3.3.3,0,h,NA,NA,s,NA,h,417,NA,NA,578,NA,417,2,legacy,1024,2,48000,-16,experiment,4,even,NA,35699,36203,37830,4372,NA,3788,NA,NA,37309,NA,3793,NA,37412,37307,37412,Flanker Test,15,7797,20,yes,1024
HHSHH,76.19047619,76.19047619,394.9047619,394.9047619,black,legacy,legacy,legacy,0,incongruent,uniform,1,undefined,1,s,0,20,20,20,0,0,0,20,0,20,0,0,0,20,20,20,Sat Sep 19 00:49:20 2020,1500,The main experiment item,yes,FlankerTask.osexp,C:\Users\Owner\Documents,no,mono,no,18,no,white,no,yes,768,legacy,20,20,C:/Users/Owner/Documents/KMPsubject-4.csv,legacy,Lentiform Loewenfeld,3.3.3,0,s,NA,NA,s,NA,s,496,NA,NA,578,NA,496,2,legacy,1024,2,48000,-16,experiment,4,even,NA,35699,37833,39541,4372,NA,3788,NA,NA,38941,NA,3793,NA,39044,38940,39044,Flanker Test,16,8293,21,yes,1024
SSSSS,77.27272727,77.27272727,393.3636364,393.3636364,black,legacy,legacy,legacy,0,congruent,uniform,1,undefined,1,s,0,21,21,21,0,0,0,21,0,21,0,0,0,21,21,21,Sat Sep 19 00:49:20 2020,1500,The main experiment item,yes,FlankerTask.osexp,C:\Users\Owner\Documents,no,mono,no,18,no,white,no,yes,768,legacy,21,21,C:/Users/Owner/Documents/KMPsubject-4.csv,legacy,Lentiform Loewenfeld,3.3.3,0,s,NA,NA,s,NA,s,361,NA,NA,578,NA,361,2,legacy,1024,2,48000,-16,experiment,4,even,NA,35699,39545,41164,4372,NA,3788,NA,NA,40699,NA,3793,NA,40803,40697,40803,Flanker Test,17,8654,22,yes,1024
SSHSS,78.26086957,78.26086957,399.3043478,399.3043478,black,legacy,legacy,legacy,0,incongruent,uniform,1,undefined,1,h,0,22,22,22,0,0,0,22,0,22,0,0,0,22,22,22,Sat Sep 19 00:49:20 2020,1500,The main experiment item,yes,FlankerTask.osexp,C:\Users\Owner\Documents,no,mono,no,18,no,white,no,yes,768,legacy,22,22,C:/Users/Owner/Documents/KMPsubject-4.csv,legacy,Lentiform Loewenfeld,3.3.3,0,h,NA,NA,s,NA,h,530,NA,NA,578,NA,530,2,legacy,1024,2,48000,-16,experiment,4,even,NA,35699,41169,42907,4372,NA,3788,NA,NA,42273,NA,3793,NA,42376,42272,42376,Flanker Test,18,9184,23,yes,1024
HHSHH,79.16666667,79.16666667,394.4583333,394.4583333,black,legacy,legacy,legacy,0,incongruent,uniform,1,undefined,1,s,0,23,23,23,0,0,0,23,0,23,0,0,0,23,23,23,Sat Sep 19 00:49:20 2020,1500,The main experiment item,yes,FlankerTask.osexp,C:\Users\Owner\Documents,no,mono,no,18,no,white,no,yes,768,legacy,23,23,C:/Users/Owner/Documents/KMPsubject-4.csv,legacy,Lentiform Loewenfeld,3.3.3,0,s,NA,NA,s,NA,s,283,NA,NA,578,NA,283,2,legacy,1024,2,48000,-16,experiment,4,even,NA,35699,42911,44378,4372,NA,3788,NA,NA,43991,NA,3793,NA,44095,43990,44094,Flanker Test,19,9467,24,yes,1024
SSHSS,80,80,391.28,391.28,black,legacy,legacy,legacy,0,incongruent,uniform,1,undefined,1,h,0,24,24,24,0,0,0,24,0,24,0,0,0,24,24,24,Sat Sep 19 00:49:20 2020,1500,The main experiment item,yes,FlankerTask.osexp,C:\Users\Owner\Documents,no,mono,no,18,no,white,no,yes,768,legacy,24,24,C:/Users/Owner/Documents/KMPsubject-4.csv,legacy,Lentiform Loewenfeld,3.3.3,0,h,NA,NA,s,NA,h,315,NA,NA,578,NA,315,2,legacy,1024,2,48000,-16,experiment,4,even,NA,35699,44385,45907,4372,NA,3788,NA,NA,45488,NA,3793,NA,45591,45486,45591,Flanker Test,20,9782,25,yes,1024
HHHHH,76.92307692,76.92307692,388.5,388.5,black,legacy,legacy,legacy,0,congruent,uniform,0,undefined,0,h,0,25,25,25,0,0,0,25,0,25,0,0,0,25,25,25,Sat Sep 19 00:49:20 2020,1500,The main experiment item,yes,FlankerTask.osexp,C:\Users\Owner\Documents,no,mono,no,18,no,white,no,yes,768,legacy,25,25,C:/Users/Owner/Documents/KMPsubject-4.csv,legacy,Lentiform Loewenfeld,3.3.3,0,s,NA,NA,s,NA,s,319,NA,NA,578,NA,319,2,legacy,1024,2,48000,-16,experiment,4,even,NA,35699,45911,47401,4372,NA,3788,NA,NA,46977,NA,3793,NA,47080,46975,47080,Flanker Test,20,10101,26,yes,1024
SSHSS,74.07407407,74.07407407,384.5925926,384.5925926,black,legacy,legacy,legacy,0,incongruent,uniform,0,undefined,0,h,0,26,26,26,0,0,0,26,0,26,0,0,0,26,26,26,Sat Sep 19 00:49:20 2020,1500,The main experiment item,yes,FlankerTask.osexp,C:\Users\Owner\Documents,no,mono,no,18,no,white,no,yes,768,legacy,26,26,C:/Users/Owner/Documents/KMPsubject-4.csv,legacy,Lentiform Loewenfeld,3.3.3,0,s,NA,NA,s,NA,s,283,NA,NA,578,NA,283,2,legacy,1024,2,48000,-16,experiment,4,even,NA,47405,47909,49403,4372,NA,3788,NA,NA,49016,NA,3793,NA,49118,49014,49118,Flanker Test,20,10384,27,yes,1024
SSHSS,75,75,386.5357143,386.5357143,black,legacy,legacy,legacy,0,incongruent,uniform,1,undefined,1,h,0,27,27,27,0,0,0,27,0,27,0,0,0,27,27,27,Sat Sep 19 00:49:20 2020,1500,The main experiment item,yes,FlankerTask.osexp,C:\Users\Owner\Documents,no,mono,no,18,no,white,no,yes,768,legacy,27,27,C:/Users/Owner/Documents/KMPsubject-4.csv,legacy,Lentiform Loewenfeld,3.3.3,0,h,NA,NA,s,NA,h,439,NA,NA,578,NA,439,2,legacy,1024,2,48000,-16,experiment,4,even,NA,49406,49910,51556,4372,NA,3788,NA,NA,51015,NA,3793,NA,51116,51013,51116,Flanker Test,21,10823,28,yes,1024
HHHHH,75.86206897,75.86206897,389.6551724,389.6551724,black,legacy,legacy,legacy,0,congruent,uniform,1,undefined,1,h,0,28,28,28,0,0,0,28,0,28,0,0,0,28,28,28,Sat Sep 19 00:49:20 2020,1500,The main experiment item,yes,FlankerTask.osexp,C:\Users\Owner\Documents,no,mono,no,18,no,white,no,yes,768,legacy,28,28,C:/Users/Owner/Documents/KMPsubject-4.csv,legacy,Lentiform Loewenfeld,3.3.3,0,h,NA,NA,s,NA,h,477,NA,NA,578,NA,477,2,legacy,1024,2,48000,-16,experiment,4,even,NA,49406,51559,53245,4372,NA,3788,NA,NA,52664,NA,3793,NA,52767,52663,52767,Flanker Test,22,11300,29,yes,1024
HHHHH,76.66666667,76.66666667,391.6,391.6,black,legacy,legacy,legacy,0,congruent,uniform,1,undefined,1,h,0,29,29,29,0,0,0,29,0,29,0,0,0,29,29,29,Sat Sep 19 00:49:20 2020,1500,The main experiment item,yes,FlankerTask.osexp,C:\Users\Owner\Documents,no,mono,no,18,no,white,no,yes,768,legacy,29,29,C:/Users/Owner/Documents/KMPsubject-4.csv,legacy,Lentiform Loewenfeld,3.3.3,0,h,NA,NA,s,NA,h,448,NA,NA,578,NA,448,2,legacy,1024,2,48000,-16,experiment,4,even,NA,49406,53249,54859,4372,NA,3788,NA,NA,54309,NA,3793,NA,54410,54307,54410,Flanker Test,23,11748,30,yes,1024
SSSSS,77.41935484,77.41935484,392.0322581,392.0322581,black,legacy,legacy,legacy,0,congruent,uniform,1,undefined,1,s,0,30,30,30,0,0,0,30,0,30,0,0,0,30,30,30,Sat Sep 19 00:49:20 2020,1500,The main experiment item,yes,FlankerTask.osexp,C:\Users\Owner\Documents,no,mono,no,18,no,white,no,yes,768,legacy,30,30,C:/Users/Owner/Documents/KMPsubject-4.csv,legacy,Lentiform Loewenfeld,3.3.3,0,s,NA,NA,s,NA,s,405,NA,NA,578,NA,405,2,legacy,1024,2,48000,-16,experiment,4,even,NA,49406,54862,56475,4372,NA,3788,NA,NA,55966,NA,3793,NA,56069,55964,56069,Flanker Test,24,12153,31,yes,1024
HHHHH,78.125,78.125,393.65625,393.65625,black,legacy,legacy,legacy,0,congruent,uniform,1,undefined,1,h,0,31,31,31,0,0,0,31,0,31,0,0,0,31,31,31,Sat Sep 19 00:49:20 2020,1500,The main experiment item,yes,FlankerTask.osexp,C:\Users\Owner\Documents,no,mono,no,18,no,white,no,yes,768,legacy,31,31,C:/Users/Owner/Documents/KMPsubject-4.csv,legacy,Lentiform Loewenfeld,3.3.3,0,h,NA,NA,s,NA,h,444,NA,NA,578,NA,444,2,legacy,1024,2,48000,-16,experiment,4,even,NA,49406,56478,58127,4372,NA,3788,NA,NA,57581,NA,3793,NA,57682,57579,57682,Flanker Test,25,12597,32,yes,1024
HHHHH,78.78787879,78.78787879,397.1818182,397.1818182,black,legacy,legacy,legacy,0,congruent,uniform,1,undefined,1,h,0,32,32,32,0,0,0,32,0,32,0,0,0,32,32,32,Sat Sep 19 00:49:20 2020,1500,The main experiment item,yes,FlankerTask.osexp,C:\Users\Owner\Documents,no,mono,no,18,no,white,no,yes,768,legacy,32,32,C:/Users/Owner/Documents/KMPsubject-4.csv,legacy,Lentiform Loewenfeld,3.3.3,0,h,NA,NA,s,NA,h,510,NA,NA,578,NA,510,2,legacy,1024,2,48000,-16,experiment,4,even,NA,49406,58130,59854,4372,NA,3788,NA,NA,59240,NA,3793,NA,59343,59238,59343,Flanker Test,26,13107,33,yes,1024
HHHHH,79.41176471,79.41176471,398.1176471,398.1176471,black,legacy,legacy,legacy,0,congruent,uniform,1,undefined,1,h,0,33,33,33,0,0,0,33,0,33,0,0,0,33,33,33,Sat Sep 19 00:49:20 2020,1500,The main experiment item,yes,FlankerTask.osexp,C:\Users\Owner\Documents,no,mono,no,18,no,white,no,yes,768,legacy,33,33,C:/Users/Owner/Documents/KMPsubject-4.csv,legacy,Lentiform Loewenfeld,3.3.3,0,h,NA,NA,s,NA,h,429,NA,NA,578,NA,429,2,legacy,1024,2,48000,-16,experiment,4,even,NA,49406,59857,61477,4372,NA,3788,NA,NA,60944,NA,3793,NA,61047,60942,61047,Flanker Test,27,13536,34,yes,1024
HHSHH,77.14285714,77.14285714,398.3142857,398.3142857,black,legacy,legacy,legacy,0,incongruent,uniform,0,undefined,0,s,0,34,34,34,0,0,0,34,0,34,0,0,0,34,34,34,Sat Sep 19 00:49:20 2020,1500,The main experiment item,yes,FlankerTask.osexp,C:\Users\Owner\Documents,no,mono,no,18,no,white,no,yes,768,legacy,34,34,C:/Users/Owner/Documents/KMPsubject-4.csv,legacy,Lentiform Loewenfeld,3.3.3,0,h,NA,NA,s,NA,h,405,NA,NA,578,NA,405,2,legacy,1024,2,48000,-16,experiment,4,even,NA,49406,61481,63104,4372,NA,3788,NA,NA,62595,NA,3793,NA,62698,62594,62698,Flanker Test,27,13941,35,yes,1024
SSSSS,77.77777778,77.77777778,397.25,397.25,black,legacy,legacy,legacy,0,congruent,uniform,1,undefined,1,s,0,35,35,35,0,0,0,35,0,35,0,0,0,35,35,35,Sat Sep 19 00:49:20 2020,1500,The main experiment item,yes,FlankerTask.osexp,C:\Users\Owner\Documents,no,mono,no,18,no,white,no,yes,768,legacy,35,35,C:/Users/Owner/Documents/KMPsubject-4.csv,legacy,Lentiform Loewenfeld,3.3.3,0,s,NA,NA,s,NA,s,360,NA,NA,578,NA,360,2,legacy,1024,2,48000,-16,experiment,4,even,NA,63106,63610,65177,4372,NA,3788,NA,NA,64713,NA,3793,NA,64816,64711,64816,Flanker Test,28,14301,36,yes,1024
SSSSS,78.37837838,78.37837838,396.4054054,396.4054054,black,legacy,legacy,legacy,0,congruent,uniform,1,undefined,1,s,0,36,36,36,0,0,0,36,0,36,0,0,0,36,36,36,Sat Sep 19 00:49:20 2020,1500,The main experiment item,yes,FlankerTask.osexp,C:\Users\Owner\Documents,no,mono,no,18,no,white,no,yes,768,legacy,36,36,C:/Users/Owner/Documents/KMPsubject-4.csv,legacy,Lentiform Loewenfeld,3.3.3,0,s,NA,NA,s,NA,s,366,NA,NA,578,NA,366,2,legacy,1024,2,48000,-16,experiment,4,even,NA,63106,65180,66750,4372,NA,3788,NA,NA,66278,NA,3793,NA,66382,66277,66382,Flanker Test,29,14667,37,yes,1024
SSHSS,78.94736842,78.94736842,400.6052632,400.6052632,black,legacy,legacy,legacy,0,incongruent,uniform,1,undefined,1,h,0,37,37,37,0,0,0,37,0,37,0,0,0,37,37,37,Sat Sep 19 00:49:20 2020,1500,The main experiment item,yes,FlankerTask.osexp,C:\Users\Owner\Documents,no,mono,no,18,no,white,no,yes,768,legacy,37,37,C:/Users/Owner/Documents/KMPsubject-4.csv,legacy,Lentiform Loewenfeld,3.3.3,0,h,NA,NA,s,NA,h,556,NA,NA,578,NA,556,2,legacy,1024,2,48000,-16,experiment,4,even,NA,63106,66753,68505,4372,NA,3788,NA,NA,67845,NA,3793,NA,67948,67843,67948,Flanker Test,30,15223,38,yes,1024
SSHSS,79.48717949,79.48717949,403.6153846,403.6153846,black,legacy,legacy,legacy,0,incongruent,uniform,1,undefined,1,h,0,38,38,38,0,0,0,38,0,38,0,0,0,38,38,38,Sat Sep 19 00:49:20 2020,1500,The main experiment item,yes,FlankerTask.osexp,C:\Users\Owner\Documents,no,mono,no,18,no,white,no,yes,768,legacy,38,38,C:/Users/Owner/Documents/KMPsubject-4.csv,legacy,Lentiform Loewenfeld,3.3.3,0,h,NA,NA,s,NA,h,518,NA,NA,578,NA,518,2,legacy,1024,2,48000,-16,experiment,4,even,NA,63106,68509,70239,4372,NA,3788,NA,NA,69618,NA,3793,NA,69720,69616,69720,Flanker Test,31,15741,39,yes,1024
SSHSS,77.5,77.5,402.125,402.125,black,legacy,legacy,legacy,0,incongruent,uniform,0,undefined,0,h,0,39,39,39,0,0,0,39,0,39,0,0,0,39,39,39,Sat Sep 19 00:49:20 2020,1500,The main experiment item,yes,FlankerTask.osexp,C:\Users\Owner\Documents,no,mono,no,18,no,white,no,yes,768,legacy,39,39,C:/Users/Owner/Documents/KMPsubject-4.csv,legacy,Lentiform Loewenfeld,3.3.3,0,s,NA,NA,s,NA,s,344,NA,NA,578,NA,344,2,legacy,1024,2,48000,-16,experiment,4,even,NA,63106,70242,71795,4372,NA,3788,NA,NA,71348,NA,3793,NA,71451,71346,71451,Flanker Test,31,16085,40,yes,1024
HHSHH,75.6097561,75.6097561,402.804878,402.804878,black,legacy,legacy,legacy,0,incongruent,uniform,0,undefined,0,s,0,40,40,40,0,0,0,40,0,40,0,0,0,40,40,40,Sat Sep 19 00:49:20 2020,1500,The main experiment item,yes,FlankerTask.osexp,C:\Users\Owner\Documents,no,mono,no,18,no,white,no,yes,768,legacy,40,40,C:/Users/Owner/Documents/KMPsubject-4.csv,legacy,Lentiform Loewenfeld,3.3.3,0,h,NA,NA,s,NA,h,430,NA,NA,578,NA,430,2,legacy,1024,2,48000,-16,experiment,4,even,NA,71799,72303,73943,4372,NA,3788,NA,NA,73409,NA,3793,NA,73512,73407,73512,Flanker Test,31,16515,41,yes,1024
HHSHH,76.19047619,76.19047619,403.5952381,403.5952381,black,legacy,legacy,legacy,0,incongruent,uniform,1,undefined,1,s,0,41,41,41,0,0,0,41,0,41,0,0,0,41,41,41,Sat Sep 19 00:49:20 2020,1500,The main experiment item,yes,FlankerTask.osexp,C:\Users\Owner\Documents,no,mono,no,18,no,white,no,yes,768,legacy,41,41,C:/Users/Owner/Documents/KMPsubject-4.csv,legacy,Lentiform Loewenfeld,3.3.3,0,s,NA,NA,s,NA,s,436,NA,NA,578,NA,436,2,legacy,1024,2,48000,-16,experiment,4,even,NA,73947,74451,76098,4372,NA,3788,NA,NA,75559,NA,3793,NA,75661,75558,75661,Flanker Test,32,16951,42,yes,1024
SSHSS,76.74418605,76.74418605,405.0232558,405.0232558,black,legacy,legacy,legacy,0,incongruent,uniform,1,undefined,1,h,0,42,42,42,0,0,0,42,0,42,0,0,0,42,42,42,Sat Sep 19 00:49:20 2020,1500,The main experiment item,yes,FlankerTask.osexp,C:\Users\Owner\Documents,no,mono,no,18,no,white,no,yes,768,legacy,42,42,C:/Users/Owner/Documents/KMPsubject-4.csv,legacy,Lentiform Loewenfeld,3.3.3,0,h,NA,NA,s,NA,h,465,NA,NA,578,NA,465,2,legacy,1024,2,48000,-16,experiment,4,even,NA,73947,76101,77777,4372,NA,3788,NA,NA,77208,NA,3793,NA,77311,77207,77311,Flanker Test,33,17416,43,yes,1024
HHHHH,77.27272727,77.27272727,412.0909091,412.0909091,black,legacy,legacy,legacy,0,congruent,uniform,1,undefined,1,h,0,43,43,43,0,0,0,43,0,43,0,0,0,43,43,43,Sat Sep 19 00:49:20 2020,1500,The main experiment item,yes,FlankerTask.osexp,C:\Users\Owner\Documents,no,mono,no,18,no,white,no,yes,768,legacy,43,43,C:/Users/Owner/Documents/KMPsubject-4.csv,legacy,Lentiform Loewenfeld,3.3.3,0,h,NA,NA,s,NA,h,716,NA,NA,578,NA,716,2,legacy,1024,2,48000,-16,experiment,4,even,NA,73947,77780,79702,4372,NA,3788,NA,NA,78881,NA,3793,NA,78984,78879,78984,Flanker Test,34,18132,44,yes,1024
HHHHH,77.77777778,77.77777778,415.0666667,415.0666667,black,legacy,legacy,legacy,0,congruent,uniform,1,undefined,1,h,0,44,44,44,0,0,0,44,0,44,0,0,0,44,44,44,Sat Sep 19 00:49:20 2020,1500,The main experiment item,yes,FlankerTask.osexp,C:\Users\Owner\Documents,no,mono,no,18,no,white,no,yes,768,legacy,44,44,C:/Users/Owner/Documents/KMPsubject-4.csv,legacy,Lentiform Loewenfeld,3.3.3,0,h,NA,NA,s,NA,h,546,NA,NA,578,NA,546,2,legacy,1024,2,48000,-16,experiment,4,even,NA,73947,79705,81465,4372,NA,3788,NA,NA,80814,NA,3793,NA,80917,80812,80917,Flanker Test,35,18678,45,yes,1024
SSHSS,78.26086957,78.26086957,417.5,417.5,black,legacy,legacy,legacy,0,incongruent,uniform,1,undefined,1,h,0,45,45,45,0,0,0,45,0,45,0,0,0,45,45,45,Sat Sep 19 00:49:20 2020,1500,The main experiment item,yes,FlankerTask.osexp,C:\Users\Owner\Documents,no,mono,no,18,no,white,no,yes,768,legacy,45,45,C:/Users/Owner/Documents/KMPsubject-4.csv,legacy,Lentiform Loewenfeld,3.3.3,0,h,NA,NA,s,NA,h,527,NA,NA,578,NA,527,2,legacy,1024,2,48000,-16,experiment,4,even,NA,73947,81468,83204,4372,NA,3788,NA,NA,82573,NA,3793,NA,82676,82572,82676,Flanker Test,36,19205,46,yes,1024
SSSSS,78.72340426,78.72340426,417.106383,417.106383,black,legacy,legacy,legacy,0,congruent,uniform,1,undefined,1,s,0,46,46,46,0,0,0,46,0,46,0,0,0,46,46,46,Sat Sep 19 00:49:20 2020,1500,The main experiment item,yes,FlankerTask.osexp,C:\Users\Owner\Documents,no,mono,no,18,no,white,no,yes,768,legacy,46,46,C:/Users/Owner/Documents/KMPsubject-4.csv,legacy,Lentiform Loewenfeld,3.3.3,0,s,NA,NA,s,NA,s,399,NA,NA,578,NA,399,2,legacy,1024,2,48000,-16,experiment,4,even,NA,73947,83207,84814,4372,NA,3788,NA,NA,84311,NA,3793,NA,84414,84310,84414,Flanker Test,37,19604,47,yes,1024
SSHSS,79.16666667,79.16666667,417.9583333,417.9583333,black,legacy,legacy,legacy,0,incongruent,uniform,1,undefined,1,h,0,47,47,47,0,0,0,47,0,47,0,0,0,47,47,47,Sat Sep 19 00:49:20 2020,1500,The main experiment item,yes,FlankerTask.osexp,C:\Users\Owner\Documents,no,mono,no,18,no,white,no,yes,768,legacy,47,47,C:/Users/Owner/Documents/KMPsubject-4.csv,legacy,Lentiform Loewenfeld,3.3.3,0,h,NA,NA,s,NA,h,458,NA,NA,578,NA,458,2,legacy,1024,2,48000,-16,experiment,4,even,NA,73947,84817,86492,4372,NA,3788,NA,NA,85932,NA,3793,NA,86033,85931,86033,Flanker Test,38,20062,48,yes,1024
HHSHH,79.59183673,79.59183673,416.8571429,416.8571429,black,legacy,legacy,legacy,0,incongruent,uniform,1,undefined,1,s,0,48,48,48,0,0,0,48,0,48,0,0,0,48,48,48,Sat Sep 19 00:49:20 2020,1500,The main experiment item,yes,FlankerTask.osexp,C:\Users\Owner\Documents,no,mono,no,18,no,white,no,yes,768,legacy,48,48,C:/Users/Owner/Documents/KMPsubject-4.csv,legacy,Lentiform Loewenfeld,3.3.3,0,s,NA,NA,s,NA,s,364,NA,NA,578,NA,364,2,legacy,1024,2,48000,-16,experiment,4,even,NA,73947,86495,88066,4372,NA,3788,NA,NA,87599,NA,3793,NA,87701,87598,87700,Flanker Test,39,20426,49,yes,1024
SSSSS,78,78,415.5,415.5,black,legacy,legacy,legacy,0,congruent,uniform,0,undefined,0,s,0,49,49,49,0,0,0,49,0,49,0,0,0,49,49,49,Sat Sep 19 00:49:20 2020,1500,The main experiment item,yes,FlankerTask.osexp,C:\Users\Owner\Documents,no,mono,no,18,no,white,no,yes,768,legacy,49,49,C:/Users/Owner/Documents/KMPsubject-4.csv,legacy,Lentiform Loewenfeld,3.3.3,0,h,NA,NA,s,NA,h,349,NA,NA,578,NA,349,2,legacy,1024,2,48000,-16,experiment,4,even,NA,73947,88069,89629,4372,NA,3788,NA,NA,89175,NA,3793,NA,89278,89173,89278,Flanker Test,39,20775,50,yes,1024
SSSSS,78.43137255,78.43137255,413.8627451,413.8627451,black,legacy,legacy,legacy,0,congruent,uniform,1,undefined,1,s,0,50,50,50,0,0,0,50,0,50,0,0,0,50,50,50,Sat Sep 19 00:49:20 2020,1500,The main experiment item,yes,FlankerTask.osexp,C:\Users\Owner\Documents,no,mono,no,18,no,white,no,yes,768,legacy,50,50,C:/Users/Owner/Documents/KMPsubject-4.csv,legacy,Lentiform Loewenfeld,3.3.3,0,s,NA,NA,s,NA,s,332,NA,NA,578,NA,332,2,legacy,1024,2,48000,-16,experiment,4,even,NA,89635,90139,91678,4372,NA,3788,NA,NA,91243,NA,3793,NA,91345,91241,91345,Flanker Test,40,21107,51,yes,1024
HHHHH,78.84615385,78.84615385,413.4230769,413.4230769,black,legacy,legacy,legacy,0,congruent,uniform,1,undefined,1,h,0,51,51,51,0,0,0,51,0,51,0,0,0,51,51,51,Sat Sep 19 00:49:20 2020,1500,The main experiment item,yes,FlankerTask.osexp,C:\Users\Owner\Documents,no,mono,no,18,no,white,no,yes,768,legacy,51,51,C:/Users/Owner/Documents/KMPsubject-4.csv,legacy,Lentiform Loewenfeld,3.3.3,0,h,NA,NA,s,NA,h,391,NA,NA,578,NA,391,2,legacy,1024,2,48000,-16,experiment,4,even,NA,89635,91682,93282,4372,NA,3788,NA,NA,92787,NA,3793,NA,92890,92785,92890,Flanker Test,41,21498,52,yes,1024
HHSHH,79.24528302,79.24528302,413.3207547,413.3207547,black,legacy,legacy,legacy,0,incongruent,uniform,1,undefined,1,s,0,52,52,52,0,0,0,52,0,52,0,0,0,52,52,52,Sat Sep 19 00:49:20 2020,1500,The main experiment item,yes,FlankerTask.osexp,C:\Users\Owner\Documents,no,mono,no,18,no,white,no,yes,768,legacy,52,52,C:/Users/Owner/Documents/KMPsubject-4.csv,legacy,Lentiform Loewenfeld,3.3.3,0,s,NA,NA,s,NA,s,408,NA,NA,578,NA,408,2,legacy,1024,2,48000,-16,experiment,4,even,NA,89635,93285,94904,4372,NA,3788,NA,NA,94392,NA,3793,NA,94495,94390,94495,Flanker Test,42,21906,53,yes,1024
SSSSS,79.62962963,79.62962963,414.8148148,414.8148148,black,legacy,legacy,legacy,0,congruent,uniform,1,undefined,1,s,0,53,53,53,0,0,0,53,0,53,0,0,0,53,53,53,Sat Sep 19 00:49:20 2020,1500,The main experiment item,yes,FlankerTask.osexp,C:\Users\Owner\Documents,no,mono,no,18,no,white,no,yes,768,legacy,53,53,C:/Users/Owner/Documents/KMPsubject-4.csv,legacy,Lentiform Loewenfeld,3.3.3,0,s,NA,NA,s,NA,s,494,NA,NA,578,NA,494,2,legacy,1024,2,48000,-16,experiment,4,even,NA,89635,94908,96608,4372,NA,3788,NA,NA,96010,NA,3793,NA,96112,96008,96112,Flanker Test,43,22400,54,yes,1024
SSHSS,80,80,419.2,419.2,black,legacy,legacy,legacy,0,incongruent,uniform,1,undefined,1,h,0,54,54,54,0,0,0,54,0,54,0,0,0,54,54,54,Sat Sep 19 00:49:20 2020,1500,The main experiment item,yes,FlankerTask.osexp,C:\Users\Owner\Documents,no,mono,no,18,no,white,no,yes,768,legacy,54,54,C:/Users/Owner/Documents/KMPsubject-4.csv,legacy,Lentiform Loewenfeld,3.3.3,0,h,NA,NA,s,NA,h,656,NA,NA,578,NA,656,2,legacy,1024,2,48000,-16,experiment,4,even,NA,89635,96611,98475,4372,NA,3788,NA,NA,97717,NA,3793,NA,97818,97716,97818,Flanker Test,44,23056,55,yes,1024
HHSHH,80.35714286,80.35714286,421.1071429,421.1071429,black,legacy,legacy,legacy,0,incongruent,uniform,1,undefined,1,s,0,55,55,55,0,0,0,55,0,55,0,0,0,55,55,55,Sat Sep 19 00:49:20 2020,1500,The main experiment item,yes,FlankerTask.osexp,C:\Users\Owner\Documents,no,mono,no,18,no,white,no,yes,768,legacy,55,55,C:/Users/Owner/Documents/KMPsubject-4.csv,legacy,Lentiform Loewenfeld,3.3.3,0,s,NA,NA,s,NA,s,526,NA,NA,578,NA,526,2,legacy,1024,2,48000,-16,experiment,4,even,NA,89635,98479,100174,4372,NA,3788,NA,NA,99545,NA,3793,NA,99647,99543,99647,Flanker Test,45,23582,56,yes,1024
SSHSS,80.70175439,80.70175439,422.5964912,422.5964912,black,legacy,legacy,legacy,0,incongruent,uniform,1,undefined,1,h,0,56,56,56,0,0,0,56,0,56,0,0,0,56,56,56,Sat Sep 19 00:49:20 2020,1500,The main experiment item,yes,FlankerTask.osexp,C:\Users\Owner\Documents,no,mono,no,18,no,white,no,yes,768,legacy,56,56,C:/Users/Owner/Documents/KMPsubject-4.csv,legacy,Lentiform Loewenfeld,3.3.3,0,h,NA,NA,s,NA,h,506,NA,NA,578,NA,506,2,legacy,1024,2,48000,-16,experiment,4,even,NA,89635,100178,101894,4372,NA,3788,NA,NA,101283,NA,3793,NA,101386,101281,101385,Flanker Test,46,24088,57,yes,1024
SSHSS,81.03448276,81.03448276,424.2758621,424.2758621,black,legacy,legacy,legacy,0,incongruent,uniform,1,undefined,1,h,0,57,57,57,0,0,0,57,0,57,0,0,0,57,57,57,Sat Sep 19 00:49:20 2020,1500,The main experiment item,yes,FlankerTask.osexp,C:\Users\Owner\Documents,no,mono,no,18,no,white,no,yes,768,legacy,57,57,C:/Users/Owner/Documents/KMPsubject-4.csv,legacy,Lentiform Loewenfeld,3.3.3,0,h,NA,NA,s,NA,h,520,NA,NA,578,NA,520,2,legacy,1024,2,48000,-16,experiment,4,even,NA,89635,101897,103627,4372,NA,3788,NA,NA,103003,NA,3793,NA,103106,103002,103106,Flanker Test,47,24608,58,yes,1024
HHSHH,81.3559322,81.3559322,423.8135593,423.8135593,black,legacy,legacy,legacy,0,incongruent,uniform,1,undefined,1,s,0,58,58,58,0,0,0,58,0,58,0,0,0,58,58,58,Sat Sep 19 00:49:20 2020,1500,The main experiment item,yes,FlankerTask.osexp,C:\Users\Owner\Documents,no,mono,no,18,no,white,no,yes,768,legacy,58,58,C:/Users/Owner/Documents/KMPsubject-4.csv,legacy,Lentiform Loewenfeld,3.3.3,0,s,NA,NA,s,NA,s,397,NA,NA,578,NA,397,2,legacy,1024,2,48000,-16,experiment,4,even,NA,89635,103630,105234,4372,NA,3788,NA,NA,104735,NA,3793,NA,104836,104733,104836,Flanker Test,48,25005,59,yes,1024
SSHSS,81.66666667,81.66666667,425.0333333,425.0333333,black,legacy,legacy,legacy,0,incongruent,uniform,1,undefined,1,h,0,59,59,59,0,0,0,59,0,59,0,0,0,59,59,59,Sat Sep 19 00:49:20 2020,1500,The main experiment item,yes,FlankerTask.osexp,C:\Users\Owner\Documents,no,mono,no,18,no,white,no,yes,768,legacy,59,59,C:/Users/Owner/Documents/KMPsubject-4.csv,legacy,Lentiform Loewenfeld,3.3.3,0,h,NA,NA,s,NA,h,497,NA,NA,578,NA,497,2,legacy,1024,2,48000,-16,experiment,4,even,NA,89635,105238,106943,4372,NA,3788,NA,NA,106343,NA,3793,NA,106446,106341,106446,Flanker Test,49,25502,60,yes,1024
HHSHH,81.96721311,81.96721311,425.2295082,425.2295082,black,legacy,legacy,legacy,0,incongruent,uniform,1,undefined,1,s,0,60,60,60,0,0,0,60,0,60,0,0,0,60,60,60,Sat Sep 19 00:49:20 2020,1500,The main experiment item,yes,FlankerTask.osexp,C:\Users\Owner\Documents,no,mono,no,18,no,white,no,yes,768,legacy,60,60,C:/Users/Owner/Documents/KMPsubject-4.csv,legacy,Lentiform Loewenfeld,3.3.3,0,s,NA,NA,s,NA,s,437,NA,NA,578,NA,437,2,legacy,1024,2,48000,-16,experiment,4,even,NA,89635,106948,108586,4372,NA,3788,NA,NA,108045,NA,3793,NA,108148,108044,108148,Flanker Test,50,25939,61,yes,1024
HHSHH,82.25806452,82.25806452,427.4032258,427.4032258,black,legacy,legacy,legacy,0,incongruent,uniform,1,undefined,1,s,0,61,61,61,0,0,0,61,0,61,0,0,0,61,61,61,Sat Sep 19 00:49:20 2020,1500,The main experiment item,yes,FlankerTask.osexp,C:\Users\Owner\Documents,no,mono,no,18,no,white,no,yes,768,legacy,61,61,C:/Users/Owner/Documents/KMPsubject-4.csv,legacy,Lentiform Loewenfeld,3.3.3,0,s,NA,NA,s,NA,s,560,NA,NA,578,NA,560,2,legacy,1024,2,48000,-16,experiment,4,even,NA,89635,108589,110356,4372,NA,3788,NA,NA,109692,NA,3793,NA,109795,109691,109795,Flanker Test,51,26499,62,yes,1024
SSSSS,82.53968254,82.53968254,427.8888889,427.8888889,black,legacy,legacy,legacy,0,congruent,uniform,1,undefined,1,s,0,62,62,62,0,0,0,62,0,62,0,0,0,62,62,62,Sat Sep 19 00:49:20 2020,1500,The main experiment item,yes,FlankerTask.osexp,C:\Users\Owner\Documents,no,mono,no,18,no,white,no,yes,768,legacy,62,62,C:/Users/Owner/Documents/KMPsubject-4.csv,legacy,Lentiform Loewenfeld,3.3.3,0,s,NA,NA,s,NA,s,458,NA,NA,578,NA,458,2,legacy,1024,2,48000,-16,experiment,4,even,NA,89635,110360,112024,4372,NA,3788,NA,NA,111462,NA,3793,NA,111565,111461,111565,Flanker Test,52,26957,63,yes,1024
HHSHH,82.8125,82.8125,427.703125,427.703125,black,legacy,legacy,legacy,0,incongruent,uniform,1,undefined,1,s,0,63,63,63,0,0,0,63,0,63,0,0,0,63,63,63,Sat Sep 19 00:49:20 2020,1500,The main experiment item,yes,FlankerTask.osexp,C:\Users\Owner\Documents,no,mono,no,18,no,white,no,yes,768,legacy,63,63,C:/Users/Owner/Documents/KMPsubject-4.csv,legacy,Lentiform Loewenfeld,3.3.3,0,s,NA,NA,s,NA,s,416,NA,NA,578,NA,416,2,legacy,1024,2,48000,-16,experiment,4,even,NA,89635,112027,113654,4372,NA,3788,NA,NA,113133,NA,3793,NA,113236,113131,113236,Flanker Test,53,27373,64,yes,1024
HHHHH,83.07692308,83.07692308,428.2307692,428.2307692,black,legacy,legacy,legacy,0,congruent,uniform,1,undefined,1,h,0,64,64,64,0,0,0,64,0,64,0,0,0,64,64,64,Sat Sep 19 00:49:20 2020,1500,The main experiment item,yes,FlankerTask.osexp,C:\Users\Owner\Documents,no,mono,no,18,no,white,no,yes,768,legacy,64,64,C:/Users/Owner/Documents/KMPsubject-4.csv,legacy,Lentiform Loewenfeld,3.3.3,0,h,NA,NA,s,NA,h,462,NA,NA,578,NA,462,2,legacy,1024,2,48000,-16,experiment,4,even,NA,89635,113657,115331,4372,NA,3788,NA,NA,114765,NA,3793,NA,114868,114764,114868,Flanker Test,54,27835,65,yes,1024
HHHHH,83.33333333,83.33333333,429.3181818,429.3181818,black,legacy,legacy,legacy,0,congruent,uniform,1,undefined,1,h,0,65,65,65,0,0,0,65,0,65,0,0,0,65,65,65,Sat Sep 19 00:49:20 2020,1500,The main experiment item,yes,FlankerTask.osexp,C:\Users\Owner\Documents,no,mono,no,18,no,white,no,yes,768,legacy,65,65,C:/Users/Owner/Documents/KMPsubject-4.csv,legacy,Lentiform Loewenfeld,3.3.3,0,h,NA,NA,s,NA,h,500,NA,NA,578,NA,500,2,legacy,1024,2,48000,-16,experiment,4,even,NA,89635,115336,117044,4372,NA,3788,NA,NA,116439,NA,3793,NA,116542,116438,116542,Flanker Test,55,28335,66,yes,1024
HHSHH,83.58208955,83.58208955,427.880597,427.880597,black,legacy,legacy,legacy,0,incongruent,uniform,1,undefined,1,s,0,66,66,66,0,0,0,66,0,66,0,0,0,66,66,66,Sat Sep 19 00:49:20 2020,1500,The main experiment item,yes,FlankerTask.osexp,C:\Users\Owner\Documents,no,mono,no,18,no,white,no,yes,768,legacy,66,66,C:/Users/Owner/Documents/KMPsubject-4.csv,legacy,Lentiform Loewenfeld,3.3.3,0,s,NA,NA,s,NA,s,333,NA,NA,578,NA,333,2,legacy,1024,2,48000,-16,experiment,4,even,NA,89635,117047,118569,4372,NA,3788,NA,NA,118129,NA,3793,NA,118234,118127,118234,Flanker Test,56,28668,67,yes,1024
HHSHH,83.82352941,83.82352941,427.7794118,427.7794118,black,legacy,legacy,legacy,0,incongruent,uniform,1,undefined,1,s,0,67,67,67,0,0,0,67,0,67,0,0,0,67,67,67,Sat Sep 19 00:49:20 2020,1500,The main experiment item,yes,FlankerTask.osexp,C:\Users\Owner\Documents,no,mono,no,18,no,white,no,yes,768,legacy,67,67,C:/Users/Owner/Documents/KMPsubject-4.csv,legacy,Lentiform Loewenfeld,3.3.3,0,s,NA,NA,s,NA,s,421,NA,NA,578,NA,421,2,legacy,1024,2,48000,-16,experiment,4,even,NA,89635,118575,120203,4372,NA,3788,NA,NA,119678,NA,3793,NA,119781,119677,119781,Flanker Test,57,29089,68,yes,1024
HHHHH,84.05797101,84.05797101,427.4057971,427.4057971,black,legacy,legacy,legacy,0,congruent,uniform,1,undefined,1,h,0,68,68,68,0,0,0,68,0,68,0,0,0,68,68,68,Sat Sep 19 00:49:20 2020,1500,The main experiment item,yes,FlankerTask.osexp,C:\Users\Owner\Documents,no,mono,no,18,no,white,no,yes,768,legacy,68,68,C:/Users/Owner/Documents/KMPsubject-4.csv,legacy,Lentiform Loewenfeld,3.3.3,0,h,NA,NA,s,NA,h,402,NA,NA,578,NA,402,2,legacy,1024,2,48000,-16,experiment,4,even,NA,89635,120207,121820,4372,NA,3788,NA,NA,121314,NA,3793,NA,121417,121313,121417,Flanker Test,58,29491,69,yes,1024
SSSSS,84.28571429,84.28571429,426.6142857,426.6142857,black,legacy,legacy,legacy,0,congruent,uniform,1,undefined,1,s,0,69,69,69,0,0,0,69,0,69,0,0,0,69,69,69,Sat Sep 19 00:49:20 2020,1500,The main experiment item,yes,FlankerTask.osexp,C:\Users\Owner\Documents,no,mono,no,18,no,white,no,yes,768,legacy,69,69,C:/Users/Owner/Documents/KMPsubject-4.csv,legacy,Lentiform Loewenfeld,3.3.3,0,s,NA,NA,s,NA,s,372,NA,NA,578,NA,372,2,legacy,1024,2,48000,-16,experiment,4,even,NA,89635,121824,123407,4372,NA,3788,NA,NA,122931,NA,3793,NA,123034,122929,123034,Flanker Test,59,29863,70,yes,1024
HHSHH,84.50704225,84.50704225,427.1126761,427.1126761,black,legacy,legacy,legacy,0,incongruent,uniform,1,undefined,1,s,0,70,70,70,0,0,0,70,0,70,0,0,0,70,70,70,Sat Sep 19 00:49:20 2020,1500,The main experiment item,yes,FlankerTask.osexp,C:\Users\Owner\Documents,no,mono,no,18,no,white,no,yes,768,legacy,70,70,C:/Users/Owner/Documents/KMPsubject-4.csv,legacy,Lentiform Loewenfeld,3.3.3,0,s,NA,NA,s,NA,s,462,NA,NA,578,NA,462,2,legacy,1024,2,48000,-16,experiment,4,even,NA,89635,123411,125081,4372,NA,3788,NA,NA,124515,NA,3793,NA,124617,124513,124617,Flanker Test,60,30325,71,yes,1024
HHSHH,84.72222222,84.72222222,427.3611111,427.3611111,black,legacy,legacy,legacy,0,incongruent,uniform,1,undefined,1,s,0,71,71,71,0,0,0,71,0,71,0,0,0,71,71,71,Sat Sep 19 00:49:20 2020,1500,The main experiment item,yes,FlankerTask.osexp,C:\Users\Owner\Documents,no,mono,no,18,no,white,no,yes,768,legacy,71,71,C:/Users/Owner/Documents/KMPsubject-4.csv,legacy,Lentiform Loewenfeld,3.3.3,0,s,NA,NA,s,NA,s,445,NA,NA,578,NA,445,2,legacy,1024,2,48000,-16,experiment,4,even,NA,89635,125084,126694,4372,NA,3788,NA,NA,126146,NA,3793,NA,126247,126145,126247,Flanker Test,61,30770,72,yes,1024
SSSSS,84.93150685,84.93150685,428.2876712,428.2876712,black,legacy,legacy,legacy,0,congruent,uniform,1,undefined,1,s,0,72,72,72,0,0,0,72,0,72,0,0,0,72,72,72,Sat Sep 19 00:49:20 2020,1500,The main experiment item,yes,FlankerTask.osexp,C:\Users\Owner\Documents,no,mono,no,18,no,white,no,yes,768,legacy,72,72,C:/Users/Owner/Documents/KMPsubject-4.csv,legacy,Lentiform Loewenfeld,3.3.3,0,s,NA,NA,s,NA,s,495,NA,NA,578,NA,495,2,legacy,1024,2,48000,-16,experiment,4,even,NA,89635,126698,128403,4372,NA,3788,NA,NA,127804,NA,3793,NA,127907,127802,127907,Flanker Test,62,31265,73,yes,1024
SSHSS,85.13513514,85.13513514,429.6351351,429.6351351,black,legacy,legacy,legacy,0,incongruent,uniform,1,undefined,1,h,0,73,73,73,0,0,0,73,0,73,0,0,0,73,73,73,Sat Sep 19 00:49:20 2020,1500,The main experiment item,yes,FlankerTask.osexp,C:\Users\Owner\Documents,no,mono,no,18,no,white,no,yes,768,legacy,73,73,C:/Users/Owner/Documents/KMPsubject-4.csv,legacy,Lentiform Loewenfeld,3.3.3,0,h,NA,NA,s,NA,h,528,NA,NA,578,NA,528,2,legacy,1024,2,48000,-16,experiment,4,even,NA,89635,128407,130136,4372,NA,3788,NA,NA,129503,NA,3793,NA,129606,129502,129606,Flanker Test,63,31793,74,yes,1024
HHSHH,85.33333333,85.33333333,429.6266667,429.6266667,black,legacy,legacy,legacy,0,incongruent,uniform,1,undefined,1,s,0,74,74,74,0,0,0,74,0,74,0,0,0,74,74,74,Sat Sep 19 00:49:20 2020,1500,The main experiment item,yes,FlankerTask.osexp,C:\Users\Owner\Documents,no,mono,no,18,no,white,no,yes,768,legacy,74,74,C:/Users/Owner/Documents/KMPsubject-4.csv,legacy,Lentiform Loewenfeld,3.3.3,0,s,NA,NA,s,NA,s,429,NA,NA,578,NA,429,2,legacy,1024,2,48000,-16,experiment,4,even,NA,89635,130139,131776,4372,NA,3788,NA,NA,131243,NA,3793,NA,131346,131241,131346,Flanker Test,64,32222,75,yes,1024
HHHHH,84.21052632,84.21052632,430.2894737,430.2894737,black,legacy,legacy,legacy,0,congruent,uniform,0,undefined,0,h,0,75,75,75,0,0,0,75,0,75,0,0,0,75,75,75,Sat Sep 19 00:49:20 2020,1500,The main experiment item,yes,FlankerTask.osexp,C:\Users\Owner\Documents,no,mono,no,18,no,white,no,yes,768,legacy,75,75,C:/Users/Owner/Documents/KMPsubject-4.csv,legacy,Lentiform Loewenfeld,3.3.3,0,s,NA,NA,s,NA,s,480,NA,NA,578,NA,480,2,legacy,1024,2,48000,-16,experiment,4,even,NA,89635,131780,133471,4372,NA,3788,NA,NA,132886,NA,3793,NA,132989,132884,132989,Flanker Test,64,32702,76,yes,1024
SSHSS,84.41558442,84.41558442,432.8961039,432.8961039,black,legacy,legacy,legacy,0,incongruent,uniform,1,undefined,1,h,0,76,76,76,0,0,0,76,0,76,0,0,0,76,76,76,Sat Sep 19 00:49:20 2020,1500,The main experiment item,yes,FlankerTask.osexp,C:\Users\Owner\Documents,no,mono,no,18,no,white,no,yes,768,legacy,76,76,C:/Users/Owner/Documents/KMPsubject-4.csv,legacy,Lentiform Loewenfeld,3.3.3,0,h,NA,NA,s,NA,h,631,NA,NA,578,NA,631,2,legacy,1024,2,48000,-16,experiment,4,even,NA,133474,133978,135820,4372,NA,3788,NA,NA,135085,NA,3793,NA,135188,135084,135188,Flanker Test,65,33333,77,yes,1024
SSSSS,84.61538462,84.61538462,432.0769231,432.0769231,black,legacy,legacy,legacy,0,congruent,uniform,1,undefined,1,s,0,77,77,77,0,0,0,77,0,77,0,0,0,77,77,77,Sat Sep 19 00:49:20 2020,1500,The main experiment item,yes,FlankerTask.osexp,C:\Users\Owner\Documents,no,mono,no,18,no,white,no,yes,768,legacy,77,77,C:/Users/Owner/Documents/KMPsubject-4.csv,legacy,Lentiform Loewenfeld,3.3.3,0,s,NA,NA,s,NA,s,369,NA,NA,578,NA,369,2,legacy,1024,2,48000,-16,experiment,4,even,NA,133474,135823,137433,4372,NA,3788,NA,NA,136961,NA,3793,NA,137063,136959,137063,Flanker Test,66,33702,78,yes,1024
SSHSS,83.5443038,83.5443038,431.2531646,431.2531646,black,legacy,legacy,legacy,0,incongruent,uniform,0,undefined,0,h,0,78,78,78,0,0,0,78,0,78,0,0,0,78,78,78,Sat Sep 19 00:49:20 2020,1500,The main experiment item,yes,FlankerTask.osexp,C:\Users\Owner\Documents,no,mono,no,18,no,white,no,yes,768,legacy,78,78,C:/Users/Owner/Documents/KMPsubject-4.csv,legacy,Lentiform Loewenfeld,3.3.3,0,s,NA,NA,s,NA,s,367,NA,NA,578,NA,367,2,legacy,1024,2,48000,-16,experiment,4,even,NA,133474,137437,139012,4372,NA,3788,NA,NA,138541,NA,3793,NA,138644,138539,138644,Flanker Test,66,34069,79,yes,1024
SSHSS,83.75,83.75,433.5,433.5,black,legacy,legacy,legacy,0,incongruent,uniform,1,undefined,1,h,0,79,79,79,0,0,0,79,0,79,0,0,0,79,79,79,Sat Sep 19 00:49:20 2020,1500,The main experiment item,yes,FlankerTask.osexp,C:\Users\Owner\Documents,no,mono,no,18,no,white,no,yes,768,legacy,79,79,C:/Users/Owner/Documents/KMPsubject-4.csv,legacy,Lentiform Loewenfeld,3.3.3,0,h,NA,NA,s,NA,h,611,NA,NA,578,NA,611,2,legacy,1024,2,48000,-16,experiment,4,even,NA,139018,139522,141312,4372,NA,3788,NA,NA,140595,NA,3793,NA,140699,140594,140699,Flanker Test,67,34680,80,yes,1024
SSHSS,83.95061728,83.95061728,434.382716,434.382716,black,legacy,legacy,legacy,0,incongruent,uniform,1,undefined,1,h,0,80,80,80,0,0,0,80,0,80,0,0,0,80,80,80,Sat Sep 19 00:49:20 2020,600,The main experiment item,yes,FlankerTask.osexp,C:\Users\Owner\Documents,no,mono,no,18,no,white,no,yes,768,legacy,0,79,C:/Users/Owner/Documents/KMPsubject-4.csv,legacy,Lentiform Loewenfeld,3.3.3,0,h,NA,s,s,NA,h,505,NA,1843,578,NA,505,2,legacy,1024,2,48000,-16,experiment,4,even,NA,139018,141315,144828,4372,144176,3788,NA,NA,144216,142332,3793,NA,144321,144215,144320,Flanker Test,68,35185,81,yes,1024
HHHHH,84.14634146,84.14634146,434.3536585,434.3536585,black,legacy,legacy,legacy,0,congruent,uniform,1,undefined,1,h,0,81,81,81,0,0,0,81,0,81,0,0,0,81,81,81,Sat Sep 19 00:49:20 2020,600,The main experiment item,yes,FlankerTask.osexp,C:\Users\Owner\Documents,no,mono,no,18,no,white,no,yes,768,legacy,1,79,C:/Users/Owner/Documents/KMPsubject-4.csv,legacy,Lentiform Loewenfeld,3.3.3,0,h,NA,s,s,NA,h,432,NA,1843,578,NA,432,2,legacy,1024,2,48000,-16,experiment,4,even,NA,139018,144831,146480,4372,144176,3788,NA,NA,145944,142332,3793,NA,146047,145942,146047,Flanker Test,69,35617,82,yes,1024
HHHHH,83.13253012,83.13253012,433.686747,433.686747,black,legacy,legacy,legacy,0,congruent,uniform,0,undefined,0,h,0,82,82,82,0,0,0,82,0,82,0,0,0,82,82,82,Sat Sep 19 00:49:20 2020,600,The main experiment item,yes,FlankerTask.osexp,C:\Users\Owner\Documents,no,mono,no,18,no,white,no,yes,768,legacy,2,79,C:/Users/Owner/Documents/KMPsubject-4.csv,legacy,Lentiform Loewenfeld,3.3.3,0,s,NA,s,s,NA,s,379,NA,1843,578,NA,379,2,legacy,1024,2,48000,-16,experiment,4,even,NA,139018,146486,148082,4372,144176,3788,NA,NA,147601,142332,3793,NA,147702,147599,147702,Flanker Test,69,35996,83,yes,1024
HHHHH,83.33333333,83.33333333,432.5357143,432.5357143,black,legacy,legacy,legacy,0,congruent,uniform,1,undefined,1,h,0,83,83,83,0,0,0,83,0,83,0,0,0,83,83,83,Sat Sep 19 00:49:20 2020,600,The main experiment item,yes,FlankerTask.osexp,C:\Users\Owner\Documents,no,mono,no,18,no,white,no,yes,768,legacy,3,79,C:/Users/Owner/Documents/KMPsubject-4.csv,legacy,Lentiform Loewenfeld,3.3.3,0,h,NA,s,s,NA,h,337,NA,1843,578,NA,337,2,legacy,1024,2,48000,-16,experiment,4,even,NA,148085,148589,150133,4372,144176,3788,NA,NA,149693,142332,3793,NA,149794,149691,149794,Flanker Test,70,36333,84,yes,1024
HHHHH,83.52941176,83.52941176,433.3176471,433.3176471,black,legacy,legacy,legacy,0,congruent,uniform,1,undefined,1,h,0,84,84,84,0,0,0,84,0,84,0,0,0,84,84,84,Sat Sep 19 00:49:20 2020,600,The main experiment item,yes,FlankerTask.osexp,C:\Users\Owner\Documents,no,mono,no,18,no,white,no,yes,768,legacy,4,79,C:/Users/Owner/Documents/KMPsubject-4.csv,legacy,Lentiform Loewenfeld,3.3.3,0,h,NA,s,s,NA,h,499,NA,1843,578,NA,499,2,legacy,1024,2,48000,-16,experiment,4,even,NA,148085,150136,151855,4372,144176,3788,NA,NA,151253,142332,3793,NA,151355,151252,151355,Flanker Test,71,36832,85,yes,1024
SSHSS,83.72093023,83.72093023,435.4534884,435.4534884,black,legacy,legacy,legacy,0,incongruent,uniform,1,undefined,1,h,0,85,85,85,0,0,0,85,0,85,0,0,0,85,85,85,Sat Sep 19 00:49:20 2020,600,The main experiment item,yes,FlankerTask.osexp,C:\Users\Owner\Documents,no,mono,no,18,no,white,no,yes,768,legacy,5,79,C:/Users/Owner/Documents/KMPsubject-4.csv,legacy,Lentiform Loewenfeld,3.3.3,0,h,NA,s,s,NA,h,617,NA,1843,578,NA,617,2,legacy,1024,2,48000,-16,experiment,4,even,NA,148085,151858,153682,4372,144176,3788,NA,NA,152962,142332,3793,NA,153064,152960,153064,Flanker Test,72,37449,86,yes,1024
HHSHH,83.90804598,83.90804598,436.8505747,436.8505747,black,legacy,legacy,legacy,0,incongruent,uniform,1,undefined,1,s,0,86,86,86,0,0,0,86,0,86,0,0,0,86,86,86,Sat Sep 19 00:49:20 2020,600,The main experiment item,yes,FlankerTask.osexp,C:\Users\Owner\Documents,no,mono,no,18,no,white,no,yes,768,legacy,6,79,C:/Users/Owner/Documents/KMPsubject-4.csv,legacy,Lentiform Loewenfeld,3.3.3,0,s,NA,s,s,NA,s,557,NA,1843,578,NA,557,2,legacy,1024,2,48000,-16,experiment,4,even,NA,148085,154188,155946,4372,144176,3788,153686,NA,155285,142332,3793,NA,155388,155284,155388,Flanker Test,73,38006,87,yes,1024
HHSHH,82.95454545,82.95454545,436.3636364,436.3636364,black,legacy,legacy,legacy,0,incongruent,uniform,0,undefined,0,s,0,87,87,87,0,0,0,87,0,87,0,0,0,87,87,87,Sat Sep 19 00:49:20 2020,600,The main experiment item,yes,FlankerTask.osexp,C:\Users\Owner\Documents,no,mono,no,18,no,white,no,yes,768,legacy,7,79,C:/Users/Owner/Documents/KMPsubject-4.csv,legacy,Lentiform Loewenfeld,3.3.3,0,h,NA,s,s,NA,h,394,NA,1843,578,NA,394,2,legacy,1024,2,48000,-16,experiment,4,even,NA,148085,155952,157551,4372,144176,3788,153686,NA,157053,142332,3793,NA,157156,157052,157156,Flanker Test,73,38400,88,yes,1024
SSSSS,83.14606742,83.14606742,435.5505618,435.5505618,black,legacy,legacy,legacy,0,congruent,uniform,1,undefined,1,s,0,88,88,88,0,0,0,88,0,88,0,0,0,88,88,88,Sat Sep 19 00:49:20 2020,600,The main experiment item,yes,FlankerTask.osexp,C:\Users\Owner\Documents,no,mono,no,18,no,white,no,yes,768,legacy,8,79,C:/Users/Owner/Documents/KMPsubject-4.csv,legacy,Lentiform Loewenfeld,3.3.3,0,s,NA,s,s,NA,s,364,NA,1843,578,NA,364,2,legacy,1024,2,48000,-16,experiment,4,even,NA,157555,158057,159633,4372,144176,3788,153686,NA,159164,142332,3793,NA,159268,159163,159268,Flanker Test,74,38764,89,yes,1024
HHHHH,82.22222222,82.22222222,434.4444444,434.4444444,black,legacy,legacy,legacy,0,congruent,uniform,0,undefined,0,h,0,89,89,89,0,0,0,89,0,89,0,0,0,89,89,89,Sat Sep 19 00:49:20 2020,600,The main experiment item,yes,FlankerTask.osexp,C:\Users\Owner\Documents,no,mono,no,18,no,white,no,yes,768,legacy,9,79,C:/Users/Owner/Documents/KMPsubject-4.csv,legacy,Lentiform Loewenfeld,3.3.3,0,s,NA,s,s,NA,s,336,NA,1843,578,NA,336,2,legacy,1024,2,48000,-16,experiment,4,even,NA,157555,159637,161181,4372,144176,3788,153686,NA,160743,142332,3793,NA,160844,160741,160844,Flanker Test,74,39100,90,yes,1024
HHSHH,82.41758242,82.41758242,435.1428571,435.1428571,black,legacy,legacy,legacy,0,incongruent,uniform,1,undefined,1,s,0,90,90,90,0,0,0,90,0,90,0,0,0,90,90,90,Sat Sep 19 00:49:20 2020,600,The main experiment item,yes,FlankerTask.osexp,C:\Users\Owner\Documents,no,mono,no,18,no,white,no,yes,768,legacy,10,79,C:/Users/Owner/Documents/KMPsubject-4.csv,legacy,Lentiform Loewenfeld,3.3.3,0,s,NA,s,s,NA,s,498,NA,1843,578,NA,498,2,legacy,1024,2,48000,-16,experiment,4,even,NA,161184,161686,163341,4372,144176,3788,153686,NA,162738,142332,3793,NA,162842,162737,162841,Flanker Test,75,39598,91,yes,1024
SSSSS,82.60869565,82.60869565,435.6956522,435.6956522,black,legacy,legacy,legacy,0,congruent,uniform,1,undefined,1,s,0,91,91,91,0,0,0,91,0,91,0,0,0,91,91,91,Sat Sep 19 00:49:20 2020,600,The main experiment item,yes,FlankerTask.osexp,C:\Users\Owner\Documents,no,mono,no,18,no,white,no,yes,768,legacy,11,79,C:/Users/Owner/Documents/KMPsubject-4.csv,legacy,Lentiform Loewenfeld,3.3.3,0,s,NA,s,s,NA,s,486,NA,1843,578,NA,486,2,legacy,1024,2,48000,-16,experiment,4,even,NA,161184,163344,165038,4372,144176,3788,153686,NA,164449,142332,3793,NA,164551,164447,164551,Flanker Test,76,40084,92,yes,1024
SSSSS,82.79569892,82.79569892,435.1827957,435.1827957,black,legacy,legacy,legacy,0,congruent,uniform,1,undefined,1,s,0,92,92,92,0,0,0,92,0,92,0,0,0,92,92,92,Sat Sep 19 00:49:20 2020,600,The main experiment item,yes,FlankerTask.osexp,C:\Users\Owner\Documents,no,mono,no,18,no,white,no,yes,768,legacy,12,79,C:/Users/Owner/Documents/KMPsubject-4.csv,legacy,Lentiform Loewenfeld,3.3.3,0,s,NA,s,s,NA,s,388,NA,1843,578,NA,388,2,legacy,1024,2,48000,-16,experiment,4,even,NA,161184,165042,166640,4372,144176,3788,153686,NA,166149,142332,3793,NA,166252,166148,166252,Flanker Test,77,40472,93,yes,1024
HHHHH,82.9787234,82.9787234,434.8191489,434.8191489,black,legacy,legacy,legacy,0,congruent,uniform,1,undefined,1,h,0,93,93,93,0,0,0,93,0,93,0,0,0,93,93,93,Sat Sep 19 00:49:20 2020,600,The main experiment item,yes,FlankerTask.osexp,C:\Users\Owner\Documents,no,mono,no,18,no,white,no,yes,768,legacy,13,79,C:/Users/Owner/Documents/KMPsubject-4.csv,legacy,Lentiform Loewenfeld,3.3.3,0,h,NA,s,s,NA,h,401,NA,1843,578,NA,401,2,legacy,1024,2,48000,-16,experiment,4,even,NA,161184,166644,168253,4372,144176,3788,153686,NA,167749,142332,3793,NA,167851,167748,167851,Flanker Test,78,40873,94,yes,1024
HHHHH,82.10526316,82.10526316,433.6736842,433.6736842,black,legacy,legacy,legacy,0,congruent,uniform,0,undefined,0,h,0,94,94,94,0,0,0,94,0,94,0,0,0,94,94,94,Sat Sep 19 00:49:20 2020,600,The main experiment item,yes,FlankerTask.osexp,C:\Users\Owner\Documents,no,mono,no,18,no,white,no,yes,768,legacy,14,79,C:/Users/Owner/Documents/KMPsubject-4.csv,legacy,Lentiform Loewenfeld,3.3.3,0,s,NA,s,s,NA,s,326,NA,1843,578,NA,326,2,legacy,1024,2,48000,-16,experiment,4,even,NA,161184,168257,169791,4372,144176,3788,153686,NA,169361,142332,3793,NA,169464,169360,169464,Flanker Test,78,41199,95,yes,1024
SSHSS,81.25,81.25,433.25,433.25,black,legacy,legacy,legacy,0,incongruent,uniform,0,undefined,0,h,0,95,95,95,0,0,0,95,0,95,0,0,0,95,95,95,Sat Sep 19 00:49:20 2020,600,The main experiment item,yes,FlankerTask.osexp,C:\Users\Owner\Documents,no,mono,no,18,no,white,no,yes,768,legacy,15,79,C:/Users/Owner/Documents/KMPsubject-4.csv,legacy,Lentiform Loewenfeld,3.3.3,0,s,NA,s,s,NA,s,393,NA,1843,578,NA,393,2,legacy,1024,2,48000,-16,experiment,4,even,NA,169794,170298,171891,4372,144176,3788,153686,NA,171394,142332,3793,NA,171497,171393,171497,Flanker Test,78,41592,96,yes,1024
HHHHH,81.44329897,81.44329897,433.5463918,433.5463918,black,legacy,legacy,legacy,0,congruent,uniform,1,undefined,1,h,0,96,96,96,0,0,0,96,0,96,0,0,0,96,96,96,Sat Sep 19 00:49:20 2020,600,The main experiment item,yes,FlankerTask.osexp,C:\Users\Owner\Documents,no,mono,no,18,no,white,no,yes,768,legacy,16,79,C:/Users/Owner/Documents/KMPsubject-4.csv,legacy,Lentiform Loewenfeld,3.3.3,0,h,NA,s,s,NA,h,462,NA,1843,578,NA,462,2,legacy,1024,2,48000,-16,experiment,4,even,NA,171894,172398,174047,4372,144176,3788,153686,NA,173481,142332,3793,NA,173584,173479,173584,Flanker Test,79,42054,97,yes,1024
SSHSS,80.6122449,80.6122449,432.7142857,432.7142857,black,legacy,legacy,legacy,0,incongruent,uniform,0,undefined,0,h,0,97,97,97,0,0,0,97,0,97,0,0,0,97,97,97,Sat Sep 19 00:49:20 2020,600,The main experiment item,yes,FlankerTask.osexp,C:\Users\Owner\Documents,no,mono,no,18,no,white,no,yes,768,legacy,17,79,C:/Users/Owner/Documents/KMPsubject-4.csv,legacy,Lentiform Loewenfeld,3.3.3,0,s,NA,s,s,NA,s,352,NA,1843,578,NA,352,2,legacy,1024,2,48000,-16,experiment,4,even,NA,171894,174050,175615,4372,144176,3788,153686,NA,175158,142332,3793,NA,175261,175156,175261,Flanker Test,79,42406,98,yes,1024
HHSHH,80.80808081,80.80808081,432,432,black,legacy,legacy,legacy,0,incongruent,uniform,1,undefined,1,s,0,98,98,98,0,0,0,98,0,98,0,0,0,98,98,98,Sat Sep 19 00:49:20 2020,600,The main experiment item,yes,FlankerTask.osexp,C:\Users\Owner\Documents,no,mono,no,18,no,white,no,yes,768,legacy,18,79,C:/Users/Owner/Documents/KMPsubject-4.csv,legacy,Lentiform Loewenfeld,3.3.3,0,s,NA,s,s,NA,s,362,NA,1843,578,NA,362,2,legacy,1024,2,48000,-16,experiment,4,even,NA,175620,176124,177697,4372,144176,3788,153686,NA,177230,142332,3793,NA,177333,177228,177333,Flanker Test,80,42768,99,yes,1024
HHHHH,81,81,431.73,431.73,black,legacy,legacy,legacy,0,congruent,uniform,1,undefined,1,h,0,99,99,99,0,0,0,99,0,99,0,0,0,99,99,99,Sat Sep 19 00:49:20 2020,600,The main experiment item,yes,FlankerTask.osexp,C:\Users\Owner\Documents,no,mono,no,18,no,white,no,yes,768,legacy,19,79,C:/Users/Owner/Documents/KMPsubject-4.csv,legacy,Lentiform Loewenfeld,3.3.3,0,h,NA,s,s,NA,h,405,NA,1843,578,NA,405,2,legacy,1024,2,48000,-16,experiment,4,even,NA,175620,177700,179290,4372,144176,3788,153686,NA,178781,142332,3793,NA,178884,178779,178884,Flanker Test,81,43173,100,yes,1024
HHHHH,81.18811881,81.18811881,431.7920792,431.7920792,black,legacy,legacy,legacy,0,congruent,uniform,1,undefined,1,h,0,100,100,100,0,0,0,100,0,100,0,0,0,100,100,100,Sat Sep 19 00:49:20 2020,600,The main experiment item,yes,FlankerTask.osexp,C:\Users\Owner\Documents,no,mono,no,18,no,white,no,yes,768,legacy,20,79,C:/Users/Owner/Documents/KMPsubject-4.csv,legacy,Lentiform Loewenfeld,3.3.3,0,h,NA,s,s,NA,h,438,NA,1843,578,NA,438,2,legacy,1024,2,48000,-16,experiment,4,even,NA,175620,179294,180943,4372,144176,3788,153686,NA,180401,142332,3793,NA,180504,180400,180504,Flanker Test,82,43611,101,yes,1024
SSHSS,81.37254902,81.37254902,432.8823529,432.8823529,black,legacy,legacy,legacy,0,incongruent,uniform,1,undefined,1,h,0,101,101,101,0,0,0,101,0,101,0,0,0,101,101,101,Sat Sep 19 00:49:20 2020,600,The main experiment item,yes,FlankerTask.osexp,C:\Users\Owner\Documents,no,mono,no,18,no,white,no,yes,768,legacy,21,79,C:/Users/Owner/Documents/KMPsubject-4.csv,legacy,Lentiform Loewenfeld,3.3.3,0,h,NA,s,s,NA,h,543,NA,1843,578,NA,543,2,legacy,1024,2,48000,-16,experiment,4,even,NA,175620,180947,182703,4372,144176,3788,153686,NA,182055,142332,3793,NA,182158,182054,182158,Flanker Test,83,44154,102,yes,1024
SSHSS,81.55339806,81.55339806,432.7864078,432.7864078,black,legacy,legacy,legacy,0,incongruent,uniform,1,undefined,1,h,0,102,102,102,0,0,0,102,0,102,0,0,0,102,102,102,Sat Sep 19 00:49:20 2020,600,The main experiment item,yes,FlankerTask.osexp,C:\Users\Owner\Documents,no,mono,no,18,no,white,no,yes,768,legacy,22,79,C:/Users/Owner/Documents/KMPsubject-4.csv,legacy,Lentiform Loewenfeld,3.3.3,0,h,NA,s,s,NA,h,423,NA,1843,578,NA,423,2,legacy,1024,2,48000,-16,experiment,4,even,NA,175620,182706,184341,4372,144176,3788,153686,NA,183814,142332,3793,NA,183917,183812,183917,Flanker Test,84,44577,103,yes,1024
HHHHH,81.73076923,81.73076923,432.7884615,432.7884615,black,legacy,legacy,legacy,0,congruent,uniform,1,undefined,1,h,0,103,103,103,0,0,0,103,0,103,0,0,0,103,103,103,Sat Sep 19 00:49:20 2020,600,The main experiment item,yes,FlankerTask.osexp,C:\Users\Owner\Documents,no,mono,no,18,no,white,no,yes,768,legacy,23,79,C:/Users/Owner/Documents/KMPsubject-4.csv,legacy,Lentiform Loewenfeld,3.3.3,0,h,NA,s,s,NA,h,433,NA,1843,578,NA,433,2,legacy,1024,2,48000,-16,experiment,4,even,NA,175620,184344,185995,4372,144176,3788,153686,NA,185457,142332,3793,NA,185560,185455,185560,Flanker Test,85,45010,104,yes,1024
HHSHH,81.9047619,81.9047619,433.5809524,433.5809524,black,legacy,legacy,legacy,0,incongruent,uniform,1,undefined,1,s,0,104,104,104,0,0,0,104,0,104,0,0,0,104,104,104,Sat Sep 19 00:49:20 2020,600,The main experiment item,yes,FlankerTask.osexp,C:\Users\Owner\Documents,no,mono,no,18,no,white,no,yes,768,legacy,24,79,C:/Users/Owner/Documents/KMPsubject-4.csv,legacy,Lentiform Loewenfeld,3.3.3,0,s,NA,s,s,NA,s,516,NA,1843,578,NA,516,2,legacy,1024,2,48000,-16,experiment,4,even,NA,175620,185999,187724,4372,144176,3788,153686,NA,187105,142332,3793,NA,187207,187103,187207,Flanker Test,86,45526,105,yes,1024
HHSHH,82.0754717,82.0754717,433.8301887,433.8301887,black,legacy,legacy,legacy,0,incongruent,uniform,1,undefined,1,s,0,105,105,105,0,0,0,105,0,105,0,0,0,105,105,105,Sat Sep 19 00:49:20 2020,600,The main experiment item,yes,FlankerTask.osexp,C:\Users\Owner\Documents,no,mono,no,18,no,white,no,yes,768,legacy,25,79,C:/Users/Owner/Documents/KMPsubject-4.csv,legacy,Lentiform Loewenfeld,3.3.3,0,s,NA,s,s,NA,s,460,NA,1843,578,NA,460,2,legacy,1024,2,48000,-16,experiment,4,even,NA,175620,187728,189399,4372,144176,3788,153686,NA,188834,142332,3793,NA,188937,188832,188937,Flanker Test,87,45986,106,yes,1024
HHHHH,82.24299065,82.24299065,433.3364486,433.3364486,black,legacy,legacy,legacy,0,congruent,uniform,1,undefined,1,h,0,106,106,106,0,0,0,106,0,106,0,0,0,106,106,106,Sat Sep 19 00:49:20 2020,600,The main experiment item,yes,FlankerTask.osexp,C:\Users\Owner\Documents,no,mono,no,18,no,white,no,yes,768,legacy,26,79,C:/Users/Owner/Documents/KMPsubject-4.csv,legacy,Lentiform Loewenfeld,3.3.3,0,h,NA,s,s,NA,h,381,NA,1843,578,NA,381,2,legacy,1024,2,48000,-16,experiment,4,even,NA,175620,189402,190991,4372,144176,3788,153686,NA,190506,142332,3793,NA,190608,190505,190608,Flanker Test,88,46367,107,yes,1024
HHHHH,82.40740741,82.40740741,433.7314815,433.7314815,black,legacy,legacy,legacy,0,congruent,uniform,1,undefined,1,h,0,107,107,107,0,0,0,107,0,107,0,0,0,107,107,107,Sat Sep 19 00:49:20 2020,600,The main experiment item,yes,FlankerTask.osexp,C:\Users\Owner\Documents,no,mono,no,18,no,white,no,yes,768,legacy,27,79,C:/Users/Owner/Documents/KMPsubject-4.csv,legacy,Lentiform Loewenfeld,3.3.3,0,h,NA,s,s,NA,h,476,NA,1843,578,NA,476,2,legacy,1024,2,48000,-16,experiment,4,even,NA,175620,190994,192683,4372,144176,3788,153686,NA,192102,142332,3793,NA,192205,192101,192205,Flanker Test,89,46843,108,yes,1024
HHSHH,82.56880734,82.56880734,433.9357798,433.9357798,black,legacy,legacy,legacy,0,incongruent,uniform,1,undefined,1,s,0,108,108,108,0,0,0,108,0,108,0,0,0,108,108,108,Sat Sep 19 00:49:20 2020,600,The main experiment item,yes,FlankerTask.osexp,C:\Users\Owner\Documents,no,mono,no,18,no,white,no,yes,768,legacy,28,79,C:/Users/Owner/Documents/KMPsubject-4.csv,legacy,Lentiform Loewenfeld,3.3.3,0,s,NA,s,s,NA,s,456,NA,1843,578,NA,456,2,legacy,1024,2,48000,-16,experiment,4,even,NA,175620,192686,194352,4372,144176,3788,153686,NA,193792,142332,3793,NA,193895,193790,193895,Flanker Test,90,47299,109,yes,1024
HHSHH,82.72727273,82.72727273,434.3181818,434.3181818,black,legacy,legacy,legacy,0,incongruent,uniform,1,undefined,1,s,0,109,109,109,0,0,0,109,0,109,0,0,0,109,109,109,Sat Sep 19 00:49:20 2020,600,The main experiment item,yes,FlankerTask.osexp,C:\Users\Owner\Documents,no,mono,no,18,no,white,no,yes,768,legacy,29,79,C:/Users/Owner/Documents/KMPsubject-4.csv,legacy,Lentiform Loewenfeld,3.3.3,0,s,NA,s,s,NA,s,476,NA,1843,578,NA,476,2,legacy,1024,2,48000,-16,experiment,4,even,NA,175620,194355,196037,4372,144176,3788,153686,NA,195456,142332,3793,NA,195559,195454,195558,Flanker Test,91,47775,110,yes,1024
SSHSS,81.98198198,81.98198198,433.9459459,433.9459459,black,legacy,legacy,legacy,0,incongruent,uniform,0,undefined,0,h,0,110,110,110,0,0,0,110,0,110,0,0,0,110,110,110,Sat Sep 19 00:49:20 2020,600,The main experiment item,yes,FlankerTask.osexp,C:\Users\Owner\Documents,no,mono,no,18,no,white,no,yes,768,legacy,30,79,C:/Users/Owner/Documents/KMPsubject-4.csv,legacy,Lentiform Loewenfeld,3.3.3,0,s,NA,s,s,NA,s,393,NA,1843,578,NA,393,2,legacy,1024,2,48000,-16,experiment,4,even,NA,175620,196040,197647,4372,144176,3788,153686,NA,197150,142332,3793,NA,197253,197149,197253,Flanker Test,91,48168,111,yes,1024
HHSHH,82.14285714,82.14285714,433.9196429,433.9196429,black,legacy,legacy,legacy,0,incongruent,uniform,1,undefined,1,s,0,111,111,111,0,0,0,111,0,111,0,0,0,111,111,111,Sat Sep 19 00:49:20 2020,600,The main experiment item,yes,FlankerTask.osexp,C:\Users\Owner\Documents,no,mono,no,18,no,white,no,yes,768,legacy,31,79,C:/Users/Owner/Documents/KMPsubject-4.csv,legacy,Lentiform Loewenfeld,3.3.3,0,s,NA,s,s,NA,s,431,NA,1843,578,NA,431,2,legacy,1024,2,48000,-16,experiment,4,even,NA,197650,198154,199796,4372,144176,3788,153686,NA,199260,142332,3793,NA,199363,199258,199363,Flanker Test,92,48599,112,yes,1024
HHSHH,82.30088496,82.30088496,433.6460177,433.6460177,black,legacy,legacy,legacy,0,incongruent,uniform,1,undefined,1,s,0,112,112,112,0,0,0,112,0,112,0,0,0,112,112,112,Sat Sep 19 00:49:20 2020,600,The main experiment item,yes,FlankerTask.osexp,C:\Users\Owner\Documents,no,mono,no,18,no,white,no,yes,768,legacy,32,79,C:/Users/Owner/Documents/KMPsubject-4.csv,legacy,Lentiform Loewenfeld,3.3.3,0,s,NA,s,s,NA,s,403,NA,1843,578,NA,403,2,legacy,1024,2,48000,-16,experiment,4,even,NA,197650,199800,201408,4372,144176,3788,153686,NA,200900,142332,3793,NA,201003,200899,201003,Flanker Test,93,49002,113,yes,1024
SSSSS,82.45614035,82.45614035,433.5964912,433.5964912,black,legacy,legacy,legacy,0,congruent,uniform,1,undefined,1,s,0,113,113,113,0,0,0,113,0,113,0,0,0,113,113,113,Sat Sep 19 00:49:20 2020,600,The main experiment item,yes,FlankerTask.osexp,C:\Users\Owner\Documents,no,mono,no,18,no,white,no,yes,768,legacy,33,79,C:/Users/Owner/Documents/KMPsubject-4.csv,legacy,Lentiform Loewenfeld,3.3.3,0,s,NA,s,s,NA,s,428,NA,1843,578,NA,428,2,legacy,1024,2,48000,-16,experiment,4,even,NA,197650,201411,203049,4372,144176,3788,153686,NA,202517,142332,3793,NA,202620,202515,202620,Flanker Test,94,49430,114,yes,1024
SSSSS,82.60869565,82.60869565,433.9043478,433.9043478,black,legacy,legacy,legacy,0,congruent,uniform,1,undefined,1,s,0,114,114,114,0,0,0,114,0,114,0,0,0,114,114,114,Sat Sep 19 00:49:20 2020,600,The main experiment item,yes,FlankerTask.osexp,C:\Users\Owner\Documents,no,mono,no,18,no,white,no,yes,768,legacy,34,79,C:/Users/Owner/Documents/KMPsubject-4.csv,legacy,Lentiform Loewenfeld,3.3.3,0,s,NA,s,s,NA,s,469,NA,1843,578,NA,469,2,legacy,1024,2,48000,-16,experiment,4,even,NA,197650,203053,204684,4372,144176,3788,153686,NA,204110,142332,3793,NA,204214,204109,204213,Flanker Test,95,49899,115,yes,1024
HHHHH,82.75862069,82.75862069,434.1206897,434.1206897,black,legacy,legacy,legacy,0,congruent,uniform,1,undefined,1,h,0,115,115,115,0,0,0,115,0,115,0,0,0,115,115,115,Sat Sep 19 00:49:20 2020,600,The main experiment item,yes,FlankerTask.osexp,C:\Users\Owner\Documents,no,mono,no,18,no,white,no,yes,768,legacy,35,79,C:/Users/Owner/Documents/KMPsubject-4.csv,legacy,Lentiform Loewenfeld,3.3.3,0,h,NA,s,s,NA,h,459,NA,1843,578,NA,459,2,legacy,1024,2,48000,-16,experiment,4,even,NA,197650,204688,206359,4372,144176,3788,153686,NA,205795,142332,3793,NA,205898,205793,205898,Flanker Test,96,50358,116,yes,1024
HHSHH,82.90598291,82.90598291,433.8717949,433.8717949,black,legacy,legacy,legacy,0,incongruent,uniform,1,undefined,1,s,0,116,116,116,0,0,0,116,0,116,0,0,0,116,116,116,Sat Sep 19 00:49:20 2020,600,The main experiment item,yes,FlankerTask.osexp,C:\Users\Owner\Documents,no,mono,no,18,no,white,no,yes,768,legacy,36,79,C:/Users/Owner/Documents/KMPsubject-4.csv,legacy,Lentiform Loewenfeld,3.3.3,0,s,NA,s,s,NA,s,405,NA,1843,578,NA,405,2,legacy,1024,2,48000,-16,experiment,4,even,NA,197650,206362,207978,4372,144176,3788,153686,NA,207469,142332,3793,NA,207572,207468,207572,Flanker Test,97,50763,117,yes,1024
SSHSS,82.20338983,82.20338983,433.7288136,433.7288136,black,legacy,legacy,legacy,0,incongruent,uniform,0,undefined,0,h,0,117,117,117,0,0,0,117,0,117,0,0,0,117,117,117,Sat Sep 19 00:49:20 2020,600,The main experiment item,yes,FlankerTask.osexp,C:\Users\Owner\Documents,no,mono,no,18,no,white,no,yes,768,legacy,37,79,C:/Users/Owner/Documents/KMPsubject-4.csv,legacy,Lentiform Loewenfeld,3.3.3,0,s,NA,s,s,NA,s,417,NA,1843,578,NA,417,2,legacy,1024,2,48000,-16,experiment,4,even,NA,197650,207981,209606,4372,144176,3788,153686,NA,209084,142332,3793,NA,209187,209083,209187,Flanker Test,97,51180,118,yes,1024
SSSSS,82.35294118,82.35294118,433.5042017,433.5042017,black,legacy,legacy,legacy,0,congruent,uniform,1,undefined,1,s,0,118,118,118,0,0,0,118,0,118,0,0,0,118,118,118,Sat Sep 19 00:49:20 2020,600,The main experiment item,yes,FlankerTask.osexp,C:\Users\Owner\Documents,no,mono,no,18,no,white,no,yes,768,legacy,38,79,C:/Users/Owner/Documents/KMPsubject-4.csv,legacy,Lentiform Loewenfeld,3.3.3,0,s,NA,s,s,NA,s,407,NA,1843,578,NA,407,2,legacy,1024,2,48000,-16,experiment,4,even,NA,209609,210114,211730,4372,144176,3788,153686,NA,211220,142332,3793,NA,211322,211219,211322,Flanker Test,98,51587,119,yes,1024
SSSSS,82.5,82.5,433.5666667,433.5666667,black,legacy,legacy,legacy,0,congruent,uniform,1,undefined,1,s,0,119,119,119,0,0,0,119,0,119,0,0,0,119,119,119,Sat Sep 19 00:49:20 2020,600,The main experiment item,yes,FlankerTask.osexp,C:\Users\Owner\Documents,no,mono,no,18,no,white,no,yes,768,legacy,39,79,C:/Users/Owner/Documents/KMPsubject-4.csv,legacy,Lentiform Loewenfeld,3.3.3,0,s,NA,s,s,NA,s,441,NA,1843,578,NA,441,2,legacy,1024,2,48000,-16,experiment,4,even,NA,209609,211734,213419,4372,144176,3788,153686,NA,212873,142332,3793,NA,212977,212871,212976,Flanker Test,99,52028,120,yes,1024
SSSSS,82.6446281,82.6446281,433.2479339,433.2479339,black,legacy,legacy,legacy,0,congruent,uniform,1,undefined,1,s,0,120,120,120,0,0,0,120,0,120,0,0,0,120,120,120,Sat Sep 19 00:49:20 2020,600,The main experiment item,yes,FlankerTask.osexp,C:\Users\Owner\Documents,no,mono,no,18,no,white,no,yes,768,legacy,40,79,C:/Users/Owner/Documents/KMPsubject-4.csv,legacy,Lentiform Loewenfeld,3.3.3,0,s,NA,s,s,NA,s,395,NA,1843,578,NA,395,2,legacy,1024,2,48000,-16,experiment,4,even,NA,209609,213423,215034,4372,144176,3788,153686,NA,214535,142332,3793,NA,214638,214533,214638,Flanker Test,100,52423,121,yes,1024
SSSSS,82.78688525,82.78688525,432.647541,432.647541,black,legacy,legacy,legacy,0,congruent,uniform,1,undefined,1,s,0,121,121,121,0,0,0,121,0,121,0,0,0,121,121,121,Sat Sep 19 00:49:20 2020,600,The main experiment item,yes,FlankerTask.osexp,C:\Users\Owner\Documents,no,mono,no,18,no,white,no,yes,768,legacy,41,79,C:/Users/Owner/Documents/KMPsubject-4.csv,legacy,Lentiform Loewenfeld,3.3.3,0,s,NA,s,s,NA,s,360,NA,1843,578,NA,360,2,legacy,1024,2,48000,-16,experiment,4,even,NA,209609,215038,216609,4372,144176,3788,153686,NA,216144,142332,3793,NA,216247,216142,216247,Flanker Test,101,52783,122,yes,1024
SSSSS,82.92682927,82.92682927,432.2926829,432.2926829,black,legacy,legacy,legacy,0,congruent,uniform,1,undefined,1,s,0,122,122,122,0,0,0,122,0,122,0,0,0,122,122,122,Sat Sep 19 00:49:20 2020,600,The main experiment item,yes,FlankerTask.osexp,C:\Users\Owner\Documents,no,mono,no,18,no,white,no,yes,768,legacy,42,79,C:/Users/Owner/Documents/KMPsubject-4.csv,legacy,Lentiform Loewenfeld,3.3.3,0,s,NA,s,s,NA,s,389,NA,1843,578,NA,389,2,legacy,1024,2,48000,-16,experiment,4,even,NA,209609,216612,218213,4372,144176,3788,153686,NA,217719,142332,3793,NA,217822,217717,217822,Flanker Test,102,53172,123,yes,1024
SSSSS,83.06451613,83.06451613,432.0564516,432.0564516,black,legacy,legacy,legacy,0,congruent,uniform,1,undefined,1,s,0,123,123,123,0,0,0,123,0,123,0,0,0,123,123,123,Sat Sep 19 00:49:20 2020,600,The main experiment item,yes,FlankerTask.osexp,C:\Users\Owner\Documents,no,mono,no,18,no,white,no,yes,768,legacy,43,79,C:/Users/Owner/Documents/KMPsubject-4.csv,legacy,Lentiform Loewenfeld,3.3.3,0,s,NA,s,s,NA,s,403,NA,1843,578,NA,403,2,legacy,1024,2,48000,-16,experiment,4,even,NA,209609,218216,219795,4372,144176,3788,153686,NA,219287,142332,3793,NA,219391,219286,219391,Flanker Test,103,53575,124,yes,1024
SSSSS,83.2,83.2,431.808,431.808,black,legacy,legacy,legacy,0,congruent,uniform,1,undefined,1,s,0,124,124,124,0,0,0,124,0,124,0,0,0,124,124,124,Sat Sep 19 00:49:20 2020,600,The main experiment item,yes,FlankerTask.osexp,C:\Users\Owner\Documents,no,mono,no,18,no,white,no,yes,768,legacy,44,79,C:/Users/Owner/Documents/KMPsubject-4.csv,legacy,Lentiform Loewenfeld,3.3.3,0,s,NA,s,s,NA,s,401,NA,1843,578,NA,401,2,legacy,1024,2,48000,-16,experiment,4,even,NA,209609,219799,221410,4372,144176,3788,153686,NA,220905,142332,3793,NA,221008,220903,221008,Flanker Test,104,53976,125,yes,1024
HHHHH,83.33333333,83.33333333,432.3333333,432.3333333,black,legacy,legacy,legacy,0,congruent,uniform,1,undefined,1,h,0,125,125,125,0,0,0,125,0,125,0,0,0,125,125,125,Sat Sep 19 00:49:20 2020,600,The main experiment item,yes,FlankerTask.osexp,C:\Users\Owner\Documents,no,mono,no,18,no,white,no,yes,768,legacy,45,79,C:/Users/Owner/Documents/KMPsubject-4.csv,legacy,Lentiform Loewenfeld,3.3.3,0,h,NA,s,s,NA,h,498,NA,1843,578,NA,498,2,legacy,1024,2,48000,-16,experiment,4,even,NA,209609,221414,223122,4372,144176,3788,153686,NA,222520,142332,3793,NA,222623,222519,222623,Flanker Test,105,54474,126,yes,1024
SSHSS,82.67716535,82.67716535,431.984252,431.984252,black,legacy,legacy,legacy,0,incongruent,uniform,0,undefined,0,h,0,126,126,126,0,0,0,126,0,126,0,0,0,126,126,126,Sat Sep 19 00:49:20 2020,600,The main experiment item,yes,FlankerTask.osexp,C:\Users\Owner\Documents,no,mono,no,18,no,white,no,yes,768,legacy,46,79,C:/Users/Owner/Documents/KMPsubject-4.csv,legacy,Lentiform Loewenfeld,3.3.3,0,s,NA,s,s,NA,s,388,NA,1843,578,NA,388,2,legacy,1024,2,48000,-16,experiment,4,even,NA,209609,223125,224722,4372,144176,3788,153686,NA,224232,142332,3793,NA,224333,224230,224333,Flanker Test,105,54862,127,yes,1024
SSSSS,82.8125,82.8125,431.5625,431.5625,black,legacy,legacy,legacy,0,congruent,uniform,1,undefined,1,s,0,127,127,127,0,0,0,127,0,127,0,0,0,127,127,127,Sat Sep 19 00:49:20 2020,600,The main experiment item,yes,FlankerTask.osexp,C:\Users\Owner\Documents,no,mono,no,18,no,white,no,yes,768,legacy,47,79,C:/Users/Owner/Documents/KMPsubject-4.csv,legacy,Lentiform Loewenfeld,3.3.3,0,s,NA,s,s,NA,s,378,NA,1843,578,NA,378,2,legacy,1024,2,48000,-16,experiment,4,even,NA,224726,225230,226802,4372,144176,3788,153686,NA,226319,142332,3793,NA,226423,226317,226423,Flanker Test,106,55240,128,yes,1024
SSHSS,82.94573643,82.94573643,432.248062,432.248062,black,legacy,legacy,legacy,0,incongruent,uniform,1,undefined,1,h,0,128,128,128,0,0,0,128,0,128,0,0,0,128,128,128,Sat Sep 19 00:49:20 2020,600,The main experiment item,yes,FlankerTask.osexp,C:\Users\Owner\Documents,no,mono,no,18,no,white,no,yes,768,legacy,48,79,C:/Users/Owner/Documents/KMPsubject-4.csv,legacy,Lentiform Loewenfeld,3.3.3,0,h,NA,s,s,NA,h,520,NA,1843,578,NA,520,2,legacy,1024,2,48000,-16,experiment,4,even,NA,224726,226806,228535,4372,144176,3788,153686,NA,227910,142332,3793,NA,228013,227909,228013,Flanker Test,107,55760,129,yes,1024
HHSHH,83.07692308,83.07692308,431.7307692,431.7307692,black,legacy,legacy,legacy,0,incongruent,uniform,1,undefined,1,s,0,129,129,129,0,0,0,129,0,129,0,0,0,129,129,129,Sat Sep 19 00:49:20 2020,600,The main experiment item,yes,FlankerTask.osexp,C:\Users\Owner\Documents,no,mono,no,18,no,white,no,yes,768,legacy,49,79,C:/Users/Owner/Documents/KMPsubject-4.csv,legacy,Lentiform Loewenfeld,3.3.3,0,s,NA,s,s,NA,s,365,NA,1843,578,NA,365,2,legacy,1024,2,48000,-16,experiment,4,even,NA,224726,228538,230115,4372,144176,3788,153686,NA,229645,142332,3793,NA,229748,229644,229748,Flanker Test,108,56125,130,yes,1024
SSSSS,83.20610687,83.20610687,431.5801527,431.5801527,black,legacy,legacy,legacy,0,congruent,uniform,1,undefined,1,s,0,130,130,130,0,0,0,130,0,130,0,0,0,130,130,130,Sat Sep 19 00:49:20 2020,600,The main experiment item,yes,FlankerTask.osexp,C:\Users\Owner\Documents,no,mono,no,18,no,white,no,yes,768,legacy,50,79,C:/Users/Owner/Documents/KMPsubject-4.csv,legacy,Lentiform Loewenfeld,3.3.3,0,s,NA,s,s,NA,s,412,NA,1843,578,NA,412,2,legacy,1024,2,48000,-16,experiment,4,even,NA,224726,230118,231739,4372,144176,3788,153686,NA,231222,142332,3793,NA,231326,231221,231326,Flanker Test,109,56537,131,yes,1024
HHSHH,83.33333333,83.33333333,431.3787879,431.3787879,black,legacy,legacy,legacy,0,incongruent,uniform,1,undefined,1,s,0,131,131,131,0,0,0,131,0,131,0,0,0,131,131,131,Sat Sep 19 00:49:20 2020,600,The main experiment item,yes,FlankerTask.osexp,C:\Users\Owner\Documents,no,mono,no,18,no,white,no,yes,768,legacy,51,79,C:/Users/Owner/Documents/KMPsubject-4.csv,legacy,Lentiform Loewenfeld,3.3.3,0,s,NA,s,s,NA,s,405,NA,1843,578,NA,405,2,legacy,1024,2,48000,-16,experiment,4,even,NA,224726,231743,233348,4372,144176,3788,153686,NA,232839,142332,3793,NA,232942,232837,232942,Flanker Test,110,56942,132,yes,1024
SSHSS,82.70676692,82.70676692,431.481203,431.481203,black,legacy,legacy,legacy,0,incongruent,uniform,0,undefined,0,h,0,132,132,132,0,0,0,132,0,132,0,0,0,132,132,132,Sat Sep 19 00:49:20 2020,600,The main experiment item,yes,FlankerTask.osexp,C:\Users\Owner\Documents,no,mono,no,18,no,white,no,yes,768,legacy,52,79,C:/Users/Owner/Documents/KMPsubject-4.csv,legacy,Lentiform Loewenfeld,3.3.3,0,s,NA,s,s,NA,s,445,NA,1843,578,NA,445,2,legacy,1024,2,48000,-16,experiment,4,even,NA,224726,233351,235009,4372,144176,3788,153686,NA,234459,142332,3793,NA,234562,234457,234562,Flanker Test,110,57387,133,yes,1024
HHHHH,82.8358209,82.8358209,431.3283582,431.3283582,black,legacy,legacy,legacy,0,congruent,uniform,1,undefined,1,h,0,133,133,133,0,0,0,133,0,133,0,0,0,133,133,133,Sat Sep 19 00:49:20 2020,600,The main experiment item,yes,FlankerTask.osexp,C:\Users\Owner\Documents,no,mono,no,18,no,white,no,yes,768,legacy,53,79,C:/Users/Owner/Documents/KMPsubject-4.csv,legacy,Lentiform Loewenfeld,3.3.3,0,h,NA,s,s,NA,h,411,NA,1843,578,NA,411,2,legacy,1024,2,48000,-16,experiment,4,even,NA,235013,235517,237139,4372,144176,3788,153686,NA,236623,142332,3793,NA,236727,236622,236727,Flanker Test,111,57798,134,yes,1024
HHSHH,82.96296296,82.96296296,431.4518519,431.4518519,black,legacy,legacy,legacy,0,incongruent,uniform,1,undefined,1,s,0,134,134,134,0,0,0,134,0,134,0,0,0,134,134,134,Sat Sep 19 00:49:20 2020,600,The main experiment item,yes,FlankerTask.osexp,C:\Users\Owner\Documents,no,mono,no,18,no,white,no,yes,768,legacy,54,79,C:/Users/Owner/Documents/KMPsubject-4.csv,legacy,Lentiform Loewenfeld,3.3.3,0,s,NA,s,s,NA,s,448,NA,1843,578,NA,448,2,legacy,1024,2,48000,-16,experiment,4,even,NA,235013,237143,238755,4372,144176,3788,153686,NA,238205,142332,3793,NA,238306,238203,238306,Flanker Test,112,58246,135,yes,1024
SSHSS,83.08823529,83.08823529,432.6911765,432.6911765,black,legacy,legacy,legacy,0,incongruent,uniform,1,undefined,1,h,0,135,135,135,0,0,0,135,0,135,0,0,0,135,135,135,Sat Sep 19 00:49:20 2020,600,The main experiment item,yes,FlankerTask.osexp,C:\Users\Owner\Documents,no,mono,no,18,no,white,no,yes,768,legacy,55,79,C:/Users/Owner/Documents/KMPsubject-4.csv,legacy,Lentiform Loewenfeld,3.3.3,0,h,NA,s,s,NA,h,600,NA,1843,578,NA,600,2,legacy,1024,2,48000,-16,experiment,4,even,NA,235013,238759,240571,4372,144176,3788,153686,NA,239866,142332,3793,NA,239970,239864,239969,Flanker Test,113,58846,136,yes,1024
SSHSS,83.21167883,83.21167883,433.9416058,433.9416058,black,legacy,legacy,legacy,0,incongruent,uniform,1,undefined,1,h,0,136,136,136,0,0,0,136,0,136,0,0,0,136,136,136,Sat Sep 19 00:49:20 2020,600,The main experiment item,yes,FlankerTask.osexp,C:\Users\Owner\Documents,no,mono,no,18,no,white,no,yes,768,legacy,56,79,C:/Users/Owner/Documents/KMPsubject-4.csv,legacy,Lentiform Loewenfeld,3.3.3,0,h,NA,s,s,NA,h,604,NA,1843,578,NA,604,2,legacy,1024,2,48000,-16,experiment,4,even,NA,235013,240575,242390,4372,144176,3788,153686,NA,241681,142332,3793,NA,241784,241680,241784,Flanker Test,114,59450,137,yes,1024
SSHSS,82.60869565,82.60869565,433.8115942,433.8115942,black,legacy,legacy,legacy,0,incongruent,uniform,0,undefined,0,h,0,137,137,137,0,0,0,137,0,137,0,0,0,137,137,137,Sat Sep 19 00:49:20 2020,600,The main experiment item,yes,FlankerTask.osexp,C:\Users\Owner\Documents,no,mono,no,18,no,white,no,yes,768,legacy,57,79,C:/Users/Owner/Documents/KMPsubject-4.csv,legacy,Lentiform Loewenfeld,3.3.3,0,s,NA,s,s,NA,s,416,NA,1843,578,NA,416,2,legacy,1024,2,48000,-16,experiment,4,even,NA,235013,242897,244524,4372,144176,3788,242393,NA,244005,142332,3793,NA,244107,244003,244107,Flanker Test,114,59866,138,yes,1024
SSSSS,82.73381295,82.73381295,433.0503597,433.0503597,black,legacy,legacy,legacy,0,congruent,uniform,1,undefined,1,s,0,138,138,138,0,0,0,138,0,138,0,0,0,138,138,138,Sat Sep 19 00:49:20 2020,600,The main experiment item,yes,FlankerTask.osexp,C:\Users\Owner\Documents,no,mono,no,18,no,white,no,yes,768,legacy,58,79,C:/Users/Owner/Documents/KMPsubject-4.csv,legacy,Lentiform Loewenfeld,3.3.3,0,s,NA,s,s,NA,s,328,NA,1843,578,NA,328,2,legacy,1024,2,48000,-16,experiment,4,even,NA,244528,245032,246569,4372,144176,3788,242393,NA,246137,142332,3793,NA,246240,246136,246240,Flanker Test,115,60194,139,yes,1024
SSHSS,82.85714286,82.85714286,433.9285714,433.9285714,black,legacy,legacy,legacy,0,incongruent,uniform,1,undefined,1,h,0,139,139,139,0,0,0,139,0,139,0,0,0,139,139,139,Sat Sep 19 00:49:20 2020,600,The main experiment item,yes,FlankerTask.osexp,C:\Users\Owner\Documents,no,mono,no,18,no,white,no,yes,768,legacy,59,79,C:/Users/Owner/Documents/KMPsubject-4.csv,legacy,Lentiform Loewenfeld,3.3.3,0,h,NA,s,s,NA,h,556,NA,1843,578,NA,556,2,legacy,1024,2,48000,-16,experiment,4,even,NA,244528,246572,248317,4372,144176,3788,242393,NA,247657,142332,3793,NA,247760,247656,247760,Flanker Test,116,60750,140,yes,1024
HHHHH,82.26950355,82.26950355,433.7304965,433.7304965,black,legacy,legacy,legacy,0,congruent,uniform,0,undefined,0,h,0,140,140,140,0,0,0,140,0,140,0,0,0,140,140,140,Sat Sep 19 00:49:20 2020,600,The main experiment item,yes,FlankerTask.osexp,C:\Users\Owner\Documents,no,mono,no,18,no,white,no,yes,768,legacy,60,79,C:/Users/Owner/Documents/KMPsubject-4.csv,legacy,Lentiform Loewenfeld,3.3.3,0,s,NA,s,s,NA,s,406,NA,1843,578,NA,406,2,legacy,1024,2,48000,-16,experiment,4,even,NA,244528,248321,249931,4372,144176,3788,242393,NA,249420,142332,3793,NA,249524,249418,249524,Flanker Test,116,61156,141,yes,1024
SSSSS,82.3943662,82.3943662,433.9225352,433.9225352,black,legacy,legacy,legacy,0,congruent,uniform,1,undefined,1,s,0,141,141,141,0,0,0,141,0,141,0,0,0,141,141,141,Sat Sep 19 00:49:20 2020,600,The main experiment item,yes,FlankerTask.osexp,C:\Users\Owner\Documents,no,mono,no,18,no,white,no,yes,768,legacy,61,79,C:/Users/Owner/Documents/KMPsubject-4.csv,legacy,Lentiform Loewenfeld,3.3.3,0,s,NA,s,s,NA,s,461,NA,1843,578,NA,461,2,legacy,1024,2,48000,-16,experiment,4,even,NA,249935,250439,252111,4372,144176,3788,242393,NA,251547,142332,3793,NA,251649,251545,251649,Flanker Test,117,61617,142,yes,1024
SSHSS,82.51748252,82.51748252,434.4825175,434.4825175,black,legacy,legacy,legacy,0,incongruent,uniform,1,undefined,1,h,0,142,142,142,0,0,0,142,0,142,0,0,0,142,142,142,Sat Sep 19 00:49:20 2020,600,The main experiment item,yes,FlankerTask.osexp,C:\Users\Owner\Documents,no,mono,no,18,no,white,no,yes,768,legacy,62,79,C:/Users/Owner/Documents/KMPsubject-4.csv,legacy,Lentiform Loewenfeld,3.3.3,0,h,NA,s,s,NA,h,514,NA,1843,578,NA,514,2,legacy,1024,2,48000,-16,experiment,4,even,NA,249935,252115,253838,4372,144176,3788,242393,NA,253219,142332,3793,NA,253322,253218,253322,Flanker Test,118,62131,143,yes,1024
HHHHH,81.94444444,81.94444444,433.8055556,433.8055556,black,legacy,legacy,legacy,0,congruent,uniform,0,undefined,0,h,0,143,143,143,0,0,0,143,0,143,0,0,0,143,143,143,Sat Sep 19 00:49:20 2020,600,The main experiment item,yes,FlankerTask.osexp,C:\Users\Owner\Documents,no,mono,no,18,no,white,no,yes,768,legacy,63,79,C:/Users/Owner/Documents/KMPsubject-4.csv,legacy,Lentiform Loewenfeld,3.3.3,0,s,NA,s,s,NA,s,337,NA,1843,578,NA,337,2,legacy,1024,2,48000,-16,experiment,4,even,NA,249935,253842,255385,4372,144176,3788,242393,NA,254945,142332,3793,NA,255046,254944,255046,Flanker Test,118,62468,144,yes,1024
SSHSS,81.37931034,81.37931034,433.5862069,433.5862069,black,legacy,legacy,legacy,0,incongruent,uniform,0,undefined,0,h,0,144,144,144,0,0,0,144,0,144,0,0,0,144,144,144,Sat Sep 19 00:49:20 2020,600,The main experiment item,yes,FlankerTask.osexp,C:\Users\Owner\Documents,no,mono,no,18,no,white,no,yes,768,legacy,64,79,C:/Users/Owner/Documents/KMPsubject-4.csv,legacy,Lentiform Loewenfeld,3.3.3,0,s,NA,s,s,NA,s,402,NA,1843,578,NA,402,2,legacy,1024,2,48000,-16,experiment,4,even,NA,255391,255895,257480,4372,144176,3788,242393,NA,256975,142332,3793,NA,257077,256974,257077,Flanker Test,118,62870,145,yes,1024
HHSHH,80.82191781,80.82191781,433.7260274,433.7260274,black,legacy,legacy,legacy,0,incongruent,uniform,0,undefined,0,s,0,145,145,145,0,0,0,145,0,145,0,0,0,145,145,145,Sat Sep 19 00:49:20 2020,600,The main experiment item,yes,FlankerTask.osexp,C:\Users\Owner\Documents,no,mono,no,18,no,white,no,yes,768,legacy,65,79,C:/Users/Owner/Documents/KMPsubject-4.csv,legacy,Lentiform Loewenfeld,3.3.3,0,h,NA,s,s,NA,h,454,NA,1843,578,NA,454,2,legacy,1024,2,48000,-16,experiment,4,even,NA,257485,257989,259657,4372,144176,3788,242393,NA,259097,142332,3793,NA,259201,259095,259201,Flanker Test,118,63324,146,yes,1024
SSSSS,80.95238095,80.95238095,433.8911565,433.8911565,black,legacy,legacy,legacy,0,congruent,uniform,1,undefined,1,s,0,146,146,146,0,0,0,146,0,146,0,0,0,146,146,146,Sat Sep 19 00:49:20 2020,600,The main experiment item,yes,FlankerTask.osexp,C:\Users\Owner\Documents,no,mono,no,18,no,white,no,yes,768,legacy,66,79,C:/Users/Owner/Documents/KMPsubject-4.csv,legacy,Lentiform Loewenfeld,3.3.3,0,s,NA,s,s,NA,s,458,NA,1843,578,NA,458,2,legacy,1024,2,48000,-16,experiment,4,even,NA,259660,260164,261831,4372,144176,3788,242393,NA,261269,142332,3793,NA,261372,261268,261372,Flanker Test,119,63782,147,yes,1024
HHHHH,81.08108108,81.08108108,433.9256757,433.9256757,black,legacy,legacy,legacy,0,congruent,uniform,1,undefined,1,h,0,147,147,147,0,0,0,147,0,147,0,0,0,147,147,147,Sat Sep 19 00:49:20 2020,600,The main experiment item,yes,FlankerTask.osexp,C:\Users\Owner\Documents,no,mono,no,18,no,white,no,yes,768,legacy,67,79,C:/Users/Owner/Documents/KMPsubject-4.csv,legacy,Lentiform Loewenfeld,3.3.3,0,h,NA,s,s,NA,h,439,NA,1843,578,NA,439,2,legacy,1024,2,48000,-16,experiment,4,even,NA,259660,261834,263485,4372,144176,3788,242393,NA,262941,142332,3793,NA,263044,262939,263044,Flanker Test,120,64221,148,yes,1024
SSHSS,80.53691275,80.53691275,434.1677852,434.1677852,black,legacy,legacy,legacy,0,incongruent,uniform,0,undefined,0,h,0,148,148,148,0,0,0,148,0,148,0,0,0,148,148,148,Sat Sep 19 00:49:20 2020,600,The main experiment item,yes,FlankerTask.osexp,C:\Users\Owner\Documents,no,mono,no,18,no,white,no,yes,768,legacy,68,79,C:/Users/Owner/Documents/KMPsubject-4.csv,legacy,Lentiform Loewenfeld,3.3.3,0,s,NA,s,s,NA,s,470,NA,1843,578,NA,470,2,legacy,1024,2,48000,-16,experiment,4,even,NA,259660,263489,265171,4372,144176,3788,242393,NA,264596,142332,3793,NA,264699,264594,264698,Flanker Test,120,64691,149,yes,1024
SSSSS,80.66666667,80.66666667,434.16,434.16,black,legacy,legacy,legacy,0,congruent,uniform,1,undefined,1,s,0,149,149,149,0,0,0,149,0,149,0,0,0,149,149,149,Sat Sep 19 00:49:20 2020,600,The main experiment item,yes,FlankerTask.osexp,C:\Users\Owner\Documents,no,mono,no,18,no,white,no,yes,768,legacy,69,79,C:/Users/Owner/Documents/KMPsubject-4.csv,legacy,Lentiform Loewenfeld,3.3.3,0,s,NA,s,s,NA,s,433,NA,1843,578,NA,433,2,legacy,1024,2,48000,-16,experiment,4,even,NA,265174,265675,267313,4372,144176,3788,242393,NA,266774,142332,3793,NA,266878,266773,266877,Flanker Test,121,65124,150,yes,1024
SSHSS,80.13245033,80.13245033,434.5298013,434.5298013,black,legacy,legacy,legacy,0,incongruent,uniform,0,undefined,0,h,0,150,150,150,0,0,0,150,0,150,0,0,0,150,150,150,Sat Sep 19 00:49:20 2020,600,The main experiment item,yes,FlankerTask.osexp,C:\Users\Owner\Documents,no,mono,no,18,no,white,no,yes,768,legacy,70,79,C:/Users/Owner/Documents/KMPsubject-4.csv,legacy,Lentiform Loewenfeld,3.3.3,0,s,NA,s,s,NA,s,490,NA,1843,578,NA,490,2,legacy,1024,2,48000,-16,experiment,4,even,NA,265174,267316,268993,4372,144176,3788,242393,NA,268398,142332,3793,NA,268501,268396,268501,Flanker Test,121,65614,151,yes,1024
HHSHH,79.60526316,79.60526316,433.9736842,433.9736842,black,legacy,legacy,legacy,0,incongruent,uniform,0,undefined,0,s,0,151,151,151,0,0,0,151,0,151,0,0,0,151,151,151,Sat Sep 19 00:49:20 2020,600,The main experiment item,yes,FlankerTask.osexp,C:\Users\Owner\Documents,no,mono,no,18,no,white,no,yes,768,legacy,71,79,C:/Users/Owner/Documents/KMPsubject-4.csv,legacy,Lentiform Loewenfeld,3.3.3,0,h,NA,s,s,NA,h,350,NA,1843,578,NA,350,2,legacy,1024,2,48000,-16,experiment,4,even,NA,268997,269501,271061,4372,144176,3788,242393,NA,270606,142332,3793,NA,270709,270604,270709,Flanker Test,121,65964,152,yes,1024
SSSSS,79.73856209,79.73856209,434.1503268,434.1503268,black,legacy,legacy,legacy,0,congruent,uniform,1,undefined,1,s,0,152,152,152,0,0,0,152,0,152,0,0,0,152,152,152,Sat Sep 19 00:49:20 2020,600,The main experiment item,yes,FlankerTask.osexp,C:\Users\Owner\Documents,no,mono,no,18,no,white,no,yes,768,legacy,72,79,C:/Users/Owner/Documents/KMPsubject-4.csv,legacy,Lentiform Loewenfeld,3.3.3,0,s,NA,s,s,NA,s,461,NA,1843,578,NA,461,2,legacy,1024,2,48000,-16,experiment,4,even,NA,271064,271568,273239,4372,144176,3788,242393,NA,272676,142332,3793,NA,272777,272675,272777,Flanker Test,122,66425,153,yes,1024
HHHHH,79.87012987,79.87012987,434.0064935,434.0064935,black,legacy,legacy,legacy,0,congruent,uniform,1,undefined,1,h,0,153,153,153,0,0,0,153,0,153,0,0,0,153,153,153,Sat Sep 19 00:49:20 2020,600,The main experiment item,yes,FlankerTask.osexp,C:\Users\Owner\Documents,no,mono,no,18,no,white,no,yes,768,legacy,73,79,C:/Users/Owner/Documents/KMPsubject-4.csv,legacy,Lentiform Loewenfeld,3.3.3,0,h,NA,s,s,NA,h,412,NA,1843,578,NA,412,2,legacy,1024,2,48000,-16,experiment,4,even,NA,271064,273243,274867,4372,144176,3788,242393,NA,274351,142332,3793,NA,274453,274349,274453,Flanker Test,123,66837,154,yes,1024
HHSHH,80,80,433.7870968,433.7870968,black,legacy,legacy,legacy,0,incongruent,uniform,1,undefined,1,s,0,154,154,154,0,0,0,154,0,154,0,0,0,154,154,154,Sat Sep 19 00:49:20 2020,600,The main experiment item,yes,FlankerTask.osexp,C:\Users\Owner\Documents,no,mono,no,18,no,white,no,yes,768,legacy,74,79,C:/Users/Owner/Documents/KMPsubject-4.csv,legacy,Lentiform Loewenfeld,3.3.3,0,s,NA,s,s,NA,s,400,NA,1843,578,NA,400,2,legacy,1024,2,48000,-16,experiment,4,even,NA,271064,274870,276483,4372,144176,3788,242393,NA,275978,142332,3793,NA,276081,275976,276081,Flanker Test,124,67237,155,yes,1024
SSHSS,80.12820513,80.12820513,433.5576923,433.5576923,black,legacy,legacy,legacy,0,incongruent,uniform,1,undefined,1,h,0,155,155,155,0,0,0,155,0,155,0,0,0,155,155,155,Sat Sep 19 00:49:20 2020,600,The main experiment item,yes,FlankerTask.osexp,C:\Users\Owner\Documents,no,mono,no,18,no,white,no,yes,768,legacy,75,79,C:/Users/Owner/Documents/KMPsubject-4.csv,legacy,Lentiform Loewenfeld,3.3.3,0,h,NA,s,s,NA,h,398,NA,1843,578,NA,398,2,legacy,1024,2,48000,-16,experiment,4,even,NA,271064,276487,278101,4372,144176,3788,242393,NA,277598,142332,3793,NA,277701,277597,277701,Flanker Test,125,67635,156,yes,1024
HHSHH,80.25477707,80.25477707,432.7515924,432.7515924,black,legacy,legacy,legacy,0,incongruent,uniform,1,undefined,1,s,0,156,156,156,0,0,0,156,0,156,0,0,0,156,156,156,Sat Sep 19 00:49:20 2020,600,The main experiment item,yes,FlankerTask.osexp,C:\Users\Owner\Documents,no,mono,no,18,no,white,no,yes,768,legacy,76,79,C:/Users/Owner/Documents/KMPsubject-4.csv,legacy,Lentiform Loewenfeld,3.3.3,0,s,NA,s,s,NA,s,307,NA,1843,578,NA,307,2,legacy,1024,2,48000,-16,experiment,4,even,NA,271064,278104,279602,4372,144176,3788,242393,NA,279193,142332,3793,NA,279294,279191,279294,Flanker Test,126,67942,157,yes,1024
HHSHH,79.74683544,79.74683544,431.4683544,431.4683544,black,legacy,legacy,legacy,0,incongruent,uniform,0,undefined,0,s,0,157,157,157,0,0,0,157,0,157,0,0,0,157,157,157,Sat Sep 19 00:49:20 2020,600,The main experiment item,yes,FlankerTask.osexp,C:\Users\Owner\Documents,no,mono,no,18,no,white,no,yes,768,legacy,77,79,C:/Users/Owner/Documents/KMPsubject-4.csv,legacy,Lentiform Loewenfeld,3.3.3,0,h,NA,s,s,NA,h,230,NA,1843,578,NA,230,2,legacy,1024,2,48000,-16,experiment,4,even,NA,271064,279606,281041,4372,144176,3788,242393,NA,280703,142332,3793,NA,280809,280702,280808,Flanker Test,126,68172,158,yes,1024
HHSHH,79.24528302,79.24528302,430.8867925,430.8867925,black,legacy,legacy,legacy,0,incongruent,uniform,0,undefined,0,s,0,158,158,158,0,0,0,158,0,158,0,0,0,158,158,158,Sat Sep 19 00:49:20 2020,600,The main experiment item,yes,FlankerTask.osexp,C:\Users\Owner\Documents,no,mono,no,18,no,white,no,yes,768,legacy,78,79,C:/Users/Owner/Documents/KMPsubject-4.csv,legacy,Lentiform Loewenfeld,3.3.3,0,h,NA,s,s,NA,h,339,NA,1843,578,NA,339,2,legacy,1024,2,48000,-16,experiment,4,even,NA,281044,281548,283095,4372,144176,3788,242393,NA,282653,142332,3793,NA,282754,282652,282754,Flanker Test,126,68511,159,yes,1024
SSSSS,79.375,79.375,430.225,430.225,black,legacy,legacy,legacy,0,congruent,uniform,1,undefined,1,s,0,159,159,159,0,0,0,159,0,159,0,0,0,159,159,159,Sat Sep 19 00:49:20 2020,600,The main experiment item,yes,FlankerTask.osexp,C:\Users\Owner\Documents,no,mono,no,18,no,white,no,yes,768,legacy,79,79,C:/Users/Owner/Documents/KMPsubject-4.csv,legacy,Lentiform Loewenfeld,3.3.3,0,s,NA,s,s,NA,s,325,NA,1843,578,NA,325,2,legacy,1024,2,48000,-16,experiment,4,even,NA,283099,283603,285133,4372,144176,3788,242393,NA,284705,142332,3793,NA,284806,284704,284806,Flanker Test,127,68836,160,yes,1024
HHHHH,79.50310559,79.50310559,430.484472,430.484472,black,legacy,legacy,legacy,0,congruent,uniform,1,undefined,1,h,0,160,160,160,0,0,0,160,0,160,0,0,0,160,160,160,Sat Sep 19 00:49:20 2020,300,The main experiment item,yes,FlankerTask.osexp,C:\Users\Owner\Documents,no,mono,no,18,no,white,no,yes,768,legacy,0,79,C:/Users/Owner/Documents/KMPsubject-4.csv,legacy,Lentiform Loewenfeld,3.3.3,0,h,NA,s,s,s,h,472,NA,1843,578,3739,472,2,legacy,1024,2,48000,-16,experiment,4,even,289924,283099,285137,290538,4372,144176,3788,242393,NA,289964,142332,3793,286183,290065,289963,290065,Flanker Test,128,69308,161,yes,1024
SSSSS,79.62962963,79.62962963,431.3333333,431.3333333,black,legacy,legacy,legacy,0,congruent,uniform,1,undefined,1,s,0,161,161,161,0,0,0,161,0,161,0,0,0,161,161,161,Sat Sep 19 00:49:20 2020,300,The main experiment item,yes,FlankerTask.osexp,C:\Users\Owner\Documents,no,mono,no,18,no,white,no,yes,768,legacy,1,79,C:/Users/Owner/Documents/KMPsubject-4.csv,legacy,Lentiform Loewenfeld,3.3.3,0,s,NA,s,s,s,s,568,NA,1843,578,3739,568,2,legacy,1024,2,48000,-16,experiment,4,even,289924,283099,291045,292818,4372,144176,3788,290541,NA,292147,142332,3793,286183,292248,292145,292248,Flanker Test,129,69876,162,yes,1024
HHSHH,79.14110429,79.14110429,430.5214724,430.5214724,black,legacy,legacy,legacy,0,incongruent,uniform,0,undefined,0,s,0,162,162,162,0,0,0,162,0,162,0,0,0,162,162,162,Sat Sep 19 00:49:20 2020,300,The main experiment item,yes,FlankerTask.osexp,C:\Users\Owner\Documents,no,mono,no,18,no,white,no,yes,768,legacy,2,79,C:/Users/Owner/Documents/KMPsubject-4.csv,legacy,Lentiform Loewenfeld,3.3.3,0,h,NA,s,s,s,h,299,NA,1843,578,3739,299,2,legacy,1024,2,48000,-16,experiment,4,even,289924,283099,293324,294779,4372,144176,3788,292821,NA,294376,142332,3793,286183,294478,294374,294478,Flanker Test,129,70175,163,yes,1024
SSHSS,78.65853659,78.65853659,428.9939024,428.9939024,black,legacy,legacy,legacy,0,incongruent,uniform,0,undefined,0,h,0,163,163,163,0,0,0,163,0,163,0,0,0,163,163,163,Sat Sep 19 00:49:20 2020,300,The main experiment item,yes,FlankerTask.osexp,C:\Users\Owner\Documents,no,mono,no,18,no,white,no,yes,768,legacy,3,79,C:/Users/Owner/Documents/KMPsubject-4.csv,legacy,Lentiform Loewenfeld,3.3.3,0,s,NA,s,s,s,s,180,NA,1843,578,3739,180,2,legacy,1024,2,48000,-16,experiment,4,even,289924,294783,295287,296681,4372,144176,3788,292821,NA,296397,142332,3793,286183,296499,296394,296498,Flanker Test,129,70355,164,yes,1024
HHSHH,78.78787879,78.78787879,428.1939394,428.1939394,black,legacy,legacy,legacy,0,incongruent,uniform,1,undefined,1,s,0,164,164,164,0,0,0,164,0,164,0,0,0,164,164,164,Sat Sep 19 00:49:20 2020,300,The main experiment item,yes,FlankerTask.osexp,C:\Users\Owner\Documents,no,mono,no,18,no,white,no,yes,768,legacy,4,79,C:/Users/Owner/Documents/KMPsubject-4.csv,legacy,Lentiform Loewenfeld,3.3.3,0,s,NA,s,s,s,s,297,NA,1843,578,3739,297,2,legacy,1024,2,48000,-16,experiment,4,even,289924,296684,297188,298695,4372,144176,3788,292821,NA,298292,142332,3793,286183,298396,298291,298395,Flanker Test,130,70652,165,yes,1024
HHSHH,78.31325301,78.31325301,427.3072289,427.3072289,black,legacy,legacy,legacy,0,incongruent,uniform,0,undefined,0,s,0,165,165,165,0,0,0,165,0,165,0,0,0,165,165,165,Sat Sep 19 00:49:20 2020,300,The main experiment item,yes,FlankerTask.osexp,C:\Users\Owner\Documents,no,mono,no,18,no,white,no,yes,768,legacy,5,79,C:/Users/Owner/Documents/KMPsubject-4.csv,legacy,Lentiform Loewenfeld,3.3.3,0,h,NA,s,s,s,h,281,NA,1843,578,3739,281,2,legacy,1024,2,48000,-16,experiment,4,even,289924,296684,298699,300195,4372,144176,3788,292821,NA,299807,142332,3793,286183,299910,299805,299910,Flanker Test,130,70933,166,yes,1024
HHSHH,78.44311377,78.44311377,425.6467066,425.6467066,black,legacy,legacy,legacy,0,incongruent,uniform,1,undefined,1,s,0,166,166,166,0,0,0,166,0,166,0,0,0,166,166,166,Sat Sep 19 00:49:20 2020,300,The main experiment item,yes,FlankerTask.osexp,C:\Users\Owner\Documents,no,mono,no,18,no,white,no,yes,768,legacy,6,79,C:/Users/Owner/Documents/KMPsubject-4.csv,legacy,Lentiform Loewenfeld,3.3.3,0,s,NA,s,s,s,s,150,NA,1843,578,3739,150,2,legacy,1024,2,48000,-16,experiment,4,even,289924,300200,300701,302039,4372,144176,3788,292821,NA,301784,142332,3793,286183,301887,301783,301887,Flanker Test,131,71083,167,yes,1024
SSSSS,77.97619048,77.97619048,424.3630952,424.3630952,black,legacy,legacy,legacy,0,congruent,uniform,0,undefined,0,s,0,167,167,167,0,0,0,167,0,167,0,0,0,167,167,167,Sat Sep 19 00:49:20 2020,300,The main experiment item,yes,FlankerTask.osexp,C:\Users\Owner\Documents,no,mono,no,18,no,white,no,yes,768,legacy,7,79,C:/Users/Owner/Documents/KMPsubject-4.csv,legacy,Lentiform Loewenfeld,3.3.3,0,h,NA,s,s,s,h,210,NA,1843,578,3739,210,2,legacy,1024,2,48000,-16,experiment,4,even,289924,300200,302043,303435,4372,144176,3788,292821,NA,303119,142332,3793,286183,303223,303117,303222,Flanker Test,131,71293,168,yes,1024
