"acc","accuracy","average_response_time","avg_rt","background","canvas_backend","clock_backend","color_backend","condition","correct","correct_instructions1_sketchpad","correct_keyboard_response","correct_response","count_Block1","count_Block2","count_Block3","count_Finish_sketchpad","count_ISI_sketchpad","count_Sequence","count_errorFeedback_sketchpad","count_experiment","count_faster_sketchpad","count_fixation_sketchpad","count_instructions1_sketchpad","count_keyboard_response","count_logger","count_new_1_sketchpad","count_new_sketchpad","count_stimulus_sketchpad","datetime","deadline","description","disable_garbage_collection","experiment_file","experiment_path","font_bold","font_family","font_italic","font_size","font_underline","foreground","form_clicks","fullscreen","height","keyboard_backend","live_row","live_row_Block1","logfile","mouse_backend","opensesame_codename","opensesame_version","repeat_cycle","response","response_Finish_sketchpad","response_instructions1_sketchpad","response_keyboard_response","response_new_1_sketchpad","response_new_sketchpad","response_time","response_time_Finish_sketchpad","response_time_instructions1_sketchpad","response_time_keyboard_response","response_time_new_1_sketchpad","response_time_new_sketchpad","round_decimals","sampler_backend","sound_buf_size","sound_channels","sound_freq","sound_sample_size","start","stimulus","subject_nr","subject_parity","time_Block1","time_Block2","time_Block3","time_Finish_sketchpad","time_ISI_sketchpad","time_Sequence","time_errorFeedback_sketchpad","time_experiment","time_faster_sketchpad","time_fixation_sketchpad","time_instructions1_sketchpad","time_keyboard_response","time_logger","time_new_1_sketchpad","time_new_sketchpad","time_stimulus_sketchpad","title","total_correct","total_response_time","total_responses","width"
"100","100","1360","1360","#3d3846","legacy","legacy","legacy","incongruent","1","undefined","1","h","0","0","0","0","0","0","0","0","0","0","0","0","0","0","0","0","Wed Sep  6 11:21:35 2023","1500","The main experiment item","True","Flankertask.osexp","C:/Users/juzal/OneDrive/Documents/Masters of Equine Science/Advanced Quantitative Methods and Experiment Design","False","mono","False","18","no","white","no","yes","768","legacy","0","0","C:/Users/juzal/OneDrive/Documents/Masters of Equine Science/Advanced Quantitative Methods and Experiment Design/CH-subject-4.csv","legacy","Melodramatic Milgram","4.0.5","0","h","NA","h","h","NA","NA","1360.0","NA","42422","1360","NA","NA","2","legacy","1024","2","48000","-16","experiment","SSHSS","4","even","44384","NA","NA","NA","NA","44428","NA","1950","NA","44429","1961","44529","45890","NA","NA","44529","Flanker task","1","1360.0","1","1024"
"100","100","1103","1103","#3d3846","legacy","legacy","legacy","congruent","1","undefined","1","s","0","0","0","0","1","1","1","0","1","1","0","1","1","0","0","1","Wed Sep  6 11:21:35 2023","1500","The main experiment item","True","Flankertask.osexp","C:/Users/juzal/OneDrive/Documents/Masters of Equine Science/Advanced Quantitative Methods and Experiment Design","False","mono","False","18","no","white","no","yes","768","legacy","1","1","C:/Users/juzal/OneDrive/Documents/Masters of Equine Science/Advanced Quantitative Methods and Experiment Design/CH-subject-4.csv","legacy","Melodramatic Milgram","4.0.5","0","s","NA","h","s","NA","NA","847.0","NA","42422","847","NA","NA","2","legacy","1024","2","48000","-16","experiment","SSSSS","4","even","44384","NA","NA","NA","45937","46961","NA","1950","NA","46962","1961","47063","47910","NA","NA","47063","Flanker task","2","2207.0","2","1024"
"100","100","920","920","#3d3846","legacy","legacy","legacy","congruent","1","undefined","1","h","0","0","0","0","2","2","2","0","2","2","0","2","2","0","0","2","Wed Sep  6 11:21:35 2023","1500","The main experiment item","True","Flankertask.osexp","C:/Users/juzal/OneDrive/Documents/Masters of Equine Science/Advanced Quantitative Methods and Experiment Design","False","mono","False","18","no","white","no","yes","768","legacy","2","2","C:/Users/juzal/OneDrive/Documents/Masters of Equine Science/Advanced Quantitative Methods and Experiment Design/CH-subject-4.csv","legacy","Melodramatic Milgram","4.0.5","0","h","NA","h","h","NA","NA","554.0","NA","42422","554","NA","NA","2","legacy","1024","2","48000","-16","experiment","HHHHH","4","even","44384","NA","NA","NA","47959","48983","NA","1950","NA","48983","1961","49084","49638","NA","NA","49084","Flanker task","3","2761.0","3","1024"
"75","75","1065","1065","#3d3846","legacy","legacy","legacy","incongruent","0","undefined","0","s","0","0","0","0","3","3","3","0","3","3","0","3","3","0","0","3","Wed Sep  6 11:21:35 2023","1500","The main experiment item","True","Flankertask.osexp","C:/Users/juzal/OneDrive/Documents/Masters of Equine Science/Advanced Quantitative Methods and Experiment Design","False","mono","False","18","no","white","no","yes","768","legacy","3","3","C:/Users/juzal/OneDrive/Documents/Masters of Equine Science/Advanced Quantitative Methods and Experiment Design/CH-subject-4.csv","legacy","Melodramatic Milgram","4.0.5","0","None","NA","h","None","NA","NA","1500.0","NA","42422","1500","NA","NA","2","legacy","1024","2","48000","-16","experiment","HHSHH","4","even","44384","NA","NA","NA","49643","50667","NA","1950","NA","50668","1961","50769","52269","NA","NA","50769","Flanker task","3","4261.0","4","1024"
"80","80","990","990","#3d3846","legacy","legacy","legacy","congruent","1","undefined","1","s","0","0","0","0","4","4","4","0","4","4","0","4","4","0","0","4","Wed Sep  6 11:21:35 2023","1500","The main experiment item","True","Flankertask.osexp","C:/Users/juzal/OneDrive/Documents/Masters of Equine Science/Advanced Quantitative Methods and Experiment Design","False","mono","False","18","no","white","no","yes","768","legacy","4","4","C:/Users/juzal/OneDrive/Documents/Masters of Equine Science/Advanced Quantitative Methods and Experiment Design/CH-subject-4.csv","legacy","Melodramatic Milgram","4.0.5","0","s","NA","h","s","NA","NA","692.0","NA","42422","692","NA","NA","2","legacy","1024","2","48000","-16","experiment","SSSSS","4","even","44384","NA","NA","NA","52810","53833","52310","1950","NA","53834","1961","53935","54627","NA","NA","53935","Flanker task","4","4953.0","5","1024"
"83","83","925","925","#3d3846","legacy","legacy","legacy","incongruent","1","undefined","1","h","0","0","0","0","5","5","5","0","5","5","0","5","5","0","0","5","Wed Sep  6 11:21:35 2023","1500","The main experiment item","True","Flankertask.osexp","C:/Users/juzal/OneDrive/Documents/Masters of Equine Science/Advanced Quantitative Methods and Experiment Design","False","mono","False","18","no","white","no","yes","768","legacy","5","5","C:/Users/juzal/OneDrive/Documents/Masters of Equine Science/Advanced Quantitative Methods and Experiment Design/CH-subject-4.csv","legacy","Melodramatic Milgram","4.0.5","0","h","NA","h","h","NA","NA","601.0","NA","42422","601","NA","NA","2","legacy","1024","2","48000","-16","experiment","SSHSS","4","even","44384","NA","NA","NA","54673","55698","52310","1950","NA","55699","1961","55800","56401","NA","NA","55800","Flanker task","5","5554.0","6","1024"
"85","85","904","904","#3d3846","legacy","legacy","legacy","incongruent","1","undefined","1","h","0","0","0","0","6","6","6","0","6","6","0","6","6","0","0","6","Wed Sep  6 11:21:35 2023","1500","The main experiment item","True","Flankertask.osexp","C:/Users/juzal/OneDrive/Documents/Masters of Equine Science/Advanced Quantitative Methods and Experiment Design","False","mono","False","18","no","white","no","yes","768","legacy","6","6","C:/Users/juzal/OneDrive/Documents/Masters of Equine Science/Advanced Quantitative Methods and Experiment Design/CH-subject-4.csv","legacy","Melodramatic Milgram","4.0.5","0","h","NA","h","h","NA","NA","778.0","NA","42422","778","NA","NA","2","legacy","1024","2","48000","-16","experiment","SSHSS","4","even","44384","NA","NA","NA","56405","57429","52310","1950","NA","57430","1961","57532","58311","NA","NA","57532","Flanker task","6","6332.0","7","1024"
"87","87","846","846","#3d3846","legacy","legacy","legacy","congruent","1","undefined","1","s","0","0","0","0","7","7","7","0","7","7","0","7","7","0","0","7","Wed Sep  6 11:21:35 2023","1500","The main experiment item","True","Flankertask.osexp","C:/Users/juzal/OneDrive/Documents/Masters of Equine Science/Advanced Quantitative Methods and Experiment Design","False","mono","False","18","no","white","no","yes","768","legacy","7","7","C:/Users/juzal/OneDrive/Documents/Masters of Equine Science/Advanced Quantitative Methods and Experiment Design/CH-subject-4.csv","legacy","Melodramatic Milgram","4.0.5","0","s","NA","h","s","NA","NA","442.0","NA","42422","442","NA","NA","2","legacy","1024","2","48000","-16","experiment","SSSSS","4","even","44384","NA","NA","NA","58360","59384","52310","1950","NA","59385","1961","59486","59928","NA","NA","59486","Flanker task","7","6774.0","8","1024"
"88","88","875","875","#3d3846","legacy","legacy","legacy","incongruent","1","undefined","1","s","0","0","0","0","8","8","8","0","8","8","0","8","8","0","0","8","Wed Sep  6 11:21:35 2023","1500","The main experiment item","True","Flankertask.osexp","C:/Users/juzal/OneDrive/Documents/Masters of Equine Science/Advanced Quantitative Methods and Experiment Design","False","mono","False","18","no","white","no","yes","768","legacy","8","8","C:/Users/juzal/OneDrive/Documents/Masters of Equine Science/Advanced Quantitative Methods and Experiment Design/CH-subject-4.csv","legacy","Melodramatic Milgram","4.0.5","0","s","NA","h","s","NA","NA","1105.0","NA","42422","1105","NA","NA","2","legacy","1024","2","48000","-16","experiment","HHSHH","4","even","44384","NA","NA","NA","59980","61003","52310","1950","NA","61005","1961","61106","62211","NA","NA","61106","Flanker task","8","7879.0","9","1024"
"90","90","842","842","#3d3846","legacy","legacy","legacy","incongruent","1","undefined","1","h","0","0","0","0","9","9","9","0","9","9","0","9","9","0","0","9","Wed Sep  6 11:21:35 2023","1500","The main experiment item","True","Flankertask.osexp","C:/Users/juzal/OneDrive/Documents/Masters of Equine Science/Advanced Quantitative Methods and Experiment Design","False","mono","False","18","no","white","no","yes","768","legacy","9","9","C:/Users/juzal/OneDrive/Documents/Masters of Equine Science/Advanced Quantitative Methods and Experiment Design/CH-subject-4.csv","legacy","Melodramatic Milgram","4.0.5","0","h","NA","h","h","NA","NA","546.0","NA","42422","546","NA","NA","2","legacy","1024","2","48000","-16","experiment","SSHSS","4","even","44384","NA","NA","NA","62258","63281","52310","1950","NA","63282","1961","63383","63930","NA","NA","63383","Flanker task","9","8425.0","10","1024"
"90","90","809","809","#3d3846","legacy","legacy","legacy","incongruent","1","undefined","1","s","0","0","0","0","10","10","10","0","10","10","0","10","10","0","0","10","Wed Sep  6 11:21:35 2023","1500","The main experiment item","True","Flankertask.osexp","C:/Users/juzal/OneDrive/Documents/Masters of Equine Science/Advanced Quantitative Methods and Experiment Design","False","mono","False","18","no","white","no","yes","768","legacy","10","10","C:/Users/juzal/OneDrive/Documents/Masters of Equine Science/Advanced Quantitative Methods and Experiment Design/CH-subject-4.csv","legacy","Melodramatic Milgram","4.0.5","0","s","NA","h","s","NA","NA","483.0","NA","42422","483","NA","NA","2","legacy","1024","2","48000","-16","experiment","HHSHH","4","even","44384","NA","NA","NA","63983","65011","52310","1950","NA","65012","1961","65114","65598","NA","NA","65114","Flanker task","10","8908.0","11","1024"
"91","91","775","775","#3d3846","legacy","legacy","legacy","congruent","1","undefined","1","h","0","0","0","0","11","11","11","0","11","11","0","11","11","0","0","11","Wed Sep  6 11:21:35 2023","1500","The main experiment item","True","Flankertask.osexp","C:/Users/juzal/OneDrive/Documents/Masters of Equine Science/Advanced Quantitative Methods and Experiment Design","False","mono","False","18","no","white","no","yes","768","legacy","11","11","C:/Users/juzal/OneDrive/Documents/Masters of Equine Science/Advanced Quantitative Methods and Experiment Design/CH-subject-4.csv","legacy","Melodramatic Milgram","4.0.5","0","h","NA","h","h","NA","NA","397.0","NA","42422","397","NA","NA","2","legacy","1024","2","48000","-16","experiment","HHHHH","4","even","44384","NA","NA","NA","65637","66660","52310","1950","NA","66661","1961","66762","67160","NA","NA","66762","Flanker task","11","9305.0","12","1024"
"92","92","756","756","#3d3846","legacy","legacy","legacy","congruent","1","undefined","1","s","0","0","0","0","12","12","12","0","12","12","0","12","12","0","0","12","Wed Sep  6 11:21:35 2023","1500","The main experiment item","True","Flankertask.osexp","C:/Users/juzal/OneDrive/Documents/Masters of Equine Science/Advanced Quantitative Methods and Experiment Design","False","mono","False","18","no","white","no","yes","768","legacy","12","12","C:/Users/juzal/OneDrive/Documents/Masters of Equine Science/Advanced Quantitative Methods and Experiment Design/CH-subject-4.csv","legacy","Melodramatic Milgram","4.0.5","0","s","NA","h","s","NA","NA","523.0","NA","42422","523","NA","NA","2","legacy","1024","2","48000","-16","experiment","SSSSS","4","even","44384","NA","NA","NA","67205","68228","52310","1950","NA","68229","1961","68330","68856","NA","NA","68330","Flanker task","12","9828.0","13","1024"
"92","92","731","731","#3d3846","legacy","legacy","legacy","congruent","1","undefined","1","h","0","0","0","0","13","13","13","0","13","13","0","13","13","0","0","13","Wed Sep  6 11:21:35 2023","1500","The main experiment item","True","Flankertask.osexp","C:/Users/juzal/OneDrive/Documents/Masters of Equine Science/Advanced Quantitative Methods and Experiment Design","False","mono","False","18","no","white","no","yes","768","legacy","13","13","C:/Users/juzal/OneDrive/Documents/Masters of Equine Science/Advanced Quantitative Methods and Experiment Design/CH-subject-4.csv","legacy","Melodramatic Milgram","4.0.5","0","h","NA","h","h","NA","NA","418.0","NA","42422","418","NA","NA","2","legacy","1024","2","48000","-16","experiment","HHHHH","4","even","44384","NA","NA","NA","68897","69920","52310","1950","NA","69921","1961","70022","70440","NA","NA","70022","Flanker task","13","10246.0","14","1024"
"93","93","729","729","#3d3846","legacy","legacy","legacy","incongruent","1","undefined","1","h","0","0","0","0","14","14","14","0","14","14","0","14","14","0","0","14","Wed Sep  6 11:21:35 2023","1500","The main experiment item","True","Flankertask.osexp","C:/Users/juzal/OneDrive/Documents/Masters of Equine Science/Advanced Quantitative Methods and Experiment Design","False","mono","False","18","no","white","no","yes","768","legacy","14","14","C:/Users/juzal/OneDrive/Documents/Masters of Equine Science/Advanced Quantitative Methods and Experiment Design/CH-subject-4.csv","legacy","Melodramatic Milgram","4.0.5","0","h","NA","h","h","NA","NA","700.0","NA","42422","700","NA","NA","2","legacy","1024","2","48000","-16","experiment","SSHSS","4","even","44384","NA","NA","NA","70444","71467","52310","1950","NA","71468","1961","71569","72269","NA","NA","71569","Flanker task","14","10946.0","15","1024"
"93","93","720","720","#3d3846","legacy","legacy","legacy","congruent","1","undefined","1","h","0","0","0","0","15","15","15","0","15","15","0","15","15","0","0","15","Wed Sep  6 11:21:35 2023","1500","The main experiment item","True","Flankertask.osexp","C:/Users/juzal/OneDrive/Documents/Masters of Equine Science/Advanced Quantitative Methods and Experiment Design","False","mono","False","18","no","white","no","yes","768","legacy","15","15","C:/Users/juzal/OneDrive/Documents/Masters of Equine Science/Advanced Quantitative Methods and Experiment Design/CH-subject-4.csv","legacy","Melodramatic Milgram","4.0.5","0","h","NA","h","h","NA","NA","584.0","NA","42422","584","NA","NA","2","legacy","1024","2","48000","-16","experiment","HHHHH","4","even","44384","NA","NA","NA","72314","73337","52310","1950","NA","73338","1961","73439","74023","NA","NA","73439","Flanker task","15","11530.0","16","1024"
"88","88","702","702","#3d3846","legacy","legacy","legacy","incongruent","0","undefined","0","h","0","0","0","0","16","16","16","0","16","16","0","16","16","0","0","16","Wed Sep  6 11:21:35 2023","1500","The main experiment item","True","Flankertask.osexp","C:/Users/juzal/OneDrive/Documents/Masters of Equine Science/Advanced Quantitative Methods and Experiment Design","False","mono","False","18","no","white","no","yes","768","legacy","16","16","C:/Users/juzal/OneDrive/Documents/Masters of Equine Science/Advanced Quantitative Methods and Experiment Design/CH-subject-4.csv","legacy","Melodramatic Milgram","4.0.5","0","s","NA","h","s","NA","NA","419.0","NA","42422","419","NA","NA","2","legacy","1024","2","48000","-16","experiment","SSHSS","4","even","44384","NA","NA","NA","74051","75074","52310","1950","NA","75075","1961","75176","75595","NA","NA","75176","Flanker task","15","11949.0","17","1024"
"88","88","706","706","#3d3846","legacy","legacy","legacy","incongruent","1","undefined","1","s","0","0","0","0","17","17","17","0","17","17","0","17","17","0","0","17","Wed Sep  6 11:21:35 2023","1500","The main experiment item","True","Flankertask.osexp","C:/Users/juzal/OneDrive/Documents/Masters of Equine Science/Advanced Quantitative Methods and Experiment Design","False","mono","False","18","no","white","no","yes","768","legacy","17","17","C:/Users/juzal/OneDrive/Documents/Masters of Equine Science/Advanced Quantitative Methods and Experiment Design/CH-subject-4.csv","legacy","Melodramatic Milgram","4.0.5","0","s","NA","h","s","NA","NA","759.0","NA","42422","759","NA","NA","2","legacy","1024","2","48000","-16","experiment","HHSHH","4","even","44384","NA","NA","NA","76134","77158","75634","1950","NA","77159","1961","77260","78019","NA","NA","77260","Flanker task","16","12708.0","18","1024"
"89","89","700","700","#3d3846","legacy","legacy","legacy","congruent","1","undefined","1","s","0","0","0","0","18","18","18","0","18","18","0","18","18","0","0","18","Wed Sep  6 11:21:35 2023","1500","The main experiment item","True","Flankertask.osexp","C:/Users/juzal/OneDrive/Documents/Masters of Equine Science/Advanced Quantitative Methods and Experiment Design","False","mono","False","18","no","white","no","yes","768","legacy","18","18","C:/Users/juzal/OneDrive/Documents/Masters of Equine Science/Advanced Quantitative Methods and Experiment Design/CH-subject-4.csv","legacy","Melodramatic Milgram","4.0.5","0","s","NA","h","s","NA","NA","592.0","NA","42422","592","NA","NA","2","legacy","1024","2","48000","-16","experiment","SSSSS","4","even","44384","NA","NA","NA","78060","79083","75634","1950","NA","79085","1961","79186","79778","NA","NA","79186","Flanker task","17","13300.0","19","1024"
"90","90","689","689","#3d3846","legacy","legacy","legacy","congruent","1","undefined","1","h","0","0","0","0","19","19","19","0","19","19","0","19","19","0","0","19","Wed Sep  6 11:21:35 2023","1500","The main experiment item","True","Flankertask.osexp","C:/Users/juzal/OneDrive/Documents/Masters of Equine Science/Advanced Quantitative Methods and Experiment Design","False","mono","False","18","no","white","no","yes","768","legacy","19","19","C:/Users/juzal/OneDrive/Documents/Masters of Equine Science/Advanced Quantitative Methods and Experiment Design/CH-subject-4.csv","legacy","Melodramatic Milgram","4.0.5","0","h","NA","h","h","NA","NA","490.0","NA","42422","490","NA","NA","2","legacy","1024","2","48000","-16","experiment","HHHHH","4","even","44384","NA","NA","NA","79810","80839","75634","1950","NA","80840","1961","80941","81431","NA","NA","80941","Flanker task","18","13790.0","20","1024"
"90","90","680","680","#3d3846","legacy","legacy","legacy","incongruent","1","undefined","1","h","0","0","0","0","20","20","20","0","20","20","0","20","20","0","0","20","Wed Sep  6 11:21:35 2023","1500","The main experiment item","True","Flankertask.osexp","C:/Users/juzal/OneDrive/Documents/Masters of Equine Science/Advanced Quantitative Methods and Experiment Design","False","mono","False","18","no","white","no","yes","768","legacy","20","20","C:/Users/juzal/OneDrive/Documents/Masters of Equine Science/Advanced Quantitative Methods and Experiment Design/CH-subject-4.csv","legacy","Melodramatic Milgram","4.0.5","0","h","NA","h","h","NA","NA","491.0","NA","42422","491","NA","NA","2","legacy","1024","2","48000","-16","experiment","SSHSS","4","even","44384","NA","NA","NA","81483","82506","75634","1950","NA","82507","1961","82608","83099","NA","NA","82608","Flanker task","19","14281.0","21","1024"
"90","90","668","668","#3d3846","legacy","legacy","legacy","incongruent","1","undefined","1","h","0","0","0","0","21","21","21","0","21","21","0","21","21","0","0","21","Wed Sep  6 11:21:35 2023","1500","The main experiment item","True","Flankertask.osexp","C:/Users/juzal/OneDrive/Documents/Masters of Equine Science/Advanced Quantitative Methods and Experiment Design","False","mono","False","18","no","white","no","yes","768","legacy","21","21","C:/Users/juzal/OneDrive/Documents/Masters of Equine Science/Advanced Quantitative Methods and Experiment Design/CH-subject-4.csv","legacy","Melodramatic Milgram","4.0.5","0","h","NA","h","h","NA","NA","422.0","NA","42422","422","NA","NA","2","legacy","1024","2","48000","-16","experiment","SSHSS","4","even","44384","NA","NA","NA","83151","84178","75634","1950","NA","84179","1961","84279","84702","NA","NA","84279","Flanker task","20","14703.0","22","1024"
"91","91","662","662","#3d3846","legacy","legacy","legacy","congruent","1","undefined","1","s","0","0","0","0","22","22","22","0","22","22","0","22","22","0","0","22","Wed Sep  6 11:21:35 2023","1500","The main experiment item","True","Flankertask.osexp","C:/Users/juzal/OneDrive/Documents/Masters of Equine Science/Advanced Quantitative Methods and Experiment Design","False","mono","False","18","no","white","no","yes","768","legacy","22","22","C:/Users/juzal/OneDrive/Documents/Masters of Equine Science/Advanced Quantitative Methods and Experiment Design/CH-subject-4.csv","legacy","Melodramatic Milgram","4.0.5","0","s","NA","h","s","NA","NA","523.0","NA","42422","523","NA","NA","2","legacy","1024","2","48000","-16","experiment","SSSSS","4","even","44384","NA","NA","NA","84741","85764","75634","1950","NA","85765","1961","85866","86390","NA","NA","85866","Flanker task","21","15226.0","23","1024"
"91","91","648","648","#3d3846","legacy","legacy","legacy","incongruent","1","undefined","1","h","0","0","0","0","23","23","23","0","23","23","0","23","23","0","0","23","Wed Sep  6 11:21:35 2023","1500","The main experiment item","True","Flankertask.osexp","C:/Users/juzal/OneDrive/Documents/Masters of Equine Science/Advanced Quantitative Methods and Experiment Design","False","mono","False","18","no","white","no","yes","768","legacy","23","23","C:/Users/juzal/OneDrive/Documents/Masters of Equine Science/Advanced Quantitative Methods and Experiment Design/CH-subject-4.csv","legacy","Melodramatic Milgram","4.0.5","0","h","NA","h","h","NA","NA","347.0","NA","42422","347","NA","NA","2","legacy","1024","2","48000","-16","experiment","SSHSS","4","even","44384","NA","NA","NA","86409","87432","75634","1950","NA","87433","1961","87534","87881","NA","NA","87534","Flanker task","22","15573.0","24","1024"
"92","92","634","634","#3d3846","legacy","legacy","legacy","incongruent","1","undefined","1","s","0","0","0","0","24","24","24","0","24","24","0","24","24","0","0","24","Wed Sep  6 11:21:35 2023","1500","The main experiment item","True","Flankertask.osexp","C:/Users/juzal/OneDrive/Documents/Masters of Equine Science/Advanced Quantitative Methods and Experiment Design","False","mono","False","18","no","white","no","yes","768","legacy","24","24","C:/Users/juzal/OneDrive/Documents/Masters of Equine Science/Advanced Quantitative Methods and Experiment Design/CH-subject-4.csv","legacy","Melodramatic Milgram","4.0.5","0","s","NA","h","s","NA","NA","296.0","NA","42422","296","NA","NA","2","legacy","1024","2","48000","-16","experiment","HHSHH","4","even","44384","NA","NA","NA","87937","88960","75634","1950","NA","88961","1961","89062","89358","NA","NA","89062","Flanker task","23","15869.0","25","1024"
"92","92","623","623","#3d3846","legacy","legacy","legacy","congruent","1","undefined","1","h","0","0","0","0","25","25","25","0","25","25","0","25","25","0","0","25","Wed Sep  6 11:21:35 2023","1500","The main experiment item","True","Flankertask.osexp","C:/Users/juzal/OneDrive/Documents/Masters of Equine Science/Advanced Quantitative Methods and Experiment Design","False","mono","False","18","no","white","no","yes","768","legacy","25","25","C:/Users/juzal/OneDrive/Documents/Masters of Equine Science/Advanced Quantitative Methods and Experiment Design/CH-subject-4.csv","legacy","Melodramatic Milgram","4.0.5","0","h","NA","h","h","NA","NA","340.0","NA","42422","340","NA","NA","2","legacy","1024","2","48000","-16","experiment","HHHHH","4","even","44384","NA","NA","NA","89410","90437","75634","1950","NA","90438","1961","90539","90880","NA","NA","90539","Flanker task","24","16209.0","26","1024"
"92","92","616","616","#3d3846","legacy","legacy","legacy","incongruent","1","undefined","1","h","0","0","0","0","26","26","26","0","26","26","0","26","26","0","0","26","Wed Sep  6 11:21:35 2023","1500","The main experiment item","True","Flankertask.osexp","C:/Users/juzal/OneDrive/Documents/Masters of Equine Science/Advanced Quantitative Methods and Experiment Design","False","mono","False","18","no","white","no","yes","768","legacy","26","26","C:/Users/juzal/OneDrive/Documents/Masters of Equine Science/Advanced Quantitative Methods and Experiment Design/CH-subject-4.csv","legacy","Melodramatic Milgram","4.0.5","0","h","NA","h","h","NA","NA","423.0","NA","42422","423","NA","NA","2","legacy","1024","2","48000","-16","experiment","SSHSS","4","even","44384","NA","NA","NA","90929","91952","75634","1950","NA","91953","1961","92054","92477","NA","NA","92054","Flanker task","25","16632.0","27","1024"
"92","92","608","608","#3d3846","legacy","legacy","legacy","congruent","1","undefined","1","h","0","0","0","0","27","27","27","0","27","27","0","27","27","0","0","27","Wed Sep  6 11:21:35 2023","1500","The main experiment item","True","Flankertask.osexp","C:/Users/juzal/OneDrive/Documents/Masters of Equine Science/Advanced Quantitative Methods and Experiment Design","False","mono","False","18","no","white","no","yes","768","legacy","27","27","C:/Users/juzal/OneDrive/Documents/Masters of Equine Science/Advanced Quantitative Methods and Experiment Design/CH-subject-4.csv","legacy","Melodramatic Milgram","4.0.5","0","h","NA","h","h","NA","NA","417.0","NA","42422","417","NA","NA","2","legacy","1024","2","48000","-16","experiment","HHHHH","4","even","44384","NA","NA","NA","92527","93550","75634","1950","NA","93551","1961","93652","94070","NA","NA","93652","Flanker task","26","17049.0","28","1024"
"93","93","608","608","#3d3846","legacy","legacy","legacy","incongruent","1","undefined","1","s","0","0","0","0","28","28","28","0","28","28","0","28","28","0","0","28","Wed Sep  6 11:21:35 2023","1500","The main experiment item","True","Flankertask.osexp","C:/Users/juzal/OneDrive/Documents/Masters of Equine Science/Advanced Quantitative Methods and Experiment Design","False","mono","False","18","no","white","no","yes","768","legacy","28","28","C:/Users/juzal/OneDrive/Documents/Masters of Equine Science/Advanced Quantitative Methods and Experiment Design/CH-subject-4.csv","legacy","Melodramatic Milgram","4.0.5","0","s","NA","h","s","NA","NA","592.0","NA","42422","592","NA","NA","2","legacy","1024","2","48000","-16","experiment","HHSHH","4","even","44384","NA","NA","NA","94118","95146","75634","1950","NA","95147","1961","95248","95840","NA","NA","95248","Flanker task","27","17641.0","29","1024"
"93","93","607","607","#3d3846","legacy","legacy","legacy","incongruent","1","undefined","1","s","0","0","0","0","29","29","29","0","29","29","0","29","29","0","0","29","Wed Sep  6 11:21:35 2023","1500","The main experiment item","True","Flankertask.osexp","C:/Users/juzal/OneDrive/Documents/Masters of Equine Science/Advanced Quantitative Methods and Experiment Design","False","mono","False","18","no","white","no","yes","768","legacy","29","29","C:/Users/juzal/OneDrive/Documents/Masters of Equine Science/Advanced Quantitative Methods and Experiment Design/CH-subject-4.csv","legacy","Melodramatic Milgram","4.0.5","0","s","NA","h","s","NA","NA","579.0","NA","42422","579","NA","NA","2","legacy","1024","2","48000","-16","experiment","HHSHH","4","even","44384","NA","NA","NA","95888","96911","75634","1950","NA","96912","1961","97013","97592","NA","NA","97013","Flanker task","28","18220.0","30","1024"
"93","93","606","606","#3d3846","legacy","legacy","legacy","incongruent","1","undefined","1","s","0","0","0","0","30","30","30","0","30","30","0","30","30","0","0","30","Wed Sep  6 11:21:35 2023","1500","The main experiment item","True","Flankertask.osexp","C:/Users/juzal/OneDrive/Documents/Masters of Equine Science/Advanced Quantitative Methods and Experiment Design","False","mono","False","18","no","white","no","yes","768","legacy","30","30","C:/Users/juzal/OneDrive/Documents/Masters of Equine Science/Advanced Quantitative Methods and Experiment Design/CH-subject-4.csv","legacy","Melodramatic Milgram","4.0.5","0","s","NA","h","s","NA","NA","580.0","NA","42422","580","NA","NA","2","legacy","1024","2","48000","-16","experiment","HHSHH","4","even","44384","NA","NA","NA","97645","98669","75634","1950","NA","98670","1961","98771","99352","NA","NA","98771","Flanker task","29","18800.0","31","1024"
"93","93","602","602","#3d3846","legacy","legacy","legacy","congruent","1","undefined","1","h","0","0","0","0","31","31","31","0","31","31","0","31","31","0","0","31","Wed Sep  6 11:21:35 2023","1500","The main experiment item","True","Flankertask.osexp","C:/Users/juzal/OneDrive/Documents/Masters of Equine Science/Advanced Quantitative Methods and Experiment Design","False","mono","False","18","no","white","no","yes","768","legacy","31","31","C:/Users/juzal/OneDrive/Documents/Masters of Equine Science/Advanced Quantitative Methods and Experiment Design/CH-subject-4.csv","legacy","Melodramatic Milgram","4.0.5","0","h","NA","h","h","NA","NA","464.0","NA","42422","464","NA","NA","2","legacy","1024","2","48000","-16","experiment","HHHHH","4","even","44384","NA","NA","NA","99391","100414","75634","1950","NA","100415","1961","100516","100980","NA","NA","100516","Flanker task","30","19264.0","32","1024"
"93","93","595","595","#3d3846","legacy","legacy","legacy","congruent","1","undefined","1","h","0","0","0","0","32","32","32","0","32","32","0","32","32","0","0","32","Wed Sep  6 11:21:35 2023","1500","The main experiment item","True","Flankertask.osexp","C:/Users/juzal/OneDrive/Documents/Masters of Equine Science/Advanced Quantitative Methods and Experiment Design","False","mono","False","18","no","white","no","yes","768","legacy","32","32","C:/Users/juzal/OneDrive/Documents/Masters of Equine Science/Advanced Quantitative Methods and Experiment Design/CH-subject-4.csv","legacy","Melodramatic Milgram","4.0.5","0","h","NA","h","h","NA","NA","391.0","NA","42422","391","NA","NA","2","legacy","1024","2","48000","-16","experiment","HHHHH","4","even","44384","NA","NA","NA","101026","102049","75634","1950","NA","102050","1961","102151","102543","NA","NA","102151","Flanker task","31","19655.0","33","1024"
"94","94","590","590","#3d3846","legacy","legacy","legacy","congruent","1","undefined","1","h","0","0","0","0","33","33","33","0","33","33","0","33","33","0","0","33","Wed Sep  6 11:21:35 2023","1500","The main experiment item","True","Flankertask.osexp","C:/Users/juzal/OneDrive/Documents/Masters of Equine Science/Advanced Quantitative Methods and Experiment Design","False","mono","False","18","no","white","no","yes","768","legacy","33","33","C:/Users/juzal/OneDrive/Documents/Masters of Equine Science/Advanced Quantitative Methods and Experiment Design/CH-subject-4.csv","legacy","Melodramatic Milgram","4.0.5","0","h","NA","h","h","NA","NA","418.0","NA","42422","418","NA","NA","2","legacy","1024","2","48000","-16","experiment","HHHHH","4","even","44384","NA","NA","NA","102589","103612","75634","1950","NA","103613","1961","103714","104133","NA","NA","103714","Flanker task","32","20073.0","34","1024"
"94","94","586","586","#3d3846","legacy","legacy","legacy","congruent","1","undefined","1","s","0","0","0","0","34","34","34","0","34","34","0","34","34","0","0","34","Wed Sep  6 11:21:35 2023","1500","The main experiment item","True","Flankertask.osexp","C:/Users/juzal/OneDrive/Documents/Masters of Equine Science/Advanced Quantitative Methods and Experiment Design","False","mono","False","18","no","white","no","yes","768","legacy","34","34","C:/Users/juzal/OneDrive/Documents/Masters of Equine Science/Advanced Quantitative Methods and Experiment Design/CH-subject-4.csv","legacy","Melodramatic Milgram","4.0.5","0","s","NA","h","s","NA","NA","458.0","NA","42422","458","NA","NA","2","legacy","1024","2","48000","-16","experiment","SSSSS","4","even","44384","NA","NA","NA","104137","105160","75634","1950","NA","105161","1961","105262","105720","NA","NA","105262","Flanker task","33","20531.0","35","1024"
"91","91","580","580","#3d3846","legacy","legacy","legacy","incongruent","0","undefined","0","s","0","0","0","0","35","35","35","0","35","35","0","35","35","0","0","35","Wed Sep  6 11:21:35 2023","1500","The main experiment item","True","Flankertask.osexp","C:/Users/juzal/OneDrive/Documents/Masters of Equine Science/Advanced Quantitative Methods and Experiment Design","False","mono","False","18","no","white","no","yes","768","legacy","35","35","C:/Users/juzal/OneDrive/Documents/Masters of Equine Science/Advanced Quantitative Methods and Experiment Design/CH-subject-4.csv","legacy","Melodramatic Milgram","4.0.5","0","h","NA","h","h","NA","NA","364.0","NA","42422","364","NA","NA","2","legacy","1024","2","48000","-16","experiment","HHSHH","4","even","44384","NA","NA","NA","105725","106748","75634","1950","NA","106749","1961","106850","107214","NA","NA","106850","Flanker task","33","20895.0","36","1024"
"91","91","583","583","#3d3846","legacy","legacy","legacy","congruent","1","undefined","1","s","0","0","0","0","36","36","36","0","36","36","0","36","36","0","0","36","Wed Sep  6 11:21:35 2023","1500","The main experiment item","True","Flankertask.osexp","C:/Users/juzal/OneDrive/Documents/Masters of Equine Science/Advanced Quantitative Methods and Experiment Design","False","mono","False","18","no","white","no","yes","768","legacy","36","36","C:/Users/juzal/OneDrive/Documents/Masters of Equine Science/Advanced Quantitative Methods and Experiment Design/CH-subject-4.csv","legacy","Melodramatic Milgram","4.0.5","0","s","NA","h","s","NA","NA","689.0","NA","42422","689","NA","NA","2","legacy","1024","2","48000","-16","experiment","SSSSS","4","even","44384","NA","NA","NA","107755","108778","107255","1950","NA","108780","1961","108881","109570","NA","NA","108881","Flanker task","34","21584.0","37","1024"
"92","92","579","579","#3d3846","legacy","legacy","legacy","incongruent","1","undefined","1","s","0","0","0","0","37","37","37","0","37","37","0","37","37","0","0","37","Wed Sep  6 11:21:35 2023","1500","The main experiment item","True","Flankertask.osexp","C:/Users/juzal/OneDrive/Documents/Masters of Equine Science/Advanced Quantitative Methods and Experiment Design","False","mono","False","18","no","white","no","yes","768","legacy","37","37","C:/Users/juzal/OneDrive/Documents/Masters of Equine Science/Advanced Quantitative Methods and Experiment Design/CH-subject-4.csv","legacy","Melodramatic Milgram","4.0.5","0","s","NA","h","s","NA","NA","438.0","NA","42422","438","NA","NA","2","legacy","1024","2","48000","-16","experiment","HHSHH","4","even","44384","NA","NA","NA","109575","110604","107255","1950","NA","110605","1961","110706","111145","NA","NA","110706","Flanker task","35","22022.0","38","1024"
"92","92","573","573","#3d3846","legacy","legacy","legacy","incongruent","1","undefined","1","s","0","0","0","0","38","38","38","0","38","38","0","38","38","0","0","38","Wed Sep  6 11:21:35 2023","1500","The main experiment item","True","Flankertask.osexp","C:/Users/juzal/OneDrive/Documents/Masters of Equine Science/Advanced Quantitative Methods and Experiment Design","False","mono","False","18","no","white","no","yes","768","legacy","38","38","C:/Users/juzal/OneDrive/Documents/Masters of Equine Science/Advanced Quantitative Methods and Experiment Design/CH-subject-4.csv","legacy","Melodramatic Milgram","4.0.5","0","s","NA","h","s","NA","NA","353.0","NA","42422","353","NA","NA","2","legacy","1024","2","48000","-16","experiment","HHSHH","4","even","44384","NA","NA","NA","111186","112209","107255","1950","NA","112210","1961","112311","112664","NA","NA","112311","Flanker task","36","22375.0","39","1024"
"90","90","571","571","#3d3846","legacy","legacy","legacy","incongruent","0","undefined","0","h","0","0","0","0","39","39","39","0","39","39","0","39","39","0","0","39","Wed Sep  6 11:21:35 2023","1500","The main experiment item","True","Flankertask.osexp","C:/Users/juzal/OneDrive/Documents/Masters of Equine Science/Advanced Quantitative Methods and Experiment Design","False","mono","False","18","no","white","no","yes","768","legacy","39","39","C:/Users/juzal/OneDrive/Documents/Masters of Equine Science/Advanced Quantitative Methods and Experiment Design/CH-subject-4.csv","legacy","Melodramatic Milgram","4.0.5","0","s","NA","h","s","NA","NA","480.0","NA","42422","480","NA","NA","2","legacy","1024","2","48000","-16","experiment","SSHSS","4","even","44384","NA","NA","NA","112707","113730","107255","1950","NA","113731","1961","113832","114312","NA","NA","113832","Flanker task","36","22855.0","40","1024"
"90","90","568","568","#3d3846","legacy","legacy","legacy","congruent","1","undefined","1","h","0","0","0","0","40","40","40","0","40","40","0","40","40","0","0","40","Wed Sep  6 11:21:35 2023","1500","The main experiment item","True","Flankertask.osexp","C:/Users/juzal/OneDrive/Documents/Masters of Equine Science/Advanced Quantitative Methods and Experiment Design","False","mono","False","18","no","white","no","yes","768","legacy","40","40","C:/Users/juzal/OneDrive/Documents/Masters of Equine Science/Advanced Quantitative Methods and Experiment Design/CH-subject-4.csv","legacy","Melodramatic Milgram","4.0.5","0","h","NA","h","h","NA","NA","471.0","NA","42422","471","NA","NA","2","legacy","1024","2","48000","-16","experiment","HHHHH","4","even","44384","NA","NA","NA","114817","115845","114317","1950","NA","115846","1961","115947","116419","NA","NA","115947","Flanker task","37","23326.0","41","1024"
"90","90","566","566","#3d3846","legacy","legacy","legacy","congruent","1","undefined","1","h","0","0","0","0","41","41","41","0","41","41","0","41","41","0","0","41","Wed Sep  6 11:21:35 2023","1500","The main experiment item","True","Flankertask.osexp","C:/Users/juzal/OneDrive/Documents/Masters of Equine Science/Advanced Quantitative Methods and Experiment Design","False","mono","False","18","no","white","no","yes","768","legacy","41","41","C:/Users/juzal/OneDrive/Documents/Masters of Equine Science/Advanced Quantitative Methods and Experiment Design/CH-subject-4.csv","legacy","Melodramatic Milgram","4.0.5","0","h","NA","h","h","NA","NA","446.0","NA","42422","446","NA","NA","2","legacy","1024","2","48000","-16","experiment","HHHHH","4","even","44384","NA","NA","NA","116423","117447","114317","1950","NA","117448","1961","117549","117996","NA","NA","117549","Flanker task","38","23772.0","42","1024"
"90","90","565","565","#3d3846","legacy","legacy","legacy","incongruent","1","undefined","1","s","0","0","0","0","42","42","42","0","42","42","0","42","42","0","0","42","Wed Sep  6 11:21:35 2023","1500","The main experiment item","True","Flankertask.osexp","C:/Users/juzal/OneDrive/Documents/Masters of Equine Science/Advanced Quantitative Methods and Experiment Design","False","mono","False","18","no","white","no","yes","768","legacy","42","42","C:/Users/juzal/OneDrive/Documents/Masters of Equine Science/Advanced Quantitative Methods and Experiment Design/CH-subject-4.csv","legacy","Melodramatic Milgram","4.0.5","0","s","NA","h","s","NA","NA","535.0","NA","42422","535","NA","NA","2","legacy","1024","2","48000","-16","experiment","HHSHH","4","even","44384","NA","NA","NA","118039","119062","114317","1950","NA","119064","1961","119165","119700","NA","NA","119165","Flanker task","39","24307.0","43","1024"
"90","90","562","562","#3d3846","legacy","legacy","legacy","congruent","1","undefined","1","h","0","0","0","0","43","43","43","0","43","43","0","43","43","0","0","43","Wed Sep  6 11:21:35 2023","1500","The main experiment item","True","Flankertask.osexp","C:/Users/juzal/OneDrive/Documents/Masters of Equine Science/Advanced Quantitative Methods and Experiment Design","False","mono","False","18","no","white","no","yes","768","legacy","43","43","C:/Users/juzal/OneDrive/Documents/Masters of Equine Science/Advanced Quantitative Methods and Experiment Design/CH-subject-4.csv","legacy","Melodramatic Milgram","4.0.5","0","h","NA","h","h","NA","NA","438.0","NA","42422","438","NA","NA","2","legacy","1024","2","48000","-16","experiment","HHHHH","4","even","44384","NA","NA","NA","119747","120771","114317","1950","NA","120772","1961","120873","121312","NA","NA","120873","Flanker task","40","24745.0","44","1024"
"91","91","558","558","#3d3846","legacy","legacy","legacy","incongruent","1","undefined","1","h","0","0","0","0","44","44","44","0","44","44","0","44","44","0","0","44","Wed Sep  6 11:21:35 2023","1500","The main experiment item","True","Flankertask.osexp","C:/Users/juzal/OneDrive/Documents/Masters of Equine Science/Advanced Quantitative Methods and Experiment Design","False","mono","False","18","no","white","no","yes","768","legacy","44","44","C:/Users/juzal/OneDrive/Documents/Masters of Equine Science/Advanced Quantitative Methods and Experiment Design/CH-subject-4.csv","legacy","Melodramatic Milgram","4.0.5","0","h","NA","h","h","NA","NA","403.0","NA","42422","403","NA","NA","2","legacy","1024","2","48000","-16","experiment","SSHSS","4","even","44384","NA","NA","NA","121345","122368","114317","1950","NA","122369","1961","122470","122874","NA","NA","122470","Flanker task","41","25148.0","45","1024"
"91","91","558","558","#3d3846","legacy","legacy","legacy","congruent","1","undefined","1","s","0","0","0","0","45","45","45","0","45","45","0","45","45","0","0","45","Wed Sep  6 11:21:35 2023","1500","The main experiment item","True","Flankertask.osexp","C:/Users/juzal/OneDrive/Documents/Masters of Equine Science/Advanced Quantitative Methods and Experiment Design","False","mono","False","18","no","white","no","yes","768","legacy","45","45","C:/Users/juzal/OneDrive/Documents/Masters of Equine Science/Advanced Quantitative Methods and Experiment Design/CH-subject-4.csv","legacy","Melodramatic Milgram","4.0.5","0","s","NA","h","s","NA","NA","544.0","NA","42422","544","NA","NA","2","legacy","1024","2","48000","-16","experiment","SSSSS","4","even","44384","NA","NA","NA","122913","123936","114317","1950","NA","123937","1961","124038","124582","NA","NA","124038","Flanker task","42","25692.0","46","1024"
"91","91","560","560","#3d3846","legacy","legacy","legacy","incongruent","1","undefined","1","s","0","0","0","0","46","46","46","0","46","46","0","46","46","0","0","46","Wed Sep  6 11:21:35 2023","1500","The main experiment item","True","Flankertask.osexp","C:/Users/juzal/OneDrive/Documents/Masters of Equine Science/Advanced Quantitative Methods and Experiment Design","False","mono","False","18","no","white","no","yes","768","legacy","46","46","C:/Users/juzal/OneDrive/Documents/Masters of Equine Science/Advanced Quantitative Methods and Experiment Design/CH-subject-4.csv","legacy","Melodramatic Milgram","4.0.5","0","s","NA","h","s","NA","NA","628.0","NA","42422","628","NA","NA","2","legacy","1024","2","48000","-16","experiment","HHSHH","4","even","44384","NA","NA","NA","124587","125616","114317","1950","NA","125617","1961","125718","126347","NA","NA","125718","Flanker task","43","26320.0","47","1024"
"91","91","560","560","#3d3846","legacy","legacy","legacy","incongruent","1","undefined","1","h","0","0","0","0","47","47","47","0","47","47","0","47","47","0","0","47","Wed Sep  6 11:21:35 2023","1500","The main experiment item","True","Flankertask.osexp","C:/Users/juzal/OneDrive/Documents/Masters of Equine Science/Advanced Quantitative Methods and Experiment Design","False","mono","False","18","no","white","no","yes","768","legacy","47","47","C:/Users/juzal/OneDrive/Documents/Masters of Equine Science/Advanced Quantitative Methods and Experiment Design/CH-subject-4.csv","legacy","Melodramatic Milgram","4.0.5","0","h","NA","h","h","NA","NA","567.0","NA","42422","567","NA","NA","2","legacy","1024","2","48000","-16","experiment","SSHSS","4","even","44384","NA","NA","NA","126386","127410","114317","1950","NA","127411","1961","127512","128079","NA","NA","127512","Flanker task","44","26887.0","48","1024"
"91","91","562","562","#3d3846","legacy","legacy","legacy","incongruent","1","undefined","1","s","0","0","0","0","48","48","48","0","48","48","0","48","48","0","0","48","Wed Sep  6 11:21:35 2023","1500","The main experiment item","True","Flankertask.osexp","C:/Users/juzal/OneDrive/Documents/Masters of Equine Science/Advanced Quantitative Methods and Experiment Design","False","mono","False","18","no","white","no","yes","768","legacy","48","48","C:/Users/juzal/OneDrive/Documents/Masters of Equine Science/Advanced Quantitative Methods and Experiment Design/CH-subject-4.csv","legacy","Melodramatic Milgram","4.0.5","0","s","NA","h","s","NA","NA","689.0","NA","42422","689","NA","NA","2","legacy","1024","2","48000","-16","experiment","HHSHH","4","even","44384","NA","NA","NA","128118","129142","114317","1950","NA","129143","1961","129244","129934","NA","NA","129244","Flanker task","45","27576.0","49","1024"
"92","92","563","563","#3d3846","legacy","legacy","legacy","incongruent","1","undefined","1","h","0","0","0","0","49","49","49","0","49","49","0","49","49","0","0","49","Wed Sep  6 11:21:35 2023","1500","The main experiment item","True","Flankertask.osexp","C:/Users/juzal/OneDrive/Documents/Masters of Equine Science/Advanced Quantitative Methods and Experiment Design","False","mono","False","18","no","white","no","yes","768","legacy","49","49","C:/Users/juzal/OneDrive/Documents/Masters of Equine Science/Advanced Quantitative Methods and Experiment Design/CH-subject-4.csv","legacy","Melodramatic Milgram","4.0.5","0","h","NA","h","h","NA","NA","600.0","NA","42422","600","NA","NA","2","legacy","1024","2","48000","-16","experiment","SSHSS","4","even","44384","NA","NA","NA","129988","131011","114317","1950","NA","131012","1961","131113","131714","NA","NA","131113","Flanker task","46","28176.0","50","1024"
"92","92","563","563","#3d3846","legacy","legacy","legacy","congruent","1","undefined","1","h","0","0","0","0","50","50","50","0","50","50","0","50","50","0","0","50","Wed Sep  6 11:21:35 2023","1500","The main experiment item","True","Flankertask.osexp","C:/Users/juzal/OneDrive/Documents/Masters of Equine Science/Advanced Quantitative Methods and Experiment Design","False","mono","False","18","no","white","no","yes","768","legacy","50","50","C:/Users/juzal/OneDrive/Documents/Masters of Equine Science/Advanced Quantitative Methods and Experiment Design/CH-subject-4.csv","legacy","Melodramatic Milgram","4.0.5","0","h","NA","h","h","NA","NA","581.0","NA","42422","581","NA","NA","2","legacy","1024","2","48000","-16","experiment","HHHHH","4","even","44384","NA","NA","NA","131745","132768","114317","1950","NA","132769","1961","132870","133452","NA","NA","132870","Flanker task","47","28757.0","51","1024"
"92","92","563","563","#3d3846","legacy","legacy","legacy","incongruent","1","undefined","1","h","0","0","0","0","51","51","51","0","51","51","0","51","51","0","0","51","Wed Sep  6 11:21:35 2023","1500","The main experiment item","True","Flankertask.osexp","C:/Users/juzal/OneDrive/Documents/Masters of Equine Science/Advanced Quantitative Methods and Experiment Design","False","mono","False","18","no","white","no","yes","768","legacy","51","51","C:/Users/juzal/OneDrive/Documents/Masters of Equine Science/Advanced Quantitative Methods and Experiment Design/CH-subject-4.csv","legacy","Melodramatic Milgram","4.0.5","0","h","NA","h","h","NA","NA","540.0","NA","42422","540","NA","NA","2","legacy","1024","2","48000","-16","experiment","SSHSS","4","even","44384","NA","NA","NA","133488","134511","114317","1950","NA","134512","1961","134613","135154","NA","NA","134613","Flanker task","48","29297.0","52","1024"
"92","92","564","564","#3d3846","legacy","legacy","legacy","incongruent","1","undefined","1","s","0","0","0","0","52","52","52","0","52","52","0","52","52","0","0","52","Wed Sep  6 11:21:35 2023","1500","The main experiment item","True","Flankertask.osexp","C:/Users/juzal/OneDrive/Documents/Masters of Equine Science/Advanced Quantitative Methods and Experiment Design","False","mono","False","18","no","white","no","yes","768","legacy","52","52","C:/Users/juzal/OneDrive/Documents/Masters of Equine Science/Advanced Quantitative Methods and Experiment Design/CH-subject-4.csv","legacy","Melodramatic Milgram","4.0.5","0","s","NA","h","s","NA","NA","647.0","NA","42422","647","NA","NA","2","legacy","1024","2","48000","-16","experiment","HHSHH","4","even","44384","NA","NA","NA","135201","136225","114317","1950","NA","136226","1961","136327","136974","NA","NA","136326","Flanker task","49","29944.0","53","1024"
"92","92","565","565","#3d3846","legacy","legacy","legacy","congruent","1","undefined","1","s","0","0","0","0","53","53","53","0","53","53","0","53","53","0","0","53","Wed Sep  6 11:21:35 2023","1500","The main experiment item","True","Flankertask.osexp","C:/Users/juzal/OneDrive/Documents/Masters of Equine Science/Advanced Quantitative Methods and Experiment Design","False","mono","False","18","no","white","no","yes","768","legacy","53","53","C:/Users/juzal/OneDrive/Documents/Masters of Equine Science/Advanced Quantitative Methods and Experiment Design/CH-subject-4.csv","legacy","Melodramatic Milgram","4.0.5","0","s","NA","h","s","NA","NA","576.0","NA","42422","576","NA","NA","2","legacy","1024","2","48000","-16","experiment","SSSSS","4","even","44384","NA","NA","NA","137006","138030","114317","1950","NA","138030","1961","138131","138708","NA","NA","138131","Flanker task","50","30520.0","54","1024"
"92","92","563","563","#3d3846","legacy","legacy","legacy","congruent","1","undefined","1","s","0","0","0","0","54","54","54","0","54","54","0","54","54","0","0","54","Wed Sep  6 11:21:35 2023","1500","The main experiment item","True","Flankertask.osexp","C:/Users/juzal/OneDrive/Documents/Masters of Equine Science/Advanced Quantitative Methods and Experiment Design","False","mono","False","18","no","white","no","yes","768","legacy","54","54","C:/Users/juzal/OneDrive/Documents/Masters of Equine Science/Advanced Quantitative Methods and Experiment Design/CH-subject-4.csv","legacy","Melodramatic Milgram","4.0.5","0","s","NA","h","s","NA","NA","476.0","NA","42422","476","NA","NA","2","legacy","1024","2","48000","-16","experiment","SSSSS","4","even","44384","NA","NA","NA","138738","139761","114317","1950","NA","139762","1961","139862","140339","NA","NA","139862","Flanker task","51","30996.0","55","1024"
"92","92","560","560","#3d3846","legacy","legacy","legacy","congruent","1","undefined","1","s","0","0","0","0","55","55","55","0","55","55","0","55","55","0","0","55","Wed Sep  6 11:21:35 2023","1500","The main experiment item","True","Flankertask.osexp","C:/Users/juzal/OneDrive/Documents/Masters of Equine Science/Advanced Quantitative Methods and Experiment Design","False","mono","False","18","no","white","no","yes","768","legacy","55","55","C:/Users/juzal/OneDrive/Documents/Masters of Equine Science/Advanced Quantitative Methods and Experiment Design/CH-subject-4.csv","legacy","Melodramatic Milgram","4.0.5","0","s","NA","h","s","NA","NA","408.0","NA","42422","408","NA","NA","2","legacy","1024","2","48000","-16","experiment","SSSSS","4","even","44384","NA","NA","NA","140368","141402","114317","1950","NA","141403","1961","141504","141912","NA","NA","141503","Flanker task","52","31404.0","56","1024"
"92","92","561","561","#3d3846","legacy","legacy","legacy","incongruent","1","undefined","1","h","0","0","0","0","56","56","56","0","56","56","0","56","56","0","0","56","Wed Sep  6 11:21:35 2023","1500","The main experiment item","True","Flankertask.osexp","C:/Users/juzal/OneDrive/Documents/Masters of Equine Science/Advanced Quantitative Methods and Experiment Design","False","mono","False","18","no","white","no","yes","768","legacy","56","56","C:/Users/juzal/OneDrive/Documents/Masters of Equine Science/Advanced Quantitative Methods and Experiment Design/CH-subject-4.csv","legacy","Melodramatic Milgram","4.0.5","0","h","NA","h","h","NA","NA","599.0","NA","42422","599","NA","NA","2","legacy","1024","2","48000","-16","experiment","SSHSS","4","even","44384","NA","NA","NA","141960","142984","114317","1950","NA","142985","1961","143086","143686","NA","NA","143086","Flanker task","53","32003.0","57","1024"
"93","93","563","563","#3d3846","legacy","legacy","legacy","incongruent","1","undefined","1","s","0","0","0","0","57","57","57","0","57","57","0","57","57","0","0","57","Wed Sep  6 11:21:35 2023","1500","The main experiment item","True","Flankertask.osexp","C:/Users/juzal/OneDrive/Documents/Masters of Equine Science/Advanced Quantitative Methods and Experiment Design","False","mono","False","18","no","white","no","yes","768","legacy","57","57","C:/Users/juzal/OneDrive/Documents/Masters of Equine Science/Advanced Quantitative Methods and Experiment Design/CH-subject-4.csv","legacy","Melodramatic Milgram","4.0.5","0","s","NA","h","s","NA","NA","671.0","NA","42422","671","NA","NA","2","legacy","1024","2","48000","-16","experiment","HHSHH","4","even","44384","NA","NA","NA","143691","144715","114317","1950","NA","144716","1961","144817","145489","NA","NA","144817","Flanker task","54","32674.0","58","1024"
"93","93","561","561","#3d3846","legacy","legacy","legacy","congruent","1","undefined","1","s","0","0","0","0","58","58","58","0","58","58","0","58","58","0","0","58","Wed Sep  6 11:21:35 2023","1500","The main experiment item","True","Flankertask.osexp","C:/Users/juzal/OneDrive/Documents/Masters of Equine Science/Advanced Quantitative Methods and Experiment Design","False","mono","False","18","no","white","no","yes","768","legacy","58","58","C:/Users/juzal/OneDrive/Documents/Masters of Equine Science/Advanced Quantitative Methods and Experiment Design/CH-subject-4.csv","legacy","Melodramatic Milgram","4.0.5","0","s","NA","h","s","NA","NA","472.0","NA","42422","472","NA","NA","2","legacy","1024","2","48000","-16","experiment","SSSSS","4","even","44384","NA","NA","NA","145493","146519","114317","1950","NA","146520","1961","146620","147093","NA","NA","146620","Flanker task","55","33146.0","59","1024"
"91","91","558","558","#3d3846","legacy","legacy","legacy","incongruent","0","undefined","0","h","0","0","0","0","59","59","59","0","59","59","0","59","59","0","0","59","Wed Sep  6 11:21:35 2023","1500","The main experiment item","True","Flankertask.osexp","C:/Users/juzal/OneDrive/Documents/Masters of Equine Science/Advanced Quantitative Methods and Experiment Design","False","mono","False","18","no","white","no","yes","768","legacy","59","59","C:/Users/juzal/OneDrive/Documents/Masters of Equine Science/Advanced Quantitative Methods and Experiment Design/CH-subject-4.csv","legacy","Melodramatic Milgram","4.0.5","0","s","NA","h","s","NA","NA","386.0","NA","42422","386","NA","NA","2","legacy","1024","2","48000","-16","experiment","SSHSS","4","even","44384","NA","NA","NA","147130","148156","114317","1950","NA","148157","1961","148258","148644","NA","NA","148257","Flanker task","55","33532.0","60","1024"
"91","91","558","558","#3d3846","legacy","legacy","legacy","congruent","1","undefined","1","s","0","0","0","0","60","60","60","0","60","60","0","60","60","0","0","60","Wed Sep  6 11:21:35 2023","1500","The main experiment item","True","Flankertask.osexp","C:/Users/juzal/OneDrive/Documents/Masters of Equine Science/Advanced Quantitative Methods and Experiment Design","False","mono","False","18","no","white","no","yes","768","legacy","60","60","C:/Users/juzal/OneDrive/Documents/Masters of Equine Science/Advanced Quantitative Methods and Experiment Design/CH-subject-4.csv","legacy","Melodramatic Milgram","4.0.5","0","s","NA","h","s","NA","NA","544.0","NA","42422","544","NA","NA","2","legacy","1024","2","48000","-16","experiment","SSSSS","4","even","44384","NA","NA","NA","149148","150174","148648","1950","NA","150175","1961","150276","150821","NA","NA","150276","Flanker task","56","34076.0","61","1024"
"91","91","559","559","#3d3846","legacy","legacy","legacy","incongruent","1","undefined","1","h","0","0","0","0","61","61","61","0","61","61","0","61","61","0","0","61","Wed Sep  6 11:21:35 2023","1500","The main experiment item","True","Flankertask.osexp","C:/Users/juzal/OneDrive/Documents/Masters of Equine Science/Advanced Quantitative Methods and Experiment Design","False","mono","False","18","no","white","no","yes","768","legacy","61","61","C:/Users/juzal/OneDrive/Documents/Masters of Equine Science/Advanced Quantitative Methods and Experiment Design/CH-subject-4.csv","legacy","Melodramatic Milgram","4.0.5","0","h","NA","h","h","NA","NA","602.0","NA","42422","602","NA","NA","2","legacy","1024","2","48000","-16","experiment","SSHSS","4","even","44384","NA","NA","NA","150826","151854","148648","1950","NA","151855","1961","151957","152560","NA","NA","151956","Flanker task","57","34678.0","62","1024"
"92","92","557","557","#3d3846","legacy","legacy","legacy","incongruent","1","undefined","1","s","0","0","0","0","62","62","62","0","62","62","0","62","62","0","0","62","Wed Sep  6 11:21:35 2023","1500","The main experiment item","True","Flankertask.osexp","C:/Users/juzal/OneDrive/Documents/Masters of Equine Science/Advanced Quantitative Methods and Experiment Design","False","mono","False","18","no","white","no","yes","768","legacy","62","62","C:/Users/juzal/OneDrive/Documents/Masters of Equine Science/Advanced Quantitative Methods and Experiment Design/CH-subject-4.csv","legacy","Melodramatic Milgram","4.0.5","0","s","NA","h","s","NA","NA","421.0","NA","42422","421","NA","NA","2","legacy","1024","2","48000","-16","experiment","HHSHH","4","even","44384","NA","NA","NA","152564","153588","148648","1950","NA","153589","1961","153689","154110","NA","NA","153689","Flanker task","58","35099.0","63","1024"
"92","92","556","556","#3d3846","legacy","legacy","legacy","congruent","1","undefined","1","h","0","0","0","0","63","63","63","0","63","63","0","63","63","0","0","63","Wed Sep  6 11:21:35 2023","1500","The main experiment item","True","Flankertask.osexp","C:/Users/juzal/OneDrive/Documents/Masters of Equine Science/Advanced Quantitative Methods and Experiment Design","False","mono","False","18","no","white","no","yes","768","legacy","63","63","C:/Users/juzal/OneDrive/Documents/Masters of Equine Science/Advanced Quantitative Methods and Experiment Design/CH-subject-4.csv","legacy","Melodramatic Milgram","4.0.5","0","h","NA","h","h","NA","NA","517.0","NA","42422","517","NA","NA","2","legacy","1024","2","48000","-16","experiment","HHHHH","4","even","44384","NA","NA","NA","154115","155139","148648","1950","NA","155142","1961","155242","155759","NA","NA","155242","Flanker task","59","35616.0","64","1024"
"92","92","556","556","#3d3846","legacy","legacy","legacy","incongruent","1","undefined","1","s","0","0","0","0","64","64","64","0","64","64","0","64","64","0","0","64","Wed Sep  6 11:21:35 2023","1500","The main experiment item","True","Flankertask.osexp","C:/Users/juzal/OneDrive/Documents/Masters of Equine Science/Advanced Quantitative Methods and Experiment Design","False","mono","False","18","no","white","no","yes","768","legacy","64","64","C:/Users/juzal/OneDrive/Documents/Masters of Equine Science/Advanced Quantitative Methods and Experiment Design/CH-subject-4.csv","legacy","Melodramatic Milgram","4.0.5","0","s","NA","h","s","NA","NA","573.0","NA","42422","573","NA","NA","2","legacy","1024","2","48000","-16","experiment","HHSHH","4","even","44384","NA","NA","NA","155763","156793","148648","1950","NA","156794","1961","156894","157467","NA","NA","156894","Flanker task","60","36189.0","65","1024"
"92","92","554","554","#3d3846","legacy","legacy","legacy","congruent","1","undefined","1","h","0","0","0","0","65","65","65","0","65","65","0","65","65","0","0","65","Wed Sep  6 11:21:35 2023","1500","The main experiment item","True","Flankertask.osexp","C:/Users/juzal/OneDrive/Documents/Masters of Equine Science/Advanced Quantitative Methods and Experiment Design","False","mono","False","18","no","white","no","yes","768","legacy","65","65","C:/Users/juzal/OneDrive/Documents/Masters of Equine Science/Advanced Quantitative Methods and Experiment Design/CH-subject-4.csv","legacy","Melodramatic Milgram","4.0.5","0","h","NA","h","h","NA","NA","391.0","NA","42422","391","NA","NA","2","legacy","1024","2","48000","-16","experiment","HHHHH","4","even","44384","NA","NA","NA","157471","158495","148648","1950","NA","158496","1961","158597","158988","NA","NA","158596","Flanker task","61","36580.0","66","1024"
"92","92","551","551","#3d3846","legacy","legacy","legacy","congruent","1","undefined","1","s","0","0","0","0","66","66","66","0","66","66","0","66","66","0","0","66","Wed Sep  6 11:21:35 2023","1500","The main experiment item","True","Flankertask.osexp","C:/Users/juzal/OneDrive/Documents/Masters of Equine Science/Advanced Quantitative Methods and Experiment Design","False","mono","False","18","no","white","no","yes","768","legacy","66","66","C:/Users/juzal/OneDrive/Documents/Masters of Equine Science/Advanced Quantitative Methods and Experiment Design/CH-subject-4.csv","legacy","Melodramatic Milgram","4.0.5","0","s","NA","h","s","NA","NA","393.0","NA","42422","393","NA","NA","2","legacy","1024","2","48000","-16","experiment","SSSSS","4","even","44384","NA","NA","NA","158993","160019","148648","1950","NA","160020","1961","160121","160515","NA","NA","160120","Flanker task","62","36973.0","67","1024"
"92","92","550","550","#3d3846","legacy","legacy","legacy","congruent","1","undefined","1","s","0","0","0","0","67","67","67","0","67","67","0","67","67","0","0","67","Wed Sep  6 11:21:35 2023","1500","The main experiment item","True","Flankertask.osexp","C:/Users/juzal/OneDrive/Documents/Masters of Equine Science/Advanced Quantitative Methods and Experiment Design","False","mono","False","18","no","white","no","yes","768","legacy","67","67","C:/Users/juzal/OneDrive/Documents/Masters of Equine Science/Advanced Quantitative Methods and Experiment Design/CH-subject-4.csv","legacy","Melodramatic Milgram","4.0.5","0","s","NA","h","s","NA","NA","460.0","NA","42422","460","NA","NA","2","legacy","1024","2","48000","-16","experiment","SSSSS","4","even","44384","NA","NA","NA","160519","161546","148648","1950","NA","161548","1961","161648","162108","NA","NA","161648","Flanker task","63","37433.0","68","1024"
"92","92","549","549","#3d3846","legacy","legacy","legacy","congruent","1","undefined","1","s","0","0","0","0","68","68","68","0","68","68","0","68","68","0","0","68","Wed Sep  6 11:21:35 2023","1500","The main experiment item","True","Flankertask.osexp","C:/Users/juzal/OneDrive/Documents/Masters of Equine Science/Advanced Quantitative Methods and Experiment Design","False","mono","False","18","no","white","no","yes","768","legacy","68","68","C:/Users/juzal/OneDrive/Documents/Masters of Equine Science/Advanced Quantitative Methods and Experiment Design/CH-subject-4.csv","legacy","Melodramatic Milgram","4.0.5","0","s","NA","h","s","NA","NA","451.0","NA","42422","451","NA","NA","2","legacy","1024","2","48000","-16","experiment","SSSSS","4","even","44384","NA","NA","NA","162112","163136","148648","1950","NA","163138","1961","163238","163690","NA","NA","163238","Flanker task","64","37884.0","69","1024"
"92","92","549","549","#3d3846","legacy","legacy","legacy","incongruent","1","undefined","1","h","0","0","0","0","69","69","69","0","69","69","0","69","69","0","0","69","Wed Sep  6 11:21:35 2023","1500","The main experiment item","True","Flankertask.osexp","C:/Users/juzal/OneDrive/Documents/Masters of Equine Science/Advanced Quantitative Methods and Experiment Design","False","mono","False","18","no","white","no","yes","768","legacy","69","69","C:/Users/juzal/OneDrive/Documents/Masters of Equine Science/Advanced Quantitative Methods and Experiment Design/CH-subject-4.csv","legacy","Melodramatic Milgram","4.0.5","0","h","NA","h","h","NA","NA","570.0","NA","42422","570","NA","NA","2","legacy","1024","2","48000","-16","experiment","SSHSS","4","even","44384","NA","NA","NA","163694","164730","148648","1950","NA","164732","1961","164832","165403","NA","NA","164832","Flanker task","65","38454.0","70","1024"
"92","92","548","548","#3d3846","legacy","legacy","legacy","congruent","1","undefined","1","h","0","0","0","0","70","70","70","0","70","70","0","70","70","0","0","70","Wed Sep  6 11:21:35 2023","1500","The main experiment item","True","Flankertask.osexp","C:/Users/juzal/OneDrive/Documents/Masters of Equine Science/Advanced Quantitative Methods and Experiment Design","False","mono","False","18","no","white","no","yes","768","legacy","70","70","C:/Users/juzal/OneDrive/Documents/Masters of Equine Science/Advanced Quantitative Methods and Experiment Design/CH-subject-4.csv","legacy","Melodramatic Milgram","4.0.5","0","h","NA","h","h","NA","NA","492.0","NA","42422","492","NA","NA","2","legacy","1024","2","48000","-16","experiment","HHHHH","4","even","44384","NA","NA","NA","165406","166432","148648","1950","NA","166433","1961","166534","167027","NA","NA","166533","Flanker task","66","38946.0","71","1024"
"93","93","547","547","#3d3846","legacy","legacy","legacy","congruent","1","undefined","1","s","0","0","0","0","71","71","71","0","71","71","0","71","71","0","0","71","Wed Sep  6 11:21:35 2023","1500","The main experiment item","True","Flankertask.osexp","C:/Users/juzal/OneDrive/Documents/Masters of Equine Science/Advanced Quantitative Methods and Experiment Design","False","mono","False","18","no","white","no","yes","768","legacy","71","71","C:/Users/juzal/OneDrive/Documents/Masters of Equine Science/Advanced Quantitative Methods and Experiment Design/CH-subject-4.csv","legacy","Melodramatic Milgram","4.0.5","0","s","NA","h","s","NA","NA","503.0","NA","42422","503","NA","NA","2","legacy","1024","2","48000","-16","experiment","SSSSS","4","even","44384","NA","NA","NA","167032","168061","148648","1950","NA","168063","1961","168164","168668","NA","NA","168164","Flanker task","67","39449.0","72","1024"
"93","93","547","547","#3d3846","legacy","legacy","legacy","congruent","1","undefined","1","s","0","0","0","0","72","72","72","0","72","72","0","72","72","0","0","72","Wed Sep  6 11:21:35 2023","1500","The main experiment item","True","Flankertask.osexp","C:/Users/juzal/OneDrive/Documents/Masters of Equine Science/Advanced Quantitative Methods and Experiment Design","False","mono","False","18","no","white","no","yes","768","legacy","72","72","C:/Users/juzal/OneDrive/Documents/Masters of Equine Science/Advanced Quantitative Methods and Experiment Design/CH-subject-4.csv","legacy","Melodramatic Milgram","4.0.5","0","s","NA","h","s","NA","NA","511.0","NA","42422","511","NA","NA","2","legacy","1024","2","48000","-16","experiment","SSSSS","4","even","44384","NA","NA","NA","168674","169711","148648","1950","NA","169713","1961","169814","170326","NA","NA","169814","Flanker task","68","39960.0","73","1024"
"93","93","548","548","#3d3846","legacy","legacy","legacy","incongruent","1","undefined","1","s","0","0","0","0","73","73","73","0","73","73","0","73","73","0","0","73","Wed Sep  6 11:21:35 2023","1500","The main experiment item","True","Flankertask.osexp","C:/Users/juzal/OneDrive/Documents/Masters of Equine Science/Advanced Quantitative Methods and Experiment Design","False","mono","False","18","no","white","no","yes","768","legacy","73","73","C:/Users/juzal/OneDrive/Documents/Masters of Equine Science/Advanced Quantitative Methods and Experiment Design/CH-subject-4.csv","legacy","Melodramatic Milgram","4.0.5","0","s","NA","h","s","NA","NA","613.0","NA","42422","613","NA","NA","2","legacy","1024","2","48000","-16","experiment","HHSHH","4","even","44384","NA","NA","NA","170358","171394","148648","1950","NA","171395","1961","171496","172110","NA","NA","171496","Flanker task","69","40573.0","74","1024"
"93","93","549","549","#3d3846","legacy","legacy","legacy","incongruent","1","undefined","1","s","0","0","0","0","74","74","74","0","74","74","0","74","74","0","0","74","Wed Sep  6 11:21:35 2023","1500","The main experiment item","True","Flankertask.osexp","C:/Users/juzal/OneDrive/Documents/Masters of Equine Science/Advanced Quantitative Methods and Experiment Design","False","mono","False","18","no","white","no","yes","768","legacy","74","74","C:/Users/juzal/OneDrive/Documents/Masters of Equine Science/Advanced Quantitative Methods and Experiment Design/CH-subject-4.csv","legacy","Melodramatic Milgram","4.0.5","0","s","NA","h","s","NA","NA","672.0","NA","42422","672","NA","NA","2","legacy","1024","2","48000","-16","experiment","HHSHH","4","even","44384","NA","NA","NA","172135","173159","148648","1950","NA","173160","1961","173261","173934","NA","NA","173261","Flanker task","70","41245.0","75","1024"
"93","93","549","549","#3d3846","legacy","legacy","legacy","congruent","1","undefined","1","h","0","0","0","0","75","75","75","0","75","75","0","75","75","0","0","75","Wed Sep  6 11:21:35 2023","1500","The main experiment item","True","Flankertask.osexp","C:/Users/juzal/OneDrive/Documents/Masters of Equine Science/Advanced Quantitative Methods and Experiment Design","False","mono","False","18","no","white","no","yes","768","legacy","75","75","C:/Users/juzal/OneDrive/Documents/Masters of Equine Science/Advanced Quantitative Methods and Experiment Design/CH-subject-4.csv","legacy","Melodramatic Milgram","4.0.5","0","h","NA","h","h","NA","NA","509.0","NA","42422","509","NA","NA","2","legacy","1024","2","48000","-16","experiment","HHHHH","4","even","44384","NA","NA","NA","173972","174996","148648","1950","NA","174997","1961","175098","175608","NA","NA","175098","Flanker task","71","41754.0","76","1024"
"93","93","548","548","#3d3846","legacy","legacy","legacy","congruent","1","undefined","1","h","0","0","0","0","76","76","76","0","76","76","0","76","76","0","0","76","Wed Sep  6 11:21:35 2023","1500","The main experiment item","True","Flankertask.osexp","C:/Users/juzal/OneDrive/Documents/Masters of Equine Science/Advanced Quantitative Methods and Experiment Design","False","mono","False","18","no","white","no","yes","768","legacy","76","76","C:/Users/juzal/OneDrive/Documents/Masters of Equine Science/Advanced Quantitative Methods and Experiment Design/CH-subject-4.csv","legacy","Melodramatic Milgram","4.0.5","0","h","NA","h","h","NA","NA","478.0","NA","42422","478","NA","NA","2","legacy","1024","2","48000","-16","experiment","HHHHH","4","even","44384","NA","NA","NA","175644","176669","148648","1950","NA","176670","1961","176771","177250","NA","NA","176771","Flanker task","72","42232.0","77","1024"
"93","93","547","547","#3d3846","legacy","legacy","legacy","congruent","1","undefined","1","h","0","0","0","0","77","77","77","0","77","77","0","77","77","0","0","77","Wed Sep  6 11:21:35 2023","1500","The main experiment item","True","Flankertask.osexp","C:/Users/juzal/OneDrive/Documents/Masters of Equine Science/Advanced Quantitative Methods and Experiment Design","False","mono","False","18","no","white","no","yes","768","legacy","77","77","C:/Users/juzal/OneDrive/Documents/Masters of Equine Science/Advanced Quantitative Methods and Experiment Design/CH-subject-4.csv","legacy","Melodramatic Milgram","4.0.5","0","h","NA","h","h","NA","NA","480.0","NA","42422","480","NA","NA","2","legacy","1024","2","48000","-16","experiment","HHHHH","4","even","44384","NA","NA","NA","177277","178300","148648","1950","NA","178301","1961","178402","178883","NA","NA","178402","Flanker task","73","42712.0","78","1024"
"93","93","548","548","#3d3846","legacy","legacy","legacy","incongruent","1","undefined","1","h","0","0","0","0","78","78","78","0","78","78","0","78","78","0","0","78","Wed Sep  6 11:21:35 2023","1500","The main experiment item","True","Flankertask.osexp","C:/Users/juzal/OneDrive/Documents/Masters of Equine Science/Advanced Quantitative Methods and Experiment Design","False","mono","False","18","no","white","no","yes","768","legacy","78","78","C:/Users/juzal/OneDrive/Documents/Masters of Equine Science/Advanced Quantitative Methods and Experiment Design/CH-subject-4.csv","legacy","Melodramatic Milgram","4.0.5","0","h","NA","h","h","NA","NA","623.0","NA","42422","623","NA","NA","2","legacy","1024","2","48000","-16","experiment","SSHSS","4","even","44384","NA","NA","NA","178922","179946","148648","1950","NA","179947","1961","180048","180671","NA","NA","180048","Flanker task","74","43335.0","79","1024"
"93","93","548","548","#3d3846","legacy","legacy","legacy","congruent","1","undefined","1","s","0","0","0","0","79","79","79","0","79","79","0","79","79","0","0","79","Wed Sep  6 11:21:35 2023","1500","The main experiment item","True","Flankertask.osexp","C:/Users/juzal/OneDrive/Documents/Masters of Equine Science/Advanced Quantitative Methods and Experiment Design","False","mono","False","18","no","white","no","yes","768","legacy","79","79","C:/Users/juzal/OneDrive/Documents/Masters of Equine Science/Advanced Quantitative Methods and Experiment Design/CH-subject-4.csv","legacy","Melodramatic Milgram","4.0.5","0","s","NA","h","s","NA","NA","547.0","NA","42422","547","NA","NA","2","legacy","1024","2","48000","-16","experiment","SSSSS","4","even","44384","NA","NA","NA","180702","181726","148648","1950","NA","181727","1961","181828","182376","NA","NA","181828","Flanker task","75","43882.0","80","1024"
"93","93","548","548","#3d3846","legacy","legacy","legacy","congruent","1","undefined","1","s","0","0","0","0","80","80","80","0","80","80","0","80","80","0","0","80","Wed Sep  6 11:21:35 2023","600","The main experiment item","True","Flankertask.osexp","C:/Users/juzal/OneDrive/Documents/Masters of Equine Science/Advanced Quantitative Methods and Experiment Design","False","mono","False","18","no","white","no","yes","768","legacy","0","79","C:/Users/juzal/OneDrive/Documents/Masters of Equine Science/Advanced Quantitative Methods and Experiment Design/CH-subject-4.csv","legacy","Melodramatic Milgram","4.0.5","0","s","NA","h","s","NA","h","566.0","NA","42422","566","NA","23681","2","legacy","1024","2","48000","-16","experiment","SSSSS","4","even","44384","207097","NA","NA","182416","207138","148648","1950","NA","207140","1961","207241","207808","NA","183416","207241","Flanker task","76","44448.0","81","1024"
"93","93","547","547","#3d3846","legacy","legacy","legacy","congruent","1","undefined","1","h","0","0","0","0","81","81","81","0","81","81","0","81","81","0","0","81","Wed Sep  6 11:21:35 2023","600","The main experiment item","True","Flankertask.osexp","C:/Users/juzal/OneDrive/Documents/Masters of Equine Science/Advanced Quantitative Methods and Experiment Design","False","mono","False","18","no","white","no","yes","768","legacy","1","79","C:/Users/juzal/OneDrive/Documents/Masters of Equine Science/Advanced Quantitative Methods and Experiment Design/CH-subject-4.csv","legacy","Melodramatic Milgram","4.0.5","0","h","NA","h","h","NA","h","467.0","NA","42422","467","NA","23681","2","legacy","1024","2","48000","-16","experiment","HHHHH","4","even","44384","207097","NA","NA","207812","208836","148648","1950","NA","208837","1961","208938","209406","NA","183416","208938","Flanker task","77","44915.0","82","1024"
"93","93","547","547","#3d3846","legacy","legacy","legacy","incongruent","1","undefined","1","h","0","0","0","0","82","82","82","0","82","82","0","82","82","0","0","82","Wed Sep  6 11:21:35 2023","600","The main experiment item","True","Flankertask.osexp","C:/Users/juzal/OneDrive/Documents/Masters of Equine Science/Advanced Quantitative Methods and Experiment Design","False","mono","False","18","no","white","no","yes","768","legacy","2","79","C:/Users/juzal/OneDrive/Documents/Masters of Equine Science/Advanced Quantitative Methods and Experiment Design/CH-subject-4.csv","legacy","Melodramatic Milgram","4.0.5","0","h","NA","h","h","NA","h","509.0","NA","42422","509","NA","23681","2","legacy","1024","2","48000","-16","experiment","SSHSS","4","even","44384","207097","NA","NA","209452","210476","148648","1950","NA","210478","1961","210579","211088","NA","183416","210579","Flanker task","78","45424.0","83","1024"
"94","94","545","545","#3d3846","legacy","legacy","legacy","incongruent","1","undefined","1","h","0","0","0","0","83","83","83","0","83","83","0","83","83","0","0","83","Wed Sep  6 11:21:35 2023","600","The main experiment item","True","Flankertask.osexp","C:/Users/juzal/OneDrive/Documents/Masters of Equine Science/Advanced Quantitative Methods and Experiment Design","False","mono","False","18","no","white","no","yes","768","legacy","3","79","C:/Users/juzal/OneDrive/Documents/Masters of Equine Science/Advanced Quantitative Methods and Experiment Design/CH-subject-4.csv","legacy","Melodramatic Milgram","4.0.5","0","h","NA","h","h","NA","h","425.0","NA","42422","425","NA","23681","2","legacy","1024","2","48000","-16","experiment","SSHSS","4","even","44384","207097","NA","NA","211114","212137","148648","1950","NA","212138","1961","212239","212665","NA","183416","212239","Flanker task","79","45849.0","84","1024"
"94","94","546","546","#3d3846","legacy","legacy","legacy","incongruent","1","undefined","1","s","0","0","0","0","84","84","84","0","84","84","0","84","84","0","0","84","Wed Sep  6 11:21:35 2023","600","The main experiment item","True","Flankertask.osexp","C:/Users/juzal/OneDrive/Documents/Masters of Equine Science/Advanced Quantitative Methods and Experiment Design","False","mono","False","18","no","white","no","yes","768","legacy","4","79","C:/Users/juzal/OneDrive/Documents/Masters of Equine Science/Advanced Quantitative Methods and Experiment Design/CH-subject-4.csv","legacy","Melodramatic Milgram","4.0.5","0","s","NA","h","s","NA","h","637.0","NA","42422","637","NA","23681","2","legacy","1024","2","48000","-16","experiment","HHSHH","4","even","44384","207097","NA","NA","212711","213734","148648","1950","NA","213736","1961","213837","214475","NA","183416","213837","Flanker task","80","46486.0","85","1024"
"94","94","547","547","#3d3846","legacy","legacy","legacy","incongruent","1","undefined","1","h","0","0","0","0","85","85","85","0","85","85","0","85","85","0","0","85","Wed Sep  6 11:21:35 2023","600","The main experiment item","True","Flankertask.osexp","C:/Users/juzal/OneDrive/Documents/Masters of Equine Science/Advanced Quantitative Methods and Experiment Design","False","mono","False","18","no","white","no","yes","768","legacy","5","79","C:/Users/juzal/OneDrive/Documents/Masters of Equine Science/Advanced Quantitative Methods and Experiment Design/CH-subject-4.csv","legacy","Melodramatic Milgram","4.0.5","0","h","NA","h","h","NA","h","613.0","NA","42422","613","NA","23681","2","legacy","1024","2","48000","-16","experiment","SSHSS","4","even","44384","207097","NA","NA","215008","216031","148648","1950","214508","216032","1961","216133","216746","NA","183416","216133","Flanker task","81","47099.0","86","1024"
"93","93","545","545","#3d3846","legacy","legacy","legacy","incongruent","0","undefined","0","s","0","0","0","0","86","86","86","0","86","86","0","86","86","0","0","86","Wed Sep  6 11:21:35 2023","600","The main experiment item","True","Flankertask.osexp","C:/Users/juzal/OneDrive/Documents/Masters of Equine Science/Advanced Quantitative Methods and Experiment Design","False","mono","False","18","no","white","no","yes","768","legacy","6","79","C:/Users/juzal/OneDrive/Documents/Masters of Equine Science/Advanced Quantitative Methods and Experiment Design/CH-subject-4.csv","legacy","Melodramatic Milgram","4.0.5","0","h","NA","h","h","NA","h","362.0","NA","42422","362","NA","23681","2","legacy","1024","2","48000","-16","experiment","HHSHH","4","even","44384","207097","NA","NA","217293","218317","148648","1950","216793","218318","1961","218419","218782","NA","183416","218419","Flanker task","81","47461.0","87","1024"
"93","93","543","543","#3d3846","legacy","legacy","legacy","incongruent","1","undefined","1","h","0","0","0","0","87","87","87","0","87","87","0","87","87","0","0","87","Wed Sep  6 11:21:35 2023","600","The main experiment item","True","Flankertask.osexp","C:/Users/juzal/OneDrive/Documents/Masters of Equine Science/Advanced Quantitative Methods and Experiment Design","False","mono","False","18","no","white","no","yes","768","legacy","7","79","C:/Users/juzal/OneDrive/Documents/Masters of Equine Science/Advanced Quantitative Methods and Experiment Design/CH-subject-4.csv","legacy","Melodramatic Milgram","4.0.5","0","h","NA","h","h","NA","h","359.0","NA","42422","359","NA","23681","2","legacy","1024","2","48000","-16","experiment","SSHSS","4","even","44384","207097","NA","NA","219312","220336","218812","1950","216793","220337","1961","220438","220798","NA","183416","220438","Flanker task","82","47820.0","88","1024"
"92","92","540","540","#3d3846","legacy","legacy","legacy","congruent","0","undefined","0","h","0","0","0","0","88","88","88","0","88","88","0","88","88","0","0","88","Wed Sep  6 11:21:35 2023","600","The main experiment item","True","Flankertask.osexp","C:/Users/juzal/OneDrive/Documents/Masters of Equine Science/Advanced Quantitative Methods and Experiment Design","False","mono","False","18","no","white","no","yes","768","legacy","8","79","C:/Users/juzal/OneDrive/Documents/Masters of Equine Science/Advanced Quantitative Methods and Experiment Design/CH-subject-4.csv","legacy","Melodramatic Milgram","4.0.5","0","s","NA","h","s","NA","h","296.0","NA","42422","296","NA","23681","2","legacy","1024","2","48000","-16","experiment","HHHHH","4","even","44384","207097","NA","NA","220832","221860","218812","1950","216793","221861","1961","221962","222259","NA","183416","221962","Flanker task","82","48116.0","89","1024"
"92","92","538","538","#3d3846","legacy","legacy","legacy","incongruent","1","undefined","1","h","0","0","0","0","89","89","89","0","89","89","0","89","89","0","0","89","Wed Sep  6 11:21:35 2023","600","The main experiment item","True","Flankertask.osexp","C:/Users/juzal/OneDrive/Documents/Masters of Equine Science/Advanced Quantitative Methods and Experiment Design","False","mono","False","18","no","white","no","yes","768","legacy","9","79","C:/Users/juzal/OneDrive/Documents/Masters of Equine Science/Advanced Quantitative Methods and Experiment Design/CH-subject-4.csv","legacy","Melodramatic Milgram","4.0.5","0","h","NA","h","h","NA","h","328.0","NA","42422","328","NA","23681","2","legacy","1024","2","48000","-16","experiment","SSHSS","4","even","44384","207097","NA","NA","222796","223820","222296","1950","216793","223821","1961","223922","224251","NA","183416","223922","Flanker task","83","48444.0","90","1024"
"92","92","536","536","#3d3846","legacy","legacy","legacy","congruent","1","undefined","1","s","0","0","0","0","90","90","90","0","90","90","0","90","90","0","0","90","Wed Sep  6 11:21:35 2023","600","The main experiment item","True","Flankertask.osexp","C:/Users/juzal/OneDrive/Documents/Masters of Equine Science/Advanced Quantitative Methods and Experiment Design","False","mono","False","18","no","white","no","yes","768","legacy","10","79","C:/Users/juzal/OneDrive/Documents/Masters of Equine Science/Advanced Quantitative Methods and Experiment Design/CH-subject-4.csv","legacy","Melodramatic Milgram","4.0.5","0","s","NA","h","s","NA","h","370.0","NA","42422","370","NA","23681","2","legacy","1024","2","48000","-16","experiment","SSSSS","4","even","44384","207097","NA","NA","224283","225309","222296","1950","216793","225311","1961","225412","225782","NA","183416","225412","Flanker task","84","48814.0","91","1024"
"92","92","534","534","#3d3846","legacy","legacy","legacy","incongruent","1","undefined","1","h","0","0","0","0","91","91","91","0","91","91","0","91","91","0","0","91","Wed Sep  6 11:21:35 2023","600","The main experiment item","True","Flankertask.osexp","C:/Users/juzal/OneDrive/Documents/Masters of Equine Science/Advanced Quantitative Methods and Experiment Design","False","mono","False","18","no","white","no","yes","768","legacy","11","79","C:/Users/juzal/OneDrive/Documents/Masters of Equine Science/Advanced Quantitative Methods and Experiment Design/CH-subject-4.csv","legacy","Melodramatic Milgram","4.0.5","0","h","NA","h","h","NA","h","357.0","NA","42422","357","NA","23681","2","legacy","1024","2","48000","-16","experiment","SSHSS","4","even","44384","207097","NA","NA","225826","226849","222296","1950","216793","226850","1961","226951","227308","NA","183416","226951","Flanker task","85","49171.0","92","1024"
"92","92","532","532","#3d3846","legacy","legacy","legacy","congruent","1","undefined","1","h","0","0","0","0","92","92","92","0","92","92","0","92","92","0","0","92","Wed Sep  6 11:21:35 2023","600","The main experiment item","True","Flankertask.osexp","C:/Users/juzal/OneDrive/Documents/Masters of Equine Science/Advanced Quantitative Methods and Experiment Design","False","mono","False","18","no","white","no","yes","768","legacy","12","79","C:/Users/juzal/OneDrive/Documents/Masters of Equine Science/Advanced Quantitative Methods and Experiment Design/CH-subject-4.csv","legacy","Melodramatic Milgram","4.0.5","0","h","NA","h","h","NA","h","306.0","NA","42422","306","NA","23681","2","legacy","1024","2","48000","-16","experiment","HHHHH","4","even","44384","207097","NA","NA","227346","228371","222296","1950","216793","228372","1961","228473","228781","NA","183416","228473","Flanker task","86","49477.0","93","1024"
"91","91","530","530","#3d3846","legacy","legacy","legacy","incongruent","0","undefined","0","s","0","0","0","0","93","93","93","0","93","93","0","93","93","0","0","93","Wed Sep  6 11:21:35 2023","600","The main experiment item","True","Flankertask.osexp","C:/Users/juzal/OneDrive/Documents/Masters of Equine Science/Advanced Quantitative Methods and Experiment Design","False","mono","False","18","no","white","no","yes","768","legacy","13","79","C:/Users/juzal/OneDrive/Documents/Masters of Equine Science/Advanced Quantitative Methods and Experiment Design/CH-subject-4.csv","legacy","Melodramatic Milgram","4.0.5","0","h","NA","h","h","NA","h","405.0","NA","42422","405","NA","23681","2","legacy","1024","2","48000","-16","experiment","HHSHH","4","even","44384","207097","NA","NA","228817","229840","222296","1950","216793","229841","1961","229942","230348","NA","183416","229942","Flanker task","86","49882.0","94","1024"
"91","91","531","531","#3d3846","legacy","legacy","legacy","incongruent","1","undefined","1","s","0","0","0","0","94","94","94","0","94","94","0","94","94","0","0","94","Wed Sep  6 11:21:35 2023","600","The main experiment item","True","Flankertask.osexp","C:/Users/juzal/OneDrive/Documents/Masters of Equine Science/Advanced Quantitative Methods and Experiment Design","False","mono","False","18","no","white","no","yes","768","legacy","14","79","C:/Users/juzal/OneDrive/Documents/Masters of Equine Science/Advanced Quantitative Methods and Experiment Design/CH-subject-4.csv","legacy","Melodramatic Milgram","4.0.5","0","s","NA","h","s","NA","h","565.0","NA","42422","565","NA","23681","2","legacy","1024","2","48000","-16","experiment","HHSHH","4","even","44384","207097","NA","NA","230889","231912","230389","1950","216793","231913","1961","232014","232580","NA","183416","232014","Flanker task","87","50447.0","95","1024"
"91","91","528","528","#3d3846","legacy","legacy","legacy","congruent","1","undefined","1","h","0","0","0","0","95","95","95","0","95","95","0","95","95","0","0","95","Wed Sep  6 11:21:35 2023","600","The main experiment item","True","Flankertask.osexp","C:/Users/juzal/OneDrive/Documents/Masters of Equine Science/Advanced Quantitative Methods and Experiment Design","False","mono","False","18","no","white","no","yes","768","legacy","15","79","C:/Users/juzal/OneDrive/Documents/Masters of Equine Science/Advanced Quantitative Methods and Experiment Design/CH-subject-4.csv","legacy","Melodramatic Milgram","4.0.5","0","h","NA","h","h","NA","h","279.0","NA","42422","279","NA","23681","2","legacy","1024","2","48000","-16","experiment","HHHHH","4","even","44384","207097","NA","NA","232612","233635","230389","1950","216793","233636","1961","233737","234017","NA","183416","233737","Flanker task","88","50726.0","96","1024"
"91","91","526","526","#3d3846","legacy","legacy","legacy","congruent","1","undefined","1","s","0","0","0","0","96","96","96","0","96","96","0","96","96","0","0","96","Wed Sep  6 11:21:35 2023","600","The main experiment item","True","Flankertask.osexp","C:/Users/juzal/OneDrive/Documents/Masters of Equine Science/Advanced Quantitative Methods and Experiment Design","False","mono","False","18","no","white","no","yes","768","legacy","16","79","C:/Users/juzal/OneDrive/Documents/Masters of Equine Science/Advanced Quantitative Methods and Experiment Design/CH-subject-4.csv","legacy","Melodramatic Milgram","4.0.5","0","s","NA","h","s","NA","h","342.0","NA","42422","342","NA","23681","2","legacy","1024","2","48000","-16","experiment","SSSSS","4","even","44384","207097","NA","NA","234062","235085","230389","1950","216793","235086","1961","235187","235529","NA","183416","235187","Flanker task","89","51068.0","97","1024"
"91","91","522","522","#3d3846","legacy","legacy","legacy","congruent","1","undefined","1","h","0","0","0","0","97","97","97","0","97","97","0","97","97","0","0","97","Wed Sep  6 11:21:35 2023","600","The main experiment item","True","Flankertask.osexp","C:/Users/juzal/OneDrive/Documents/Masters of Equine Science/Advanced Quantitative Methods and Experiment Design","False","mono","False","18","no","white","no","yes","768","legacy","17","79","C:/Users/juzal/OneDrive/Documents/Masters of Equine Science/Advanced Quantitative Methods and Experiment Design/CH-subject-4.csv","legacy","Melodramatic Milgram","4.0.5","0","h","NA","h","h","NA","h","117.0","NA","42422","117","NA","23681","2","legacy","1024","2","48000","-16","experiment","HHHHH","4","even","44384","207097","NA","NA","235561","236590","230389","1950","216793","236591","1961","236692","236809","NA","183416","236692","Flanker task","90","51185.0","98","1024"
"91","91","519","519","#3d3846","legacy","legacy","legacy","incongruent","1","undefined","1","s","0","0","0","0","98","98","98","0","98","98","0","98","98","0","0","98","Wed Sep  6 11:21:35 2023","600","The main experiment item","True","Flankertask.osexp","C:/Users/juzal/OneDrive/Documents/Masters of Equine Science/Advanced Quantitative Methods and Experiment Design","False","mono","False","18","no","white","no","yes","768","legacy","18","79","C:/Users/juzal/OneDrive/Documents/Masters of Equine Science/Advanced Quantitative Methods and Experiment Design/CH-subject-4.csv","legacy","Melodramatic Milgram","4.0.5","0","s","NA","h","s","NA","h","257.0","NA","42422","257","NA","23681","2","legacy","1024","2","48000","-16","experiment","HHSHH","4","even","44384","207097","NA","NA","236853","237876","230389","1950","216793","237877","1961","237978","238236","NA","183416","237978","Flanker task","91","51442.0","99","1024"
"92","92","517","517","#3d3846","legacy","legacy","legacy","congruent","1","undefined","1","s","0","0","0","0","99","99","99","0","99","99","0","99","99","0","0","99","Wed Sep  6 11:21:35 2023","600","The main experiment item","True","Flankertask.osexp","C:/Users/juzal/OneDrive/Documents/Masters of Equine Science/Advanced Quantitative Methods and Experiment Design","False","mono","False","18","no","white","no","yes","768","legacy","19","79","C:/Users/juzal/OneDrive/Documents/Masters of Equine Science/Advanced Quantitative Methods and Experiment Design/CH-subject-4.csv","legacy","Melodramatic Milgram","4.0.5","0","s","NA","h","s","NA","h","318.0","NA","42422","318","NA","23681","2","legacy","1024","2","48000","-16","experiment","SSSSS","4","even","44384","207097","NA","NA","238281","239305","230389","1950","216793","239307","1961","239408","239727","NA","183416","239408","Flanker task","92","51760.0","100","1024"
"92","92","516","516","#3d3846","legacy","legacy","legacy","congruent","1","undefined","1","s","0","0","0","0","100","100","100","0","100","100","0","100","100","0","0","100","Wed Sep  6 11:21:35 2023","600","The main experiment item","True","Flankertask.osexp","C:/Users/juzal/OneDrive/Documents/Masters of Equine Science/Advanced Quantitative Methods and Experiment Design","False","mono","False","18","no","white","no","yes","768","legacy","20","79","C:/Users/juzal/OneDrive/Documents/Masters of Equine Science/Advanced Quantitative Methods and Experiment Design/CH-subject-4.csv","legacy","Melodramatic Milgram","4.0.5","0","s","NA","h","s","NA","h","452.0","NA","42422","452","NA","23681","2","legacy","1024","2","48000","-16","experiment","SSSSS","4","even","44384","207097","NA","NA","239770","240794","230389","1950","216793","240795","1961","240896","241349","NA","183416","240896","Flanker task","93","52212.0","101","1024"
"91","91","515","515","#3d3846","legacy","legacy","legacy","incongruent","0","undefined","0","s","0","0","0","0","101","101","101","0","101","101","0","101","101","0","0","101","Wed Sep  6 11:21:35 2023","600","The main experiment item","True","Flankertask.osexp","C:/Users/juzal/OneDrive/Documents/Masters of Equine Science/Advanced Quantitative Methods and Experiment Design","False","mono","False","18","no","white","no","yes","768","legacy","21","79","C:/Users/juzal/OneDrive/Documents/Masters of Equine Science/Advanced Quantitative Methods and Experiment Design/CH-subject-4.csv","legacy","Melodramatic Milgram","4.0.5","0","h","NA","h","h","NA","h","318.0","NA","42422","318","NA","23681","2","legacy","1024","2","48000","-16","experiment","HHSHH","4","even","44384","207097","NA","NA","241397","242420","230389","1950","216793","242421","1961","242522","242841","NA","183416","242522","Flanker task","93","52530.0","102","1024"
"91","91","513","513","#3d3846","legacy","legacy","legacy","incongruent","1","undefined","1","h","0","0","0","0","102","102","102","0","102","102","0","102","102","0","0","102","Wed Sep  6 11:21:35 2023","600","The main experiment item","True","Flankertask.osexp","C:/Users/juzal/OneDrive/Documents/Masters of Equine Science/Advanced Quantitative Methods and Experiment Design","False","mono","False","18","no","white","no","yes","768","legacy","22","79","C:/Users/juzal/OneDrive/Documents/Masters of Equine Science/Advanced Quantitative Methods and Experiment Design/CH-subject-4.csv","legacy","Melodramatic Milgram","4.0.5","0","h","NA","h","h","NA","h","352.0","NA","42422","352","NA","23681","2","legacy","1024","2","48000","-16","experiment","SSHSS","4","even","44384","207097","NA","NA","243395","244418","242894","1950","216793","244419","1961","244520","244872","NA","183416","244520","Flanker task","94","52882.0","103","1024"
"91","91","511","511","#3d3846","legacy","legacy","legacy","incongruent","1","undefined","1","s","0","0","0","0","103","103","103","0","103","103","0","103","103","0","0","103","Wed Sep  6 11:21:35 2023","600","The main experiment item","True","Flankertask.osexp","C:/Users/juzal/OneDrive/Documents/Masters of Equine Science/Advanced Quantitative Methods and Experiment Design","False","mono","False","18","no","white","no","yes","768","legacy","23","79","C:/Users/juzal/OneDrive/Documents/Masters of Equine Science/Advanced Quantitative Methods and Experiment Design/CH-subject-4.csv","legacy","Melodramatic Milgram","4.0.5","0","s","NA","h","s","NA","h","353.0","NA","42422","353","NA","23681","2","legacy","1024","2","48000","-16","experiment","HHSHH","4","even","44384","207097","NA","NA","244919","245942","242894","1950","216793","245944","1961","246045","246398","NA","183416","246045","Flanker task","95","53235.0","104","1024"
"90","90","510","510","#3d3846","legacy","legacy","legacy","congruent","0","undefined","0","s","0","0","0","0","104","104","104","0","104","104","0","104","104","0","0","104","Wed Sep  6 11:21:35 2023","600","The main experiment item","True","Flankertask.osexp","C:/Users/juzal/OneDrive/Documents/Masters of Equine Science/Advanced Quantitative Methods and Experiment Design","False","mono","False","18","no","white","no","yes","768","legacy","24","79","C:/Users/juzal/OneDrive/Documents/Masters of Equine Science/Advanced Quantitative Methods and Experiment Design/CH-subject-4.csv","legacy","Melodramatic Milgram","4.0.5","0","h","NA","h","h","NA","h","316.0","NA","42422","316","NA","23681","2","legacy","1024","2","48000","-16","experiment","SSSSS","4","even","44384","207097","NA","NA","246444","247467","242894","1950","216793","247468","1961","247569","247886","NA","183416","247569","Flanker task","95","53551.0","105","1024"
"90","90","509","509","#3d3846","legacy","legacy","legacy","congruent","1","undefined","1","s","0","0","0","0","105","105","105","0","105","105","0","105","105","0","0","105","Wed Sep  6 11:21:35 2023","600","The main experiment item","True","Flankertask.osexp","C:/Users/juzal/OneDrive/Documents/Masters of Equine Science/Advanced Quantitative Methods and Experiment Design","False","mono","False","18","no","white","no","yes","768","legacy","25","79","C:/Users/juzal/OneDrive/Documents/Masters of Equine Science/Advanced Quantitative Methods and Experiment Design/CH-subject-4.csv","legacy","Melodramatic Milgram","4.0.5","0","s","NA","h","s","NA","h","453.0","NA","42422","453","NA","23681","2","legacy","1024","2","48000","-16","experiment","SSSSS","4","even","44384","207097","NA","NA","248434","249457","247933","1950","216793","249462","1961","249563","250017","NA","183416","249563","Flanker task","96","54004.0","106","1024"
"90","90","507","507","#3d3846","legacy","legacy","legacy","congruent","1","undefined","1","h","0","0","0","0","106","106","106","0","106","106","0","106","106","0","0","106","Wed Sep  6 11:21:35 2023","600","The main experiment item","True","Flankertask.osexp","C:/Users/juzal/OneDrive/Documents/Masters of Equine Science/Advanced Quantitative Methods and Experiment Design","False","mono","False","18","no","white","no","yes","768","legacy","26","79","C:/Users/juzal/OneDrive/Documents/Masters of Equine Science/Advanced Quantitative Methods and Experiment Design/CH-subject-4.csv","legacy","Melodramatic Milgram","4.0.5","0","h","NA","h","h","NA","h","346.0","NA","42422","346","NA","23681","2","legacy","1024","2","48000","-16","experiment","HHHHH","4","even","44384","207097","NA","NA","250021","251049","247933","1950","216793","251050","1961","251151","251498","NA","183416","251151","Flanker task","97","54350.0","107","1024"
