"acc","accuracy","average_response_time","avg_rt","background","canvas_backend","clock_backend","color_backend","condition","correct","correct_Instuctions1","correct_keyboard_response","correct_response","count_Block1","count_Block2","count_Block3","count_ISI","count_Instructions2","count_Instructions3","count_Instuctions1","count_errorFeedback","count_experiment","count_faster","count_finish","count_fixation","count_keyboard_response","count_logger","count_sequence","count_stimulus","datetime","deadline","description","disable_garbage_collection","experiment_file","experiment_path","font_bold","font_family","font_italic","font_size","font_underline","foreground","form_clicks","fullscreen","height","keyboard_backend","live_row","live_row_Block1","logfile","mouse_backend","opensesame_codename","opensesame_version","repeat_cycle","response","response_Instructions2","response_Instructions3","response_Instuctions1","response_finish","response_keyboard_response","response_time","response_time_Instructions2","response_time_Instructions3","response_time_Instuctions1","response_time_finish","response_time_keyboard_response","round_decimals","sampler_backend","sound_buf_size","sound_channels","sound_freq","sound_sample_size","start","stimulus","subject_nr","subject_parity","time_Block1","time_Block2","time_Block3","time_ISI","time_Instructions2","time_Instructions3","time_Instuctions1","time_errorFeedback","time_experiment","time_faster","time_finish","time_fixation","time_keyboard_response","time_logger","time_sequence","time_stimulus","title","total_correct","total_response_time","total_responses","width"
"100","100","559","559","#000000","legacy","legacy","legacy","congruent","1","undefined","1","h","0","0","0","0","0","0","0","0","0","0","0","0","0","0","0","0","Fri Sep 22 20:27:11 2023","1500","The main experiment item","True","FlankerTask.osexp","C:\Users\Hannah Laskoskie\Downloads","False","mono","False","18","no","white","no","yes","768","legacy","0","0","C:/Users/Hannah Laskoskie/Downloads/HL-subject-3.csv","legacy","Melodramatic Milgram","4.0.5","0","h","NA","NA","h","NA","h","559.0","NA","NA","29464","NA","559","2","legacy","1024","2","48000","-16","experiment","HHHHH","3","odd","33668","NA","NA","NA","NA","NA","4203","NA","4198","NA","NA","33719","33820","34380","33718","33820","Flanker Task","1","559.0","1","1024"
"50","50","456","456","#000000","legacy","legacy","legacy","congruent","0","undefined","0","s","0","0","0","1","0","0","0","1","0","1","0","1","1","1","1","1","Fri Sep 22 20:27:11 2023","1500","The main experiment item","True","FlankerTask.osexp","C:\Users\Hannah Laskoskie\Downloads","False","mono","False","18","no","white","no","yes","768","legacy","1","1","C:/Users/Hannah Laskoskie/Downloads/HL-subject-3.csv","legacy","Melodramatic Milgram","4.0.5","0","h","NA","NA","h","NA","h","354.0","NA","NA","29464","NA","354","2","legacy","1024","2","48000","-16","experiment","SSSSS","3","odd","33668","NA","NA","34394","NA","NA","4203","NA","4198","NA","NA","35441","35542","35897","35438","35542","Flanker Task","1","913.0","2","1024"
"66","66","429","429","#000000","legacy","legacy","legacy","congruent","1","undefined","1","s","0","0","0","2","0","0","0","2","0","2","0","2","2","2","2","2","Fri Sep 22 20:27:11 2023","1500","The main experiment item","True","FlankerTask.osexp","C:\Users\Hannah Laskoskie\Downloads","False","mono","False","18","no","white","no","yes","768","legacy","2","2","C:/Users/Hannah Laskoskie/Downloads/HL-subject-3.csv","legacy","Melodramatic Milgram","4.0.5","0","s","NA","NA","h","NA","s","376.0","NA","NA","29464","NA","376","2","legacy","1024","2","48000","-16","experiment","SSSSS","3","odd","33668","NA","NA","36401","NA","NA","4203","35900","4198","NA","NA","37438","37539","37915","37435","37539","Flanker Task","2","1289.0","3","1024"
"75","75","421","421","#000000","legacy","legacy","legacy","incongruent","1","undefined","1","s","0","0","0","3","0","0","0","3","0","3","0","3","3","3","3","3","Fri Sep 22 20:27:11 2023","1500","The main experiment item","True","FlankerTask.osexp","C:\Users\Hannah Laskoskie\Downloads","False","mono","False","18","no","white","no","yes","768","legacy","3","3","C:/Users/Hannah Laskoskie/Downloads/HL-subject-3.csv","legacy","Melodramatic Milgram","4.0.5","0","s","NA","NA","h","NA","s","396.0","NA","NA","29464","NA","396","2","legacy","1024","2","48000","-16","experiment","HHSHH","3","odd","33668","NA","NA","37926","NA","NA","4203","35900","4198","NA","NA","38969","39070","39467","38966","39070","Flanker Task","3","1685.0","4","1024"
"60","60","408","408","#000000","legacy","legacy","legacy","incongruent","0","undefined","0","h","0","0","0","4","0","0","0","4","0","4","0","4","4","4","4","4","Fri Sep 22 20:27:11 2023","1500","The main experiment item","True","FlankerTask.osexp","C:\Users\Hannah Laskoskie\Downloads","False","mono","False","18","no","white","no","yes","768","legacy","4","4","C:/Users/Hannah Laskoskie/Downloads/HL-subject-3.csv","legacy","Melodramatic Milgram","4.0.5","0","s","NA","NA","h","NA","s","356.0","NA","NA","29464","NA","356","2","legacy","1024","2","48000","-16","experiment","SSHSS","3","odd","33668","NA","NA","39471","NA","NA","4203","35900","4198","NA","NA","40509","40610","40967","40507","40610","Flanker Task","3","2041.0","5","1024"
"66","66","411","411","#000000","legacy","legacy","legacy","incongruent","1","undefined","1","h","0","0","0","5","0","0","0","5","0","5","0","5","5","5","5","5","Fri Sep 22 20:27:11 2023","1500","The main experiment item","True","FlankerTask.osexp","C:\Users\Hannah Laskoskie\Downloads","False","mono","False","18","no","white","no","yes","768","legacy","5","5","C:/Users/Hannah Laskoskie/Downloads/HL-subject-3.csv","legacy","Melodramatic Milgram","4.0.5","0","h","NA","NA","h","NA","h","428.0","NA","NA","29464","NA","428","2","legacy","1024","2","48000","-16","experiment","SSHSS","3","odd","33668","NA","NA","41479","NA","NA","4203","40978","4198","NA","NA","42517","42618","43048","42514","42618","Flanker Task","4","2469.0","6","1024"
"71","71","419","419","#000000","legacy","legacy","legacy","congruent","1","undefined","1","h","0","0","0","6","0","0","0","6","0","6","0","6","6","6","6","6","Fri Sep 22 20:27:11 2023","1500","The main experiment item","True","FlankerTask.osexp","C:\Users\Hannah Laskoskie\Downloads","False","mono","False","18","no","white","no","yes","768","legacy","6","6","C:/Users/Hannah Laskoskie/Downloads/HL-subject-3.csv","legacy","Melodramatic Milgram","4.0.5","0","h","NA","NA","h","NA","h","466.0","NA","NA","29464","NA","466","2","legacy","1024","2","48000","-16","experiment","HHHHH","3","odd","33668","NA","NA","43058","NA","NA","4203","40978","4198","NA","NA","44096","44197","44664","44094","44197","Flanker Task","5","2935.0","7","1024"
"75","75","451","451","#000000","legacy","legacy","legacy","congruent","1","undefined","1","h","0","0","0","7","0","0","0","7","0","7","0","7","7","7","7","7","Fri Sep 22 20:27:11 2023","1500","The main experiment item","True","FlankerTask.osexp","C:\Users\Hannah Laskoskie\Downloads","False","mono","False","18","no","white","no","yes","768","legacy","7","7","C:/Users/Hannah Laskoskie/Downloads/HL-subject-3.csv","legacy","Melodramatic Milgram","4.0.5","0","h","NA","NA","h","NA","h","673.0","NA","NA","29464","NA","673","2","legacy","1024","2","48000","-16","experiment","HHHHH","3","odd","33668","NA","NA","44675","NA","NA","4203","40978","4198","NA","NA","45717","45818","46492","45715","45818","Flanker Task","6","3608.0","8","1024"
"77","77","455","455","#000000","legacy","legacy","legacy","congruent","1","undefined","1","s","0","0","0","8","0","0","0","8","0","8","0","8","8","8","8","8","Fri Sep 22 20:27:11 2023","1500","The main experiment item","True","FlankerTask.osexp","C:\Users\Hannah Laskoskie\Downloads","False","mono","False","18","no","white","no","yes","768","legacy","8","8","C:/Users/Hannah Laskoskie/Downloads/HL-subject-3.csv","legacy","Melodramatic Milgram","4.0.5","0","s","NA","NA","h","NA","s","487.0","NA","NA","29464","NA","487","2","legacy","1024","2","48000","-16","experiment","SSSSS","3","odd","33668","NA","NA","46502","NA","NA","4203","40978","4198","NA","NA","47552","47653","48141","47549","47653","Flanker Task","7","4095.0","9","1024"
"70","70","439","439","#000000","legacy","legacy","legacy","incongruent","0","undefined","0","s","0","0","0","9","0","0","0","9","0","9","0","9","9","9","9","9","Fri Sep 22 20:27:11 2023","1500","The main experiment item","True","FlankerTask.osexp","C:\Users\Hannah Laskoskie\Downloads","False","mono","False","18","no","white","no","yes","768","legacy","9","9","C:/Users/Hannah Laskoskie/Downloads/HL-subject-3.csv","legacy","Melodramatic Milgram","4.0.5","0","h","NA","NA","h","NA","h","297.0","NA","NA","29464","NA","297","2","legacy","1024","2","48000","-16","experiment","HHSHH","3","odd","33668","NA","NA","48144","NA","NA","4203","40978","4198","NA","NA","49183","49284","49581","49181","49284","Flanker Task","7","4392.0","10","1024"
"72","72","433","433","#000000","legacy","legacy","legacy","incongruent","1","undefined","1","s","0","0","0","10","0","0","0","10","0","10","0","10","10","10","10","10","Fri Sep 22 20:27:11 2023","1500","The main experiment item","True","FlankerTask.osexp","C:\Users\Hannah Laskoskie\Downloads","False","mono","False","18","no","white","no","yes","768","legacy","10","10","C:/Users/Hannah Laskoskie/Downloads/HL-subject-3.csv","legacy","Melodramatic Milgram","4.0.5","0","s","NA","NA","h","NA","s","380.0","NA","NA","29464","NA","380","2","legacy","1024","2","48000","-16","experiment","HHSHH","3","odd","33668","NA","NA","50088","NA","NA","4203","49586","4198","NA","NA","51126","51227","51608","51123","51227","Flanker Task","8","4772.0","11","1024"
"75","75","433","433","#000000","legacy","legacy","legacy","congruent","1","undefined","1","h","0","0","0","11","0","0","0","11","0","11","0","11","11","11","11","11","Fri Sep 22 20:27:11 2023","1500","The main experiment item","True","FlankerTask.osexp","C:\Users\Hannah Laskoskie\Downloads","False","mono","False","18","no","white","no","yes","768","legacy","11","11","C:/Users/Hannah Laskoskie/Downloads/HL-subject-3.csv","legacy","Melodramatic Milgram","4.0.5","0","h","NA","NA","h","NA","h","427.0","NA","NA","29464","NA","427","2","legacy","1024","2","48000","-16","experiment","HHHHH","3","odd","33668","NA","NA","51611","NA","NA","4203","49586","4198","NA","NA","52648","52749","53177","52646","52749","Flanker Task","9","5199.0","12","1024"
"76","76","433","433","#000000","legacy","legacy","legacy","incongruent","1","undefined","1","s","0","0","0","12","0","0","0","12","0","12","0","12","12","12","12","12","Fri Sep 22 20:27:11 2023","1500","The main experiment item","True","FlankerTask.osexp","C:\Users\Hannah Laskoskie\Downloads","False","mono","False","18","no","white","no","yes","768","legacy","12","12","C:/Users/Hannah Laskoskie/Downloads/HL-subject-3.csv","legacy","Melodramatic Milgram","4.0.5","0","s","NA","NA","h","NA","s","440.0","NA","NA","29464","NA","440","2","legacy","1024","2","48000","-16","experiment","HHSHH","3","odd","33668","NA","NA","53180","NA","NA","4203","49586","4198","NA","NA","54222","54323","54764","54219","54323","Flanker Task","10","5639.0","13","1024"
"78","78","434","434","#000000","legacy","legacy","legacy","incongruent","1","undefined","1","h","0","0","0","13","0","0","0","13","0","13","0","13","13","13","13","13","Fri Sep 22 20:27:11 2023","1500","The main experiment item","True","FlankerTask.osexp","C:\Users\Hannah Laskoskie\Downloads","False","mono","False","18","no","white","no","yes","768","legacy","13","13","C:/Users/Hannah Laskoskie/Downloads/HL-subject-3.csv","legacy","Melodramatic Milgram","4.0.5","0","h","NA","NA","h","NA","h","445.0","NA","NA","29464","NA","445","2","legacy","1024","2","48000","-16","experiment","SSHSS","3","odd","33668","NA","NA","54769","NA","NA","4203","49586","4198","NA","NA","55808","55909","56356","55806","55909","Flanker Task","11","6084.0","14","1024"
"80","80","438","438","#000000","legacy","legacy","legacy","incongruent","1","undefined","1","s","0","0","0","14","0","0","0","14","0","14","0","14","14","14","14","14","Fri Sep 22 20:27:11 2023","1500","The main experiment item","True","FlankerTask.osexp","C:\Users\Hannah Laskoskie\Downloads","False","mono","False","18","no","white","no","yes","768","legacy","14","14","C:/Users/Hannah Laskoskie/Downloads/HL-subject-3.csv","legacy","Melodramatic Milgram","4.0.5","0","s","NA","NA","h","NA","s","496.0","NA","NA","29464","NA","496","2","legacy","1024","2","48000","-16","experiment","HHSHH","3","odd","33668","NA","NA","56365","NA","NA","4203","49586","4198","NA","NA","57405","57507","58004","57402","57507","Flanker Task","12","6580.0","15","1024"
"81","81","445","445","#000000","legacy","legacy","legacy","congruent","1","undefined","1","h","0","0","0","15","0","0","0","15","0","15","0","15","15","15","15","15","Fri Sep 22 20:27:11 2023","1500","The main experiment item","True","FlankerTask.osexp","C:\Users\Hannah Laskoskie\Downloads","False","mono","False","18","no","white","no","yes","768","legacy","15","15","C:/Users/Hannah Laskoskie/Downloads/HL-subject-3.csv","legacy","Melodramatic Milgram","4.0.5","0","h","NA","NA","h","NA","h","552.0","NA","NA","29464","NA","552","2","legacy","1024","2","48000","-16","experiment","HHHHH","3","odd","33668","NA","NA","58007","NA","NA","4203","49586","4198","NA","NA","59051","59152","59705","59047","59152","Flanker Task","13","7132.0","16","1024"
"76","76","440","440","#000000","legacy","legacy","legacy","congruent","0","undefined","0","h","0","0","0","16","0","0","0","16","0","16","0","16","16","16","16","16","Fri Sep 22 20:27:11 2023","1500","The main experiment item","True","FlankerTask.osexp","C:\Users\Hannah Laskoskie\Downloads","False","mono","False","18","no","white","no","yes","768","legacy","16","16","C:/Users/Hannah Laskoskie/Downloads/HL-subject-3.csv","legacy","Melodramatic Milgram","4.0.5","0","s","NA","NA","h","NA","s","349.0","NA","NA","29464","NA","349","2","legacy","1024","2","48000","-16","experiment","HHHHH","3","odd","33668","NA","NA","59714","NA","NA","4203","49586","4198","NA","NA","60756","60857","61207","60753","60857","Flanker Task","13","7481.0","17","1024"
"77","77","440","440","#000000","legacy","legacy","legacy","congruent","1","undefined","1","s","0","0","0","17","0","0","0","17","0","17","0","17","17","17","17","17","Fri Sep 22 20:27:11 2023","1500","The main experiment item","True","FlankerTask.osexp","C:\Users\Hannah Laskoskie\Downloads","False","mono","False","18","no","white","no","yes","768","legacy","17","17","C:/Users/Hannah Laskoskie/Downloads/HL-subject-3.csv","legacy","Melodramatic Milgram","4.0.5","0","s","NA","NA","h","NA","s","455.0","NA","NA","29464","NA","455","2","legacy","1024","2","48000","-16","experiment","SSSSS","3","odd","33668","NA","NA","61714","NA","NA","4203","61213","4198","NA","NA","62765","62866","63322","62762","62866","Flanker Task","14","7936.0","18","1024"
"73","73","435","435","#000000","legacy","legacy","legacy","congruent","0","undefined","0","s","0","0","0","18","0","0","0","18","0","18","0","18","18","18","18","18","Fri Sep 22 20:27:11 2023","1500","The main experiment item","True","FlankerTask.osexp","C:\Users\Hannah Laskoskie\Downloads","False","mono","False","18","no","white","no","yes","768","legacy","18","18","C:/Users/Hannah Laskoskie/Downloads/HL-subject-3.csv","legacy","Melodramatic Milgram","4.0.5","0","h","NA","NA","h","NA","h","335.0","NA","NA","29464","NA","335","2","legacy","1024","2","48000","-16","experiment","SSSSS","3","odd","33668","NA","NA","63331","NA","NA","4203","61213","4198","NA","NA","64370","64471","64806","64368","64471","Flanker Task","14","8271.0","19","1024"
"75","75","431","431","#000000","legacy","legacy","legacy","congruent","1","undefined","1","h","0","0","0","19","0","0","0","19","0","19","0","19","19","19","19","19","Fri Sep 22 20:27:11 2023","1500","The main experiment item","True","FlankerTask.osexp","C:\Users\Hannah Laskoskie\Downloads","False","mono","False","18","no","white","no","yes","768","legacy","19","19","C:/Users/Hannah Laskoskie/Downloads/HL-subject-3.csv","legacy","Melodramatic Milgram","4.0.5","0","h","NA","NA","h","NA","h","362.0","NA","NA","29464","NA","362","2","legacy","1024","2","48000","-16","experiment","HHHHH","3","odd","33668","NA","NA","65311","NA","NA","4203","64810","4198","NA","NA","66347","66448","66812","66345","66448","Flanker Task","15","8633.0","20","1024"
"76","76","432","432","#000000","legacy","legacy","legacy","congruent","1","undefined","1","s","0","0","0","20","0","0","0","20","0","20","0","20","20","20","20","20","Fri Sep 22 20:27:11 2023","1500","The main experiment item","True","FlankerTask.osexp","C:\Users\Hannah Laskoskie\Downloads","False","mono","False","18","no","white","no","yes","768","legacy","20","20","C:/Users/Hannah Laskoskie/Downloads/HL-subject-3.csv","legacy","Melodramatic Milgram","4.0.5","0","s","NA","NA","h","NA","s","451.0","NA","NA","29464","NA","451","2","legacy","1024","2","48000","-16","experiment","SSSSS","3","odd","33668","NA","NA","66821","NA","NA","4203","64810","4198","NA","NA","67863","67964","68416","67861","67964","Flanker Task","16","9084.0","21","1024"
"77","77","434","434","#000000","legacy","legacy","legacy","incongruent","1","undefined","1","s","0","0","0","21","0","0","0","21","0","21","0","21","21","21","21","21","Fri Sep 22 20:27:11 2023","1500","The main experiment item","True","FlankerTask.osexp","C:\Users\Hannah Laskoskie\Downloads","False","mono","False","18","no","white","no","yes","768","legacy","21","21","C:/Users/Hannah Laskoskie/Downloads/HL-subject-3.csv","legacy","Melodramatic Milgram","4.0.5","0","s","NA","NA","h","NA","s","474.0","NA","NA","29464","NA","474","2","legacy","1024","2","48000","-16","experiment","HHSHH","3","odd","33668","NA","NA","68419","NA","NA","4203","64810","4198","NA","NA","69457","69558","70033","69455","69558","Flanker Task","17","9558.0","22","1024"
"78","78","430","430","#000000","legacy","legacy","legacy","incongruent","1","undefined","1","s","0","0","0","22","0","0","0","22","0","22","0","22","22","22","22","22","Fri Sep 22 20:27:11 2023","1500","The main experiment item","True","FlankerTask.osexp","C:\Users\Hannah Laskoskie\Downloads","False","mono","False","18","no","white","no","yes","768","legacy","22","22","C:/Users/Hannah Laskoskie/Downloads/HL-subject-3.csv","legacy","Melodramatic Milgram","4.0.5","0","s","NA","NA","h","NA","s","332.0","NA","NA","29464","NA","332","2","legacy","1024","2","48000","-16","experiment","HHSHH","3","odd","33668","NA","NA","70043","NA","NA","4203","64810","4198","NA","NA","71082","71183","71516","71078","71183","Flanker Task","18","9890.0","23","1024"
"79","79","431","431","#000000","legacy","legacy","legacy","congruent","1","undefined","1","h","0","0","0","23","0","0","0","23","0","23","0","23","23","23","23","23","Fri Sep 22 20:27:11 2023","1500","The main experiment item","True","FlankerTask.osexp","C:\Users\Hannah Laskoskie\Downloads","False","mono","False","18","no","white","no","yes","768","legacy","23","23","C:/Users/Hannah Laskoskie/Downloads/HL-subject-3.csv","legacy","Melodramatic Milgram","4.0.5","0","h","NA","NA","h","NA","h","475.0","NA","NA","29464","NA","475","2","legacy","1024","2","48000","-16","experiment","HHHHH","3","odd","33668","NA","NA","71525","NA","NA","4203","64810","4198","NA","NA","72563","72664","73140","72560","72664","Flanker Task","19","10365.0","24","1024"
"76","76","429","429","#000000","legacy","legacy","legacy","incongruent","0","undefined","0","h","0","0","0","24","0","0","0","24","0","24","0","24","24","24","24","24","Fri Sep 22 20:27:11 2023","1500","The main experiment item","True","FlankerTask.osexp","C:\Users\Hannah Laskoskie\Downloads","False","mono","False","18","no","white","no","yes","768","legacy","24","24","C:/Users/Hannah Laskoskie/Downloads/HL-subject-3.csv","legacy","Melodramatic Milgram","4.0.5","0","s","NA","NA","h","NA","s","365.0","NA","NA","29464","NA","365","2","legacy","1024","2","48000","-16","experiment","SSHSS","3","odd","33668","NA","NA","73149","NA","NA","4203","64810","4198","NA","NA","74197","74298","74664","74195","74298","Flanker Task","19","10730.0","25","1024"
"76","76","439","439","#000000","legacy","legacy","legacy","congruent","1","undefined","1","s","0","0","0","25","0","0","0","25","0","25","0","25","25","25","25","25","Fri Sep 22 20:27:11 2023","1500","The main experiment item","True","FlankerTask.osexp","C:\Users\Hannah Laskoskie\Downloads","False","mono","False","18","no","white","no","yes","768","legacy","25","25","C:/Users/Hannah Laskoskie/Downloads/HL-subject-3.csv","legacy","Melodramatic Milgram","4.0.5","0","s","NA","NA","h","NA","s","702.0","NA","NA","29464","NA","702","2","legacy","1024","2","48000","-16","experiment","SSSSS","3","odd","33668","NA","NA","75168","NA","NA","4203","74667","4198","NA","NA","76217","76320","77023","76213","76319","Flanker Task","20","11432.0","26","1024"
"77","77","462","462","#000000","legacy","legacy","legacy","congruent","1","undefined","1","h","0","0","0","26","0","0","0","26","0","26","0","26","26","26","26","26","Fri Sep 22 20:27:11 2023","1500","The main experiment item","True","FlankerTask.osexp","C:\Users\Hannah Laskoskie\Downloads","False","mono","False","18","no","white","no","yes","768","legacy","26","26","C:/Users/Hannah Laskoskie/Downloads/HL-subject-3.csv","legacy","Melodramatic Milgram","4.0.5","0","h","NA","NA","h","NA","h","1067.0","NA","NA","29464","NA","1067","2","legacy","1024","2","48000","-16","experiment","HHHHH","3","odd","33668","NA","NA","77032","NA","NA","4203","74667","4198","NA","NA","78105","78207","79275","78103","78207","Flanker Task","21","12499.0","27","1024"
"78","78","458","458","#000000","legacy","legacy","legacy","congruent","1","undefined","1","s","0","0","0","27","0","0","0","27","0","27","0","27","27","27","27","27","Fri Sep 22 20:27:11 2023","1500","The main experiment item","True","FlankerTask.osexp","C:\Users\Hannah Laskoskie\Downloads","False","mono","False","18","no","white","no","yes","768","legacy","27","27","C:/Users/Hannah Laskoskie/Downloads/HL-subject-3.csv","legacy","Melodramatic Milgram","4.0.5","0","s","NA","NA","h","NA","s","343.0","NA","NA","29464","NA","343","2","legacy","1024","2","48000","-16","experiment","SSSSS","3","odd","33668","NA","NA","79284","NA","NA","4203","74667","4198","NA","NA","80323","80424","80769","80321","80424","Flanker Task","22","12842.0","28","1024"
"79","79","454","454","#000000","legacy","legacy","legacy","incongruent","1","undefined","1","h","0","0","0","28","0","0","0","28","0","28","0","28","28","28","28","28","Fri Sep 22 20:27:11 2023","1500","The main experiment item","True","FlankerTask.osexp","C:\Users\Hannah Laskoskie\Downloads","False","mono","False","18","no","white","no","yes","768","legacy","28","28","C:/Users/Hannah Laskoskie/Downloads/HL-subject-3.csv","legacy","Melodramatic Milgram","4.0.5","0","h","NA","NA","h","NA","h","330.0","NA","NA","29464","NA","330","2","legacy","1024","2","48000","-16","experiment","SSHSS","3","odd","33668","NA","NA","80778","NA","NA","4203","74667","4198","NA","NA","81815","81916","82248","81812","81916","Flanker Task","23","13172.0","29","1024"
"76","76","451","451","#000000","legacy","legacy","legacy","incongruent","0","undefined","0","s","0","0","0","29","0","0","0","29","0","29","0","29","29","29","29","29","Fri Sep 22 20:27:11 2023","1500","The main experiment item","True","FlankerTask.osexp","C:\Users\Hannah Laskoskie\Downloads","False","mono","False","18","no","white","no","yes","768","legacy","29","29","C:/Users/Hannah Laskoskie/Downloads/HL-subject-3.csv","legacy","Melodramatic Milgram","4.0.5","0","h","NA","NA","h","NA","h","385.0","NA","NA","29464","NA","385","2","legacy","1024","2","48000","-16","experiment","HHSHH","3","odd","33668","NA","NA","82256","NA","NA","4203","74667","4198","NA","NA","83300","83401","83787","83297","83401","Flanker Task","23","13557.0","30","1024"
"74","74","450","450","#000000","legacy","legacy","legacy","congruent","0","undefined","0","h","0","0","0","30","0","0","0","30","0","30","0","30","30","30","30","30","Fri Sep 22 20:27:11 2023","1500","The main experiment item","True","FlankerTask.osexp","C:\Users\Hannah Laskoskie\Downloads","False","mono","False","18","no","white","no","yes","768","legacy","30","30","C:/Users/Hannah Laskoskie/Downloads/HL-subject-3.csv","legacy","Melodramatic Milgram","4.0.5","0","s","NA","NA","h","NA","s","395.0","NA","NA","29464","NA","395","2","legacy","1024","2","48000","-16","experiment","HHHHH","3","odd","33668","NA","NA","84297","NA","NA","4203","83796","4198","NA","NA","85340","85441","85837","85337","85441","Flanker Task","23","13952.0","31","1024"
"75","75","461","461","#000000","legacy","legacy","legacy","incongruent","1","undefined","1","s","0","0","0","31","0","0","0","31","0","31","0","31","31","31","31","31","Fri Sep 22 20:27:11 2023","1500","The main experiment item","True","FlankerTask.osexp","C:\Users\Hannah Laskoskie\Downloads","False","mono","False","18","no","white","no","yes","768","legacy","31","31","C:/Users/Hannah Laskoskie/Downloads/HL-subject-3.csv","legacy","Melodramatic Milgram","4.0.5","0","s","NA","NA","h","NA","s","826.0","NA","NA","29464","NA","826","2","legacy","1024","2","48000","-16","experiment","HHSHH","3","odd","33668","NA","NA","86347","NA","NA","4203","85846","4198","NA","NA","87383","87484","88311","87381","87484","Flanker Task","24","14778.0","32","1024"
"75","75","488","488","#000000","legacy","legacy","legacy","congruent","1","undefined","1","s","0","0","0","32","0","0","0","32","0","32","0","32","32","32","32","32","Fri Sep 22 20:27:11 2023","1500","The main experiment item","True","FlankerTask.osexp","C:\Users\Hannah Laskoskie\Downloads","False","mono","False","18","no","white","no","yes","768","legacy","32","32","C:/Users/Hannah Laskoskie/Downloads/HL-subject-3.csv","legacy","Melodramatic Milgram","4.0.5","0","s","NA","NA","h","NA","s","1338.0","NA","NA","29464","NA","1338","2","legacy","1024","2","48000","-16","experiment","SSSSS","3","odd","33668","NA","NA","88320","NA","NA","4203","85846","4198","NA","NA","89358","89459","90797","89355","89459","Flanker Task","25","16116.0","33","1024"
"76","76","489","489","#000000","legacy","legacy","legacy","congruent","1","undefined","1","s","0","0","0","33","0","0","0","33","0","33","0","33","33","33","33","33","Fri Sep 22 20:27:11 2023","1500","The main experiment item","True","FlankerTask.osexp","C:\Users\Hannah Laskoskie\Downloads","False","mono","False","18","no","white","no","yes","768","legacy","33","33","C:/Users/Hannah Laskoskie/Downloads/HL-subject-3.csv","legacy","Melodramatic Milgram","4.0.5","0","s","NA","NA","h","NA","s","525.0","NA","NA","29464","NA","525","2","legacy","1024","2","48000","-16","experiment","SSSSS","3","odd","33668","NA","NA","90806","NA","NA","4203","85846","4198","NA","NA","91844","91945","92471","91841","91945","Flanker Task","26","16641.0","34","1024"
"77","77","486","486","#000000","legacy","legacy","legacy","congruent","1","undefined","1","s","0","0","0","34","0","0","0","34","0","34","0","34","34","34","34","34","Fri Sep 22 20:27:11 2023","1500","The main experiment item","True","FlankerTask.osexp","C:\Users\Hannah Laskoskie\Downloads","False","mono","False","18","no","white","no","yes","768","legacy","34","34","C:/Users/Hannah Laskoskie/Downloads/HL-subject-3.csv","legacy","Melodramatic Milgram","4.0.5","0","s","NA","NA","h","NA","s","385.0","NA","NA","29464","NA","385","2","legacy","1024","2","48000","-16","experiment","SSSSS","3","odd","33668","NA","NA","92481","NA","NA","4203","85846","4198","NA","NA","93521","93622","94007","93517","93622","Flanker Task","27","17026.0","35","1024"
"77","77","486","486","#000000","legacy","legacy","legacy","congruent","1","undefined","1","h","0","0","0","35","0","0","0","35","0","35","0","35","35","35","35","35","Fri Sep 22 20:27:11 2023","1500","The main experiment item","True","FlankerTask.osexp","C:\Users\Hannah Laskoskie\Downloads","False","mono","False","18","no","white","no","yes","768","legacy","35","35","C:/Users/Hannah Laskoskie/Downloads/HL-subject-3.csv","legacy","Melodramatic Milgram","4.0.5","0","h","NA","NA","h","NA","h","488.0","NA","NA","29464","NA","488","2","legacy","1024","2","48000","-16","experiment","HHHHH","3","odd","33668","NA","NA","94016","NA","NA","4203","85846","4198","NA","NA","95069","95170","95659","95066","95170","Flanker Task","28","17514.0","36","1024"
"78","78","485","485","#000000","legacy","legacy","legacy","congruent","1","undefined","1","h","0","0","0","36","0","0","0","36","0","36","0","36","36","36","36","36","Fri Sep 22 20:27:11 2023","1500","The main experiment item","True","FlankerTask.osexp","C:\Users\Hannah Laskoskie\Downloads","False","mono","False","18","no","white","no","yes","768","legacy","36","36","C:/Users/Hannah Laskoskie/Downloads/HL-subject-3.csv","legacy","Melodramatic Milgram","4.0.5","0","h","NA","NA","h","NA","h","464.0","NA","NA","29464","NA","464","2","legacy","1024","2","48000","-16","experiment","HHHHH","3","odd","33668","NA","NA","95668","NA","NA","4203","85846","4198","NA","NA","96706","96807","97272","96702","96807","Flanker Task","29","17978.0","37","1024"
"78","78","484","484","#000000","legacy","legacy","legacy","congruent","1","undefined","1","s","0","0","0","37","0","0","0","37","0","37","0","37","37","37","37","37","Fri Sep 22 20:27:11 2023","1500","The main experiment item","True","FlankerTask.osexp","C:\Users\Hannah Laskoskie\Downloads","False","mono","False","18","no","white","no","yes","768","legacy","37","37","C:/Users/Hannah Laskoskie/Downloads/HL-subject-3.csv","legacy","Melodramatic Milgram","4.0.5","0","s","NA","NA","h","NA","s","425.0","NA","NA","29464","NA","425","2","legacy","1024","2","48000","-16","experiment","SSSSS","3","odd","33668","NA","NA","97275","NA","NA","4203","85846","4198","NA","NA","98313","98414","98840","98310","98414","Flanker Task","30","18403.0","38","1024"
"79","79","484","484","#000000","legacy","legacy","legacy","incongruent","1","undefined","1","h","0","0","0","38","0","0","0","38","0","38","0","38","38","38","38","38","Fri Sep 22 20:27:11 2023","1500","The main experiment item","True","FlankerTask.osexp","C:\Users\Hannah Laskoskie\Downloads","False","mono","False","18","no","white","no","yes","768","legacy","38","38","C:/Users/Hannah Laskoskie/Downloads/HL-subject-3.csv","legacy","Melodramatic Milgram","4.0.5","0","h","NA","NA","h","NA","h","483.0","NA","NA","29464","NA","483","2","legacy","1024","2","48000","-16","experiment","SSHSS","3","odd","33668","NA","NA","98844","NA","NA","4203","85846","4198","NA","NA","99884","99985","100469","99881","99985","Flanker Task","31","18886.0","39","1024"
"80","80","486","486","#000000","legacy","legacy","legacy","congruent","1","undefined","1","h","0","0","0","39","0","0","0","39","0","39","0","39","39","39","39","39","Fri Sep 22 20:27:11 2023","1500","The main experiment item","True","FlankerTask.osexp","C:\Users\Hannah Laskoskie\Downloads","False","mono","False","18","no","white","no","yes","768","legacy","39","39","C:/Users/Hannah Laskoskie/Downloads/HL-subject-3.csv","legacy","Melodramatic Milgram","4.0.5","0","h","NA","NA","h","NA","h","573.0","NA","NA","29464","NA","573","2","legacy","1024","2","48000","-16","experiment","HHHHH","3","odd","33668","NA","NA","100472","NA","NA","4203","85846","4198","NA","NA","101511","101612","102186","101509","101612","Flanker Task","32","19459.0","40","1024"
"80","80","486","486","#000000","legacy","legacy","legacy","congruent","1","undefined","1","s","0","0","0","40","0","0","0","40","0","40","0","40","40","40","40","40","Fri Sep 22 20:27:11 2023","1500","The main experiment item","True","FlankerTask.osexp","C:\Users\Hannah Laskoskie\Downloads","False","mono","False","18","no","white","no","yes","768","legacy","40","40","C:/Users/Hannah Laskoskie/Downloads/HL-subject-3.csv","legacy","Melodramatic Milgram","4.0.5","0","s","NA","NA","h","NA","s","468.0","NA","NA","29464","NA","468","2","legacy","1024","2","48000","-16","experiment","SSSSS","3","odd","33668","NA","NA","102188","NA","NA","4203","85846","4198","NA","NA","103229","103330","103800","103226","103330","Flanker Task","33","19927.0","41","1024"
"78","78","483","483","#000000","legacy","legacy","legacy","incongruent","0","undefined","0","s","0","0","0","41","0","0","0","41","0","41","0","41","41","41","41","41","Fri Sep 22 20:27:11 2023","1500","The main experiment item","True","FlankerTask.osexp","C:\Users\Hannah Laskoskie\Downloads","False","mono","False","18","no","white","no","yes","768","legacy","41","41","C:/Users/Hannah Laskoskie/Downloads/HL-subject-3.csv","legacy","Melodramatic Milgram","4.0.5","0","h","NA","NA","h","NA","h","392.0","NA","NA","29464","NA","392","2","legacy","1024","2","48000","-16","experiment","HHSHH","3","odd","33668","NA","NA","103803","NA","NA","4203","85846","4198","NA","NA","104843","104944","105337","104840","104944","Flanker Task","33","20319.0","42","1024"
"79","79","481","481","#000000","legacy","legacy","legacy","incongruent","1","undefined","1","s","0","0","0","42","0","0","0","42","0","42","0","42","42","42","42","42","Fri Sep 22 20:27:11 2023","1500","The main experiment item","True","FlankerTask.osexp","C:\Users\Hannah Laskoskie\Downloads","False","mono","False","18","no","white","no","yes","768","legacy","42","42","C:/Users/Hannah Laskoskie/Downloads/HL-subject-3.csv","legacy","Melodramatic Milgram","4.0.5","0","s","NA","NA","h","NA","s","401.0","NA","NA","29464","NA","401","2","legacy","1024","2","48000","-16","experiment","HHSHH","3","odd","33668","NA","NA","105841","NA","NA","4203","105340","4198","NA","NA","106885","106986","107388","106882","106986","Flanker Task","34","20720.0","43","1024"
"79","79","481","481","#000000","legacy","legacy","legacy","incongruent","1","undefined","1","s","0","0","0","43","0","0","0","43","0","43","0","43","43","43","43","43","Fri Sep 22 20:27:11 2023","1500","The main experiment item","True","FlankerTask.osexp","C:\Users\Hannah Laskoskie\Downloads","False","mono","False","18","no","white","no","yes","768","legacy","43","43","C:/Users/Hannah Laskoskie/Downloads/HL-subject-3.csv","legacy","Melodramatic Milgram","4.0.5","0","s","NA","NA","h","NA","s","453.0","NA","NA","29464","NA","453","2","legacy","1024","2","48000","-16","experiment","HHSHH","3","odd","33668","NA","NA","107397","NA","NA","4203","105340","4198","NA","NA","108441","108543","108997","108439","108542","Flanker Task","35","21173.0","44","1024"
"80","80","481","481","#000000","legacy","legacy","legacy","incongruent","1","undefined","1","s","0","0","0","44","0","0","0","44","0","44","0","44","44","44","44","44","Fri Sep 22 20:27:11 2023","1500","The main experiment item","True","FlankerTask.osexp","C:\Users\Hannah Laskoskie\Downloads","False","mono","False","18","no","white","no","yes","768","legacy","44","44","C:/Users/Hannah Laskoskie/Downloads/HL-subject-3.csv","legacy","Melodramatic Milgram","4.0.5","0","s","NA","NA","h","NA","s","485.0","NA","NA","29464","NA","485","2","legacy","1024","2","48000","-16","experiment","HHSHH","3","odd","33668","NA","NA","109006","NA","NA","4203","105340","4198","NA","NA","110062","110163","110649","110059","110163","Flanker Task","36","21658.0","45","1024"
"80","80","489","489","#000000","legacy","legacy","legacy","incongruent","1","undefined","1","s","0","0","0","45","0","0","0","45","0","45","0","45","45","45","45","45","Fri Sep 22 20:27:11 2023","1500","The main experiment item","True","FlankerTask.osexp","C:\Users\Hannah Laskoskie\Downloads","False","mono","False","18","no","white","no","yes","768","legacy","45","45","C:/Users/Hannah Laskoskie/Downloads/HL-subject-3.csv","legacy","Melodramatic Milgram","4.0.5","0","s","NA","NA","h","NA","s","873.0","NA","NA","29464","NA","873","2","legacy","1024","2","48000","-16","experiment","HHSHH","3","odd","33668","NA","NA","110652","NA","NA","4203","105340","4198","NA","NA","111695","111797","112671","111693","111797","Flanker Task","37","22531.0","46","1024"
"80","80","491","491","#000000","legacy","legacy","legacy","congruent","1","undefined","1","s","0","0","0","46","0","0","0","46","0","46","0","46","46","46","46","46","Fri Sep 22 20:27:11 2023","1500","The main experiment item","True","FlankerTask.osexp","C:\Users\Hannah Laskoskie\Downloads","False","mono","False","18","no","white","no","yes","768","legacy","46","46","C:/Users/Hannah Laskoskie/Downloads/HL-subject-3.csv","legacy","Melodramatic Milgram","4.0.5","0","s","NA","NA","h","NA","s","567.0","NA","NA","29464","NA","567","2","legacy","1024","2","48000","-16","experiment","SSSSS","3","odd","33668","NA","NA","112680","NA","NA","4203","105340","4198","NA","NA","113719","113821","114389","113717","113821","Flanker Task","38","23098.0","47","1024"
"79","79","488","488","#000000","legacy","legacy","legacy","incongruent","0","undefined","0","h","0","0","0","47","0","0","0","47","0","47","0","47","47","47","47","47","Fri Sep 22 20:27:11 2023","1500","The main experiment item","True","FlankerTask.osexp","C:\Users\Hannah Laskoskie\Downloads","False","mono","False","18","no","white","no","yes","768","legacy","47","47","C:/Users/Hannah Laskoskie/Downloads/HL-subject-3.csv","legacy","Melodramatic Milgram","4.0.5","0","s","NA","NA","h","NA","s","351.0","NA","NA","29464","NA","351","2","legacy","1024","2","48000","-16","experiment","SSHSS","3","odd","33668","NA","NA","114399","NA","NA","4203","105340","4198","NA","NA","115438","115539","115891","115435","115539","Flanker Task","38","23449.0","48","1024"
"79","79","487","487","#000000","legacy","legacy","legacy","incongruent","1","undefined","1","h","0","0","0","48","0","0","0","48","0","48","0","48","48","48","48","48","Fri Sep 22 20:27:11 2023","1500","The main experiment item","True","FlankerTask.osexp","C:\Users\Hannah Laskoskie\Downloads","False","mono","False","18","no","white","no","yes","768","legacy","48","48","C:/Users/Hannah Laskoskie/Downloads/HL-subject-3.csv","legacy","Melodramatic Milgram","4.0.5","0","h","NA","NA","h","NA","h","428.0","NA","NA","29464","NA","428","2","legacy","1024","2","48000","-16","experiment","SSHSS","3","odd","33668","NA","NA","116401","NA","NA","4203","115900","4198","NA","NA","117439","117540","117969","117435","117540","Flanker Task","39","23877.0","49","1024"
"80","80","486","486","#000000","legacy","legacy","legacy","congruent","1","undefined","1","s","0","0","0","49","0","0","0","49","0","49","0","49","49","49","49","49","Fri Sep 22 20:27:11 2023","1500","The main experiment item","True","FlankerTask.osexp","C:\Users\Hannah Laskoskie\Downloads","False","mono","False","18","no","white","no","yes","768","legacy","49","49","C:/Users/Hannah Laskoskie/Downloads/HL-subject-3.csv","legacy","Melodramatic Milgram","4.0.5","0","s","NA","NA","h","NA","s","434.0","NA","NA","29464","NA","434","2","legacy","1024","2","48000","-16","experiment","SSSSS","3","odd","33668","NA","NA","117978","NA","NA","4203","115900","4198","NA","NA","119019","119121","119556","119017","119121","Flanker Task","40","24311.0","50","1024"
"80","80","486","486","#000000","legacy","legacy","legacy","congruent","1","undefined","1","h","0","0","0","50","0","0","0","50","0","50","0","50","50","50","50","50","Fri Sep 22 20:27:11 2023","1500","The main experiment item","True","FlankerTask.osexp","C:\Users\Hannah Laskoskie\Downloads","False","mono","False","18","no","white","no","yes","768","legacy","50","50","C:/Users/Hannah Laskoskie/Downloads/HL-subject-3.csv","legacy","Melodramatic Milgram","4.0.5","0","h","NA","NA","h","NA","h","515.0","NA","NA","29464","NA","515","2","legacy","1024","2","48000","-16","experiment","HHHHH","3","odd","33668","NA","NA","119565","NA","NA","4203","115900","4198","NA","NA","120607","120708","121224","120604","120708","Flanker Task","41","24826.0","51","1024"
"80","80","492","492","#000000","legacy","legacy","legacy","incongruent","1","undefined","1","h","0","0","0","51","0","0","0","51","0","51","0","51","51","51","51","51","Fri Sep 22 20:27:11 2023","1500","The main experiment item","True","FlankerTask.osexp","C:\Users\Hannah Laskoskie\Downloads","False","mono","False","18","no","white","no","yes","768","legacy","51","51","C:/Users/Hannah Laskoskie/Downloads/HL-subject-3.csv","legacy","Melodramatic Milgram","4.0.5","0","h","NA","NA","h","NA","h","775.0","NA","NA","29464","NA","775","2","legacy","1024","2","48000","-16","experiment","SSHSS","3","odd","33668","NA","NA","121233","NA","NA","4203","115900","4198","NA","NA","122284","122385","123161","122281","122385","Flanker Task","42","25601.0","52","1024"
"81","81","491","491","#000000","legacy","legacy","legacy","congruent","1","undefined","1","h","0","0","0","52","0","0","0","52","0","52","0","52","52","52","52","52","Fri Sep 22 20:27:11 2023","1500","The main experiment item","True","FlankerTask.osexp","C:\Users\Hannah Laskoskie\Downloads","False","mono","False","18","no","white","no","yes","768","legacy","52","52","C:/Users/Hannah Laskoskie/Downloads/HL-subject-3.csv","legacy","Melodramatic Milgram","4.0.5","0","h","NA","NA","h","NA","h","429.0","NA","NA","29464","NA","429","2","legacy","1024","2","48000","-16","experiment","HHHHH","3","odd","33668","NA","NA","123170","NA","NA","4203","115900","4198","NA","NA","124220","124321","124752","124217","124321","Flanker Task","43","26030.0","53","1024"
"81","81","488","488","#000000","legacy","legacy","legacy","incongruent","1","undefined","1","h","0","0","0","53","0","0","0","53","0","53","0","53","53","53","53","53","Fri Sep 22 20:27:11 2023","1500","The main experiment item","True","FlankerTask.osexp","C:\Users\Hannah Laskoskie\Downloads","False","mono","False","18","no","white","no","yes","768","legacy","53","53","C:/Users/Hannah Laskoskie/Downloads/HL-subject-3.csv","legacy","Melodramatic Milgram","4.0.5","0","h","NA","NA","h","NA","h","358.0","NA","NA","29464","NA","358","2","legacy","1024","2","48000","-16","experiment","SSHSS","3","odd","33668","NA","NA","124761","NA","NA","4203","115900","4198","NA","NA","125827","125929","126288","125823","125928","Flanker Task","44","26388.0","54","1024"
"81","81","487","487","#000000","legacy","legacy","legacy","incongruent","1","undefined","1","h","0","0","0","54","0","0","0","54","0","54","0","54","54","54","54","54","Fri Sep 22 20:27:11 2023","1500","The main experiment item","True","FlankerTask.osexp","C:\Users\Hannah Laskoskie\Downloads","False","mono","False","18","no","white","no","yes","768","legacy","54","54","C:/Users/Hannah Laskoskie/Downloads/HL-subject-3.csv","legacy","Melodramatic Milgram","4.0.5","0","h","NA","NA","h","NA","h","438.0","NA","NA","29464","NA","438","2","legacy","1024","2","48000","-16","experiment","SSHSS","3","odd","33668","NA","NA","126297","NA","NA","4203","115900","4198","NA","NA","127336","127437","127876","127334","127437","Flanker Task","45","26826.0","55","1024"
"82","82","486","486","#000000","legacy","legacy","legacy","incongruent","1","undefined","1","h","0","0","0","55","0","0","0","55","0","55","0","55","55","55","55","55","Fri Sep 22 20:27:11 2023","1500","The main experiment item","True","FlankerTask.osexp","C:\Users\Hannah Laskoskie\Downloads","False","mono","False","18","no","white","no","yes","768","legacy","55","55","C:/Users/Hannah Laskoskie/Downloads/HL-subject-3.csv","legacy","Melodramatic Milgram","4.0.5","0","h","NA","NA","h","NA","h","413.0","NA","NA","29464","NA","413","2","legacy","1024","2","48000","-16","experiment","SSHSS","3","odd","33668","NA","NA","127886","NA","NA","4203","115900","4198","NA","NA","128924","129026","129440","128922","129026","Flanker Task","46","27239.0","56","1024"
"80","80","485","485","#000000","legacy","legacy","legacy","incongruent","0","undefined","0","s","0","0","0","56","0","0","0","56","0","56","0","56","56","56","56","56","Fri Sep 22 20:27:11 2023","1500","The main experiment item","True","FlankerTask.osexp","C:\Users\Hannah Laskoskie\Downloads","False","mono","False","18","no","white","no","yes","768","legacy","56","56","C:/Users/Hannah Laskoskie/Downloads/HL-subject-3.csv","legacy","Melodramatic Milgram","4.0.5","0","h","NA","NA","h","NA","h","444.0","NA","NA","29464","NA","444","2","legacy","1024","2","48000","-16","experiment","HHSHH","3","odd","33668","NA","NA","129444","NA","NA","4203","115900","4198","NA","NA","130480","130581","131026","130478","130581","Flanker Task","46","27683.0","57","1024"
"81","81","487","487","#000000","legacy","legacy","legacy","congruent","1","undefined","1","h","0","0","0","57","0","0","0","57","0","57","0","57","57","57","57","57","Fri Sep 22 20:27:11 2023","1500","The main experiment item","True","FlankerTask.osexp","C:\Users\Hannah Laskoskie\Downloads","False","mono","False","18","no","white","no","yes","768","legacy","57","57","C:/Users/Hannah Laskoskie/Downloads/HL-subject-3.csv","legacy","Melodramatic Milgram","4.0.5","0","h","NA","NA","h","NA","h","618.0","NA","NA","29464","NA","618","2","legacy","1024","2","48000","-16","experiment","HHHHH","3","odd","33668","NA","NA","131536","NA","NA","4203","131035","4198","NA","NA","132573","132674","133294","132570","132674","Flanker Task","47","28301.0","58","1024"
"81","81","486","486","#000000","legacy","legacy","legacy","incongruent","1","undefined","1","h","0","0","0","58","0","0","0","58","0","58","0","58","58","58","58","58","Fri Sep 22 20:27:11 2023","1500","The main experiment item","True","FlankerTask.osexp","C:\Users\Hannah Laskoskie\Downloads","False","mono","False","18","no","white","no","yes","768","legacy","58","58","C:/Users/Hannah Laskoskie/Downloads/HL-subject-3.csv","legacy","Melodramatic Milgram","4.0.5","0","h","NA","NA","h","NA","h","426.0","NA","NA","29464","NA","426","2","legacy","1024","2","48000","-16","experiment","SSHSS","3","odd","33668","NA","NA","133303","NA","NA","4203","131035","4198","NA","NA","134343","134444","134872","134341","134444","Flanker Task","48","28727.0","59","1024"
"81","81","486","486","#000000","legacy","legacy","legacy","incongruent","1","undefined","1","h","0","0","0","59","0","0","0","59","0","59","0","59","59","59","59","59","Fri Sep 22 20:27:11 2023","1500","The main experiment item","True","FlankerTask.osexp","C:\Users\Hannah Laskoskie\Downloads","False","mono","False","18","no","white","no","yes","768","legacy","59","59","C:/Users/Hannah Laskoskie/Downloads/HL-subject-3.csv","legacy","Melodramatic Milgram","4.0.5","0","h","NA","NA","h","NA","h","463.0","NA","NA","29464","NA","463","2","legacy","1024","2","48000","-16","experiment","SSHSS","3","odd","33668","NA","NA","134882","NA","NA","4203","131035","4198","NA","NA","135924","136025","136489","135920","136025","Flanker Task","49","29190.0","60","1024"
"80","80","484","484","#000000","legacy","legacy","legacy","incongruent","0","undefined","0","s","0","0","0","60","0","0","0","60","0","60","0","60","60","60","60","60","Fri Sep 22 20:27:11 2023","1500","The main experiment item","True","FlankerTask.osexp","C:\Users\Hannah Laskoskie\Downloads","False","mono","False","18","no","white","no","yes","768","legacy","60","60","C:/Users/Hannah Laskoskie/Downloads/HL-subject-3.csv","legacy","Melodramatic Milgram","4.0.5","0","h","NA","NA","h","NA","h","391.0","NA","NA","29464","NA","391","2","legacy","1024","2","48000","-16","experiment","HHSHH","3","odd","33668","NA","NA","136498","NA","NA","4203","131035","4198","NA","NA","137542","137643","138035","137540","137643","Flanker Task","49","29581.0","61","1024"
"80","80","493","493","#000000","legacy","legacy","legacy","congruent","1","undefined","1","s","0","0","0","61","0","0","0","61","0","61","0","61","61","61","61","61","Fri Sep 22 20:27:11 2023","1500","The main experiment item","True","FlankerTask.osexp","C:\Users\Hannah Laskoskie\Downloads","False","mono","False","18","no","white","no","yes","768","legacy","61","61","C:/Users/Hannah Laskoskie/Downloads/HL-subject-3.csv","legacy","Melodramatic Milgram","4.0.5","0","s","NA","NA","h","NA","s","994.0","NA","NA","29464","NA","994","2","legacy","1024","2","48000","-16","experiment","SSSSS","3","odd","33668","NA","NA","138546","NA","NA","4203","138045","4198","NA","NA","139589","139690","140685","139585","139690","Flanker Task","50","30575.0","62","1024"
"80","80","494","494","#000000","legacy","legacy","legacy","congruent","1","undefined","1","h","0","0","0","62","0","0","0","62","0","62","0","62","62","62","62","62","Fri Sep 22 20:27:11 2023","1500","The main experiment item","True","FlankerTask.osexp","C:\Users\Hannah Laskoskie\Downloads","False","mono","False","18","no","white","no","yes","768","legacy","62","62","C:/Users/Hannah Laskoskie/Downloads/HL-subject-3.csv","legacy","Melodramatic Milgram","4.0.5","0","h","NA","NA","h","NA","h","566.0","NA","NA","29464","NA","566","2","legacy","1024","2","48000","-16","experiment","HHHHH","3","odd","33668","NA","NA","140689","NA","NA","4203","138045","4198","NA","NA","141764","141866","142433","141761","141866","Flanker Task","51","31141.0","63","1024"
"81","81","498","498","#000000","legacy","legacy","legacy","congruent","1","undefined","1","s","0","0","0","63","0","0","0","63","0","63","0","63","63","63","63","63","Fri Sep 22 20:27:11 2023","1500","The main experiment item","True","FlankerTask.osexp","C:\Users\Hannah Laskoskie\Downloads","False","mono","False","18","no","white","no","yes","768","legacy","63","63","C:/Users/Hannah Laskoskie/Downloads/HL-subject-3.csv","legacy","Melodramatic Milgram","4.0.5","0","s","NA","NA","h","NA","s","787.0","NA","NA","29464","NA","787","2","legacy","1024","2","48000","-16","experiment","SSSSS","3","odd","33668","NA","NA","142442","NA","NA","4203","138045","4198","NA","NA","143491","143592","144380","143488","143592","Flanker Task","52","31928.0","64","1024"
"81","81","500","500","#000000","legacy","legacy","legacy","incongruent","1","undefined","1","h","0","0","0","64","0","0","0","64","0","64","0","64","64","64","64","64","Fri Sep 22 20:27:11 2023","1500","The main experiment item","True","FlankerTask.osexp","C:\Users\Hannah Laskoskie\Downloads","False","mono","False","18","no","white","no","yes","768","legacy","64","64","C:/Users/Hannah Laskoskie/Downloads/HL-subject-3.csv","legacy","Melodramatic Milgram","4.0.5","0","h","NA","NA","h","NA","h","596.0","NA","NA","29464","NA","596","2","legacy","1024","2","48000","-16","experiment","SSHSS","3","odd","33668","NA","NA","144384","NA","NA","4203","138045","4198","NA","NA","145422","145523","146120","145419","145523","Flanker Task","53","32524.0","65","1024"
"81","81","502","502","#000000","legacy","legacy","legacy","incongruent","1","undefined","1","h","0","0","0","65","0","0","0","65","0","65","0","65","65","65","65","65","Fri Sep 22 20:27:11 2023","1500","The main experiment item","True","FlankerTask.osexp","C:\Users\Hannah Laskoskie\Downloads","False","mono","False","18","no","white","no","yes","768","legacy","65","65","C:/Users/Hannah Laskoskie/Downloads/HL-subject-3.csv","legacy","Melodramatic Milgram","4.0.5","0","h","NA","NA","h","NA","h","671.0","NA","NA","29464","NA","671","2","legacy","1024","2","48000","-16","experiment","SSHSS","3","odd","33668","NA","NA","146129","NA","NA","4203","138045","4198","NA","NA","147170","147271","147943","147167","147271","Flanker Task","54","33195.0","66","1024"
"82","82","503","503","#000000","legacy","legacy","legacy","incongruent","1","undefined","1","h","0","0","0","66","0","0","0","66","0","66","0","66","66","66","66","66","Fri Sep 22 20:27:11 2023","1500","The main experiment item","True","FlankerTask.osexp","C:\Users\Hannah Laskoskie\Downloads","False","mono","False","18","no","white","no","yes","768","legacy","66","66","C:/Users/Hannah Laskoskie/Downloads/HL-subject-3.csv","legacy","Melodramatic Milgram","4.0.5","0","h","NA","NA","h","NA","h","522.0","NA","NA","29464","NA","522","2","legacy","1024","2","48000","-16","experiment","SSHSS","3","odd","33668","NA","NA","147953","NA","NA","4203","138045","4198","NA","NA","148991","149092","149615","148988","149092","Flanker Task","55","33717.0","67","1024"
"82","82","502","502","#000000","legacy","legacy","legacy","congruent","1","undefined","1","s","0","0","0","67","0","0","0","67","0","67","0","67","67","67","67","67","Fri Sep 22 20:27:11 2023","1500","The main experiment item","True","FlankerTask.osexp","C:\Users\Hannah Laskoskie\Downloads","False","mono","False","18","no","white","no","yes","768","legacy","67","67","C:/Users/Hannah Laskoskie/Downloads/HL-subject-3.csv","legacy","Melodramatic Milgram","4.0.5","0","s","NA","NA","h","NA","s","484.0","NA","NA","29464","NA","484","2","legacy","1024","2","48000","-16","experiment","SSSSS","3","odd","33668","NA","NA","149624","NA","NA","4203","138045","4198","NA","NA","150664","150765","151251","150662","150765","Flanker Task","56","34201.0","68","1024"
"82","82","503","503","#000000","legacy","legacy","legacy","incongruent","1","undefined","1","s","0","0","0","68","0","0","0","68","0","68","0","68","68","68","68","68","Fri Sep 22 20:27:11 2023","1500","The main experiment item","True","FlankerTask.osexp","C:\Users\Hannah Laskoskie\Downloads","False","mono","False","18","no","white","no","yes","768","legacy","68","68","C:/Users/Hannah Laskoskie/Downloads/HL-subject-3.csv","legacy","Melodramatic Milgram","4.0.5","0","s","NA","NA","h","NA","s","545.0","NA","NA","29464","NA","545","2","legacy","1024","2","48000","-16","experiment","HHSHH","3","odd","33668","NA","NA","151254","NA","NA","4203","138045","4198","NA","NA","152294","152395","152942","152291","152395","Flanker Task","57","34746.0","69","1024"
"82","82","501","501","#000000","legacy","legacy","legacy","congruent","1","undefined","1","s","0","0","0","69","0","0","0","69","0","69","0","69","69","69","69","69","Fri Sep 22 20:27:11 2023","1500","The main experiment item","True","FlankerTask.osexp","C:\Users\Hannah Laskoskie\Downloads","False","mono","False","18","no","white","no","yes","768","legacy","69","69","C:/Users/Hannah Laskoskie/Downloads/HL-subject-3.csv","legacy","Melodramatic Milgram","4.0.5","0","s","NA","NA","h","NA","s","389.0","NA","NA","29464","NA","389","2","legacy","1024","2","48000","-16","experiment","SSSSS","3","odd","33668","NA","NA","152945","NA","NA","4203","138045","4198","NA","NA","153984","154085","154475","153982","154085","Flanker Task","58","35135.0","70","1024"
"83","83","502","502","#000000","legacy","legacy","legacy","congruent","1","undefined","1","h","0","0","0","70","0","0","0","70","0","70","0","70","70","70","70","70","Fri Sep 22 20:27:11 2023","1500","The main experiment item","True","FlankerTask.osexp","C:\Users\Hannah Laskoskie\Downloads","False","mono","False","18","no","white","no","yes","768","legacy","70","70","C:/Users/Hannah Laskoskie/Downloads/HL-subject-3.csv","legacy","Melodramatic Milgram","4.0.5","0","h","NA","NA","h","NA","h","508.0","NA","NA","29464","NA","508","2","legacy","1024","2","48000","-16","experiment","HHHHH","3","odd","33668","NA","NA","154484","NA","NA","4203","138045","4198","NA","NA","155525","155626","156135","155522","155626","Flanker Task","59","35643.0","71","1024"
"83","83","501","501","#000000","legacy","legacy","legacy","incongruent","1","undefined","1","h","0","0","0","71","0","0","0","71","0","71","0","71","71","71","71","71","Fri Sep 22 20:27:11 2023","1500","The main experiment item","True","FlankerTask.osexp","C:\Users\Hannah Laskoskie\Downloads","False","mono","False","18","no","white","no","yes","768","legacy","71","71","C:/Users/Hannah Laskoskie/Downloads/HL-subject-3.csv","legacy","Melodramatic Milgram","4.0.5","0","h","NA","NA","h","NA","h","463.0","NA","NA","29464","NA","463","2","legacy","1024","2","48000","-16","experiment","SSHSS","3","odd","33668","NA","NA","156145","NA","NA","4203","138045","4198","NA","NA","157198","157300","157765","157196","157300","Flanker Task","60","36106.0","72","1024"
"82","82","500","500","#000000","legacy","legacy","legacy","incongruent","0","undefined","0","s","0","0","0","72","0","0","0","72","0","72","0","72","72","72","72","72","Fri Sep 22 20:27:11 2023","1500","The main experiment item","True","FlankerTask.osexp","C:\Users\Hannah Laskoskie\Downloads","False","mono","False","18","no","white","no","yes","768","legacy","72","72","C:/Users/Hannah Laskoskie/Downloads/HL-subject-3.csv","legacy","Melodramatic Milgram","4.0.5","0","h","NA","NA","h","NA","h","418.0","NA","NA","29464","NA","418","2","legacy","1024","2","48000","-16","experiment","HHSHH","3","odd","33668","NA","NA","157774","NA","NA","4203","138045","4198","NA","NA","158813","158914","159333","158810","158914","Flanker Task","60","36524.0","73","1024"
"82","82","499","499","#000000","legacy","legacy","legacy","incongruent","1","undefined","1","s","0","0","0","73","0","0","0","73","0","73","0","73","73","73","73","73","Fri Sep 22 20:27:11 2023","1500","The main experiment item","True","FlankerTask.osexp","C:\Users\Hannah Laskoskie\Downloads","False","mono","False","18","no","white","no","yes","768","legacy","73","73","C:/Users/Hannah Laskoskie/Downloads/HL-subject-3.csv","legacy","Melodramatic Milgram","4.0.5","0","s","NA","NA","h","NA","s","462.0","NA","NA","29464","NA","462","2","legacy","1024","2","48000","-16","experiment","HHSHH","3","odd","33668","NA","NA","159843","NA","NA","4203","159342","4198","NA","NA","160880","160981","161444","160878","160981","Flanker Task","61","36986.0","74","1024"
"82","82","499","499","#000000","legacy","legacy","legacy","congruent","1","undefined","1","h","0","0","0","74","0","0","0","74","0","74","0","74","74","74","74","74","Fri Sep 22 20:27:11 2023","1500","The main experiment item","True","FlankerTask.osexp","C:\Users\Hannah Laskoskie\Downloads","False","mono","False","18","no","white","no","yes","768","legacy","74","74","C:/Users/Hannah Laskoskie/Downloads/HL-subject-3.csv","legacy","Melodramatic Milgram","4.0.5","0","h","NA","NA","h","NA","h","459.0","NA","NA","29464","NA","459","2","legacy","1024","2","48000","-16","experiment","HHHHH","3","odd","33668","NA","NA","161448","NA","NA","4203","159342","4198","NA","NA","162488","162589","163050","162485","162589","Flanker Task","62","37445.0","75","1024"
"82","82","499","499","#000000","legacy","legacy","legacy","incongruent","1","undefined","1","s","0","0","0","75","0","0","0","75","0","75","0","75","75","75","75","75","Fri Sep 22 20:27:11 2023","1500","The main experiment item","True","FlankerTask.osexp","C:\Users\Hannah Laskoskie\Downloads","False","mono","False","18","no","white","no","yes","768","legacy","75","75","C:/Users/Hannah Laskoskie/Downloads/HL-subject-3.csv","legacy","Melodramatic Milgram","4.0.5","0","s","NA","NA","h","NA","s","550.0","NA","NA","29464","NA","550","2","legacy","1024","2","48000","-16","experiment","HHSHH","3","odd","33668","NA","NA","163058","NA","NA","4203","159342","4198","NA","NA","164099","164200","164751","164096","164200","Flanker Task","63","37995.0","76","1024"
"83","83","502","502","#000000","legacy","legacy","legacy","incongruent","1","undefined","1","h","0","0","0","76","0","0","0","76","0","76","0","76","76","76","76","76","Fri Sep 22 20:27:11 2023","1500","The main experiment item","True","FlankerTask.osexp","C:\Users\Hannah Laskoskie\Downloads","False","mono","False","18","no","white","no","yes","768","legacy","76","76","C:/Users/Hannah Laskoskie/Downloads/HL-subject-3.csv","legacy","Melodramatic Milgram","4.0.5","0","h","NA","NA","h","NA","h","666.0","NA","NA","29464","NA","666","2","legacy","1024","2","48000","-16","experiment","SSHSS","3","odd","33668","NA","NA","164760","NA","NA","4203","159342","4198","NA","NA","165803","165904","166572","165800","165904","Flanker Task","64","38661.0","77","1024"
"83","83","502","502","#000000","legacy","legacy","legacy","congruent","1","undefined","1","s","0","0","0","77","0","0","0","77","0","77","0","77","77","77","77","77","Fri Sep 22 20:27:11 2023","1500","The main experiment item","True","FlankerTask.osexp","C:\Users\Hannah Laskoskie\Downloads","False","mono","False","18","no","white","no","yes","768","legacy","77","77","C:/Users/Hannah Laskoskie/Downloads/HL-subject-3.csv","legacy","Melodramatic Milgram","4.0.5","0","s","NA","NA","h","NA","s","522.0","NA","NA","29464","NA","522","2","legacy","1024","2","48000","-16","experiment","SSSSS","3","odd","33668","NA","NA","166581","NA","NA","4203","159342","4198","NA","NA","167620","167722","168245","167618","167722","Flanker Task","65","39183.0","78","1024"
"83","83","502","502","#000000","legacy","legacy","legacy","incongruent","1","undefined","1","h","0","0","0","78","0","0","0","78","0","78","0","78","78","78","78","78","Fri Sep 22 20:27:11 2023","1500","The main experiment item","True","FlankerTask.osexp","C:\Users\Hannah Laskoskie\Downloads","False","mono","False","18","no","white","no","yes","768","legacy","78","78","C:/Users/Hannah Laskoskie/Downloads/HL-subject-3.csv","legacy","Melodramatic Milgram","4.0.5","0","h","NA","NA","h","NA","h","479.0","NA","NA","29464","NA","479","2","legacy","1024","2","48000","-16","experiment","SSHSS","3","odd","33668","NA","NA","168254","NA","NA","4203","159342","4198","NA","NA","169292","169393","169874","169290","169393","Flanker Task","66","39662.0","79","1024"
"83","83","500","500","#000000","legacy","legacy","legacy","congruent","1","undefined","1","h","0","0","0","79","0","0","0","79","0","79","0","79","79","79","79","79","Fri Sep 22 20:27:11 2023","1500","The main experiment item","True","FlankerTask.osexp","C:\Users\Hannah Laskoskie\Downloads","False","mono","False","18","no","white","no","yes","768","legacy","79","79","C:/Users/Hannah Laskoskie/Downloads/HL-subject-3.csv","legacy","Melodramatic Milgram","4.0.5","0","h","NA","NA","h","NA","h","400.0","NA","NA","29464","NA","400","2","legacy","1024","2","48000","-16","experiment","HHHHH","3","odd","33668","NA","NA","169883","NA","NA","4203","159342","4198","NA","NA","170925","171027","171428","170922","171027","Flanker Task","67","40062.0","80","1024"
"83","83","499","499","#000000","legacy","legacy","legacy","congruent","1","undefined","1","h","0","0","0","80","0","0","0","80","0","80","0","80","80","80","80","80","Fri Sep 22 20:27:11 2023","600","The main experiment item","True","FlankerTask.osexp","C:\Users\Hannah Laskoskie\Downloads","False","mono","False","18","no","white","no","yes","768","legacy","0","79","C:/Users/Hannah Laskoskie/Downloads/HL-subject-3.csv","legacy","Melodramatic Milgram","4.0.5","0","h","h","NA","h","NA","h","434.0","25565","NA","29464","NA","434","2","legacy","1024","2","48000","-16","experiment","HHHHH","3","odd","33668","198005","NA","171438","172439","NA","4203","159342","4198","NA","NA","198043","198144","198580","198042","198143","Flanker Task","68","40496.0","81","1024"
"82","82","499","499","#000000","legacy","legacy","legacy","incongruent","0","undefined","0","h","0","0","0","81","0","0","0","81","0","81","0","81","81","81","81","81","Fri Sep 22 20:27:11 2023","600","The main experiment item","True","FlankerTask.osexp","C:\Users\Hannah Laskoskie\Downloads","False","mono","False","18","no","white","no","yes","768","legacy","1","79","C:/Users/Hannah Laskoskie/Downloads/HL-subject-3.csv","legacy","Melodramatic Milgram","4.0.5","0","s","h","NA","h","NA","s","454.0","25565","NA","29464","NA","454","2","legacy","1024","2","48000","-16","experiment","SSHSS","3","odd","33668","198005","NA","198583","172439","NA","4203","159342","4198","NA","NA","199622","199723","200178","199619","199723","Flanker Task","68","40950.0","82","1024"
"83","83","499","499","#000000","legacy","legacy","legacy","congruent","1","undefined","1","s","0","0","0","82","0","0","0","82","0","82","0","82","82","82","82","82","Fri Sep 22 20:27:11 2023","600","The main experiment item","True","FlankerTask.osexp","C:\Users\Hannah Laskoskie\Downloads","False","mono","False","18","no","white","no","yes","768","legacy","2","79","C:/Users/Hannah Laskoskie/Downloads/HL-subject-3.csv","legacy","Melodramatic Milgram","4.0.5","0","s","h","NA","h","NA","s","469.0","25565","NA","29464","NA","469","2","legacy","1024","2","48000","-16","experiment","SSSSS","3","odd","33668","198005","NA","200688","172439","NA","4203","200187","4198","NA","NA","201725","201826","202297","201723","201826","Flanker Task","69","41419.0","83","1024"
"83","83","497","497","#000000","legacy","legacy","legacy","congruent","1","undefined","1","h","0","0","0","83","0","0","0","83","0","83","0","83","83","83","83","83","Fri Sep 22 20:27:11 2023","600","The main experiment item","True","FlankerTask.osexp","C:\Users\Hannah Laskoskie\Downloads","False","mono","False","18","no","white","no","yes","768","legacy","3","79","C:/Users/Hannah Laskoskie/Downloads/HL-subject-3.csv","legacy","Melodramatic Milgram","4.0.5","0","h","h","NA","h","NA","h","341.0","25565","NA","29464","NA","341","2","legacy","1024","2","48000","-16","experiment","HHHHH","3","odd","33668","198005","NA","202306","172439","NA","4203","200187","4198","NA","NA","203343","203444","203786","203340","203444","Flanker Task","70","41760.0","84","1024"
"83","83","496","496","#000000","legacy","legacy","legacy","incongruent","1","undefined","1","h","0","0","0","84","0","0","0","84","0","84","0","84","84","84","84","84","Fri Sep 22 20:27:11 2023","600","The main experiment item","True","FlankerTask.osexp","C:\Users\Hannah Laskoskie\Downloads","False","mono","False","18","no","white","no","yes","768","legacy","4","79","C:/Users/Hannah Laskoskie/Downloads/HL-subject-3.csv","legacy","Melodramatic Milgram","4.0.5","0","h","h","NA","h","NA","h","428.0","25565","NA","29464","NA","428","2","legacy","1024","2","48000","-16","experiment","SSHSS","3","odd","33668","198005","NA","203795","172439","NA","4203","200187","4198","NA","NA","204832","204933","205363","204829","204933","Flanker Task","71","42188.0","85","1024"
"83","83","495","495","#000000","legacy","legacy","legacy","incongruent","1","undefined","1","h","0","0","0","85","0","0","0","85","0","85","0","85","85","85","85","85","Fri Sep 22 20:27:11 2023","600","The main experiment item","True","FlankerTask.osexp","C:\Users\Hannah Laskoskie\Downloads","False","mono","False","18","no","white","no","yes","768","legacy","5","79","C:/Users/Hannah Laskoskie/Downloads/HL-subject-3.csv","legacy","Melodramatic Milgram","4.0.5","0","h","h","NA","h","NA","h","451.0","25565","NA","29464","NA","451","2","legacy","1024","2","48000","-16","experiment","SSHSS","3","odd","33668","198005","NA","205372","172439","NA","4203","200187","4198","NA","NA","206415","206516","206969","206412","206516","Flanker Task","72","42639.0","86","1024"
"82","82","494","494","#000000","legacy","legacy","legacy","incongruent","0","undefined","0","s","0","0","0","86","0","0","0","86","0","86","0","86","86","86","86","86","Fri Sep 22 20:27:11 2023","600","The main experiment item","True","FlankerTask.osexp","C:\Users\Hannah Laskoskie\Downloads","False","mono","False","18","no","white","no","yes","768","legacy","6","79","C:/Users/Hannah Laskoskie/Downloads/HL-subject-3.csv","legacy","Melodramatic Milgram","4.0.5","0","h","h","NA","h","NA","h","350.0","25565","NA","29464","NA","350","2","legacy","1024","2","48000","-16","experiment","HHSHH","3","odd","33668","198005","NA","206978","172439","NA","4203","200187","4198","NA","NA","208018","208120","208472","208016","208120","Flanker Task","72","42989.0","87","1024"
"82","82","494","494","#000000","legacy","legacy","legacy","incongruent","1","undefined","1","s","0","0","0","87","0","0","0","87","0","87","0","87","87","87","87","87","Fri Sep 22 20:27:11 2023","600","The main experiment item","True","FlankerTask.osexp","C:\Users\Hannah Laskoskie\Downloads","False","mono","False","18","no","white","no","yes","768","legacy","7","79","C:/Users/Hannah Laskoskie/Downloads/HL-subject-3.csv","legacy","Melodramatic Milgram","4.0.5","0","s","h","NA","h","NA","s","504.0","25565","NA","29464","NA","504","2","legacy","1024","2","48000","-16","experiment","HHSHH","3","odd","33668","198005","NA","208982","172439","NA","4203","208481","4198","NA","NA","210029","210130","210636","210027","210130","Flanker Task","73","43493.0","88","1024"
"83","83","496","496","#000000","legacy","legacy","legacy","congruent","1","undefined","1","s","0","0","0","88","0","0","0","88","0","88","0","88","88","88","88","88","Fri Sep 22 20:27:11 2023","600","The main experiment item","True","FlankerTask.osexp","C:\Users\Hannah Laskoskie\Downloads","False","mono","False","18","no","white","no","yes","768","legacy","8","79","C:/Users/Hannah Laskoskie/Downloads/HL-subject-3.csv","legacy","Melodramatic Milgram","4.0.5","0","s","h","NA","h","NA","s","738.0","25565","NA","29464","NA","738","2","legacy","1024","2","48000","-16","experiment","SSSSS","3","odd","33668","198005","NA","210645","172439","NA","4203","208481","4198","NA","NA","211682","211783","212522","211680","211783","Flanker Task","74","44231.0","89","1024"
"83","83","496","496","#000000","legacy","legacy","legacy","congruent","1","undefined","1","h","0","0","0","89","0","0","0","89","0","89","0","89","89","89","89","89","Fri Sep 22 20:27:11 2023","600","The main experiment item","True","FlankerTask.osexp","C:\Users\Hannah Laskoskie\Downloads","False","mono","False","18","no","white","no","yes","768","legacy","9","79","C:/Users/Hannah Laskoskie/Downloads/HL-subject-3.csv","legacy","Melodramatic Milgram","4.0.5","0","h","h","NA","h","NA","h","481.0","25565","NA","29464","NA","481","2","legacy","1024","2","48000","-16","experiment","HHHHH","3","odd","33668","198005","NA","213028","172439","NA","4203","208481","4198","212527","NA","214064","214165","214648","214062","214165","Flanker Task","75","44712.0","90","1024"
"82","82","495","495","#000000","legacy","legacy","legacy","incongruent","0","undefined","0","s","0","0","0","90","0","0","0","90","0","90","0","90","90","90","90","90","Fri Sep 22 20:27:11 2023","600","The main experiment item","True","FlankerTask.osexp","C:\Users\Hannah Laskoskie\Downloads","False","mono","False","18","no","white","no","yes","768","legacy","10","79","C:/Users/Hannah Laskoskie/Downloads/HL-subject-3.csv","legacy","Melodramatic Milgram","4.0.5","0","h","h","NA","h","NA","h","379.0","25565","NA","29464","NA","379","2","legacy","1024","2","48000","-16","experiment","HHSHH","3","odd","33668","198005","NA","214657","172439","NA","4203","208481","4198","212527","NA","215695","215796","216176","215693","215796","Flanker Task","75","45091.0","91","1024"
"82","82","496","496","#000000","legacy","legacy","legacy","congruent","1","undefined","1","s","0","0","0","91","0","0","0","91","0","91","0","91","91","91","91","91","Fri Sep 22 20:27:11 2023","600","The main experiment item","True","FlankerTask.osexp","C:\Users\Hannah Laskoskie\Downloads","False","mono","False","18","no","white","no","yes","768","legacy","11","79","C:/Users/Hannah Laskoskie/Downloads/HL-subject-3.csv","legacy","Melodramatic Milgram","4.0.5","0","s","h","NA","h","NA","s","564.0","25565","NA","29464","NA","564","2","legacy","1024","2","48000","-16","experiment","SSSSS","3","odd","33668","198005","NA","216680","172439","NA","4203","216179","4198","212527","NA","217716","217817","218382","217714","217817","Flanker Task","76","45655.0","92","1024"
"82","82","499","499","#000000","legacy","legacy","legacy","congruent","1","undefined","1","s","0","0","0","92","0","0","0","92","0","92","0","92","92","92","92","92","Fri Sep 22 20:27:11 2023","600","The main experiment item","True","FlankerTask.osexp","C:\Users\Hannah Laskoskie\Downloads","False","mono","False","18","no","white","no","yes","768","legacy","12","79","C:/Users/Hannah Laskoskie/Downloads/HL-subject-3.csv","legacy","Melodramatic Milgram","4.0.5","0","s","h","NA","h","NA","s","814.0","25565","NA","29464","NA","814","2","legacy","1024","2","48000","-16","experiment","SSSSS","3","odd","33668","198005","NA","218391","172439","NA","4203","216179","4198","212527","NA","219433","219534","220349","219431","219534","Flanker Task","77","46469.0","93","1024"
"82","82","499","499","#000000","legacy","legacy","legacy","incongruent","1","undefined","1","s","0","0","0","93","0","0","0","93","0","93","0","93","93","93","93","93","Fri Sep 22 20:27:11 2023","600","The main experiment item","True","FlankerTask.osexp","C:\Users\Hannah Laskoskie\Downloads","False","mono","False","18","no","white","no","yes","768","legacy","13","79","C:/Users/Hannah Laskoskie/Downloads/HL-subject-3.csv","legacy","Melodramatic Milgram","4.0.5","0","s","h","NA","h","NA","s","514.0","25565","NA","29464","NA","514","2","legacy","1024","2","48000","-16","experiment","HHSHH","3","odd","33668","198005","NA","220854","172439","NA","4203","216179","4198","220353","NA","221893","221994","222510","221890","221994","Flanker Task","78","46983.0","94","1024"
"82","82","500","500","#000000","legacy","legacy","legacy","congruent","0","undefined","0","h","0","0","0","94","0","0","0","94","0","94","0","94","94","94","94","94","Fri Sep 22 20:27:11 2023","600","The main experiment item","True","FlankerTask.osexp","C:\Users\Hannah Laskoskie\Downloads","False","mono","False","18","no","white","no","yes","768","legacy","14","79","C:/Users/Hannah Laskoskie/Downloads/HL-subject-3.csv","legacy","Melodramatic Milgram","4.0.5","0","s","h","NA","h","NA","s","529.0","25565","NA","29464","NA","529","2","legacy","1024","2","48000","-16","experiment","HHHHH","3","odd","33668","198005","NA","222518","172439","NA","4203","216179","4198","220353","NA","223561","223662","224193","223559","223662","Flanker Task","78","47512.0","95","1024"
"82","82","499","499","#000000","legacy","legacy","legacy","incongruent","1","undefined","1","s","0","0","0","95","0","0","0","95","0","95","0","95","95","95","95","95","Fri Sep 22 20:27:11 2023","600","The main experiment item","True","FlankerTask.osexp","C:\Users\Hannah Laskoskie\Downloads","False","mono","False","18","no","white","no","yes","768","legacy","15","79","C:/Users/Hannah Laskoskie/Downloads/HL-subject-3.csv","legacy","Melodramatic Milgram","4.0.5","0","s","h","NA","h","NA","s","463.0","25565","NA","29464","NA","463","2","legacy","1024","2","48000","-16","experiment","HHSHH","3","odd","33668","198005","NA","224703","172439","NA","4203","224202","4198","220353","NA","225744","225845","226309","225741","225845","Flanker Task","79","47975.0","96","1024"
"81","81","498","498","#000000","legacy","legacy","legacy","incongruent","0","undefined","0","h","0","0","0","96","0","0","0","96","0","96","0","96","96","96","96","96","Fri Sep 22 20:27:11 2023","600","The main experiment item","True","FlankerTask.osexp","C:\Users\Hannah Laskoskie\Downloads","False","mono","False","18","no","white","no","yes","768","legacy","16","79","C:/Users/Hannah Laskoskie/Downloads/HL-subject-3.csv","legacy","Melodramatic Milgram","4.0.5","0","s","h","NA","h","NA","s","384.0","25565","NA","29464","NA","384","2","legacy","1024","2","48000","-16","experiment","SSHSS","3","odd","33668","198005","NA","226321","172439","NA","4203","224202","4198","220353","NA","227370","227471","227856","227368","227471","Flanker Task","79","48359.0","97","1024"
"81","81","496","496","#000000","legacy","legacy","legacy","congruent","1","undefined","1","h","0","0","0","97","0","0","0","97","0","97","0","97","97","97","97","97","Fri Sep 22 20:27:11 2023","600","The main experiment item","True","FlankerTask.osexp","C:\Users\Hannah Laskoskie\Downloads","False","mono","False","18","no","white","no","yes","768","legacy","17","79","C:/Users/Hannah Laskoskie/Downloads/HL-subject-3.csv","legacy","Melodramatic Milgram","4.0.5","0","h","h","NA","h","NA","h","322.0","25565","NA","29464","NA","322","2","legacy","1024","2","48000","-16","experiment","HHHHH","3","odd","33668","198005","NA","228366","172439","NA","4203","227865","4198","220353","NA","229401","229502","229825","229399","229502","Flanker Task","80","48681.0","98","1024"
"81","81","496","496","#000000","legacy","legacy","legacy","incongruent","1","undefined","1","s","0","0","0","98","0","0","0","98","0","98","0","98","98","98","98","98","Fri Sep 22 20:27:11 2023","600","The main experiment item","True","FlankerTask.osexp","C:\Users\Hannah Laskoskie\Downloads","False","mono","False","18","no","white","no","yes","768","legacy","18","79","C:/Users/Hannah Laskoskie/Downloads/HL-subject-3.csv","legacy","Melodramatic Milgram","4.0.5","0","s","h","NA","h","NA","s","484.0","25565","NA","29464","NA","484","2","legacy","1024","2","48000","-16","experiment","HHSHH","3","odd","33668","198005","NA","229835","172439","NA","4203","227865","4198","220353","NA","230874","230975","231460","230872","230975","Flanker Task","81","49165.0","99","1024"
"82","82","496","496","#000000","legacy","legacy","legacy","congruent","1","undefined","1","h","0","0","0","99","0","0","0","99","0","99","0","99","99","99","99","99","Fri Sep 22 20:27:11 2023","600","The main experiment item","True","FlankerTask.osexp","C:\Users\Hannah Laskoskie\Downloads","False","mono","False","18","no","white","no","yes","768","legacy","19","79","C:/Users/Hannah Laskoskie/Downloads/HL-subject-3.csv","legacy","Melodramatic Milgram","4.0.5","0","h","h","NA","h","NA","h","457.0","25565","NA","29464","NA","457","2","legacy","1024","2","48000","-16","experiment","HHHHH","3","odd","33668","198005","NA","231464","172439","NA","4203","227865","4198","220353","NA","232506","232607","233065","232502","232607","Flanker Task","82","49622.0","100","1024"
"82","82","495","495","#000000","legacy","legacy","legacy","congruent","1","undefined","1","s","0","0","0","100","0","0","0","100","0","100","0","100","100","100","100","100","Fri Sep 22 20:27:11 2023","600","The main experiment item","True","FlankerTask.osexp","C:\Users\Hannah Laskoskie\Downloads","False","mono","False","18","no","white","no","yes","768","legacy","20","79","C:/Users/Hannah Laskoskie/Downloads/HL-subject-3.csv","legacy","Melodramatic Milgram","4.0.5","0","s","h","NA","h","NA","s","418.0","25565","NA","29464","NA","418","2","legacy","1024","2","48000","-16","experiment","SSSSS","3","odd","33668","198005","NA","233075","172439","NA","4203","227865","4198","220353","NA","234114","234215","234634","234112","234215","Flanker Task","83","50040.0","101","1024"
"82","82","494","494","#000000","legacy","legacy","legacy","congruent","1","undefined","1","s","0","0","0","101","0","0","0","101","0","101","0","101","101","101","101","101","Fri Sep 22 20:27:11 2023","600","The main experiment item","True","FlankerTask.osexp","C:\Users\Hannah Laskoskie\Downloads","False","mono","False","18","no","white","no","yes","768","legacy","21","79","C:/Users/Hannah Laskoskie/Downloads/HL-subject-3.csv","legacy","Melodramatic Milgram","4.0.5","0","s","h","NA","h","NA","s","378.0","25565","NA","29464","NA","378","2","legacy","1024","2","48000","-16","experiment","SSSSS","3","odd","33668","198005","NA","234643","172439","NA","4203","227865","4198","220353","NA","235685","235786","236165","235682","235786","Flanker Task","84","50418.0","102","1024"
"82","82","493","493","#000000","legacy","legacy","legacy","congruent","1","undefined","1","s","0","0","0","102","0","0","0","102","0","102","0","102","102","102","102","102","Fri Sep 22 20:27:11 2023","600","The main experiment item","True","FlankerTask.osexp","C:\Users\Hannah Laskoskie\Downloads","False","mono","False","18","no","white","no","yes","768","legacy","22","79","C:/Users/Hannah Laskoskie/Downloads/HL-subject-3.csv","legacy","Melodramatic Milgram","4.0.5","0","s","h","NA","h","NA","s","414.0","25565","NA","29464","NA","414","2","legacy","1024","2","48000","-16","experiment","SSSSS","3","odd","33668","198005","NA","236168","172439","NA","4203","227865","4198","220353","NA","237209","237311","237726","237207","237310","Flanker Task","85","50832.0","103","1024"
"82","82","492","492","#000000","legacy","legacy","legacy","congruent","1","undefined","1","s","0","0","0","103","0","0","0","103","0","103","0","103","103","103","103","103","Fri Sep 22 20:27:11 2023","600","The main experiment item","True","FlankerTask.osexp","C:\Users\Hannah Laskoskie\Downloads","False","mono","False","18","no","white","no","yes","768","legacy","23","79","C:/Users/Hannah Laskoskie/Downloads/HL-subject-3.csv","legacy","Melodramatic Milgram","4.0.5","0","s","h","NA","h","NA","s","355.0","25565","NA","29464","NA","355","2","legacy","1024","2","48000","-16","experiment","SSSSS","3","odd","33668","198005","NA","237735","172439","NA","4203","227865","4198","220353","NA","238777","238878","239235","238774","238878","Flanker Task","86","51187.0","104","1024"
"82","82","495","495","#000000","legacy","legacy","legacy","incongruent","1","undefined","1","h","0","0","0","104","0","0","0","104","0","104","0","104","104","104","104","104","Fri Sep 22 20:27:11 2023","600","The main experiment item","True","FlankerTask.osexp","C:\Users\Hannah Laskoskie\Downloads","False","mono","False","18","no","white","no","yes","768","legacy","24","79","C:/Users/Hannah Laskoskie/Downloads/HL-subject-3.csv","legacy","Melodramatic Milgram","4.0.5","0","h","h","NA","h","NA","h","833.0","25565","NA","29464","NA","833","2","legacy","1024","2","48000","-16","experiment","SSHSS","3","odd","33668","198005","NA","239240","172439","NA","4203","227865","4198","220353","NA","240280","240381","241216","240277","240381","Flanker Task","87","52020.0","105","1024"
"83","83","493","493","#000000","legacy","legacy","legacy","congruent","1","undefined","1","s","0","0","0","105","0","0","0","105","0","105","0","105","105","105","105","105","Fri Sep 22 20:27:11 2023","600","The main experiment item","True","FlankerTask.osexp","C:\Users\Hannah Laskoskie\Downloads","False","mono","False","18","no","white","no","yes","768","legacy","25","79","C:/Users/Hannah Laskoskie/Downloads/HL-subject-3.csv","legacy","Melodramatic Milgram","4.0.5","0","s","h","NA","h","NA","s","337.0","25565","NA","29464","NA","337","2","legacy","1024","2","48000","-16","experiment","SSSSS","3","odd","33668","198005","NA","241726","172439","NA","4203","227865","4198","241225","NA","242772","242873","243212","242769","242873","Flanker Task","88","52357.0","106","1024"
"82","82","493","493","#000000","legacy","legacy","legacy","incongruent","0","undefined","0","s","0","0","0","106","0","0","0","106","0","106","0","106","106","106","106","106","Fri Sep 22 20:27:11 2023","600","The main experiment item","True","FlankerTask.osexp","C:\Users\Hannah Laskoskie\Downloads","False","mono","False","18","no","white","no","yes","768","legacy","26","79","C:/Users/Hannah Laskoskie/Downloads/HL-subject-3.csv","legacy","Melodramatic Milgram","4.0.5","0","h","h","NA","h","NA","h","418.0","25565","NA","29464","NA","418","2","legacy","1024","2","48000","-16","experiment","HHSHH","3","odd","33668","198005","NA","243221","172439","NA","4203","227865","4198","241225","NA","244261","244362","244782","244258","244362","Flanker Task","88","52775.0","107","1024"
"82","82","491","491","#000000","legacy","legacy","legacy","incongruent","1","undefined","1","s","0","0","0","107","0","0","0","107","0","107","0","107","107","107","107","107","Fri Sep 22 20:27:11 2023","600","The main experiment item","True","FlankerTask.osexp","C:\Users\Hannah Laskoskie\Downloads","False","mono","False","18","no","white","no","yes","768","legacy","27","79","C:/Users/Hannah Laskoskie/Downloads/HL-subject-3.csv","legacy","Melodramatic Milgram","4.0.5","0","s","h","NA","h","NA","s","353.0","25565","NA","29464","NA","353","2","legacy","1024","2","48000","-16","experiment","HHSHH","3","odd","33668","198005","NA","245293","172439","NA","4203","244792","4198","241225","NA","246330","246431","246786","246327","246431","Flanker Task","89","53128.0","108","1024"
"82","82","492","492","#000000","legacy","legacy","legacy","congruent","1","undefined","1","h","0","0","0","108","0","0","0","108","0","108","0","108","108","108","108","108","Fri Sep 22 20:27:11 2023","600","The main experiment item","True","FlankerTask.osexp","C:\Users\Hannah Laskoskie\Downloads","False","mono","False","18","no","white","no","yes","768","legacy","28","79","C:/Users/Hannah Laskoskie/Downloads/HL-subject-3.csv","legacy","Melodramatic Milgram","4.0.5","0","h","h","NA","h","NA","h","583.0","25565","NA","29464","NA","583","2","legacy","1024","2","48000","-16","experiment","HHHHH","3","odd","33668","198005","NA","246795","172439","NA","4203","244792","4198","241225","NA","247834","247935","248520","247831","247935","Flanker Task","90","53711.0","109","1024"
"82","82","493","493","#000000","legacy","legacy","legacy","incongruent","1","undefined","1","h","0","0","0","109","0","0","0","109","0","109","0","109","109","109","109","109","Fri Sep 22 20:27:11 2023","600","The main experiment item","True","FlankerTask.osexp","C:\Users\Hannah Laskoskie\Downloads","False","mono","False","18","no","white","no","yes","768","legacy","29","79","C:/Users/Hannah Laskoskie/Downloads/HL-subject-3.csv","legacy","Melodramatic Milgram","4.0.5","0","h","h","NA","h","NA","h","574.0","25565","NA","29464","NA","574","2","legacy","1024","2","48000","-16","experiment","SSHSS","3","odd","33668","198005","NA","248529","172439","NA","4203","244792","4198","241225","NA","249569","249670","250246","249567","249670","Flanker Task","91","54285.0","110","1024"
"81","81","500","500","#000000","legacy","legacy","legacy","congruent","0","undefined","0","s","0","0","0","110","0","0","0","110","0","110","0","110","110","110","110","110","Fri Sep 22 20:27:11 2023","600","The main experiment item","True","FlankerTask.osexp","C:\Users\Hannah Laskoskie\Downloads","False","mono","False","18","no","white","no","yes","768","legacy","30","79","C:/Users/Hannah Laskoskie/Downloads/HL-subject-3.csv","legacy","Melodramatic Milgram","4.0.5","0","h","h","NA","h","NA","h","1277.0","25565","NA","29464","NA","1277","2","legacy","1024","2","48000","-16","experiment","SSSSS","3","odd","33668","198005","NA","250255","172439","NA","4203","244792","4198","241225","NA","251292","251393","252671","251290","251393","Flanker Task","91","55562.0","111","1024"
"82","82","499","499","#000000","legacy","legacy","legacy","congruent","1","undefined","1","s","0","0","0","111","0","0","0","111","0","111","0","111","111","111","111","111","Fri Sep 22 20:27:11 2023","600","The main experiment item","True","FlankerTask.osexp","C:\Users\Hannah Laskoskie\Downloads","False","mono","False","18","no","white","no","yes","768","legacy","31","79","C:/Users/Hannah Laskoskie/Downloads/HL-subject-3.csv","legacy","Melodramatic Milgram","4.0.5","0","s","h","NA","h","NA","s","352.0","25565","NA","29464","NA","352","2","legacy","1024","2","48000","-16","experiment","SSSSS","3","odd","33668","198005","NA","253683","172439","NA","4203","252680","4198","253181","NA","254720","254821","255174","254717","254821","Flanker Task","92","55914.0","112","1024"
"82","82","498","498","#000000","legacy","legacy","legacy","congruent","1","undefined","1","s","0","0","0","112","0","0","0","112","0","112","0","112","112","112","112","112","Fri Sep 22 20:27:11 2023","600","The main experiment item","True","FlankerTask.osexp","C:\Users\Hannah Laskoskie\Downloads","False","mono","False","18","no","white","no","yes","768","legacy","32","79","C:/Users/Hannah Laskoskie/Downloads/HL-subject-3.csv","legacy","Melodramatic Milgram","4.0.5","0","s","h","NA","h","NA","s","397.0","25565","NA","29464","NA","397","2","legacy","1024","2","48000","-16","experiment","SSSSS","3","odd","33668","198005","NA","255183","172439","NA","4203","252680","4198","253181","NA","256225","256326","256725","256223","256326","Flanker Task","93","56311.0","113","1024"
"81","81","496","496","#000000","legacy","legacy","legacy","incongruent","0","undefined","0","h","0","0","0","113","0","0","0","113","0","113","0","113","113","113","113","113","Fri Sep 22 20:27:11 2023","600","The main experiment item","True","FlankerTask.osexp","C:\Users\Hannah Laskoskie\Downloads","False","mono","False","18","no","white","no","yes","768","legacy","33","79","C:/Users/Hannah Laskoskie/Downloads/HL-subject-3.csv","legacy","Melodramatic Milgram","4.0.5","0","s","h","NA","h","NA","s","331.0","25565","NA","29464","NA","331","2","legacy","1024","2","48000","-16","experiment","SSHSS","3","odd","33668","198005","NA","256734","172439","NA","4203","252680","4198","253181","NA","257779","257881","258213","257776","257880","Flanker Task","93","56642.0","114","1024"
"81","81","495","495","#000000","legacy","legacy","legacy","congruent","1","undefined","1","h","0","0","0","114","0","0","0","114","0","114","0","114","114","114","114","114","Fri Sep 22 20:27:11 2023","600","The main experiment item","True","FlankerTask.osexp","C:\Users\Hannah Laskoskie\Downloads","False","mono","False","18","no","white","no","yes","768","legacy","34","79","C:/Users/Hannah Laskoskie/Downloads/HL-subject-3.csv","legacy","Melodramatic Milgram","4.0.5","0","h","h","NA","h","NA","h","348.0","25565","NA","29464","NA","348","2","legacy","1024","2","48000","-16","experiment","HHHHH","3","odd","33668","198005","NA","258724","172439","NA","4203","258223","4198","253181","NA","259771","259872","260222","259768","259872","Flanker Task","94","56990.0","115","1024"
"81","81","494","494","#000000","legacy","legacy","legacy","incongruent","0","undefined","0","s","0","0","0","115","0","0","0","115","0","115","0","115","115","115","115","115","Fri Sep 22 20:27:11 2023","600","The main experiment item","True","FlankerTask.osexp","C:\Users\Hannah Laskoskie\Downloads","False","mono","False","18","no","white","no","yes","768","legacy","35","79","C:/Users/Hannah Laskoskie/Downloads/HL-subject-3.csv","legacy","Melodramatic Milgram","4.0.5","0","h","h","NA","h","NA","h","324.0","25565","NA","29464","NA","324","2","legacy","1024","2","48000","-16","experiment","HHSHH","3","odd","33668","198005","NA","260231","172439","NA","4203","258223","4198","253181","NA","261271","261372","261698","261268","261372","Flanker Task","94","57314.0","116","1024"
"80","80","492","492","#000000","legacy","legacy","legacy","incongruent","0","undefined","0","h","0","0","0","116","0","0","0","116","0","116","0","116","116","116","116","116","Fri Sep 22 20:27:11 2023","600","The main experiment item","True","FlankerTask.osexp","C:\Users\Hannah Laskoskie\Downloads","False","mono","False","18","no","white","no","yes","768","legacy","36","79","C:/Users/Hannah Laskoskie/Downloads/HL-subject-3.csv","legacy","Melodramatic Milgram","4.0.5","0","s","h","NA","h","NA","s","361.0","25565","NA","29464","NA","361","2","legacy","1024","2","48000","-16","experiment","SSHSS","3","odd","33668","198005","NA","262208","172439","NA","4203","261707","4198","253181","NA","263244","263345","263708","263242","263345","Flanker Task","94","57675.0","117","1024"
"80","80","492","492","#000000","legacy","legacy","legacy","incongruent","1","undefined","1","s","0","0","0","117","0","0","0","117","0","117","0","117","117","117","117","117","Fri Sep 22 20:27:11 2023","600","The main experiment item","True","FlankerTask.osexp","C:\Users\Hannah Laskoskie\Downloads","False","mono","False","18","no","white","no","yes","768","legacy","37","79","C:/Users/Hannah Laskoskie/Downloads/HL-subject-3.csv","legacy","Melodramatic Milgram","4.0.5","0","s","h","NA","h","NA","s","451.0","25565","NA","29464","NA","451","2","legacy","1024","2","48000","-16","experiment","HHSHH","3","odd","33668","198005","NA","264218","172439","NA","4203","263717","4198","253181","NA","265254","265355","265807","265252","265355","Flanker Task","95","58126.0","118","1024"
"80","80","492","492","#000000","legacy","legacy","legacy","congruent","1","undefined","1","h","0","0","0","118","0","0","0","118","0","118","0","118","118","118","118","118","Fri Sep 22 20:27:11 2023","600","The main experiment item","True","FlankerTask.osexp","C:\Users\Hannah Laskoskie\Downloads","False","mono","False","18","no","white","no","yes","768","legacy","38","79","C:/Users/Hannah Laskoskie/Downloads/HL-subject-3.csv","legacy","Melodramatic Milgram","4.0.5","0","h","h","NA","h","NA","h","495.0","25565","NA","29464","NA","495","2","legacy","1024","2","48000","-16","experiment","HHHHH","3","odd","33668","198005","NA","265816","172439","NA","4203","263717","4198","253181","NA","266858","266960","267456","266855","266959","Flanker Task","96","58621.0","119","1024"
"80","80","491","491","#000000","legacy","legacy","legacy","congruent","0","undefined","0","h","0","0","0","119","0","0","0","119","0","119","0","119","119","119","119","119","Fri Sep 22 20:27:11 2023","600","The main experiment item","True","FlankerTask.osexp","C:\Users\Hannah Laskoskie\Downloads","False","mono","False","18","no","white","no","yes","768","legacy","39","79","C:/Users/Hannah Laskoskie/Downloads/HL-subject-3.csv","legacy","Melodramatic Milgram","4.0.5","0","s","h","NA","h","NA","s","343.0","25565","NA","29464","NA","343","2","legacy","1024","2","48000","-16","experiment","HHHHH","3","odd","33668","198005","NA","267465","172439","NA","4203","263717","4198","253181","NA","268505","268607","268951","268503","268607","Flanker Task","96","58964.0","120","1024"
"80","80","490","490","#000000","legacy","legacy","legacy","congruent","1","undefined","1","h","0","0","0","120","0","0","0","120","0","120","0","120","120","120","120","120","Fri Sep 22 20:27:11 2023","600","The main experiment item","True","FlankerTask.osexp","C:\Users\Hannah Laskoskie\Downloads","False","mono","False","18","no","white","no","yes","768","legacy","40","79","C:/Users/Hannah Laskoskie/Downloads/HL-subject-3.csv","legacy","Melodramatic Milgram","4.0.5","0","h","h","NA","h","NA","h","338.0","25565","NA","29464","NA","338","2","legacy","1024","2","48000","-16","experiment","HHHHH","3","odd","33668","198005","NA","269462","172439","NA","4203","268961","4198","253181","NA","270500","270601","270941","270497","270601","Flanker Task","97","59302.0","121","1024"
"79","79","488","488","#000000","legacy","legacy","legacy","congruent","0","undefined","0","s","0","0","0","121","0","0","0","121","0","121","0","121","121","121","121","121","Fri Sep 22 20:27:11 2023","600","The main experiment item","True","FlankerTask.osexp","C:\Users\Hannah Laskoskie\Downloads","False","mono","False","18","no","white","no","yes","768","legacy","41","79","C:/Users/Hannah Laskoskie/Downloads/HL-subject-3.csv","legacy","Melodramatic Milgram","4.0.5","0","h","h","NA","h","NA","h","351.0","25565","NA","29464","NA","351","2","legacy","1024","2","48000","-16","experiment","SSSSS","3","odd","33668","198005","NA","270951","172439","NA","4203","268961","4198","253181","NA","271989","272090","272443","271987","272090","Flanker Task","97","59653.0","122","1024"
"78","78","488","488","#000000","legacy","legacy","legacy","incongruent","0","undefined","0","s","0","0","0","122","0","0","0","122","0","122","0","122","122","122","122","122","Fri Sep 22 20:27:11 2023","600","The main experiment item","True","FlankerTask.osexp","C:\Users\Hannah Laskoskie\Downloads","False","mono","False","18","no","white","no","yes","768","legacy","42","79","C:/Users/Hannah Laskoskie/Downloads/HL-subject-3.csv","legacy","Melodramatic Milgram","4.0.5","0","h","h","NA","h","NA","h","490.0","25565","NA","29464","NA","490","2","legacy","1024","2","48000","-16","experiment","HHSHH","3","odd","33668","198005","NA","272953","172439","NA","4203","272452","4198","253181","NA","273993","274094","274586","273990","274094","Flanker Task","97","60143.0","123","1024"
"79","79","489","489","#000000","legacy","legacy","legacy","incongruent","1","undefined","1","h","0","0","0","123","0","0","0","123","0","123","0","123","123","123","123","123","Fri Sep 22 20:27:11 2023","600","The main experiment item","True","FlankerTask.osexp","C:\Users\Hannah Laskoskie\Downloads","False","mono","False","18","no","white","no","yes","768","legacy","43","79","C:/Users/Hannah Laskoskie/Downloads/HL-subject-3.csv","legacy","Melodramatic Milgram","4.0.5","0","h","h","NA","h","NA","h","555.0","25565","NA","29464","NA","555","2","legacy","1024","2","48000","-16","experiment","SSHSS","3","odd","33668","198005","NA","275095","172439","NA","4203","274594","4198","253181","NA","276144","276245","276801","276141","276245","Flanker Task","98","60698.0","124","1024"
"79","79","488","488","#000000","legacy","legacy","legacy","incongruent","1","undefined","1","s","0","0","0","124","0","0","0","124","0","124","0","124","124","124","124","124","Fri Sep 22 20:27:11 2023","600","The main experiment item","True","FlankerTask.osexp","C:\Users\Hannah Laskoskie\Downloads","False","mono","False","18","no","white","no","yes","768","legacy","44","79","C:/Users/Hannah Laskoskie/Downloads/HL-subject-3.csv","legacy","Melodramatic Milgram","4.0.5","0","s","h","NA","h","NA","s","399.0","25565","NA","29464","NA","399","2","legacy","1024","2","48000","-16","experiment","HHSHH","3","odd","33668","198005","NA","276805","172439","NA","4203","274594","4198","253181","NA","277843","277945","278346","277841","277945","Flanker Task","99","61097.0","125","1024"
"78","78","488","488","#000000","legacy","legacy","legacy","incongruent","0","undefined","0","s","0","0","0","125","0","0","0","125","0","125","0","125","125","125","125","125","Fri Sep 22 20:27:11 2023","600","The main experiment item","True","FlankerTask.osexp","C:\Users\Hannah Laskoskie\Downloads","False","mono","False","18","no","white","no","yes","768","legacy","45","79","C:/Users/Hannah Laskoskie/Downloads/HL-subject-3.csv","legacy","Melodramatic Milgram","4.0.5","0","h","h","NA","h","NA","h","406.0","25565","NA","29464","NA","406","2","legacy","1024","2","48000","-16","experiment","HHSHH","3","odd","33668","198005","NA","278355","172439","NA","4203","274594","4198","253181","NA","279398","279499","279906","279395","279499","Flanker Task","99","61503.0","126","1024"
"78","78","487","487","#000000","legacy","legacy","legacy","incongruent","1","undefined","1","s","0","0","0","126","0","0","0","126","0","126","0","126","126","126","126","126","Fri Sep 22 20:27:11 2023","600","The main experiment item","True","FlankerTask.osexp","C:\Users\Hannah Laskoskie\Downloads","False","mono","False","18","no","white","no","yes","768","legacy","46","79","C:/Users/Hannah Laskoskie/Downloads/HL-subject-3.csv","legacy","Melodramatic Milgram","4.0.5","0","s","h","NA","h","NA","s","412.0","25565","NA","29464","NA","412","2","legacy","1024","2","48000","-16","experiment","HHSHH","3","odd","33668","198005","NA","280417","172439","NA","4203","279916","4198","253181","NA","281454","281555","281969","281451","281555","Flanker Task","100","61915.0","127","1024"
"78","78","487","487","#000000","legacy","legacy","legacy","congruent","1","undefined","1","h","0","0","0","127","0","0","0","127","0","127","0","127","127","127","127","127","Fri Sep 22 20:27:11 2023","600","The main experiment item","True","FlankerTask.osexp","C:\Users\Hannah Laskoskie\Downloads","False","mono","False","18","no","white","no","yes","768","legacy","47","79","C:/Users/Hannah Laskoskie/Downloads/HL-subject-3.csv","legacy","Melodramatic Milgram","4.0.5","0","h","h","NA","h","NA","h","426.0","25565","NA","29464","NA","426","2","legacy","1024","2","48000","-16","experiment","HHHHH","3","odd","33668","198005","NA","281978","172439","NA","4203","279916","4198","253181","NA","283018","283119","283547","283015","283119","Flanker Task","101","62341.0","128","1024"
