"acc","accuracy","average_response_time","avg_rt","background","canvas_backend","clock_backend","color_backend","compensation","condition","coordinates","correct","correct_instructions1","correct_response","correct_skeyboard_response","count_ISI","count_block1","count_block2","count_block3","count_errorFedback","count_experiment","count_faster","count_finish","count_fixation","count_instructions1","count_instructions2","count_instructions3","count_logger","count_sequence","count_skeyboard_response","count_stimulus","datetime","deadline","description","disable_garbage_collection","experiment_file","experiment_path","font_bold","font_family","font_italic","font_size","font_underline","foreground","form_clicks","fullscreen","height","keyboard_backend","live_row","live_row_block1","logfile","mouse_backend","opensesame_codename","opensesame_version","repeat_cycle","response","response_finish","response_instructions1","response_instructions2","response_instructions3","response_skeyboard_response","response_time","response_time_finish","response_time_instructions1","response_time_instructions2","response_time_instructions3","response_time_skeyboard_response","round_decimals","sampler_backend","sound_buf_size","sound_channels","sound_freq","sound_sample_size","start","stimulus","subject_nr","subject_parity","time_ISI","time_block1","time_block2","time_block3","time_errorFedback","time_experiment","time_faster","time_finish","time_fixation","time_instructions1","time_instructions2","time_instructions3","time_logger","time_sequence","time_skeyboard_response","time_stimulus","title","total_correct","total_response_time","total_responses","uniform_coordinates","width"
"100","100","542","542","black","legacy","legacy","legacy","0","congruent","uniform","1","undefined","h","1","0","0","0","0","0","0","0","NA","0","0","0","0","0","0","0","0","Fri Sep 24 20:48:46 2021","1500","The main experiment item","yes","FlankerTaskHW.osexp","C:\Users\19565\Desktop","no","mono","no","18","no","white","no","yes","768","legacy","0","0","C:/Users/19565/Desktop/MR-subject-4.csv","legacy","Lentiform Loewenfeld","3.3.9","0","h","NA","h","NA","NA","h","542","NA","1840","NA","NA","542","2","legacy","1024","2","48000","-16","experiment","HHHHH","4","even","NA","5965","NA","NA","NA","4120","NA","NA","6086","4124","NA","NA","6731","6084","6189","6188","Flanker Task HW","1","542","1","yes","1024"
"100","100","512","512","black","legacy","legacy","legacy","0","congruent","uniform","1","undefined","h","1","1","0","0","0","1","0","1","NA","1","0","0","0","1","1","1","1","Fri Sep 24 20:48:46 2021","1500","The main experiment item","yes","FlankerTaskHW.osexp","C:\Users\19565\Desktop","no","mono","no","18","no","white","no","yes","768","legacy","1","1","C:/Users/19565/Desktop/MR-subject-4.csv","legacy","Lentiform Loewenfeld","3.3.9","0","h","NA","h","NA","NA","h","482","NA","1840","NA","NA","482","2","legacy","1024","2","48000","-16","experiment","HHHHH","4","even","6745","5965","NA","NA","NA","4120","NA","NA","7850","4124","NA","NA","8435","7847","7952","7952","Flanker Task HW","2","1024","2","yes","1024"
"100","100","505.6666666666667","505.6666666666667","black","legacy","legacy","legacy","0","congruent","uniform","1","undefined","h","1","2","0","0","0","2","0","2","NA","2","0","0","0","2","2","2","2","Fri Sep 24 20:48:46 2021","1500","The main experiment item","yes","FlankerTaskHW.osexp","C:\Users\19565\Desktop","no","mono","no","18","no","white","no","yes","768","legacy","2","2","C:/Users/19565/Desktop/MR-subject-4.csv","legacy","Lentiform Loewenfeld","3.3.9","0","h","NA","h","NA","NA","h","493","NA","1840","NA","NA","493","2","legacy","1024","2","48000","-16","experiment","HHHHH","4","even","8441","5965","NA","NA","NA","4120","NA","NA","9544","4124","NA","NA","10139","9542","9646","9646","Flanker Task HW","3","1517","3","yes","1024"
"100","100","537.25","537.25","black","legacy","legacy","legacy","0","incongruent","uniform","1","undefined","h","1","3","0","0","0","3","0","3","NA","3","0","0","0","3","3","3","3","Fri Sep 24 20:48:46 2021","1500","The main experiment item","yes","FlankerTaskHW.osexp","C:\Users\19565\Desktop","no","mono","no","18","no","white","no","yes","768","legacy","3","3","C:/Users/19565/Desktop/MR-subject-4.csv","legacy","Lentiform Loewenfeld","3.3.9","0","h","NA","h","NA","NA","h","632","NA","1840","NA","NA","632","2","legacy","1024","2","48000","-16","experiment","SSHSS","4","even","10144","5965","NA","NA","NA","4120","NA","NA","11276","4124","NA","NA","12011","11273","11379","11379","Flanker Task HW","4","2149","4","yes","1024"
"100","100","536.4","536.4","black","legacy","legacy","legacy","0","incongruent","uniform","1","undefined","s","1","4","0","0","0","4","0","4","NA","4","0","0","0","4","4","4","4","Fri Sep 24 20:48:46 2021","1500","The main experiment item","yes","FlankerTaskHW.osexp","C:\Users\19565\Desktop","no","mono","no","18","no","white","no","yes","768","legacy","4","4","C:/Users/19565/Desktop/MR-subject-4.csv","legacy","Lentiform Loewenfeld","3.3.9","0","s","NA","h","NA","NA","s","533","NA","1840","NA","NA","533","2","legacy","1024","2","48000","-16","experiment","HHSHH","4","even","12021","5965","NA","NA","NA","4120","NA","NA","13154","4124","NA","NA","13792","13151","13258","13258","Flanker Task HW","5","2682","5","yes","1024"
"100","100","550.3333333333334","550.3333333333334","black","legacy","legacy","legacy","0","congruent","uniform","1","undefined","s","1","5","0","0","0","5","0","5","NA","5","0","0","0","5","5","5","5","Fri Sep 24 20:48:46 2021","1500","The main experiment item","yes","FlankerTaskHW.osexp","C:\Users\19565\Desktop","no","mono","no","18","no","white","no","yes","768","legacy","5","5","C:/Users/19565/Desktop/MR-subject-4.csv","legacy","Lentiform Loewenfeld","3.3.9","0","s","NA","h","NA","NA","s","620","NA","1840","NA","NA","620","2","legacy","1024","2","48000","-16","experiment","SSSSS","4","even","13801","5965","NA","NA","NA","4120","NA","NA","14960","4124","NA","NA","15685","14957","15064","15064","Flanker Task HW","6","3302","6","yes","1024"
"100","100","532.5714285714286","532.5714285714286","black","legacy","legacy","legacy","0","incongruent","uniform","1","undefined","s","1","6","0","0","0","6","0","6","NA","6","0","0","0","6","6","6","6","Fri Sep 24 20:48:46 2021","1500","The main experiment item","yes","FlankerTaskHW.osexp","C:\Users\19565\Desktop","no","mono","no","18","no","white","no","yes","768","legacy","6","6","C:/Users/19565/Desktop/MR-subject-4.csv","legacy","Lentiform Loewenfeld","3.3.9","0","s","NA","h","NA","NA","s","426","NA","1840","NA","NA","426","2","legacy","1024","2","48000","-16","experiment","HHSHH","4","even","15696","5965","NA","NA","NA","4120","NA","NA","16842","4124","NA","NA","17371","16839","16944","16944","Flanker Task HW","7","3728","7","yes","1024"
"100","100","520.125","520.125","black","legacy","legacy","legacy","0","incongruent","uniform","1","undefined","s","1","7","0","0","0","7","0","7","NA","7","0","0","0","7","7","7","7","Fri Sep 24 20:48:46 2021","1500","The main experiment item","yes","FlankerTaskHW.osexp","C:\Users\19565\Desktop","no","mono","no","18","no","white","no","yes","768","legacy","7","7","C:/Users/19565/Desktop/MR-subject-4.csv","legacy","Lentiform Loewenfeld","3.3.9","0","s","NA","h","NA","NA","s","433","NA","1840","NA","NA","433","2","legacy","1024","2","48000","-16","experiment","HHSHH","4","even","17384","5965","NA","NA","NA","4120","NA","NA","18514","4124","NA","NA","19053","18512","18619","18619","Flanker Task HW","8","4161","8","yes","1024"
"100","100","541.4444444444445","541.4444444444445","black","legacy","legacy","legacy","0","incongruent","uniform","1","undefined","h","1","8","0","0","0","8","0","8","NA","8","0","0","0","8","8","8","8","Fri Sep 24 20:48:46 2021","1500","The main experiment item","yes","FlankerTaskHW.osexp","C:\Users\19565\Desktop","no","mono","no","18","no","white","no","yes","768","legacy","8","8","C:/Users/19565/Desktop/MR-subject-4.csv","legacy","Lentiform Loewenfeld","3.3.9","0","h","NA","h","NA","NA","h","712","NA","1840","NA","NA","712","2","legacy","1024","2","48000","-16","experiment","SSHSS","4","even","19063","5965","NA","NA","NA","4120","NA","NA","20195","4124","NA","NA","21013","20192","20300","20299","Flanker Task HW","9","4873","9","yes","1024"
"100","100","542.4","542.4","black","legacy","legacy","legacy","0","incongruent","uniform","1","undefined","s","1","9","0","0","0","9","0","9","NA","9","0","0","0","9","9","9","9","Fri Sep 24 20:48:46 2021","1500","The main experiment item","yes","FlankerTaskHW.osexp","C:\Users\19565\Desktop","no","mono","no","18","no","white","no","yes","768","legacy","9","9","C:/Users/19565/Desktop/MR-subject-4.csv","legacy","Lentiform Loewenfeld","3.3.9","0","s","NA","h","NA","NA","s","551","NA","1840","NA","NA","551","2","legacy","1024","2","48000","-16","experiment","HHSHH","4","even","21022","5965","NA","NA","NA","4120","NA","NA","22159","4124","NA","NA","22813","22156","22261","22261","Flanker Task HW","10","5424","10","yes","1024"
"100","100","533.7272727272727","533.7272727272727","black","legacy","legacy","legacy","0","congruent","uniform","1","undefined","h","1","10","0","0","0","10","0","10","NA","10","0","0","0","10","10","10","10","Fri Sep 24 20:48:46 2021","1500","The main experiment item","yes","FlankerTaskHW.osexp","C:\Users\19565\Desktop","no","mono","no","18","no","white","no","yes","768","legacy","10","10","C:/Users/19565/Desktop/MR-subject-4.csv","legacy","Lentiform Loewenfeld","3.3.9","0","h","NA","h","NA","NA","h","447","NA","1840","NA","NA","447","2","legacy","1024","2","48000","-16","experiment","HHHHH","4","even","22818","5965","NA","NA","NA","4120","NA","NA","23958","4124","NA","NA","24512","23955","24063","24062","Flanker Task HW","11","5871","11","yes","1024"
"100","100","525.4166666666666","525.4166666666666","black","legacy","legacy","legacy","0","congruent","uniform","1","undefined","h","1","11","0","0","0","11","0","11","NA","11","0","0","0","11","11","11","11","Fri Sep 24 20:48:46 2021","1500","The main experiment item","yes","FlankerTaskHW.osexp","C:\Users\19565\Desktop","no","mono","no","18","no","white","no","yes","768","legacy","11","11","C:/Users/19565/Desktop/MR-subject-4.csv","legacy","Lentiform Loewenfeld","3.3.9","0","h","NA","h","NA","NA","h","434","NA","1840","NA","NA","434","2","legacy","1024","2","48000","-16","experiment","HHHHH","4","even","24523","5965","NA","NA","NA","4120","NA","NA","25670","4124","NA","NA","26211","25667","25777","25777","Flanker Task HW","12","6305","12","yes","1024"
"100","100","519.3076923076923","519.3076923076923","black","legacy","legacy","legacy","0","congruent","uniform","1","undefined","h","1","12","0","0","0","12","0","12","NA","12","0","0","0","12","12","12","12","Fri Sep 24 20:48:46 2021","1500","The main experiment item","yes","FlankerTaskHW.osexp","C:\Users\19565\Desktop","no","mono","no","18","no","white","no","yes","768","legacy","12","12","C:/Users/19565/Desktop/MR-subject-4.csv","legacy","Lentiform Loewenfeld","3.3.9","0","h","NA","h","NA","NA","h","446","NA","1840","NA","NA","446","2","legacy","1024","2","48000","-16","experiment","HHHHH","4","even","26216","5965","NA","NA","NA","4120","NA","NA","27339","4124","NA","NA","27889","27336","27442","27441","Flanker Task HW","13","6751","13","yes","1024"
"100","100","516.1428571428571","516.1428571428571","black","legacy","legacy","legacy","0","congruent","uniform","1","undefined","h","1","13","0","0","0","13","0","13","NA","13","0","0","0","13","13","13","13","Fri Sep 24 20:48:46 2021","1500","The main experiment item","yes","FlankerTaskHW.osexp","C:\Users\19565\Desktop","no","mono","no","18","no","white","no","yes","768","legacy","13","13","C:/Users/19565/Desktop/MR-subject-4.csv","legacy","Lentiform Loewenfeld","3.3.9","0","h","NA","h","NA","NA","h","475","NA","1840","NA","NA","475","2","legacy","1024","2","48000","-16","experiment","HHHHH","4","even","27894","5965","NA","NA","NA","4120","NA","NA","29060","4124","NA","NA","29638","29057","29162","29162","Flanker Task HW","14","7226","14","yes","1024"
"100","100","512.5333333333333","512.5333333333333","black","legacy","legacy","legacy","0","congruent","uniform","1","undefined","h","1","14","0","0","0","14","0","14","NA","14","0","0","0","14","14","14","14","Fri Sep 24 20:48:46 2021","1500","The main experiment item","yes","FlankerTaskHW.osexp","C:\Users\19565\Desktop","no","mono","no","18","no","white","no","yes","768","legacy","14","14","C:/Users/19565/Desktop/MR-subject-4.csv","legacy","Lentiform Loewenfeld","3.3.9","0","h","NA","h","NA","NA","h","462","NA","1840","NA","NA","462","2","legacy","1024","2","48000","-16","experiment","HHHHH","4","even","29643","5965","NA","NA","NA","4120","NA","NA","30781","4124","NA","NA","31346","30778","30883","30883","Flanker Task HW","15","7688","15","yes","1024"
"100","100","514.3125","514.3125","black","legacy","legacy","legacy","0","incongruent","uniform","1","undefined","s","1","15","0","0","0","15","0","15","NA","15","0","0","0","15","15","15","15","Fri Sep 24 20:48:46 2021","1500","The main experiment item","yes","FlankerTaskHW.osexp","C:\Users\19565\Desktop","no","mono","no","18","no","white","no","yes","768","legacy","15","15","C:/Users/19565/Desktop/MR-subject-4.csv","legacy","Lentiform Loewenfeld","3.3.9","0","s","NA","h","NA","NA","s","541","NA","1840","NA","NA","541","2","legacy","1024","2","48000","-16","experiment","HHSHH","4","even","31352","5965","NA","NA","NA","4120","NA","NA","32478","4124","NA","NA","33122","32475","32580","32580","Flanker Task HW","16","8229","16","yes","1024"
"100","100","529.9411764705883","529.9411764705883","black","legacy","legacy","legacy","0","incongruent","uniform","1","undefined","h","1","16","0","0","0","16","0","16","NA","16","0","0","0","16","16","16","16","Fri Sep 24 20:48:46 2021","1500","The main experiment item","yes","FlankerTaskHW.osexp","C:\Users\19565\Desktop","no","mono","no","18","no","white","no","yes","768","legacy","16","16","C:/Users/19565/Desktop/MR-subject-4.csv","legacy","Lentiform Loewenfeld","3.3.9","0","h","NA","h","NA","NA","h","780","NA","1840","NA","NA","780","2","legacy","1024","2","48000","-16","experiment","SSHSS","4","even","33127","5965","NA","NA","NA","4120","NA","NA","34255","4124","NA","NA","35139","34252","34358","34357","Flanker Task HW","17","9009","17","yes","1024"
"100","100","527.2777777777778","527.2777777777778","black","legacy","legacy","legacy","0","incongruent","uniform","1","undefined","h","1","17","0","0","0","17","0","17","NA","17","0","0","0","17","17","17","17","Fri Sep 24 20:48:46 2021","1500","The main experiment item","yes","FlankerTaskHW.osexp","C:\Users\19565\Desktop","no","mono","no","18","no","white","no","yes","768","legacy","17","17","C:/Users/19565/Desktop/MR-subject-4.csv","legacy","Lentiform Loewenfeld","3.3.9","0","h","NA","h","NA","NA","h","482","NA","1840","NA","NA","482","2","legacy","1024","2","48000","-16","experiment","SSHSS","4","even","35144","5965","NA","NA","NA","4120","NA","NA","36244","4124","NA","NA","36828","36242","36346","36346","Flanker Task HW","18","9491","18","yes","1024"
"100","100","524.421052631579","524.421052631579","black","legacy","legacy","legacy","0","congruent","uniform","1","undefined","s","1","18","0","0","0","18","0","18","NA","18","0","0","0","18","18","18","18","Fri Sep 24 20:48:46 2021","1500","The main experiment item","yes","FlankerTaskHW.osexp","C:\Users\19565\Desktop","no","mono","no","18","no","white","no","yes","768","legacy","18","18","C:/Users/19565/Desktop/MR-subject-4.csv","legacy","Lentiform Loewenfeld","3.3.9","0","s","NA","h","NA","NA","s","473","NA","1840","NA","NA","473","2","legacy","1024","2","48000","-16","experiment","SSSSS","4","even","36834","5965","NA","NA","NA","4120","NA","NA","37953","4124","NA","NA","38529","37951","38055","38055","Flanker Task HW","19","9964","19","yes","1024"
"100","100","526.55","526.55","black","legacy","legacy","legacy","0","incongruent","uniform","1","undefined","s","1","19","0","0","0","19","0","19","NA","19","0","0","0","19","19","19","19","Fri Sep 24 20:48:46 2021","1500","The main experiment item","yes","FlankerTaskHW.osexp","C:\Users\19565\Desktop","no","mono","no","18","no","white","no","yes","768","legacy","19","19","C:/Users/19565/Desktop/MR-subject-4.csv","legacy","Lentiform Loewenfeld","3.3.9","0","s","NA","h","NA","NA","s","567","NA","1840","NA","NA","567","2","legacy","1024","2","48000","-16","experiment","HHSHH","4","even","38535","5965","NA","NA","NA","4120","NA","NA","39655","4124","NA","NA","40327","39653","39758","39758","Flanker Task HW","20","10531","20","yes","1024"
"100","100","524.3333333333334","524.3333333333334","black","legacy","legacy","legacy","0","incongruent","uniform","1","undefined","h","1","20","0","0","0","20","0","20","NA","20","0","0","0","20","20","20","20","Fri Sep 24 20:48:46 2021","1500","The main experiment item","yes","FlankerTaskHW.osexp","C:\Users\19565\Desktop","no","mono","no","18","no","white","no","yes","768","legacy","20","20","C:/Users/19565/Desktop/MR-subject-4.csv","legacy","Lentiform Loewenfeld","3.3.9","0","h","NA","h","NA","NA","h","480","NA","1840","NA","NA","480","2","legacy","1024","2","48000","-16","experiment","SSHSS","4","even","40336","5965","NA","NA","NA","4120","NA","NA","41438","4124","NA","NA","42021","41435","41540","41540","Flanker Task HW","21","11011","21","yes","1024"
"100","100","518.5909090909091","518.5909090909091","black","legacy","legacy","legacy","0","congruent","uniform","1","undefined","s","1","21","0","0","0","21","0","21","NA","21","0","0","0","21","21","21","21","Fri Sep 24 20:48:46 2021","1500","The main experiment item","yes","FlankerTaskHW.osexp","C:\Users\19565\Desktop","no","mono","no","18","no","white","no","yes","768","legacy","21","21","C:/Users/19565/Desktop/MR-subject-4.csv","legacy","Lentiform Loewenfeld","3.3.9","0","s","NA","h","NA","NA","s","398","NA","1840","NA","NA","398","2","legacy","1024","2","48000","-16","experiment","SSSSS","4","even","42027","5965","NA","NA","NA","4120","NA","NA","43126","4124","NA","NA","43627","43123","43228","43228","Flanker Task HW","22","11409","22","yes","1024"
"100","100","518.3478260869565","518.3478260869565","black","legacy","legacy","legacy","0","congruent","uniform","1","undefined","h","1","22","0","0","0","22","0","22","NA","22","0","0","0","22","22","22","22","Fri Sep 24 20:48:46 2021","1500","The main experiment item","yes","FlankerTaskHW.osexp","C:\Users\19565\Desktop","no","mono","no","18","no","white","no","yes","768","legacy","22","22","C:/Users/19565/Desktop/MR-subject-4.csv","legacy","Lentiform Loewenfeld","3.3.9","0","h","NA","h","NA","NA","h","513","NA","1840","NA","NA","513","2","legacy","1024","2","48000","-16","experiment","HHHHH","4","even","43634","5965","NA","NA","NA","4120","NA","NA","44739","4124","NA","NA","45355","44736","44842","44842","Flanker Task HW","23","11922","23","yes","1024"
"100","100","513.75","513.75","black","legacy","legacy","legacy","0","congruent","uniform","1","undefined","s","1","23","0","0","0","23","0","23","NA","23","0","0","0","23","23","23","23","Fri Sep 24 20:48:46 2021","1500","The main experiment item","yes","FlankerTaskHW.osexp","C:\Users\19565\Desktop","no","mono","no","18","no","white","no","yes","768","legacy","23","23","C:/Users/19565/Desktop/MR-subject-4.csv","legacy","Lentiform Loewenfeld","3.3.9","0","s","NA","h","NA","NA","s","408","NA","1840","NA","NA","408","2","legacy","1024","2","48000","-16","experiment","SSSSS","4","even","45368","5965","NA","NA","NA","4120","NA","NA","46471","4124","NA","NA","46982","46469","46573","46573","Flanker Task HW","24","12330","24","yes","1024"
"100","100","518.28","518.28","black","legacy","legacy","legacy","0","incongruent","uniform","1","undefined","s","1","24","0","0","0","24","0","24","NA","24","0","0","0","24","24","24","24","Fri Sep 24 20:48:46 2021","1500","The main experiment item","yes","FlankerTaskHW.osexp","C:\Users\19565\Desktop","no","mono","no","18","no","white","no","yes","768","legacy","24","24","C:/Users/19565/Desktop/MR-subject-4.csv","legacy","Lentiform Loewenfeld","3.3.9","0","s","NA","h","NA","NA","s","627","NA","1840","NA","NA","627","2","legacy","1024","2","48000","-16","experiment","HHSHH","4","even","46987","5965","NA","NA","NA","4120","NA","NA","48118","4124","NA","NA","48848","48115","48220","48220","Flanker Task HW","25","12957","25","yes","1024"
"100","100","519.5","519.5","black","legacy","legacy","legacy","0","incongruent","uniform","1","undefined","h","1","25","0","0","0","25","0","25","NA","25","0","0","0","25","25","25","25","Fri Sep 24 20:48:46 2021","1500","The main experiment item","yes","FlankerTaskHW.osexp","C:\Users\19565\Desktop","no","mono","no","18","no","white","no","yes","768","legacy","25","25","C:/Users/19565/Desktop/MR-subject-4.csv","legacy","Lentiform Loewenfeld","3.3.9","0","h","NA","h","NA","NA","h","550","NA","1840","NA","NA","550","2","legacy","1024","2","48000","-16","experiment","SSHSS","4","even","48854","5965","NA","NA","NA","4120","NA","NA","49959","4124","NA","NA","50612","49955","50061","50061","Flanker Task HW","26","13507","26","yes","1024"
"100","100","519.0370370370371","519.0370370370371","black","legacy","legacy","legacy","0","congruent","uniform","1","undefined","h","1","26","0","0","0","26","0","26","NA","26","0","0","0","26","26","26","26","Fri Sep 24 20:48:46 2021","1500","The main experiment item","yes","FlankerTaskHW.osexp","C:\Users\19565\Desktop","no","mono","no","18","no","white","no","yes","768","legacy","26","26","C:/Users/19565/Desktop/MR-subject-4.csv","legacy","Lentiform Loewenfeld","3.3.9","0","h","NA","h","NA","NA","h","507","NA","1840","NA","NA","507","2","legacy","1024","2","48000","-16","experiment","HHHHH","4","even","50619","5965","NA","NA","NA","4120","NA","NA","51721","4124","NA","NA","52330","51718","51823","51823","Flanker Task HW","27","14014","27","yes","1024"
"100","100","517.7857142857143","517.7857142857143","black","legacy","legacy","legacy","0","congruent","uniform","1","undefined","s","1","27","0","0","0","27","0","27","NA","27","0","0","0","27","27","27","27","Fri Sep 24 20:48:46 2021","1500","The main experiment item","yes","FlankerTaskHW.osexp","C:\Users\19565\Desktop","no","mono","no","18","no","white","no","yes","768","legacy","27","27","C:/Users/19565/Desktop/MR-subject-4.csv","legacy","Lentiform Loewenfeld","3.3.9","0","s","NA","h","NA","NA","s","484","NA","1840","NA","NA","484","2","legacy","1024","2","48000","-16","experiment","SSSSS","4","even","52337","5965","NA","NA","NA","4120","NA","NA","53439","4124","NA","NA","54025","53436","53541","53541","Flanker Task HW","28","14498","28","yes","1024"
"100","100","518.1034482758621","518.1034482758621","black","legacy","legacy","legacy","0","incongruent","uniform","1","undefined","s","1","28","0","0","0","28","0","28","NA","28","0","0","0","28","28","28","28","Fri Sep 24 20:48:46 2021","1500","The main experiment item","yes","FlankerTaskHW.osexp","C:\Users\19565\Desktop","no","mono","no","18","no","white","no","yes","768","legacy","28","28","C:/Users/19565/Desktop/MR-subject-4.csv","legacy","Lentiform Loewenfeld","3.3.9","0","s","NA","h","NA","NA","s","527","NA","1840","NA","NA","527","2","legacy","1024","2","48000","-16","experiment","HHSHH","4","even","54032","5965","NA","NA","NA","4120","NA","NA","55143","4124","NA","NA","55773","55140","55245","55245","Flanker Task HW","29","15025","29","yes","1024"
"100","100","517.5666666666667","517.5666666666667","black","legacy","legacy","legacy","0","congruent","uniform","1","undefined","s","1","29","0","0","0","29","0","29","NA","29","0","0","0","29","29","29","29","Fri Sep 24 20:48:46 2021","1500","The main experiment item","yes","FlankerTaskHW.osexp","C:\Users\19565\Desktop","no","mono","no","18","no","white","no","yes","768","legacy","29","29","C:/Users/19565/Desktop/MR-subject-4.csv","legacy","Lentiform Loewenfeld","3.3.9","0","s","NA","h","NA","NA","s","502","NA","1840","NA","NA","502","2","legacy","1024","2","48000","-16","experiment","SSSSS","4","even","55779","5965","NA","NA","NA","4120","NA","NA","56897","4124","NA","NA","57502","56894","56999","56999","Flanker Task HW","30","15527","30","yes","1024"
"100","100","515.0645161290323","515.0645161290323","black","legacy","legacy","legacy","0","congruent","uniform","1","undefined","s","1","30","0","0","0","30","0","30","NA","30","0","0","0","30","30","30","30","Fri Sep 24 20:48:46 2021","1500","The main experiment item","yes","FlankerTaskHW.osexp","C:\Users\19565\Desktop","no","mono","no","18","no","white","no","yes","768","legacy","30","30","C:/Users/19565/Desktop/MR-subject-4.csv","legacy","Lentiform Loewenfeld","3.3.9","0","s","NA","h","NA","NA","s","440","NA","1840","NA","NA","440","2","legacy","1024","2","48000","-16","experiment","SSSSS","4","even","57509","5965","NA","NA","NA","4120","NA","NA","58622","4124","NA","NA","59165","58619","58724","58724","Flanker Task HW","31","15967","31","yes","1024"
"100","100","520.125","520.125","black","legacy","legacy","legacy","0","incongruent","uniform","1","undefined","s","1","31","0","0","0","31","0","31","NA","31","0","0","0","31","31","31","31","Fri Sep 24 20:48:46 2021","1500","The main experiment item","yes","FlankerTaskHW.osexp","C:\Users\19565\Desktop","no","mono","no","18","no","white","no","yes","768","legacy","31","31","C:/Users/19565/Desktop/MR-subject-4.csv","legacy","Lentiform Loewenfeld","3.3.9","0","s","NA","h","NA","NA","s","677","NA","1840","NA","NA","677","2","legacy","1024","2","48000","-16","experiment","HHSHH","4","even","59172","5965","NA","NA","NA","4120","NA","NA","60272","4124","NA","NA","61054","60270","60376","60375","Flanker Task HW","32","16644","32","yes","1024"
"100","100","521.9090909090909","521.9090909090909","black","legacy","legacy","legacy","0","congruent","uniform","1","undefined","s","1","32","0","0","0","32","0","32","NA","32","0","0","0","32","32","32","32","Fri Sep 24 20:48:46 2021","1500","The main experiment item","yes","FlankerTaskHW.osexp","C:\Users\19565\Desktop","no","mono","no","18","no","white","no","yes","768","legacy","32","32","C:/Users/19565/Desktop/MR-subject-4.csv","legacy","Lentiform Loewenfeld","3.3.9","0","s","NA","h","NA","NA","s","579","NA","1840","NA","NA","579","2","legacy","1024","2","48000","-16","experiment","SSSSS","4","even","61060","5965","NA","NA","NA","4120","NA","NA","62169","4124","NA","NA","62851","62165","62271","62271","Flanker Task HW","33","17223","33","yes","1024"
"100","100","523.5588235294117","523.5588235294117","black","legacy","legacy","legacy","0","incongruent","uniform","1","undefined","h","1","33","0","0","0","33","0","33","NA","33","0","0","0","33","33","33","33","Fri Sep 24 20:48:46 2021","1500","The main experiment item","yes","FlankerTaskHW.osexp","C:\Users\19565\Desktop","no","mono","no","18","no","white","no","yes","768","legacy","33","33","C:/Users/19565/Desktop/MR-subject-4.csv","legacy","Lentiform Loewenfeld","3.3.9","0","h","NA","h","NA","NA","h","578","NA","1840","NA","NA","578","2","legacy","1024","2","48000","-16","experiment","SSHSS","4","even","62856","5965","NA","NA","NA","4120","NA","NA","63998","4124","NA","NA","64679","63995","64100","64100","Flanker Task HW","34","17801","34","yes","1024"
"100","100","523.8","523.8","black","legacy","legacy","legacy","0","incongruent","uniform","1","undefined","h","1","34","0","0","0","34","0","34","NA","34","0","0","0","34","34","34","34","Fri Sep 24 20:48:46 2021","1500","The main experiment item","yes","FlankerTaskHW.osexp","C:\Users\19565\Desktop","no","mono","no","18","no","white","no","yes","768","legacy","34","34","C:/Users/19565/Desktop/MR-subject-4.csv","legacy","Lentiform Loewenfeld","3.3.9","0","h","NA","h","NA","NA","h","532","NA","1840","NA","NA","532","2","legacy","1024","2","48000","-16","experiment","SSHSS","4","even","64684","5965","NA","NA","NA","4120","NA","NA","65796","4124","NA","NA","66431","65793","65898","65898","Flanker Task HW","35","18333","35","yes","1024"
"100","100","527.1666666666666","527.1666666666666","black","legacy","legacy","legacy","0","congruent","uniform","1","undefined","h","1","35","0","0","0","35","0","35","NA","35","0","0","0","35","35","35","35","Fri Sep 24 20:48:46 2021","1500","The main experiment item","yes","FlankerTaskHW.osexp","C:\Users\19565\Desktop","no","mono","no","18","no","white","no","yes","768","legacy","35","35","C:/Users/19565/Desktop/MR-subject-4.csv","legacy","Lentiform Loewenfeld","3.3.9","0","h","NA","h","NA","NA","h","645","NA","1840","NA","NA","645","2","legacy","1024","2","48000","-16","experiment","HHHHH","4","even","66437","5965","NA","NA","NA","4120","NA","NA","67551","4124","NA","NA","68299","67548","67653","67653","Flanker Task HW","36","18978","36","yes","1024"
"100","100","525.6216216216217","525.6216216216217","black","legacy","legacy","legacy","0","congruent","uniform","1","undefined","h","1","36","0","0","0","36","0","36","NA","36","0","0","0","36","36","36","36","Fri Sep 24 20:48:46 2021","1500","The main experiment item","yes","FlankerTaskHW.osexp","C:\Users\19565\Desktop","no","mono","no","18","no","white","no","yes","768","legacy","36","36","C:/Users/19565/Desktop/MR-subject-4.csv","legacy","Lentiform Loewenfeld","3.3.9","0","h","NA","h","NA","NA","h","470","NA","1840","NA","NA","470","2","legacy","1024","2","48000","-16","experiment","HHHHH","4","even","68304","5965","NA","NA","NA","4120","NA","NA","69426","4124","NA","NA","69998","69424","69528","69528","Flanker Task HW","37","19448","37","yes","1024"
"100","100","525.3421052631579","525.3421052631579","black","legacy","legacy","legacy","0","congruent","uniform","1","undefined","h","1","37","0","0","0","37","0","37","NA","37","0","0","0","37","37","37","37","Fri Sep 24 20:48:46 2021","1500","The main experiment item","yes","FlankerTaskHW.osexp","C:\Users\19565\Desktop","no","mono","no","18","no","white","no","yes","768","legacy","37","37","C:/Users/19565/Desktop/MR-subject-4.csv","legacy","Lentiform Loewenfeld","3.3.9","0","h","NA","h","NA","NA","h","515","NA","1840","NA","NA","515","2","legacy","1024","2","48000","-16","experiment","HHHHH","4","even","70004","5965","NA","NA","NA","4120","NA","NA","71163","4124","NA","NA","71782","71160","71266","71265","Flanker Task HW","38","19963","38","yes","1024"
"100","100","536.1794871794872","536.1794871794872","black","legacy","legacy","legacy","0","incongruent","uniform","1","undefined","s","1","38","0","0","0","38","0","38","NA","38","0","0","0","38","38","38","38","Fri Sep 24 20:48:46 2021","1500","The main experiment item","yes","FlankerTaskHW.osexp","C:\Users\19565\Desktop","no","mono","no","18","no","white","no","yes","768","legacy","38","38","C:/Users/19565/Desktop/MR-subject-4.csv","legacy","Lentiform Loewenfeld","3.3.9","0","s","NA","h","NA","NA","s","948","NA","1840","NA","NA","948","2","legacy","1024","2","48000","-16","experiment","HHSHH","4","even","71787","5965","NA","NA","NA","4120","NA","NA","72915","4124","NA","NA","73970","72912","73020","73020","Flanker Task HW","39","20911","39","yes","1024"
"100","100","539.075","539.075","black","legacy","legacy","legacy","0","incongruent","uniform","1","undefined","h","1","39","0","0","0","39","0","39","NA","39","0","0","0","39","39","39","39","Fri Sep 24 20:48:46 2021","1500","The main experiment item","yes","FlankerTaskHW.osexp","C:\Users\19565\Desktop","no","mono","no","18","no","white","no","yes","768","legacy","39","39","C:/Users/19565/Desktop/MR-subject-4.csv","legacy","Lentiform Loewenfeld","3.3.9","0","h","NA","h","NA","NA","h","652","NA","1840","NA","NA","652","2","legacy","1024","2","48000","-16","experiment","SSHSS","4","even","73977","5965","NA","NA","NA","4120","NA","NA","75106","4124","NA","NA","75861","75103","75208","75208","Flanker Task HW","40","21563","40","yes","1024"
"100","100","537.9024390243902","537.9024390243902","black","legacy","legacy","legacy","0","incongruent","uniform","1","undefined","s","1","40","0","0","0","40","0","40","NA","40","0","0","0","40","40","40","40","Fri Sep 24 20:48:46 2021","1500","The main experiment item","yes","FlankerTaskHW.osexp","C:\Users\19565\Desktop","no","mono","no","18","no","white","no","yes","768","legacy","40","40","C:/Users/19565/Desktop/MR-subject-4.csv","legacy","Lentiform Loewenfeld","3.3.9","0","s","NA","h","NA","NA","s","491","NA","1840","NA","NA","491","2","legacy","1024","2","48000","-16","experiment","HHSHH","4","even","75866","5965","NA","NA","NA","4120","NA","NA","76999","4124","NA","NA","77593","76996","77101","77101","Flanker Task HW","41","22054","41","yes","1024"
"100","100","541.8333333333334","541.8333333333334","black","legacy","legacy","legacy","0","incongruent","uniform","1","undefined","s","1","41","0","0","0","41","0","41","NA","41","0","0","0","41","41","41","41","Fri Sep 24 20:48:46 2021","1500","The main experiment item","yes","FlankerTaskHW.osexp","C:\Users\19565\Desktop","no","mono","no","18","no","white","no","yes","768","legacy","41","41","C:/Users/19565/Desktop/MR-subject-4.csv","legacy","Lentiform Loewenfeld","3.3.9","0","s","NA","h","NA","NA","s","703","NA","1840","NA","NA","703","2","legacy","1024","2","48000","-16","experiment","HHSHH","4","even","77599","5965","NA","NA","NA","4120","NA","NA","78713","4124","NA","NA","79520","78710","78816","78816","Flanker Task HW","42","22757","42","yes","1024"
"100","100","539.5116279069767","539.5116279069767","black","legacy","legacy","legacy","0","incongruent","uniform","1","undefined","s","1","42","0","0","0","42","0","42","NA","42","0","0","0","42","42","42","42","Fri Sep 24 20:48:46 2021","1500","The main experiment item","yes","FlankerTaskHW.osexp","C:\Users\19565\Desktop","no","mono","no","18","no","white","no","yes","768","legacy","42","42","C:/Users/19565/Desktop/MR-subject-4.csv","legacy","Lentiform Loewenfeld","3.3.9","0","s","NA","h","NA","NA","s","442","NA","1840","NA","NA","442","2","legacy","1024","2","48000","-16","experiment","HHSHH","4","even","79527","5965","NA","NA","NA","4120","NA","NA","80646","4124","NA","NA","81191","80642","80748","80748","Flanker Task HW","43","23199","43","yes","1024"
"100","100","539.7727272727273","539.7727272727273","black","legacy","legacy","legacy","0","incongruent","uniform","1","undefined","h","1","43","0","0","0","43","0","43","NA","43","0","0","0","43","43","43","43","Fri Sep 24 20:48:46 2021","1500","The main experiment item","yes","FlankerTaskHW.osexp","C:\Users\19565\Desktop","no","mono","no","18","no","white","no","yes","768","legacy","43","43","C:/Users/19565/Desktop/MR-subject-4.csv","legacy","Lentiform Loewenfeld","3.3.9","0","h","NA","h","NA","NA","h","551","NA","1840","NA","NA","551","2","legacy","1024","2","48000","-16","experiment","SSHSS","4","even","81198","5965","NA","NA","NA","4120","NA","NA","82303","4124","NA","NA","82957","82300","82405","82405","Flanker Task HW","44","23750","44","yes","1024"
"100","100","538.3555555555556","538.3555555555556","black","legacy","legacy","legacy","0","congruent","uniform","1","undefined","h","1","44","0","0","0","44","0","44","NA","44","0","0","0","44","44","44","44","Fri Sep 24 20:48:46 2021","1500","The main experiment item","yes","FlankerTaskHW.osexp","C:\Users\19565\Desktop","no","mono","no","18","no","white","no","yes","768","legacy","44","44","C:/Users/19565/Desktop/MR-subject-4.csv","legacy","Lentiform Loewenfeld","3.3.9","0","h","NA","h","NA","NA","h","476","NA","1840","NA","NA","476","2","legacy","1024","2","48000","-16","experiment","HHHHH","4","even","82963","5965","NA","NA","NA","4120","NA","NA","84088","4124","NA","NA","84666","84085","84189","84189","Flanker Task HW","45","24226","45","yes","1024"
"100","100","536.6304347826087","536.6304347826087","black","legacy","legacy","legacy","0","congruent","uniform","1","undefined","h","1","45","0","0","0","45","0","45","NA","45","0","0","0","45","45","45","45","Fri Sep 24 20:48:46 2021","1500","The main experiment item","yes","FlankerTaskHW.osexp","C:\Users\19565\Desktop","no","mono","no","18","no","white","no","yes","768","legacy","45","45","C:/Users/19565/Desktop/MR-subject-4.csv","legacy","Lentiform Loewenfeld","3.3.9","0","h","NA","h","NA","NA","h","459","NA","1840","NA","NA","459","2","legacy","1024","2","48000","-16","experiment","HHHHH","4","even","84672","5965","NA","NA","NA","4120","NA","NA","85774","4124","NA","NA","86338","85772","85877","85877","Flanker Task HW","46","24685","46","yes","1024"
"100","100","535.3404255319149","535.3404255319149","black","legacy","legacy","legacy","0","incongruent","uniform","1","undefined","h","1","46","0","0","0","46","0","46","NA","46","0","0","0","46","46","46","46","Fri Sep 24 20:48:46 2021","1500","The main experiment item","yes","FlankerTaskHW.osexp","C:\Users\19565\Desktop","no","mono","no","18","no","white","no","yes","768","legacy","46","46","C:/Users/19565/Desktop/MR-subject-4.csv","legacy","Lentiform Loewenfeld","3.3.9","0","h","NA","h","NA","NA","h","476","NA","1840","NA","NA","476","2","legacy","1024","2","48000","-16","experiment","SSHSS","4","even","86344","5965","NA","NA","NA","4120","NA","NA","87448","4124","NA","NA","88028","87445","87551","87551","Flanker Task HW","47","25161","47","yes","1024"
"100","100","533.8125","533.8125","black","legacy","legacy","legacy","0","congruent","uniform","1","undefined","s","1","47","0","0","0","47","0","47","NA","47","0","0","0","47","47","47","47","Fri Sep 24 20:48:46 2021","1500","The main experiment item","yes","FlankerTaskHW.osexp","C:\Users\19565\Desktop","no","mono","no","18","no","white","no","yes","768","legacy","47","47","C:/Users/19565/Desktop/MR-subject-4.csv","legacy","Lentiform Loewenfeld","3.3.9","0","s","NA","h","NA","NA","s","462","NA","1840","NA","NA","462","2","legacy","1024","2","48000","-16","experiment","SSSSS","4","even","88033","5965","NA","NA","NA","4120","NA","NA","89151","4124","NA","NA","89716","89149","89253","89253","Flanker Task HW","48","25623","48","yes","1024"
"100","100","534.8775510204082","534.8775510204082","black","legacy","legacy","legacy","0","incongruent","uniform","1","undefined","h","1","48","0","0","0","48","0","48","NA","48","0","0","0","48","48","48","48","Fri Sep 24 20:48:46 2021","1500","The main experiment item","yes","FlankerTaskHW.osexp","C:\Users\19565\Desktop","no","mono","no","18","no","white","no","yes","768","legacy","48","48","C:/Users/19565/Desktop/MR-subject-4.csv","legacy","Lentiform Loewenfeld","3.3.9","0","h","NA","h","NA","NA","h","586","NA","1840","NA","NA","586","2","legacy","1024","2","48000","-16","experiment","SSHSS","4","even","89722","5965","NA","NA","NA","4120","NA","NA","90827","4124","NA","NA","91516","90824","90929","90929","Flanker Task HW","49","26209","49","yes","1024"
"100","100","532.72","532.72","black","legacy","legacy","legacy","0","congruent","uniform","1","undefined","h","1","49","0","0","0","49","0","49","NA","49","0","0","0","49","49","49","49","Fri Sep 24 20:48:46 2021","1500","The main experiment item","yes","FlankerTaskHW.osexp","C:\Users\19565\Desktop","no","mono","no","18","no","white","no","yes","768","legacy","49","49","C:/Users/19565/Desktop/MR-subject-4.csv","legacy","Lentiform Loewenfeld","3.3.9","0","h","NA","h","NA","NA","h","427","NA","1840","NA","NA","427","2","legacy","1024","2","48000","-16","experiment","HHHHH","4","even","91521","5965","NA","NA","NA","4120","NA","NA","92639","4124","NA","NA","93169","92637","92741","92741","Flanker Task HW","50","26636","50","yes","1024"
"100","100","534.4117647058823","534.4117647058823","black","legacy","legacy","legacy","0","incongruent","uniform","1","undefined","h","1","50","0","0","0","50","0","50","NA","50","0","0","0","50","50","50","50","Fri Sep 24 20:48:46 2021","1500","The main experiment item","yes","FlankerTaskHW.osexp","C:\Users\19565\Desktop","no","mono","no","18","no","white","no","yes","768","legacy","50","50","C:/Users/19565/Desktop/MR-subject-4.csv","legacy","Lentiform Loewenfeld","3.3.9","0","h","NA","h","NA","NA","h","619","NA","1840","NA","NA","619","2","legacy","1024","2","48000","-16","experiment","SSHSS","4","even","93175","5965","NA","NA","NA","4120","NA","NA","94282","4124","NA","NA","95004","94279","94384","94384","Flanker Task HW","51","27255","51","yes","1024"
"100","100","533.2115384615385","533.2115384615385","black","legacy","legacy","legacy","0","congruent","uniform","1","undefined","s","1","51","0","0","0","51","0","51","NA","51","0","0","0","51","51","51","51","Fri Sep 24 20:48:46 2021","1500","The main experiment item","yes","FlankerTaskHW.osexp","C:\Users\19565\Desktop","no","mono","no","18","no","white","no","yes","768","legacy","51","51","C:/Users/19565/Desktop/MR-subject-4.csv","legacy","Lentiform Loewenfeld","3.3.9","0","s","NA","h","NA","NA","s","472","NA","1840","NA","NA","472","2","legacy","1024","2","48000","-16","experiment","SSSSS","4","even","95010","5965","NA","NA","NA","4120","NA","NA","96145","4124","NA","NA","96720","96142","96247","96247","Flanker Task HW","52","27727","52","yes","1024"
"100","100","533.2075471698113","533.2075471698113","black","legacy","legacy","legacy","0","incongruent","uniform","1","undefined","s","1","52","0","0","0","52","0","52","NA","52","0","0","0","52","52","52","52","Fri Sep 24 20:48:46 2021","1500","The main experiment item","yes","FlankerTaskHW.osexp","C:\Users\19565\Desktop","no","mono","no","18","no","white","no","yes","768","legacy","52","52","C:/Users/19565/Desktop/MR-subject-4.csv","legacy","Lentiform Loewenfeld","3.3.9","0","s","NA","h","NA","NA","s","533","NA","1840","NA","NA","533","2","legacy","1024","2","48000","-16","experiment","HHSHH","4","even","96726","5965","NA","NA","NA","4120","NA","NA","97827","4124","NA","NA","98464","97824","97930","97930","Flanker Task HW","53","28260","53","yes","1024"
"100","100","534.7037037037037","534.7037037037037","black","legacy","legacy","legacy","0","incongruent","uniform","1","undefined","h","1","53","0","0","0","53","0","53","NA","53","0","0","0","53","53","53","53","Fri Sep 24 20:48:46 2021","1500","The main experiment item","yes","FlankerTaskHW.osexp","C:\Users\19565\Desktop","no","mono","no","18","no","white","no","yes","768","legacy","53","53","C:/Users/19565/Desktop/MR-subject-4.csv","legacy","Lentiform Loewenfeld","3.3.9","0","h","NA","h","NA","NA","h","614","NA","1840","NA","NA","614","2","legacy","1024","2","48000","-16","experiment","SSHSS","4","even","98471","5965","NA","NA","NA","4120","NA","NA","99611","4124","NA","NA","100328","99608","99713","99713","Flanker Task HW","54","28874","54","yes","1024"
"100","100","534.4181818181818","534.4181818181818","black","legacy","legacy","legacy","0","incongruent","uniform","1","undefined","s","1","54","0","0","0","54","0","54","NA","54","0","0","0","54","54","54","54","Fri Sep 24 20:48:46 2021","1500","The main experiment item","yes","FlankerTaskHW.osexp","C:\Users\19565\Desktop","no","mono","no","18","no","white","no","yes","768","legacy","54","54","C:/Users/19565/Desktop/MR-subject-4.csv","legacy","Lentiform Loewenfeld","3.3.9","0","s","NA","h","NA","NA","s","519","NA","1840","NA","NA","519","2","legacy","1024","2","48000","-16","experiment","HHSHH","4","even","100333","5965","NA","NA","NA","4120","NA","NA","101479","4124","NA","NA","102100","101475","101581","101581","Flanker Task HW","55","29393","55","yes","1024"
"100","100","534.0357142857143","534.0357142857143","black","legacy","legacy","legacy","0","incongruent","uniform","1","undefined","h","1","55","0","0","0","55","0","55","NA","55","0","0","0","55","55","55","55","Fri Sep 24 20:48:46 2021","1500","The main experiment item","yes","FlankerTaskHW.osexp","C:\Users\19565\Desktop","no","mono","no","18","no","white","no","yes","768","legacy","55","55","C:/Users/19565/Desktop/MR-subject-4.csv","legacy","Lentiform Loewenfeld","3.3.9","0","h","NA","h","NA","NA","h","513","NA","1840","NA","NA","513","2","legacy","1024","2","48000","-16","experiment","SSHSS","4","even","102106","5965","NA","NA","NA","4120","NA","NA","103222","4124","NA","NA","103839","103220","103325","103325","Flanker Task HW","56","29906","56","yes","1024"
"100","100","532.9298245614035","532.9298245614035","black","legacy","legacy","legacy","0","incongruent","uniform","1","undefined","h","1","56","0","0","0","56","0","56","NA","56","0","0","0","56","56","56","56","Fri Sep 24 20:48:46 2021","1500","The main experiment item","yes","FlankerTaskHW.osexp","C:\Users\19565\Desktop","no","mono","no","18","no","white","no","yes","768","legacy","56","56","C:/Users/19565/Desktop/MR-subject-4.csv","legacy","Lentiform Loewenfeld","3.3.9","0","h","NA","h","NA","NA","h","471","NA","1840","NA","NA","471","2","legacy","1024","2","48000","-16","experiment","SSHSS","4","even","103844","5965","NA","NA","NA","4120","NA","NA","104981","4124","NA","NA","105559","104979","105085","105085","Flanker Task HW","57","30377","57","yes","1024"
"100","100","532.1896551724138","532.1896551724138","black","legacy","legacy","legacy","0","congruent","uniform","1","undefined","s","1","57","0","0","0","57","0","57","NA","57","0","0","0","57","57","57","57","Fri Sep 24 20:48:46 2021","1500","The main experiment item","yes","FlankerTaskHW.osexp","C:\Users\19565\Desktop","no","mono","no","18","no","white","no","yes","768","legacy","57","57","C:/Users/19565/Desktop/MR-subject-4.csv","legacy","Lentiform Loewenfeld","3.3.9","0","s","NA","h","NA","NA","s","490","NA","1840","NA","NA","490","2","legacy","1024","2","48000","-16","experiment","SSSSS","4","even","105567","5965","NA","NA","NA","4120","NA","NA","106706","4124","NA","NA","107299","106702","106808","106808","Flanker Task HW","58","30867","58","yes","1024"
"100","100","530.4067796610169","530.4067796610169","black","legacy","legacy","legacy","0","congruent","uniform","1","undefined","s","1","58","0","0","0","58","0","58","NA","58","0","0","0","58","58","58","58","Fri Sep 24 20:48:46 2021","1500","The main experiment item","yes","FlankerTaskHW.osexp","C:\Users\19565\Desktop","no","mono","no","18","no","white","no","yes","768","legacy","58","58","C:/Users/19565/Desktop/MR-subject-4.csv","legacy","Lentiform Loewenfeld","3.3.9","0","s","NA","h","NA","NA","s","427","NA","1840","NA","NA","427","2","legacy","1024","2","48000","-16","experiment","SSSSS","4","even","107304","5965","NA","NA","NA","4120","NA","NA","108432","4124","NA","NA","108963","108429","108534","108534","Flanker Task HW","59","31294","59","yes","1024"
"100","100","529.05","529.05","black","legacy","legacy","legacy","0","congruent","uniform","1","undefined","h","1","59","0","0","0","59","0","59","NA","59","0","0","0","59","59","59","59","Fri Sep 24 20:48:46 2021","1500","The main experiment item","yes","FlankerTaskHW.osexp","C:\Users\19565\Desktop","no","mono","no","18","no","white","no","yes","768","legacy","59","59","C:/Users/19565/Desktop/MR-subject-4.csv","legacy","Lentiform Loewenfeld","3.3.9","0","h","NA","h","NA","NA","h","449","NA","1840","NA","NA","449","2","legacy","1024","2","48000","-16","experiment","HHHHH","4","even","108970","5965","NA","NA","NA","4120","NA","NA","110088","4124","NA","NA","110639","110085","110190","110190","Flanker Task HW","60","31743","60","yes","1024"
"100","100","527.672131147541","527.672131147541","black","legacy","legacy","legacy","0","congruent","uniform","1","undefined","s","1","60","0","0","0","60","0","60","NA","60","0","0","0","60","60","60","60","Fri Sep 24 20:48:46 2021","1500","The main experiment item","yes","FlankerTaskHW.osexp","C:\Users\19565\Desktop","no","mono","no","18","no","white","no","yes","768","legacy","60","60","C:/Users/19565/Desktop/MR-subject-4.csv","legacy","Lentiform Loewenfeld","3.3.9","0","s","NA","h","NA","NA","s","445","NA","1840","NA","NA","445","2","legacy","1024","2","48000","-16","experiment","SSSSS","4","even","110645","5965","NA","NA","NA","4120","NA","NA","111760","4124","NA","NA","112310","111758","111863","111863","Flanker Task HW","61","32188","61","yes","1024"
"100","100","526.2741935483871","526.2741935483871","black","legacy","legacy","legacy","0","congruent","uniform","1","undefined","s","1","61","0","0","0","61","0","61","NA","61","0","0","0","61","61","61","61","Fri Sep 24 20:48:46 2021","1500","The main experiment item","yes","FlankerTaskHW.osexp","C:\Users\19565\Desktop","no","mono","no","18","no","white","no","yes","768","legacy","61","61","C:/Users/19565/Desktop/MR-subject-4.csv","legacy","Lentiform Loewenfeld","3.3.9","0","s","NA","h","NA","NA","s","441","NA","1840","NA","NA","441","2","legacy","1024","2","48000","-16","experiment","SSSSS","4","even","112315","5965","NA","NA","NA","4120","NA","NA","113424","4124","NA","NA","113969","113421","113526","113526","Flanker Task HW","62","32629","62","yes","1024"
"100","100","527.3650793650794","527.3650793650794","black","legacy","legacy","legacy","0","incongruent","uniform","1","undefined","s","1","62","0","0","0","62","0","62","NA","62","0","0","0","62","62","62","62","Fri Sep 24 20:48:46 2021","1500","The main experiment item","yes","FlankerTaskHW.osexp","C:\Users\19565\Desktop","no","mono","no","18","no","white","no","yes","768","legacy","62","62","C:/Users/19565/Desktop/MR-subject-4.csv","legacy","Lentiform Loewenfeld","3.3.9","0","s","NA","h","NA","NA","s","595","NA","1840","NA","NA","595","2","legacy","1024","2","48000","-16","experiment","HHSHH","4","even","113976","5965","NA","NA","NA","4120","NA","NA","115086","4124","NA","NA","115785","115083","115188","115188","Flanker Task HW","63","33224","63","yes","1024"
"100","100","525.9375","525.9375","black","legacy","legacy","legacy","0","incongruent","uniform","1","undefined","h","1","63","0","0","0","63","0","63","NA","63","0","0","0","63","63","63","63","Fri Sep 24 20:48:46 2021","1500","The main experiment item","yes","FlankerTaskHW.osexp","C:\Users\19565\Desktop","no","mono","no","18","no","white","no","yes","768","legacy","63","63","C:/Users/19565/Desktop/MR-subject-4.csv","legacy","Lentiform Loewenfeld","3.3.9","0","h","NA","h","NA","NA","h","436","NA","1840","NA","NA","436","2","legacy","1024","2","48000","-16","experiment","SSHSS","4","even","115790","5965","NA","NA","NA","4120","NA","NA","116904","4124","NA","NA","117444","116901","117006","117006","Flanker Task HW","64","33660","64","yes","1024"
"100","100","525.4615384615385","525.4615384615385","black","legacy","legacy","legacy","0","incongruent","uniform","1","undefined","s","1","64","0","0","0","64","0","64","NA","64","0","0","0","64","64","64","64","Fri Sep 24 20:48:46 2021","1500","The main experiment item","yes","FlankerTaskHW.osexp","C:\Users\19565\Desktop","no","mono","no","18","no","white","no","yes","768","legacy","64","64","C:/Users/19565/Desktop/MR-subject-4.csv","legacy","Lentiform Loewenfeld","3.3.9","0","s","NA","h","NA","NA","s","495","NA","1840","NA","NA","495","2","legacy","1024","2","48000","-16","experiment","HHSHH","4","even","117450","5965","NA","NA","NA","4120","NA","NA","118565","4124","NA","NA","119162","118562","118667","118667","Flanker Task HW","65","34155","65","yes","1024"
"100","100","524.6515151515151","524.6515151515151","black","legacy","legacy","legacy","0","congruent","uniform","1","undefined","s","1","65","0","0","0","65","0","65","NA","65","0","0","0","65","65","65","65","Fri Sep 24 20:48:46 2021","1500","The main experiment item","yes","FlankerTaskHW.osexp","C:\Users\19565\Desktop","no","mono","no","18","no","white","no","yes","768","legacy","65","65","C:/Users/19565/Desktop/MR-subject-4.csv","legacy","Lentiform Loewenfeld","3.3.9","0","s","NA","h","NA","NA","s","472","NA","1840","NA","NA","472","2","legacy","1024","2","48000","-16","experiment","SSSSS","4","even","119169","5965","NA","NA","NA","4120","NA","NA","120294","4124","NA","NA","120869","120291","120396","120396","Flanker Task HW","66","34627","66","yes","1024"
"100","100","523.8358208955224","523.8358208955224","black","legacy","legacy","legacy","0","congruent","uniform","1","undefined","s","1","66","0","0","0","66","0","66","NA","66","0","0","0","66","66","66","66","Fri Sep 24 20:48:46 2021","1500","The main experiment item","yes","FlankerTaskHW.osexp","C:\Users\19565\Desktop","no","mono","no","18","no","white","no","yes","768","legacy","66","66","C:/Users/19565/Desktop/MR-subject-4.csv","legacy","Lentiform Loewenfeld","3.3.9","0","s","NA","h","NA","NA","s","470","NA","1840","NA","NA","470","2","legacy","1024","2","48000","-16","experiment","SSSSS","4","even","120875","5965","NA","NA","NA","4120","NA","NA","122003","4124","NA","NA","122576","122000","122105","122105","Flanker Task HW","67","35097","67","yes","1024"
"98.52941176470588","98.52941176470588","523.0294117647059","523.0294117647059","black","legacy","legacy","legacy","0","incongruent","uniform","0","undefined","s","0","67","0","0","0","67","0","67","NA","67","0","0","0","67","67","67","67","Fri Sep 24 20:48:46 2021","1500","The main experiment item","yes","FlankerTaskHW.osexp","C:\Users\19565\Desktop","no","mono","no","18","no","white","no","yes","768","legacy","67","67","C:/Users/19565/Desktop/MR-subject-4.csv","legacy","Lentiform Loewenfeld","3.3.9","0","h","NA","h","NA","NA","h","469","NA","1840","NA","NA","469","2","legacy","1024","2","48000","-16","experiment","HHSHH","4","even","122581","5965","NA","NA","NA","4120","NA","NA","123686","4124","NA","NA","124259","123683","123788","123788","Flanker Task HW","67","35566","68","yes","1024"
"98.55072463768116","98.55072463768116","522.5072463768116","522.5072463768116","black","legacy","legacy","legacy","0","congruent","uniform","1","undefined","s","1","68","0","0","0","68","0","68","NA","68","0","0","0","68","68","68","68","Fri Sep 24 20:48:46 2021","1500","The main experiment item","yes","FlankerTaskHW.osexp","C:\Users\19565\Desktop","no","mono","no","18","no","white","no","yes","768","legacy","68","68","C:/Users/19565/Desktop/MR-subject-4.csv","legacy","Lentiform Loewenfeld","3.3.9","0","s","NA","h","NA","NA","s","487","NA","1840","NA","NA","487","2","legacy","1024","2","48000","-16","experiment","SSSSS","4","even","124768","5965","NA","NA","124264","4120","NA","NA","125889","4124","NA","NA","126480","125886","125992","125992","Flanker Task HW","68","36053","69","yes","1024"
"98.57142857142857","98.57142857142857","522.2","522.2","black","legacy","legacy","legacy","0","incongruent","uniform","1","undefined","s","1","69","0","0","0","69","0","69","NA","69","0","0","0","69","69","69","69","Fri Sep 24 20:48:46 2021","1500","The main experiment item","yes","FlankerTaskHW.osexp","C:\Users\19565\Desktop","no","mono","no","18","no","white","no","yes","768","legacy","69","69","C:/Users/19565/Desktop/MR-subject-4.csv","legacy","Lentiform Loewenfeld","3.3.9","0","s","NA","h","NA","NA","s","501","NA","1840","NA","NA","501","2","legacy","1024","2","48000","-16","experiment","HHSHH","4","even","126487","5965","NA","NA","124264","4120","NA","NA","127591","4124","NA","NA","128197","127589","127693","127693","Flanker Task HW","69","36554","70","yes","1024"
"97.1830985915493","97.1830985915493","520.2816901408451","520.2816901408451","black","legacy","legacy","legacy","0","incongruent","uniform","0","undefined","h","0","70","0","0","0","70","0","70","NA","70","0","0","0","70","70","70","70","Fri Sep 24 20:48:46 2021","1500","The main experiment item","yes","FlankerTaskHW.osexp","C:\Users\19565\Desktop","no","mono","no","18","no","white","no","yes","768","legacy","70","70","C:/Users/19565/Desktop/MR-subject-4.csv","legacy","Lentiform Loewenfeld","3.3.9","0","s","NA","h","NA","NA","s","386","NA","1840","NA","NA","386","2","legacy","1024","2","48000","-16","experiment","SSHSS","4","even","128202","5965","NA","NA","124264","4120","NA","NA","129339","4124","NA","NA","129829","129336","129441","129441","Flanker Task HW","69","36940","71","yes","1024"
"97.22222222222223","97.22222222222223","519.7777777777778","519.7777777777778","black","legacy","legacy","legacy","0","incongruent","uniform","1","undefined","h","1","71","0","0","0","71","0","71","NA","71","0","0","0","71","71","71","71","Fri Sep 24 20:48:46 2021","1500","The main experiment item","yes","FlankerTaskHW.osexp","C:\Users\19565\Desktop","no","mono","no","18","no","white","no","yes","768","legacy","71","71","C:/Users/19565/Desktop/MR-subject-4.csv","legacy","Lentiform Loewenfeld","3.3.9","0","h","NA","h","NA","NA","h","484","NA","1840","NA","NA","484","2","legacy","1024","2","48000","-16","experiment","SSHSS","4","even","130338","5965","NA","NA","129835","4120","NA","NA","131459","4124","NA","NA","132047","131457","131561","131561","Flanker Task HW","70","37424","72","yes","1024"
"97.26027397260275","97.26027397260275","518.4931506849315","518.4931506849315","black","legacy","legacy","legacy","0","congruent","uniform","1","undefined","s","1","72","0","0","0","72","0","72","NA","72","0","0","0","72","72","72","72","Fri Sep 24 20:48:46 2021","1500","The main experiment item","yes","FlankerTaskHW.osexp","C:\Users\19565\Desktop","no","mono","no","18","no","white","no","yes","768","legacy","72","72","C:/Users/19565/Desktop/MR-subject-4.csv","legacy","Lentiform Loewenfeld","3.3.9","0","s","NA","h","NA","NA","s","426","NA","1840","NA","NA","426","2","legacy","1024","2","48000","-16","experiment","SSSSS","4","even","132052","5965","NA","NA","129835","4120","NA","NA","133185","4124","NA","NA","133715","133182","133288","133288","Flanker Task HW","71","37850","73","yes","1024"
"97.29729729729729","97.29729729729729","517.6486486486486","517.6486486486486","black","legacy","legacy","legacy","0","congruent","uniform","1","undefined","h","1","73","0","0","0","73","0","73","NA","73","0","0","0","73","73","73","73","Fri Sep 24 20:48:46 2021","1500","The main experiment item","yes","FlankerTaskHW.osexp","C:\Users\19565\Desktop","no","mono","no","18","no","white","no","yes","768","legacy","73","73","C:/Users/19565/Desktop/MR-subject-4.csv","legacy","Lentiform Loewenfeld","3.3.9","0","h","NA","h","NA","NA","h","456","NA","1840","NA","NA","456","2","legacy","1024","2","48000","-16","experiment","HHHHH","4","even","133719","5965","NA","NA","129835","4120","NA","NA","134880","4124","NA","NA","135439","134877","134982","134982","Flanker Task HW","72","38306","74","yes","1024"
"97.33333333333333","97.33333333333333","516.6666666666666","516.6666666666666","black","legacy","legacy","legacy","0","congruent","uniform","1","undefined","s","1","74","0","0","0","74","0","74","NA","74","0","0","0","74","74","74","74","Fri Sep 24 20:48:46 2021","1500","The main experiment item","yes","FlankerTaskHW.osexp","C:\Users\19565\Desktop","no","mono","no","18","no","white","no","yes","768","legacy","74","74","C:/Users/19565/Desktop/MR-subject-4.csv","legacy","Lentiform Loewenfeld","3.3.9","0","s","NA","h","NA","NA","s","444","NA","1840","NA","NA","444","2","legacy","1024","2","48000","-16","experiment","SSSSS","4","even","135444","5965","NA","NA","129835","4120","NA","NA","136549","4124","NA","NA","137101","136547","136654","136654","Flanker Task HW","73","38750","75","yes","1024"
"97.36842105263158","97.36842105263158","515.9736842105264","515.9736842105264","black","legacy","legacy","legacy","0","incongruent","uniform","1","undefined","h","1","75","0","0","0","75","0","75","NA","75","0","0","0","75","75","75","75","Fri Sep 24 20:48:46 2021","1500","The main experiment item","yes","FlankerTaskHW.osexp","C:\Users\19565\Desktop","no","mono","no","18","no","white","no","yes","768","legacy","75","75","C:/Users/19565/Desktop/MR-subject-4.csv","legacy","Lentiform Loewenfeld","3.3.9","0","h","NA","h","NA","NA","h","464","NA","1840","NA","NA","464","2","legacy","1024","2","48000","-16","experiment","SSHSS","4","even","137108","5965","NA","NA","129835","4120","NA","NA","138222","4124","NA","NA","138789","138220","138324","138324","Flanker Task HW","74","39214","76","yes","1024"
"97.40259740259741","97.40259740259741","515.6233766233767","515.6233766233767","black","legacy","legacy","legacy","0","incongruent","uniform","1","undefined","s","1","76","0","0","0","76","0","76","NA","76","0","0","0","76","76","76","76","Fri Sep 24 20:48:46 2021","1500","The main experiment item","yes","FlankerTaskHW.osexp","C:\Users\19565\Desktop","no","mono","no","18","no","white","no","yes","768","legacy","76","76","C:/Users/19565/Desktop/MR-subject-4.csv","legacy","Lentiform Loewenfeld","3.3.9","0","s","NA","h","NA","NA","s","489","NA","1840","NA","NA","489","2","legacy","1024","2","48000","-16","experiment","HHSHH","4","even","138795","5965","NA","NA","129835","4120","NA","NA","139922","4124","NA","NA","140515","139919","140024","140024","Flanker Task HW","75","39703","77","yes","1024"
"97.43589743589743","97.43589743589743","514.9871794871794","514.9871794871794","black","legacy","legacy","legacy","0","congruent","uniform","1","undefined","h","1","77","0","0","0","77","0","77","NA","77","0","0","0","77","77","77","77","Fri Sep 24 20:48:46 2021","1500","The main experiment item","yes","FlankerTaskHW.osexp","C:\Users\19565\Desktop","no","mono","no","18","no","white","no","yes","768","legacy","77","77","C:/Users/19565/Desktop/MR-subject-4.csv","legacy","Lentiform Loewenfeld","3.3.9","0","h","NA","h","NA","NA","h","466","NA","1840","NA","NA","466","2","legacy","1024","2","48000","-16","experiment","HHHHH","4","even","140521","5965","NA","NA","129835","4120","NA","NA","141662","4124","NA","NA","142231","141659","141764","141764","Flanker Task HW","76","40169","78","yes","1024"
"97.46835443037975","97.46835443037975","513.7848101265823","513.7848101265823","black","legacy","legacy","legacy","0","congruent","uniform","1","undefined","h","1","78","0","0","0","78","0","78","NA","78","0","0","0","78","78","78","78","Fri Sep 24 20:48:46 2021","1500","The main experiment item","yes","FlankerTaskHW.osexp","C:\Users\19565\Desktop","no","mono","no","18","no","white","no","yes","768","legacy","78","78","C:/Users/19565/Desktop/MR-subject-4.csv","legacy","Lentiform Loewenfeld","3.3.9","0","h","NA","h","NA","NA","h","420","NA","1840","NA","NA","420","2","legacy","1024","2","48000","-16","experiment","HHHHH","4","even","142236","5965","NA","NA","129835","4120","NA","NA","143350","4124","NA","NA","143873","143347","143452","143452","Flanker Task HW","77","40589","79","yes","1024"
"97.5","97.5","512.5375","512.5375","black","legacy","legacy","legacy","0","congruent","uniform","1","undefined","s","1","79","0","0","0","79","0","79","NA","79","0","0","0","79","79","79","79","Fri Sep 24 20:48:46 2021","1500","The main experiment item","yes","FlankerTaskHW.osexp","C:\Users\19565\Desktop","no","mono","no","18","no","white","no","yes","768","legacy","79","79","C:/Users/19565/Desktop/MR-subject-4.csv","legacy","Lentiform Loewenfeld","3.3.9","0","s","NA","h","NA","NA","s","414","NA","1840","NA","NA","414","2","legacy","1024","2","48000","-16","experiment","SSSSS","4","even","143881","5965","NA","NA","129835","4120","NA","NA","145005","4124","NA","NA","145524","145002","145108","145107","Flanker Task HW","78","41003","80","yes","1024"
"97.53086419753086","97.53086419753086","514.716049382716","514.716049382716","black","legacy","legacy","legacy","0","incongruent","uniform","1","undefined","s","1","80","0","0","0","80","0","80","NA","80","0","0","0","80","80","80","80","Fri Sep 24 20:48:46 2021","600","The main experiment item","yes","FlankerTaskHW.osexp","C:\Users\19565\Desktop","no","mono","no","18","no","white","no","yes","768","legacy","0","79","C:/Users/19565/Desktop/MR-subject-4.csv","legacy","Lentiform Loewenfeld","3.3.9","0","s","NA","h","h","NA","s","689","NA","1840","1351","NA","689","2","legacy","1024","2","48000","-16","experiment","HHSHH","4","even","145530","5965","147938","NA","129835","4120","NA","NA","148017","4124","146585","NA","148811","148015","148120","148120","Flanker Task HW","79","41692","81","yes","1024"
"97.5609756097561","97.5609756097561","513.4756097560976","513.4756097560976","black","legacy","legacy","legacy","0","congruent","uniform","1","undefined","s","1","81","0","0","0","81","0","81","NA","81","0","0","0","81","81","81","81","Fri Sep 24 20:48:46 2021","600","The main experiment item","yes","FlankerTaskHW.osexp","C:\Users\19565\Desktop","no","mono","no","18","no","white","no","yes","768","legacy","1","79","C:/Users/19565/Desktop/MR-subject-4.csv","legacy","Lentiform Loewenfeld","3.3.9","0","s","NA","h","h","NA","s","413","NA","1840","1351","NA","413","2","legacy","1024","2","48000","-16","experiment","SSSSS","4","even","149320","5965","147938","NA","129835","4120","148817","NA","150420","4124","146585","NA","150937","150417","150522","150522","Flanker Task HW","80","42105","82","yes","1024"
"97.59036144578313","97.59036144578313","511.8192771084337","511.8192771084337","black","legacy","legacy","legacy","0","congruent","uniform","1","undefined","h","1","82","0","0","0","82","0","82","NA","82","0","0","0","82","82","82","82","Fri Sep 24 20:48:46 2021","600","The main experiment item","yes","FlankerTaskHW.osexp","C:\Users\19565\Desktop","no","mono","no","18","no","white","no","yes","768","legacy","2","79","C:/Users/19565/Desktop/MR-subject-4.csv","legacy","Lentiform Loewenfeld","3.3.9","0","h","NA","h","h","NA","h","376","NA","1840","1351","NA","376","2","legacy","1024","2","48000","-16","experiment","HHHHH","4","even","150945","5965","147938","NA","129835","4120","148817","NA","152056","4124","146585","NA","152535","152053","152158","152158","Flanker Task HW","81","42481","83","yes","1024"
"97.61904761904762","97.61904761904762","510.7261904761905","510.7261904761905","black","legacy","legacy","legacy","0","congruent","uniform","1","undefined","s","1","83","0","0","0","83","0","83","NA","83","0","0","0","83","83","83","83","Fri Sep 24 20:48:46 2021","600","The main experiment item","yes","FlankerTaskHW.osexp","C:\Users\19565\Desktop","no","mono","no","18","no","white","no","yes","768","legacy","3","79","C:/Users/19565/Desktop/MR-subject-4.csv","legacy","Lentiform Loewenfeld","3.3.9","0","s","NA","h","h","NA","s","420","NA","1840","1351","NA","420","2","legacy","1024","2","48000","-16","experiment","SSSSS","4","even","152540","5965","147938","NA","129835","4120","148817","NA","153665","4124","146585","NA","154188","153663","153767","153767","Flanker Task HW","82","42901","84","yes","1024"
"97.6470588235294","97.6470588235294","509.3058823529412","509.3058823529412","black","legacy","legacy","legacy","0","congruent","uniform","1","undefined","h","1","84","0","0","0","84","0","84","NA","84","0","0","0","84","84","84","84","Fri Sep 24 20:48:46 2021","600","The main experiment item","yes","FlankerTaskHW.osexp","C:\Users\19565\Desktop","no","mono","no","18","no","white","no","yes","768","legacy","4","79","C:/Users/19565/Desktop/MR-subject-4.csv","legacy","Lentiform Loewenfeld","3.3.9","0","h","NA","h","h","NA","h","390","NA","1840","1351","NA","390","2","legacy","1024","2","48000","-16","experiment","HHHHH","4","even","154194","5965","147938","NA","129835","4120","148817","NA","155320","4124","146585","NA","155814","155318","155422","155422","Flanker Task HW","83","43291","85","yes","1024"
"97.67441860465117","97.67441860465117","508.8139534883721","508.8139534883721","black","legacy","legacy","legacy","0","incongruent","uniform","1","undefined","s","1","85","0","0","0","85","0","85","NA","85","0","0","0","85","85","85","85","Fri Sep 24 20:48:46 2021","600","The main experiment item","yes","FlankerTaskHW.osexp","C:\Users\19565\Desktop","no","mono","no","18","no","white","no","yes","768","legacy","5","79","C:/Users/19565/Desktop/MR-subject-4.csv","legacy","Lentiform Loewenfeld","3.3.9","0","s","NA","h","h","NA","s","467","NA","1840","1351","NA","467","2","legacy","1024","2","48000","-16","experiment","HHSHH","4","even","155820","5965","147938","NA","129835","4120","148817","NA","156919","4124","146585","NA","157490","156917","157021","157021","Flanker Task HW","84","43758","86","yes","1024"
"97.70114942528735","97.70114942528735","507.7931034482759","507.7931034482759","black","legacy","legacy","legacy","0","congruent","uniform","1","undefined","h","1","86","0","0","0","86","0","86","NA","86","0","0","0","86","86","86","86","Fri Sep 24 20:48:46 2021","600","The main experiment item","yes","FlankerTaskHW.osexp","C:\Users\19565\Desktop","no","mono","no","18","no","white","no","yes","768","legacy","6","79","C:/Users/19565/Desktop/MR-subject-4.csv","legacy","Lentiform Loewenfeld","3.3.9","0","h","NA","h","h","NA","h","420","NA","1840","1351","NA","420","2","legacy","1024","2","48000","-16","experiment","HHHHH","4","even","157500","5965","147938","NA","129835","4120","148817","NA","158615","4124","146585","NA","159139","158612","158717","158717","Flanker Task HW","85","44178","87","yes","1024"
"97.72727272727273","97.72727272727273","506.1931818181818","506.1931818181818","black","legacy","legacy","legacy","0","congruent","uniform","1","undefined","h","1","87","0","0","0","87","0","87","NA","87","0","0","0","87","87","87","87","Fri Sep 24 20:48:46 2021","600","The main experiment item","yes","FlankerTaskHW.osexp","C:\Users\19565\Desktop","no","mono","no","18","no","white","no","yes","768","legacy","7","79","C:/Users/19565/Desktop/MR-subject-4.csv","legacy","Lentiform Loewenfeld","3.3.9","0","h","NA","h","h","NA","h","367","NA","1840","1351","NA","367","2","legacy","1024","2","48000","-16","experiment","HHHHH","4","even","159144","5965","147938","NA","129835","4120","148817","NA","160274","4124","146585","NA","160747","160271","160378","160378","Flanker Task HW","86","44545","88","yes","1024"
"97.75280898876404","97.75280898876404","504.76404494382024","504.76404494382024","black","legacy","legacy","legacy","0","congruent","uniform","1","undefined","s","1","88","0","0","0","88","0","88","NA","88","0","0","0","88","88","88","88","Fri Sep 24 20:48:46 2021","600","The main experiment item","yes","FlankerTaskHW.osexp","C:\Users\19565\Desktop","no","mono","no","18","no","white","no","yes","768","legacy","8","79","C:/Users/19565/Desktop/MR-subject-4.csv","legacy","Lentiform Loewenfeld","3.3.9","0","s","NA","h","h","NA","s","379","NA","1840","1351","NA","379","2","legacy","1024","2","48000","-16","experiment","SSSSS","4","even","160754","5965","147938","NA","129835","4120","148817","NA","161894","4124","146585","NA","162377","161891","161996","161996","Flanker Task HW","87","44924","89","yes","1024"
"97.77777777777777","97.77777777777777","503.26666666666665","503.26666666666665","black","legacy","legacy","legacy","0","congruent","uniform","1","undefined","s","1","89","0","0","0","89","0","89","NA","89","0","0","0","89","89","89","89","Fri Sep 24 20:48:46 2021","600","The main experiment item","yes","FlankerTaskHW.osexp","C:\Users\19565\Desktop","no","mono","no","18","no","white","no","yes","768","legacy","9","79","C:/Users/19565/Desktop/MR-subject-4.csv","legacy","Lentiform Loewenfeld","3.3.9","0","s","NA","h","h","NA","s","370","NA","1840","1351","NA","370","2","legacy","1024","2","48000","-16","experiment","SSSSS","4","even","162381","5965","147938","NA","129835","4120","148817","NA","163511","4124","146585","NA","163985","163508","163614","163614","Flanker Task HW","88","45294","90","yes","1024"
"97.8021978021978","97.8021978021978","503.84615384615387","503.84615384615387","black","legacy","legacy","legacy","0","incongruent","uniform","1","undefined","s","1","90","0","0","0","90","0","90","NA","90","0","0","0","90","90","90","90","Fri Sep 24 20:48:46 2021","600","The main experiment item","yes","FlankerTaskHW.osexp","C:\Users\19565\Desktop","no","mono","no","18","no","white","no","yes","768","legacy","10","79","C:/Users/19565/Desktop/MR-subject-4.csv","legacy","Lentiform Loewenfeld","3.3.9","0","s","NA","h","h","NA","s","556","NA","1840","1351","NA","556","2","legacy","1024","2","48000","-16","experiment","HHSHH","4","even","163990","5965","147938","NA","129835","4120","148817","NA","165118","4124","146585","NA","165779","165115","165221","165221","Flanker Task HW","89","45850","91","yes","1024"
"97.82608695652173","97.82608695652173","503.39130434782606","503.39130434782606","black","legacy","legacy","legacy","0","incongruent","uniform","1","undefined","s","1","91","0","0","0","91","0","91","NA","91","0","0","0","91","91","91","91","Fri Sep 24 20:48:46 2021","600","The main experiment item","yes","FlankerTaskHW.osexp","C:\Users\19565\Desktop","no","mono","no","18","no","white","no","yes","768","legacy","11","79","C:/Users/19565/Desktop/MR-subject-4.csv","legacy","Lentiform Loewenfeld","3.3.9","0","s","NA","h","h","NA","s","462","NA","1840","1351","NA","462","2","legacy","1024","2","48000","-16","experiment","HHSHH","4","even","165784","5965","147938","NA","129835","4120","148817","NA","166923","4124","146585","NA","167489","166920","167025","167025","Flanker Task HW","90","46312","92","yes","1024"
"97.84946236559139","97.84946236559139","501.83870967741933","501.83870967741933","black","legacy","legacy","legacy","0","congruent","uniform","1","undefined","s","1","92","0","0","0","92","0","92","NA","92","0","0","0","92","92","92","92","Fri Sep 24 20:48:46 2021","600","The main experiment item","yes","FlankerTaskHW.osexp","C:\Users\19565\Desktop","no","mono","no","18","no","white","no","yes","768","legacy","12","79","C:/Users/19565/Desktop/MR-subject-4.csv","legacy","Lentiform Loewenfeld","3.3.9","0","s","NA","h","h","NA","s","359","NA","1840","1351","NA","359","2","legacy","1024","2","48000","-16","experiment","SSSSS","4","even","167494","5965","147938","NA","129835","4120","148817","NA","168609","4124","146585","NA","169071","168606","168710","168710","Flanker Task HW","91","46671","93","yes","1024"
"97.87234042553192","97.87234042553192","501.1063829787234","501.1063829787234","black","legacy","legacy","legacy","0","congruent","uniform","1","undefined","h","1","93","0","0","0","93","0","93","NA","93","0","0","0","93","93","93","93","Fri Sep 24 20:48:46 2021","600","The main experiment item","yes","FlankerTaskHW.osexp","C:\Users\19565\Desktop","no","mono","no","18","no","white","no","yes","768","legacy","13","79","C:/Users/19565/Desktop/MR-subject-4.csv","legacy","Lentiform Loewenfeld","3.3.9","0","h","NA","h","h","NA","h","433","NA","1840","1351","NA","433","2","legacy","1024","2","48000","-16","experiment","HHHHH","4","even","169077","5965","147938","NA","129835","4120","148817","NA","170200","4124","146585","NA","170736","170197","170302","170302","Flanker Task HW","92","47104","94","yes","1024"
"97.89473684210526","97.89473684210526","500.36842105263156","500.36842105263156","black","legacy","legacy","legacy","0","incongruent","uniform","1","undefined","s","1","94","0","0","0","94","0","94","NA","94","0","0","0","94","94","94","94","Fri Sep 24 20:48:46 2021","600","The main experiment item","yes","FlankerTaskHW.osexp","C:\Users\19565\Desktop","no","mono","no","18","no","white","no","yes","768","legacy","14","79","C:/Users/19565/Desktop/MR-subject-4.csv","legacy","Lentiform Loewenfeld","3.3.9","0","s","NA","h","h","NA","s","431","NA","1840","1351","NA","431","2","legacy","1024","2","48000","-16","experiment","HHSHH","4","even","170740","5965","147938","NA","129835","4120","148817","NA","171893","4124","146585","NA","172431","171890","171998","171998","Flanker Task HW","93","47535","95","yes","1024"
"96.875","96.875","499.6666666666667","499.6666666666667","black","legacy","legacy","legacy","0","incongruent","uniform","0","undefined","h","0","95","0","0","0","95","0","95","NA","95","0","0","0","95","95","95","95","Fri Sep 24 20:48:46 2021","600","The main experiment item","yes","FlankerTaskHW.osexp","C:\Users\19565\Desktop","no","mono","no","18","no","white","no","yes","768","legacy","15","79","C:/Users/19565/Desktop/MR-subject-4.csv","legacy","Lentiform Loewenfeld","3.3.9","0","s","NA","h","h","NA","s","433","NA","1840","1351","NA","433","2","legacy","1024","2","48000","-16","experiment","SSHSS","4","even","172438","5965","147938","NA","129835","4120","148817","NA","173592","4124","146585","NA","174130","173589","173696","173696","Flanker Task HW","93","47968","96","yes","1024"
"96.90721649484536","96.90721649484536","499.9381443298969","499.9381443298969","black","legacy","legacy","legacy","0","congruent","uniform","1","undefined","h","1","96","0","0","0","96","0","96","NA","96","0","0","0","96","96","96","96","Fri Sep 24 20:48:46 2021","600","The main experiment item","yes","FlankerTaskHW.osexp","C:\Users\19565\Desktop","no","mono","no","18","no","white","no","yes","768","legacy","16","79","C:/Users/19565/Desktop/MR-subject-4.csv","legacy","Lentiform Loewenfeld","3.3.9","0","h","NA","h","h","NA","h","526","NA","1840","1351","NA","526","2","legacy","1024","2","48000","-16","experiment","HHHHH","4","even","174641","5965","147938","NA","174136","4120","148817","NA","175812","4124","146585","NA","176442","175807","175915","175915","Flanker Task HW","94","48494","97","yes","1024"
"96.93877551020408","96.93877551020408","500.2857142857143","500.2857142857143","black","legacy","legacy","legacy","0","congruent","uniform","1","undefined","s","1","97","0","0","0","97","0","97","NA","97","0","0","0","97","97","97","97","Fri Sep 24 20:48:46 2021","600","The main experiment item","yes","FlankerTaskHW.osexp","C:\Users\19565\Desktop","no","mono","no","18","no","white","no","yes","768","legacy","17","79","C:/Users/19565/Desktop/MR-subject-4.csv","legacy","Lentiform Loewenfeld","3.3.9","0","s","NA","h","h","NA","s","534","NA","1840","1351","NA","534","2","legacy","1024","2","48000","-16","experiment","SSSSS","4","even","176446","5965","147938","NA","174136","4120","148817","NA","177579","4124","146585","NA","178218","177576","177683","177683","Flanker Task HW","95","49028","98","yes","1024"
"96.96969696969697","96.96969696969697","499.5959595959596","499.5959595959596","black","legacy","legacy","legacy","0","incongruent","uniform","1","undefined","h","1","98","0","0","0","98","0","98","NA","98","0","0","0","98","98","98","98","Fri Sep 24 20:48:46 2021","600","The main experiment item","yes","FlankerTaskHW.osexp","C:\Users\19565\Desktop","no","mono","no","18","no","white","no","yes","768","legacy","18","79","C:/Users/19565/Desktop/MR-subject-4.csv","legacy","Lentiform Loewenfeld","3.3.9","0","h","NA","h","h","NA","h","432","NA","1840","1351","NA","432","2","legacy","1024","2","48000","-16","experiment","SSHSS","4","even","178222","5965","147938","NA","174136","4120","148817","NA","179368","4124","146585","NA","179909","179365","179473","179472","Flanker Task HW","96","49460","99","yes","1024"
"97","97","498.72","498.72","black","legacy","legacy","legacy","0","incongruent","uniform","1","undefined","h","1","99","0","0","0","99","0","99","NA","99","0","0","0","99","99","99","99","Fri Sep 24 20:48:46 2021","600","The main experiment item","yes","FlankerTaskHW.osexp","C:\Users\19565\Desktop","no","mono","no","18","no","white","no","yes","768","legacy","19","79","C:/Users/19565/Desktop/MR-subject-4.csv","legacy","Lentiform Loewenfeld","3.3.9","0","h","NA","h","h","NA","h","412","NA","1840","1351","NA","412","2","legacy","1024","2","48000","-16","experiment","SSHSS","4","even","179919","5965","147938","NA","174136","4120","148817","NA","181019","4124","146585","NA","181535","181015","181121","181121","Flanker Task HW","97","49872","100","yes","1024"
"97.02970297029702","97.02970297029702","497.9504950495049","497.9504950495049","black","legacy","legacy","legacy","0","incongruent","uniform","1","undefined","h","1","100","0","0","0","100","0","100","NA","100","0","0","0","100","100","100","100","Fri Sep 24 20:48:46 2021","600","The main experiment item","yes","FlankerTaskHW.osexp","C:\Users\19565\Desktop","no","mono","no","18","no","white","no","yes","768","legacy","20","79","C:/Users/19565/Desktop/MR-subject-4.csv","legacy","Lentiform Loewenfeld","3.3.9","0","h","NA","h","h","NA","h","421","NA","1840","1351","NA","421","2","legacy","1024","2","48000","-16","experiment","SSHSS","4","even","181541","5965","147938","NA","174136","4120","148817","NA","182683","4124","146585","NA","183210","182680","182787","182786","Flanker Task HW","98","50293","101","yes","1024"
"97.05882352941177","97.05882352941177","496.8235294117647","496.8235294117647","black","legacy","legacy","legacy","0","congruent","uniform","1","undefined","h","1","101","0","0","0","101","0","101","NA","101","0","0","0","101","101","101","101","Fri Sep 24 20:48:46 2021","600","The main experiment item","yes","FlankerTaskHW.osexp","C:\Users\19565\Desktop","no","mono","no","18","no","white","no","yes","768","legacy","21","79","C:/Users/19565/Desktop/MR-subject-4.csv","legacy","Lentiform Loewenfeld","3.3.9","0","h","NA","h","h","NA","h","383","NA","1840","1351","NA","383","2","legacy","1024","2","48000","-16","experiment","HHHHH","4","even","183216","5965","147938","NA","174136","4120","148817","NA","184319","4124","146585","NA","184810","184316","184426","184425","Flanker Task HW","99","50676","102","yes","1024"
"97.0873786407767","97.0873786407767","496.0485436893204","496.0485436893204","black","legacy","legacy","legacy","0","congruent","uniform","1","undefined","h","1","102","0","0","0","102","0","102","NA","102","0","0","0","102","102","102","102","Fri Sep 24 20:48:46 2021","600","The main experiment item","yes","FlankerTaskHW.osexp","C:\Users\19565\Desktop","no","mono","no","18","no","white","no","yes","768","legacy","22","79","C:/Users/19565/Desktop/MR-subject-4.csv","legacy","Lentiform Loewenfeld","3.3.9","0","h","NA","h","h","NA","h","417","NA","1840","1351","NA","417","2","legacy","1024","2","48000","-16","experiment","HHHHH","4","even","184819","5965","147938","NA","174136","4120","148817","NA","185957","4124","146585","NA","186482","185954","186064","186063","Flanker Task HW","100","51093","103","yes","1024"
"97.11538461538461","97.11538461538461","494.88461538461536","494.88461538461536","black","legacy","legacy","legacy","0","incongruent","uniform","1","undefined","h","1","103","0","0","0","103","0","103","NA","103","0","0","0","103","103","103","103","Fri Sep 24 20:48:46 2021","600","The main experiment item","yes","FlankerTaskHW.osexp","C:\Users\19565\Desktop","no","mono","no","18","no","white","no","yes","768","legacy","23","79","C:/Users/19565/Desktop/MR-subject-4.csv","legacy","Lentiform Loewenfeld","3.3.9","0","h","NA","h","h","NA","h","375","NA","1840","1351","NA","375","2","legacy","1024","2","48000","-16","experiment","SSHSS","4","even","186487","5965","147938","NA","174136","4120","148817","NA","187587","4124","146585","NA","188070","187585","187693","187693","Flanker Task HW","101","51468","104","yes","1024"
"97.14285714285714","97.14285714285714","496.44761904761907","496.44761904761907","black","legacy","legacy","legacy","0","congruent","uniform","1","undefined","s","1","104","0","0","0","104","0","104","NA","104","0","0","0","104","104","104","104","Fri Sep 24 20:48:46 2021","600","The main experiment item","yes","FlankerTaskHW.osexp","C:\Users\19565\Desktop","no","mono","no","18","no","white","no","yes","768","legacy","24","79","C:/Users/19565/Desktop/MR-subject-4.csv","legacy","Lentiform Loewenfeld","3.3.9","0","s","NA","h","h","NA","s","659","NA","1840","1351","NA","659","2","legacy","1024","2","48000","-16","experiment","SSSSS","4","even","188075","5965","147938","NA","174136","4120","148817","NA","189182","4124","146585","NA","189952","189179","189290","189289","Flanker Task HW","102","52127","105","yes","1024"
"97.16981132075472","97.16981132075472","495.97169811320754","495.97169811320754","black","legacy","legacy","legacy","0","congruent","uniform","1","undefined","h","1","105","0","0","0","105","0","105","NA","105","0","0","0","105","105","105","105","Fri Sep 24 20:48:46 2021","600","The main experiment item","yes","FlankerTaskHW.osexp","C:\Users\19565\Desktop","no","mono","no","18","no","white","no","yes","768","legacy","25","79","C:/Users/19565/Desktop/MR-subject-4.csv","legacy","Lentiform Loewenfeld","3.3.9","0","h","NA","h","h","NA","h","446","NA","1840","1351","NA","446","2","legacy","1024","2","48000","-16","experiment","HHHHH","4","even","190462","5965","147938","NA","174136","4120","189957","NA","191641","4124","146585","NA","192198","191638","191748","191748","Flanker Task HW","103","52573","106","yes","1024"
"97.19626168224299","97.19626168224299","495.1588785046729","495.1588785046729","black","legacy","legacy","legacy","0","congruent","uniform","1","undefined","s","1","106","0","0","0","106","0","106","NA","106","0","0","0","106","106","106","106","Fri Sep 24 20:48:46 2021","600","The main experiment item","yes","FlankerTaskHW.osexp","C:\Users\19565\Desktop","no","mono","no","18","no","white","no","yes","768","legacy","26","79","C:/Users/19565/Desktop/MR-subject-4.csv","legacy","Lentiform Loewenfeld","3.3.9","0","s","NA","h","h","NA","s","409","NA","1840","1351","NA","409","2","legacy","1024","2","48000","-16","experiment","SSSSS","4","even","192204","5965","147938","NA","174136","4120","189957","NA","193314","4124","146585","NA","193829","193311","193417","193417","Flanker Task HW","104","52982","107","yes","1024"
"96.29629629629629","96.29629629629629","494.43518518518516","494.43518518518516","black","legacy","legacy","legacy","0","incongruent","uniform","0","undefined","s","0","107","0","0","0","107","0","107","NA","107","0","0","0","107","107","107","107","Fri Sep 24 20:48:46 2021","600","The main experiment item","yes","FlankerTaskHW.osexp","C:\Users\19565\Desktop","no","mono","no","18","no","white","no","yes","768","legacy","27","79","C:/Users/19565/Desktop/MR-subject-4.csv","legacy","Lentiform Loewenfeld","3.3.9","0","h","NA","h","h","NA","h","417","NA","1840","1351","NA","417","2","legacy","1024","2","48000","-16","experiment","HHSHH","4","even","193834","5965","147938","NA","174136","4120","189957","NA","194957","4124","146585","NA","195478","194954","195059","195059","Flanker Task HW","104","53399","108","yes","1024"
"96.3302752293578","96.3302752293578","493.8348623853211","493.8348623853211","black","legacy","legacy","legacy","0","incongruent","uniform","1","undefined","s","1","108","0","0","0","108","0","108","NA","108","0","0","0","108","108","108","108","Fri Sep 24 20:48:46 2021","600","The main experiment item","yes","FlankerTaskHW.osexp","C:\Users\19565\Desktop","no","mono","no","18","no","white","no","yes","768","legacy","28","79","C:/Users/19565/Desktop/MR-subject-4.csv","legacy","Lentiform Loewenfeld","3.3.9","0","s","NA","h","h","NA","s","429","NA","1840","1351","NA","429","2","legacy","1024","2","48000","-16","experiment","HHSHH","4","even","195988","5965","147938","NA","195484","4120","189957","NA","197098","4124","146585","NA","197631","197096","197200","197200","Flanker Task HW","105","53828","109","yes","1024"
"96.36363636363636","96.36363636363636","493.4909090909091","493.4909090909091","black","legacy","legacy","legacy","0","congruent","uniform","1","undefined","h","1","109","0","0","0","109","0","109","NA","109","0","0","0","109","109","109","109","Fri Sep 24 20:48:46 2021","600","The main experiment item","yes","FlankerTaskHW.osexp","C:\Users\19565\Desktop","no","mono","no","18","no","white","no","yes","768","legacy","29","79","C:/Users/19565/Desktop/MR-subject-4.csv","legacy","Lentiform Loewenfeld","3.3.9","0","h","NA","h","h","NA","h","456","NA","1840","1351","NA","456","2","legacy","1024","2","48000","-16","experiment","HHHHH","4","even","197637","5965","147938","NA","195484","4120","189957","NA","198743","4124","146585","NA","199305","198740","198847","198847","Flanker Task HW","106","54284","110","yes","1024"
"96.3963963963964","96.3963963963964","493.34234234234236","493.34234234234236","black","legacy","legacy","legacy","0","incongruent","uniform","1","undefined","s","1","110","0","0","0","110","0","110","NA","110","0","0","0","110","110","110","110","Fri Sep 24 20:48:46 2021","600","The main experiment item","yes","FlankerTaskHW.osexp","C:\Users\19565\Desktop","no","mono","no","18","no","white","no","yes","768","legacy","30","79","C:/Users/19565/Desktop/MR-subject-4.csv","legacy","Lentiform Loewenfeld","3.3.9","0","s","NA","h","h","NA","s","477","NA","1840","1351","NA","477","2","legacy","1024","2","48000","-16","experiment","HHSHH","4","even","199310","5965","147938","NA","195484","4120","189957","NA","200425","4124","146585","NA","201011","200422","200531","200531","Flanker Task HW","107","54761","111","yes","1024"
"96.42857142857143","96.42857142857143","493.04464285714283","493.04464285714283","black","legacy","legacy","legacy","0","congruent","uniform","1","undefined","h","1","111","0","0","0","111","0","111","NA","111","0","0","0","111","111","111","111","Fri Sep 24 20:48:46 2021","600","The main experiment item","yes","FlankerTaskHW.osexp","C:\Users\19565\Desktop","no","mono","no","18","no","white","no","yes","768","legacy","31","79","C:/Users/19565/Desktop/MR-subject-4.csv","legacy","Lentiform Loewenfeld","3.3.9","0","h","NA","h","h","NA","h","460","NA","1840","1351","NA","460","2","legacy","1024","2","48000","-16","experiment","HHHHH","4","even","201019","5965","147938","NA","195484","4120","189957","NA","202165","4124","146585","NA","202731","202162","202268","202268","Flanker Task HW","108","55221","112","yes","1024"
"96.46017699115045","96.46017699115045","492.1504424778761","492.1504424778761","black","legacy","legacy","legacy","0","congruent","uniform","1","undefined","h","1","112","0","0","0","112","0","112","NA","112","0","0","0","112","112","112","112","Fri Sep 24 20:48:46 2021","600","The main experiment item","yes","FlankerTaskHW.osexp","C:\Users\19565\Desktop","no","mono","no","18","no","white","no","yes","768","legacy","32","79","C:/Users/19565/Desktop/MR-subject-4.csv","legacy","Lentiform Loewenfeld","3.3.9","0","h","NA","h","h","NA","h","392","NA","1840","1351","NA","392","2","legacy","1024","2","48000","-16","experiment","HHHHH","4","even","202737","5965","147938","NA","195484","4120","189957","NA","203860","4124","146585","NA","204357","203858","203963","203963","Flanker Task HW","109","55613","113","yes","1024"
"96.49122807017544","96.49122807017544","492.10526315789474","492.10526315789474","black","legacy","legacy","legacy","0","incongruent","uniform","1","undefined","s","1","113","0","0","0","113","0","113","NA","113","0","0","0","113","113","113","113","Fri Sep 24 20:48:46 2021","600","The main experiment item","yes","FlankerTaskHW.osexp","C:\Users\19565\Desktop","no","mono","no","18","no","white","no","yes","768","legacy","33","79","C:/Users/19565/Desktop/MR-subject-4.csv","legacy","Lentiform Loewenfeld","3.3.9","0","s","NA","h","h","NA","s","487","NA","1840","1351","NA","487","2","legacy","1024","2","48000","-16","experiment","HHSHH","4","even","204362","5965","147938","NA","195484","4120","189957","NA","205541","4124","146585","NA","206145","205538","205651","205650","Flanker Task HW","110","56100","114","yes","1024"
"96.52173913043478","96.52173913043478","492.1304347826087","492.1304347826087","black","legacy","legacy","legacy","0","incongruent","uniform","1","undefined","h","1","114","0","0","0","114","0","114","NA","114","0","0","0","114","114","114","114","Fri Sep 24 20:48:46 2021","600","The main experiment item","yes","FlankerTaskHW.osexp","C:\Users\19565\Desktop","no","mono","no","18","no","white","no","yes","768","legacy","34","79","C:/Users/19565/Desktop/MR-subject-4.csv","legacy","Lentiform Loewenfeld","3.3.9","0","h","NA","h","h","NA","h","495","NA","1840","1351","NA","495","2","legacy","1024","2","48000","-16","experiment","SSHSS","4","even","206157","5965","147938","NA","195484","4120","189957","NA","207289","4124","146585","NA","207890","207286","207394","207394","Flanker Task HW","111","56595","115","yes","1024"
"96.55172413793103","96.55172413793103","492.13793103448273","492.13793103448273","black","legacy","legacy","legacy","0","incongruent","uniform","1","undefined","s","1","115","0","0","0","115","0","115","NA","115","0","0","0","115","115","115","115","Fri Sep 24 20:48:46 2021","600","The main experiment item","yes","FlankerTaskHW.osexp","C:\Users\19565\Desktop","no","mono","no","18","no","white","no","yes","768","legacy","35","79","C:/Users/19565/Desktop/MR-subject-4.csv","legacy","Lentiform Loewenfeld","3.3.9","0","s","NA","h","h","NA","s","493","NA","1840","1351","NA","493","2","legacy","1024","2","48000","-16","experiment","HHSHH","4","even","207894","5965","147938","NA","195484","4120","189957","NA","208993","4124","146585","NA","209595","208990","209100","209100","Flanker Task HW","112","57088","116","yes","1024"
"96.58119658119658","96.58119658119658","492.3076923076923","492.3076923076923","black","legacy","legacy","legacy","0","congruent","uniform","1","undefined","h","1","116","0","0","0","116","0","116","NA","116","0","0","0","116","116","116","116","Fri Sep 24 20:48:46 2021","600","The main experiment item","yes","FlankerTaskHW.osexp","C:\Users\19565\Desktop","no","mono","no","18","no","white","no","yes","768","legacy","36","79","C:/Users/19565/Desktop/MR-subject-4.csv","legacy","Lentiform Loewenfeld","3.3.9","0","h","NA","h","h","NA","h","512","NA","1840","1351","NA","512","2","legacy","1024","2","48000","-16","experiment","HHHHH","4","even","209601","5965","147938","NA","195484","4120","189957","NA","210727","4124","146585","NA","211345","210724","210831","210831","Flanker Task HW","113","57600","117","yes","1024"
"96.61016949152543","96.61016949152543","492.5593220338983","492.5593220338983","black","legacy","legacy","legacy","0","incongruent","uniform","1","undefined","s","1","117","0","0","0","117","0","117","NA","117","0","0","0","117","117","117","117","Fri Sep 24 20:48:46 2021","600","The main experiment item","yes","FlankerTaskHW.osexp","C:\Users\19565\Desktop","no","mono","no","18","no","white","no","yes","768","legacy","37","79","C:/Users/19565/Desktop/MR-subject-4.csv","legacy","Lentiform Loewenfeld","3.3.9","0","s","NA","h","h","NA","s","522","NA","1840","1351","NA","522","2","legacy","1024","2","48000","-16","experiment","HHSHH","4","even","211352","5965","147938","NA","195484","4120","189957","NA","212464","4124","146585","NA","213093","212462","212569","212569","Flanker Task HW","114","58122","118","yes","1024"
"96.63865546218487","96.63865546218487","492.0420168067227","492.0420168067227","black","legacy","legacy","legacy","0","congruent","uniform","1","undefined","s","1","118","0","0","0","118","0","118","NA","118","0","0","0","118","118","118","118","Fri Sep 24 20:48:46 2021","600","The main experiment item","yes","FlankerTaskHW.osexp","C:\Users\19565\Desktop","no","mono","no","18","no","white","no","yes","768","legacy","38","79","C:/Users/19565/Desktop/MR-subject-4.csv","legacy","Lentiform Loewenfeld","3.3.9","0","s","NA","h","h","NA","s","431","NA","1840","1351","NA","431","2","legacy","1024","2","48000","-16","experiment","SSSSS","4","even","213100","5965","147938","NA","195484","4120","189957","NA","214269","4124","146585","NA","214804","214266","214370","214370","Flanker Task HW","115","58553","119","yes","1024"
"96.66666666666667","96.66666666666667","492.39166666666665","492.39166666666665","black","legacy","legacy","legacy","0","incongruent","uniform","1","undefined","h","1","119","0","0","0","119","0","119","NA","119","0","0","0","119","119","119","119","Fri Sep 24 20:48:46 2021","600","The main experiment item","yes","FlankerTaskHW.osexp","C:\Users\19565\Desktop","no","mono","no","18","no","white","no","yes","768","legacy","39","79","C:/Users/19565/Desktop/MR-subject-4.csv","legacy","Lentiform Loewenfeld","3.3.9","0","h","NA","h","h","NA","h","534","NA","1840","1351","NA","534","2","legacy","1024","2","48000","-16","experiment","SSHSS","4","even","214809","5965","147938","NA","195484","4120","189957","NA","215969","4124","146585","NA","216612","215966","216076","216074","Flanker Task HW","116","59087","120","yes","1024"
"96.69421487603306","96.69421487603306","492.3884297520661","492.3884297520661","black","legacy","legacy","legacy","0","incongruent","uniform","1","undefined","h","1","120","0","0","0","120","0","120","NA","120","0","0","0","120","120","120","120","Fri Sep 24 20:48:46 2021","600","The main experiment item","yes","FlankerTaskHW.osexp","C:\Users\19565\Desktop","no","mono","no","18","no","white","no","yes","768","legacy","40","79","C:/Users/19565/Desktop/MR-subject-4.csv","legacy","Lentiform Loewenfeld","3.3.9","0","h","NA","h","h","NA","h","492","NA","1840","1351","NA","492","2","legacy","1024","2","48000","-16","experiment","SSHSS","4","even","216621","5965","147938","NA","195484","4120","189957","NA","217775","4124","146585","NA","218375","217772","217882","217882","Flanker Task HW","117","59579","121","yes","1024"
"96.72131147540983","96.72131147540983","493.4754098360656","493.4754098360656","black","legacy","legacy","legacy","0","incongruent","uniform","1","undefined","h","1","121","0","0","0","121","0","121","NA","121","0","0","0","121","121","121","121","Fri Sep 24 20:48:46 2021","600","The main experiment item","yes","FlankerTaskHW.osexp","C:\Users\19565\Desktop","no","mono","no","18","no","white","no","yes","768","legacy","41","79","C:/Users/19565/Desktop/MR-subject-4.csv","legacy","Lentiform Loewenfeld","3.3.9","0","h","NA","h","h","NA","h","625","NA","1840","1351","NA","625","2","legacy","1024","2","48000","-16","experiment","SSHSS","4","even","218380","5965","147938","NA","195484","4120","189957","NA","219530","4124","146585","NA","220258","219527","219632","219632","Flanker Task HW","118","60204","122","yes","1024"
"96.7479674796748","96.7479674796748","492.6910569105691","492.6910569105691","black","legacy","legacy","legacy","0","congruent","uniform","1","undefined","h","1","122","0","0","0","122","0","122","NA","122","0","0","0","122","122","122","122","Fri Sep 24 20:48:46 2021","600","The main experiment item","yes","FlankerTaskHW.osexp","C:\Users\19565\Desktop","no","mono","no","18","no","white","no","yes","768","legacy","42","79","C:/Users/19565/Desktop/MR-subject-4.csv","legacy","Lentiform Loewenfeld","3.3.9","0","h","NA","h","h","NA","h","397","NA","1840","1351","NA","397","2","legacy","1024","2","48000","-16","experiment","HHHHH","4","even","220770","5965","147938","NA","195484","4120","220264","NA","222001","4124","146585","NA","222512","221998","222108","222107","Flanker Task HW","119","60601","123","yes","1024"
"95.96774193548387","95.96774193548387","492.3709677419355","492.3709677419355","black","legacy","legacy","legacy","0","incongruent","uniform","0","undefined","h","0","123","0","0","0","123","0","123","NA","123","0","0","0","123","123","123","123","Fri Sep 24 20:48:46 2021","600","The main experiment item","yes","FlankerTaskHW.osexp","C:\Users\19565\Desktop","no","mono","no","18","no","white","no","yes","768","legacy","43","79","C:/Users/19565/Desktop/MR-subject-4.csv","legacy","Lentiform Loewenfeld","3.3.9","0","s","NA","h","h","NA","s","453","NA","1840","1351","NA","453","2","legacy","1024","2","48000","-16","experiment","SSHSS","4","even","222527","5965","147938","NA","195484","4120","220264","NA","223627","4124","146585","NA","224190","223624","223734","223734","Flanker Task HW","119","61054","124","yes","1024"
"96","96","492","492","black","legacy","legacy","legacy","0","incongruent","uniform","1","undefined","h","1","124","0","0","0","124","0","124","NA","124","0","0","0","124","124","124","124","Fri Sep 24 20:48:46 2021","600","The main experiment item","yes","FlankerTaskHW.osexp","C:\Users\19565\Desktop","no","mono","no","18","no","white","no","yes","768","legacy","44","79","C:/Users/19565/Desktop/MR-subject-4.csv","legacy","Lentiform Loewenfeld","3.3.9","0","h","NA","h","h","NA","h","446","NA","1840","1351","NA","446","2","legacy","1024","2","48000","-16","experiment","SSHSS","4","even","224699","5965","147938","NA","224196","4120","220264","NA","225826","4124","146585","NA","226381","225824","225933","225932","Flanker Task HW","120","61500","125","yes","1024"
