"acc","accuracy","average_response_time","avg_rt","background","canvas_backend","clock_backend","color_backend","compensation","condition","coordinates","correct","correct_instructions1","correct_keyboard_response","correct_response","count_ISI","count_block1","count_block2","count_block3","count_errorFeedback","count_experiment","count_faster","count_finish","count_fixation","count_instructions1","count_instructions2","count_instructions3","count_keyboard_response","count_logger","count_sequence","count_stimulus","count_welcome","datetime","deadline","description","disable_garbage_collection","experiment_file","experiment_path","font_bold","font_family","font_italic","font_size","font_underline","foreground","form_clicks","fullscreen","height","keyboard_backend","live_row","live_row_block1","logfile","mouse_backend","opensesame_codename","opensesame_version","repeat_cycle","response","response_finish","response_instructions1","response_instructions2","response_instructions3","response_keyboard_response","response_time","response_time_finish","response_time_instructions1","response_time_instructions2","response_time_instructions3","response_time_keyboard_response","response_time_welcome","response_welcome","round_decimals","sampler_backend","sound_buf_size","sound_channels","sound_freq","sound_sample_size","start","stimulus","subject_nr","subject_parity","time_ISI","time_block1","time_block2","time_block3","time_errorFeedback","time_experiment","time_faster","time_finish","time_fixation","time_instructions1","time_instructions2","time_instructions3","time_keyboard_response","time_logger","time_sequence","time_stimulus","time_welcome","title","total_correct","total_response_time","total_responses","uniform_coordinates","width"
"100","100","585","585","black","legacy","legacy","legacy","0","congruent","uniform","1","undefined","1","h","0","0","0","0","0","0","0","0","0","0","0","0","0","0","0","0","NA","09/17/21 17:06:04","1500","The main experiment item","yes","FlankerTask.osexp","C:\Users\katie\Documents\School\Quant Methods","no","mono","no","18","no","white","no","no","768","legacy","0","0","C:/Users/katie/Documents/School/Quant Methods/KH-subject-1.csv","legacy","Lentiform Loewenfeld","3.3.9","0","h","NA","s","NA","NA","h","585","NA","115334","NA","NA","585","NA","NA","2","legacy","1024","2","48000","-16","experiment","HHHHH","1","odd","NA","118596","NA","NA","NA","3156","NA","NA","118654","3260","NA","NA","118758","119346","118653","118758","NA","Flanker Task","1","585","1","yes","1024"
"100","100","554.5","554.5","black","legacy","legacy","legacy","0","congruent","uniform","1","undefined","1","s","1","0","0","0","1","0","1","0","1","0","0","0","1","1","1","1","NA","09/17/21 17:06:04","1500","The main experiment item","yes","FlankerTask.osexp","C:\Users\katie\Documents\School\Quant Methods","no","mono","no","18","no","white","no","no","768","legacy","1","1","C:/Users/katie/Documents/School/Quant Methods/KH-subject-1.csv","legacy","Lentiform Loewenfeld","3.3.9","0","s","NA","s","NA","NA","s","524","NA","115334","NA","NA","524","NA","NA","2","legacy","1024","2","48000","-16","experiment","SSSSS","1","odd","119423","118596","NA","NA","NA","3156","NA","NA","120493","3260","NA","NA","120597","121122","120492","120597","NA","Flanker Task","2","1109","2","yes","1024"
"100","100","549.333333333","549.333333333","black","legacy","legacy","legacy","0","congruent","uniform","1","undefined","1","s","2","0","0","0","2","0","2","0","2","0","0","0","2","2","2","2","NA","09/17/21 17:06:04","1500","The main experiment item","yes","FlankerTask.osexp","C:\Users\katie\Documents\School\Quant Methods","no","mono","no","18","no","white","no","no","768","legacy","2","2","C:/Users/katie/Documents/School/Quant Methods/KH-subject-1.csv","legacy","Lentiform Loewenfeld","3.3.9","0","s","NA","s","NA","NA","s","539","NA","115334","NA","NA","539","NA","NA","2","legacy","1024","2","48000","-16","experiment","SSSSS","1","odd","121136","118596","NA","NA","NA","3156","NA","NA","122213","3260","NA","NA","122316","122858","122211","122316","NA","Flanker Task","3","1648","3","yes","1024"
"100","100","528.75","528.75","black","legacy","legacy","legacy","0","congruent","uniform","1","undefined","1","s","3","0","0","0","3","0","3","0","3","0","0","0","3","3","3","3","NA","09/17/21 17:06:04","1500","The main experiment item","yes","FlankerTask.osexp","C:\Users\katie\Documents\School\Quant Methods","no","mono","no","18","no","white","no","no","768","legacy","3","3","C:/Users/katie/Documents/School/Quant Methods/KH-subject-1.csv","legacy","Lentiform Loewenfeld","3.3.9","0","s","NA","s","NA","NA","s","467","NA","115334","NA","NA","467","NA","NA","2","legacy","1024","2","48000","-16","experiment","SSSSS","1","odd","122870","118596","NA","NA","NA","3156","NA","NA","123941","3260","NA","NA","124045","124513","123936","124044","NA","Flanker Task","4","2115","4","yes","1024"
"100","100","500.2","500.2","black","legacy","legacy","legacy","0","incongruent","uniform","1","undefined","1","s","4","0","0","0","4","0","4","0","4","0","0","0","4","4","4","4","NA","09/17/21 17:06:04","1500","The main experiment item","yes","FlankerTask.osexp","C:\Users\katie\Documents\School\Quant Methods","no","mono","no","18","no","white","no","no","768","legacy","4","4","C:/Users/katie/Documents/School/Quant Methods/KH-subject-1.csv","legacy","Lentiform Loewenfeld","3.3.9","0","s","NA","s","NA","NA","s","386","NA","115334","NA","NA","386","NA","NA","2","legacy","1024","2","48000","-16","experiment","HHSHH","1","odd","124528","118596","NA","NA","NA","3156","NA","NA","125617","3260","NA","NA","125720","126107","125615","125720","NA","Flanker Task","5","2501","5","yes","1024"
"100","100","490.666666667","490.666666667","black","legacy","legacy","legacy","0","congruent","uniform","1","undefined","1","s","5","0","0","0","5","0","5","0","5","0","0","0","5","5","5","5","NA","09/17/21 17:06:04","1500","The main experiment item","yes","FlankerTask.osexp","C:\Users\katie\Documents\School\Quant Methods","no","mono","no","18","no","white","no","no","768","legacy","5","5","C:/Users/katie/Documents/School/Quant Methods/KH-subject-1.csv","legacy","Lentiform Loewenfeld","3.3.9","0","s","NA","s","NA","NA","s","443","NA","115334","NA","NA","443","NA","NA","2","legacy","1024","2","48000","-16","experiment","SSSSS","1","odd","126122","118596","NA","NA","NA","3156","NA","NA","127236","3260","NA","NA","127340","127783","127231","127339","NA","Flanker Task","6","2944","6","yes","1024"
"100","100","470.571428571","470.571428571","black","legacy","legacy","legacy","0","congruent","uniform","1","undefined","1","s","6","0","0","0","6","0","6","0","6","0","0","0","6","6","6","6","NA","09/17/21 17:06:04","1500","The main experiment item","yes","FlankerTask.osexp","C:\Users\katie\Documents\School\Quant Methods","no","mono","no","18","no","white","no","no","768","legacy","6","6","C:/Users/katie/Documents/School/Quant Methods/KH-subject-1.csv","legacy","Lentiform Loewenfeld","3.3.9","0","s","NA","s","NA","NA","s","350","NA","115334","NA","NA","350","NA","NA","2","legacy","1024","2","48000","-16","experiment","SSSSS","1","odd","127796","118596","NA","NA","NA","3156","NA","NA","128863","3260","NA","NA","128967","129318","128861","128966","NA","Flanker Task","7","3294","7","yes","1024"
"87.5","87.5","476","476","black","legacy","legacy","legacy","0","incongruent","uniform","0","undefined","0","s","7","0","0","0","7","0","7","0","7","0","0","0","7","7","7","7","NA","09/17/21 17:06:04","1500","The main experiment item","yes","FlankerTask.osexp","C:\Users\katie\Documents\School\Quant Methods","no","mono","no","18","no","white","no","no","768","legacy","7","7","C:/Users/katie/Documents/School/Quant Methods/KH-subject-1.csv","legacy","Lentiform Loewenfeld","3.3.9","0","h","NA","s","NA","NA","h","514","NA","115334","NA","NA","514","NA","NA","2","legacy","1024","2","48000","-16","experiment","HHSHH","1","odd","129333","118596","NA","NA","NA","3156","NA","NA","130420","3260","NA","NA","130525","131040","130418","130525","NA","Flanker Task","7","3808","8","yes","1024"
"88.8888888889","88.8888888889","473.666666667","473.666666667","black","legacy","legacy","legacy","0","congruent","uniform","1","undefined","1","s","8","0","0","0","8","0","8","0","8","0","0","0","8","8","8","8","NA","09/17/21 17:06:04","1500","The main experiment item","yes","FlankerTask.osexp","C:\Users\katie\Documents\School\Quant Methods","no","mono","no","18","no","white","no","no","768","legacy","8","8","C:/Users/katie/Documents/School/Quant Methods/KH-subject-1.csv","legacy","Lentiform Loewenfeld","3.3.9","0","s","NA","s","NA","NA","s","455","NA","115334","NA","NA","455","NA","NA","2","legacy","1024","2","48000","-16","experiment","SSSSS","1","odd","131556","118596","NA","NA","131051","3156","NA","NA","132638","3260","NA","NA","132741","133197","132636","132740","NA","Flanker Task","8","4263","9","yes","1024"
"90","90","471.5","471.5","black","legacy","legacy","legacy","0","incongruent","uniform","1","undefined","1","s","9","0","0","0","9","0","9","0","9","0","0","0","9","9","9","9","NA","09/17/21 17:06:04","1500","The main experiment item","yes","FlankerTask.osexp","C:\Users\katie\Documents\School\Quant Methods","no","mono","no","18","no","white","no","no","768","legacy","9","9","C:/Users/katie/Documents/School/Quant Methods/KH-subject-1.csv","legacy","Lentiform Loewenfeld","3.3.9","0","s","NA","s","NA","NA","s","452","NA","115334","NA","NA","452","NA","NA","2","legacy","1024","2","48000","-16","experiment","HHSHH","1","odd","133210","118596","NA","NA","131051","3156","NA","NA","134289","3260","NA","NA","134392","134844","134288","134392","NA","Flanker Task","9","4715","10","yes","1024"
"90.9090909091","90.9090909091","477.454545455","477.454545455","black","legacy","legacy","legacy","0","incongruent","uniform","1","undefined","1","h","10","0","0","0","10","0","10","0","10","0","0","0","10","10","10","10","NA","09/17/21 17:06:04","1500","The main experiment item","yes","FlankerTask.osexp","C:\Users\katie\Documents\School\Quant Methods","no","mono","no","18","no","white","no","no","768","legacy","10","10","C:/Users/katie/Documents/School/Quant Methods/KH-subject-1.csv","legacy","Lentiform Loewenfeld","3.3.9","0","h","NA","s","NA","NA","h","537","NA","115334","NA","NA","537","NA","NA","2","legacy","1024","2","48000","-16","experiment","SSHSS","1","odd","134857","118596","NA","NA","131051","3156","NA","NA","135922","3260","NA","NA","136025","136563","135919","136025","NA","Flanker Task","10","5252","11","yes","1024"
"91.6666666667","91.6666666667","488.5","488.5","black","legacy","legacy","legacy","0","congruent","uniform","1","undefined","1","h","11","0","0","0","11","0","11","0","11","0","0","0","11","11","11","11","NA","09/17/21 17:06:04","1500","The main experiment item","yes","FlankerTask.osexp","C:\Users\katie\Documents\School\Quant Methods","no","mono","no","18","no","white","no","no","768","legacy","11","11","C:/Users/katie/Documents/School/Quant Methods/KH-subject-1.csv","legacy","Lentiform Loewenfeld","3.3.9","0","h","NA","s","NA","NA","h","610","NA","115334","NA","NA","610","NA","NA","2","legacy","1024","2","48000","-16","experiment","HHHHH","1","odd","136568","118596","NA","NA","131051","3156","NA","NA","137648","3260","NA","NA","137752","138363","137641","137751","NA","Flanker Task","11","5862","12","yes","1024"
"92.3076923077","92.3076923077","481.230769231","481.230769231","black","legacy","legacy","legacy","0","congruent","uniform","1","undefined","1","s","12","0","0","0","12","0","12","0","12","0","0","0","12","12","12","12","NA","09/17/21 17:06:04","1500","The main experiment item","yes","FlankerTask.osexp","C:\Users\katie\Documents\School\Quant Methods","no","mono","no","18","no","white","no","no","768","legacy","12","12","C:/Users/katie/Documents/School/Quant Methods/KH-subject-1.csv","legacy","Lentiform Loewenfeld","3.3.9","0","s","NA","s","NA","NA","s","394","NA","115334","NA","NA","394","NA","NA","2","legacy","1024","2","48000","-16","experiment","SSSSS","1","odd","138370","118596","NA","NA","131051","3156","NA","NA","139446","3260","NA","NA","139549","139945","139443","139548","NA","Flanker Task","12","6256","13","yes","1024"
"92.8571428571","92.8571428571","474.357142857","474.357142857","black","legacy","legacy","legacy","0","congruent","uniform","1","undefined","1","h","13","0","0","0","13","0","13","0","13","0","0","0","13","13","13","13","NA","09/17/21 17:06:04","1500","The main experiment item","yes","FlankerTask.osexp","C:\Users\katie\Documents\School\Quant Methods","no","mono","no","18","no","white","no","no","768","legacy","13","13","C:/Users/katie/Documents/School/Quant Methods/KH-subject-1.csv","legacy","Lentiform Loewenfeld","3.3.9","0","h","NA","s","NA","NA","h","385","NA","115334","NA","NA","385","NA","NA","2","legacy","1024","2","48000","-16","experiment","HHHHH","1","odd","139951","118596","NA","NA","131051","3156","NA","NA","141027","3260","NA","NA","141131","141516","141024","141130","NA","Flanker Task","13","6641","14","yes","1024"
"93.3333333333","93.3333333333","478.8","478.8","black","legacy","legacy","legacy","0","incongruent","uniform","1","undefined","1","s","14","0","0","0","14","0","14","0","14","0","0","0","14","14","14","14","NA","09/17/21 17:06:04","1500","The main experiment item","yes","FlankerTask.osexp","C:\Users\katie\Documents\School\Quant Methods","no","mono","no","18","no","white","no","no","768","legacy","14","14","C:/Users/katie/Documents/School/Quant Methods/KH-subject-1.csv","legacy","Lentiform Loewenfeld","3.3.9","0","s","NA","s","NA","NA","s","541","NA","115334","NA","NA","541","NA","NA","2","legacy","1024","2","48000","-16","experiment","HHSHH","1","odd","141523","118596","NA","NA","131051","3156","NA","NA","142603","3260","NA","NA","142708","143251","142601","142706","NA","Flanker Task","14","7182","15","yes","1024"
"93.75","93.75","473.9375","473.9375","black","legacy","legacy","legacy","0","congruent","uniform","1","undefined","1","h","15","0","0","0","15","0","15","0","15","0","0","0","15","15","15","15","NA","09/17/21 17:06:04","1500","The main experiment item","yes","FlankerTask.osexp","C:\Users\katie\Documents\School\Quant Methods","no","mono","no","18","no","white","no","no","768","legacy","15","15","C:/Users/katie/Documents/School/Quant Methods/KH-subject-1.csv","legacy","Lentiform Loewenfeld","3.3.9","0","h","NA","s","NA","NA","h","401","NA","115334","NA","NA","401","NA","NA","2","legacy","1024","2","48000","-16","experiment","HHHHH","1","odd","143263","118596","NA","NA","131051","3156","NA","NA","144348","3260","NA","NA","144452","144857","144339","144452","NA","Flanker Task","15","7583","16","yes","1024"
"94.1176470588","94.1176470588","478.235294118","478.235294118","black","legacy","legacy","legacy","0","congruent","uniform","1","undefined","1","h","16","0","0","0","16","0","16","0","16","0","0","0","16","16","16","16","NA","09/17/21 17:06:04","1500","The main experiment item","yes","FlankerTask.osexp","C:\Users\katie\Documents\School\Quant Methods","no","mono","no","18","no","white","no","no","768","legacy","16","16","C:/Users/katie/Documents/School/Quant Methods/KH-subject-1.csv","legacy","Lentiform Loewenfeld","3.3.9","0","h","NA","s","NA","NA","h","547","NA","115334","NA","NA","547","NA","NA","2","legacy","1024","2","48000","-16","experiment","HHHHH","1","odd","144863","118596","NA","NA","131051","3156","NA","NA","145926","3260","NA","NA","146029","146577","145923","146029","NA","Flanker Task","16","8130","17","yes","1024"
"94.4444444444","94.4444444444","481.5","481.5","black","legacy","legacy","legacy","0","congruent","uniform","1","undefined","1","h","17","0","0","0","17","0","17","0","17","0","0","0","17","17","17","17","NA","09/17/21 17:06:04","1500","The main experiment item","yes","FlankerTask.osexp","C:\Users\katie\Documents\School\Quant Methods","no","mono","no","18","no","white","no","no","768","legacy","17","17","C:/Users/katie/Documents/School/Quant Methods/KH-subject-1.csv","legacy","Lentiform Loewenfeld","3.3.9","0","h","NA","s","NA","NA","h","537","NA","115334","NA","NA","537","NA","NA","2","legacy","1024","2","48000","-16","experiment","HHHHH","1","odd","146590","118596","NA","NA","131051","3156","NA","NA","147669","3260","NA","NA","147773","148311","147666","147773","NA","Flanker Task","17","8667","18","yes","1024"
"94.7368421053","94.7368421053","481.473684211","481.473684211","black","legacy","legacy","legacy","0","congruent","uniform","1","undefined","1","s","18","0","0","0","18","0","18","0","18","0","0","0","18","18","18","18","NA","09/17/21 17:06:04","1500","The main experiment item","yes","FlankerTask.osexp","C:\Users\katie\Documents\School\Quant Methods","no","mono","no","18","no","white","no","no","768","legacy","18","18","C:/Users/katie/Documents/School/Quant Methods/KH-subject-1.csv","legacy","Lentiform Loewenfeld","3.3.9","0","s","NA","s","NA","NA","s","481","NA","115334","NA","NA","481","NA","NA","2","legacy","1024","2","48000","-16","experiment","SSSSS","1","odd","148323","118596","NA","NA","131051","3156","NA","NA","149432","3260","NA","NA","149536","150018","149428","149536","NA","Flanker Task","18","9148","19","yes","1024"
"95","95","487.95","487.95","black","legacy","legacy","legacy","0","incongruent","uniform","1","undefined","1","s","19","0","0","0","19","0","19","0","19","0","0","0","19","19","19","19","NA","09/17/21 17:06:04","1500","The main experiment item","yes","FlankerTask.osexp","C:\Users\katie\Documents\School\Quant Methods","no","mono","no","18","no","white","no","no","768","legacy","19","19","C:/Users/katie/Documents/School/Quant Methods/KH-subject-1.csv","legacy","Lentiform Loewenfeld","3.3.9","0","s","NA","s","NA","NA","s","611","NA","115334","NA","NA","611","NA","NA","2","legacy","1024","2","48000","-16","experiment","HHSHH","1","odd","150031","118596","NA","NA","131051","3156","NA","NA","151137","3260","NA","NA","151240","151852","151133","151240","NA","Flanker Task","19","9759","20","yes","1024"
"95.2380952381","95.2380952381","485.047619048","485.047619048","black","legacy","legacy","legacy","0","congruent","uniform","1","undefined","1","h","20","0","0","0","20","0","20","0","20","0","0","0","20","20","20","20","NA","09/17/21 17:06:04","1500","The main experiment item","yes","FlankerTask.osexp","C:\Users\katie\Documents\School\Quant Methods","no","mono","no","18","no","white","no","no","768","legacy","20","20","C:/Users/katie/Documents/School/Quant Methods/KH-subject-1.csv","legacy","Lentiform Loewenfeld","3.3.9","0","h","NA","s","NA","NA","h","427","NA","115334","NA","NA","427","NA","NA","2","legacy","1024","2","48000","-16","experiment","HHHHH","1","odd","151864","118596","NA","NA","131051","3156","NA","NA","152958","3260","NA","NA","153062","153490","152956","153062","NA","Flanker Task","20","10186","21","yes","1024"
"95.4545454545","95.4545454545","483.954545455","483.954545455","black","legacy","legacy","legacy","0","congruent","uniform","1","undefined","1","h","21","0","0","0","21","0","21","0","21","0","0","0","21","21","21","21","NA","09/17/21 17:06:04","1500","The main experiment item","yes","FlankerTask.osexp","C:\Users\katie\Documents\School\Quant Methods","no","mono","no","18","no","white","no","no","768","legacy","21","21","C:/Users/katie/Documents/School/Quant Methods/KH-subject-1.csv","legacy","Lentiform Loewenfeld","3.3.9","0","h","NA","s","NA","NA","h","461","NA","115334","NA","NA","461","NA","NA","2","legacy","1024","2","48000","-16","experiment","HHHHH","1","odd","153505","118596","NA","NA","131051","3156","NA","NA","154584","3260","NA","NA","154687","155149","154582","154687","NA","Flanker Task","21","10647","22","yes","1024"
"95.652173913","95.652173913","488.608695652","488.608695652","black","legacy","legacy","legacy","0","incongruent","uniform","1","undefined","1","h","22","0","0","0","22","0","22","0","22","0","0","0","22","22","22","22","NA","09/17/21 17:06:04","1500","The main experiment item","yes","FlankerTask.osexp","C:\Users\katie\Documents\School\Quant Methods","no","mono","no","18","no","white","no","no","768","legacy","22","22","C:/Users/katie/Documents/School/Quant Methods/KH-subject-1.csv","legacy","Lentiform Loewenfeld","3.3.9","0","h","NA","s","NA","NA","h","591","NA","115334","NA","NA","591","NA","NA","2","legacy","1024","2","48000","-16","experiment","SSHSS","1","odd","155161","118596","NA","NA","131051","3156","NA","NA","156241","3260","NA","NA","156345","156937","156236","156345","NA","Flanker Task","22","11238","23","yes","1024"
"95.8333333333","95.8333333333","489.125","489.125","black","legacy","legacy","legacy","0","incongruent","uniform","1","undefined","1","h","23","0","0","0","23","0","23","0","23","0","0","0","23","23","23","23","NA","09/17/21 17:06:04","1500","The main experiment item","yes","FlankerTask.osexp","C:\Users\katie\Documents\School\Quant Methods","no","mono","no","18","no","white","no","no","768","legacy","23","23","C:/Users/katie/Documents/School/Quant Methods/KH-subject-1.csv","legacy","Lentiform Loewenfeld","3.3.9","0","h","NA","s","NA","NA","h","501","NA","115334","NA","NA","501","NA","NA","2","legacy","1024","2","48000","-16","experiment","SSHSS","1","odd","156942","118596","NA","NA","131051","3156","NA","NA","158051","3260","NA","NA","158153","158655","158047","158153","NA","Flanker Task","23","11739","24","yes","1024"
"96","96","487.88","487.88","black","legacy","legacy","legacy","0","congruent","uniform","1","undefined","1","s","24","0","0","0","24","0","24","0","24","0","0","0","24","24","24","24","NA","09/17/21 17:06:04","1500","The main experiment item","yes","FlankerTask.osexp","C:\Users\katie\Documents\School\Quant Methods","no","mono","no","18","no","white","no","no","768","legacy","24","24","C:/Users/katie/Documents/School/Quant Methods/KH-subject-1.csv","legacy","Lentiform Loewenfeld","3.3.9","0","s","NA","s","NA","NA","s","458","NA","115334","NA","NA","458","NA","NA","2","legacy","1024","2","48000","-16","experiment","SSSSS","1","odd","158669","118596","NA","NA","131051","3156","NA","NA","159757","3260","NA","NA","159861","160320","159754","159861","NA","Flanker Task","24","12197","25","yes","1024"
"96.1538461538","96.1538461538","492.461538462","492.461538462","black","legacy","legacy","legacy","0","congruent","uniform","1","undefined","1","s","25","0","0","0","25","0","25","0","25","0","0","0","25","25","25","25","NA","09/17/21 17:06:04","1500","The main experiment item","yes","FlankerTask.osexp","C:\Users\katie\Documents\School\Quant Methods","no","mono","no","18","no","white","no","no","768","legacy","25","25","C:/Users/katie/Documents/School/Quant Methods/KH-subject-1.csv","legacy","Lentiform Loewenfeld","3.3.9","0","s","NA","s","NA","NA","s","607","NA","115334","NA","NA","607","NA","NA","2","legacy","1024","2","48000","-16","experiment","SSSSS","1","odd","160332","118596","NA","NA","131051","3156","NA","NA","161397","3260","NA","NA","161499","162107","161394","161499","NA","Flanker Task","25","12804","26","yes","1024"
"96.2962962963","96.2962962963","489.925925926","489.925925926","black","legacy","legacy","legacy","0","congruent","uniform","1","undefined","1","h","26","0","0","0","26","0","26","0","26","0","0","0","26","26","26","26","NA","09/17/21 17:06:04","1500","The main experiment item","yes","FlankerTask.osexp","C:\Users\katie\Documents\School\Quant Methods","no","mono","no","18","no","white","no","no","768","legacy","26","26","C:/Users/katie/Documents/School/Quant Methods/KH-subject-1.csv","legacy","Lentiform Loewenfeld","3.3.9","0","h","NA","s","NA","NA","h","424","NA","115334","NA","NA","424","NA","NA","2","legacy","1024","2","48000","-16","experiment","HHHHH","1","odd","162120","118596","NA","NA","131051","3156","NA","NA","163199","3260","NA","NA","163304","163728","163196","163303","NA","Flanker Task","26","13228","27","yes","1024"
"96.4285714286","96.4285714286","486.5","486.5","black","legacy","legacy","legacy","0","congruent","uniform","1","undefined","1","s","27","0","0","0","27","0","27","0","27","0","0","0","27","27","27","27","NA","09/17/21 17:06:04","1500","The main experiment item","yes","FlankerTask.osexp","C:\Users\katie\Documents\School\Quant Methods","no","mono","no","18","no","white","no","no","768","legacy","27","27","C:/Users/katie/Documents/School/Quant Methods/KH-subject-1.csv","legacy","Lentiform Loewenfeld","3.3.9","0","s","NA","s","NA","NA","s","394","NA","115334","NA","NA","394","NA","NA","2","legacy","1024","2","48000","-16","experiment","SSSSS","1","odd","163742","118596","NA","NA","131051","3156","NA","NA","164825","3260","NA","NA","164928","165323","164823","164928","NA","Flanker Task","27","13622","28","yes","1024"
"96.5517241379","96.5517241379","485.344827586","485.344827586","black","legacy","legacy","legacy","0","incongruent","uniform","1","undefined","1","h","28","0","0","0","28","0","28","0","28","0","0","0","28","28","28","28","NA","09/17/21 17:06:04","1500","The main experiment item","yes","FlankerTask.osexp","C:\Users\katie\Documents\School\Quant Methods","no","mono","no","18","no","white","no","no","768","legacy","28","28","C:/Users/katie/Documents/School/Quant Methods/KH-subject-1.csv","legacy","Lentiform Loewenfeld","3.3.9","0","h","NA","s","NA","NA","h","453","NA","115334","NA","NA","453","NA","NA","2","legacy","1024","2","48000","-16","experiment","SSHSS","1","odd","165326","118596","NA","NA","131051","3156","NA","NA","166422","3260","NA","NA","166526","166981","166418","166525","NA","Flanker Task","28","14075","29","yes","1024"
"96.6666666667","96.6666666667","489.366666667","489.366666667","black","legacy","legacy","legacy","0","congruent","uniform","1","undefined","1","s","29","0","0","0","29","0","29","0","29","0","0","0","29","29","29","29","NA","09/17/21 17:06:04","1500","The main experiment item","yes","FlankerTask.osexp","C:\Users\katie\Documents\School\Quant Methods","no","mono","no","18","no","white","no","no","768","legacy","29","29","C:/Users/katie/Documents/School/Quant Methods/KH-subject-1.csv","legacy","Lentiform Loewenfeld","3.3.9","0","s","NA","s","NA","NA","s","606","NA","115334","NA","NA","606","NA","NA","2","legacy","1024","2","48000","-16","experiment","SSSSS","1","odd","166995","118596","NA","NA","131051","3156","NA","NA","168141","3260","NA","NA","168244","168850","168139","168244","NA","Flanker Task","29","14681","30","yes","1024"
"96.7741935484","96.7741935484","490.258064516","490.258064516","black","legacy","legacy","legacy","0","incongruent","uniform","1","undefined","1","h","30","0","0","0","30","0","30","0","30","0","0","0","30","30","30","30","NA","09/17/21 17:06:04","1500","The main experiment item","yes","FlankerTask.osexp","C:\Users\katie\Documents\School\Quant Methods","no","mono","no","18","no","white","no","no","768","legacy","30","30","C:/Users/katie/Documents/School/Quant Methods/KH-subject-1.csv","legacy","Lentiform Loewenfeld","3.3.9","0","h","NA","s","NA","NA","h","517","NA","115334","NA","NA","517","NA","NA","2","legacy","1024","2","48000","-16","experiment","SSHSS","1","odd","168855","118596","NA","NA","131051","3156","NA","NA","169912","3260","NA","NA","170016","170534","169906","170015","NA","Flanker Task","30","15198","31","yes","1024"
"96.875","96.875","490.03125","490.03125","black","legacy","legacy","legacy","0","congruent","uniform","1","undefined","1","h","31","0","0","0","31","0","31","0","31","0","0","0","31","31","31","31","NA","09/17/21 17:06:04","1500","The main experiment item","yes","FlankerTask.osexp","C:\Users\katie\Documents\School\Quant Methods","no","mono","no","18","no","white","no","no","768","legacy","31","31","C:/Users/katie/Documents/School/Quant Methods/KH-subject-1.csv","legacy","Lentiform Loewenfeld","3.3.9","0","h","NA","s","NA","NA","h","483","NA","115334","NA","NA","483","NA","NA","2","legacy","1024","2","48000","-16","experiment","HHHHH","1","odd","170547","118596","NA","NA","131051","3156","NA","NA","171624","3260","NA","NA","171727","172211","171622","171727","NA","Flanker Task","31","15681","32","yes","1024"
"96.9696969697","96.9696969697","490.727272727","490.727272727","black","legacy","legacy","legacy","0","incongruent","uniform","1","undefined","1","h","32","0","0","0","32","0","32","0","32","0","0","0","32","32","32","32","NA","09/17/21 17:06:04","1500","The main experiment item","yes","FlankerTask.osexp","C:\Users\katie\Documents\School\Quant Methods","no","mono","no","18","no","white","no","no","768","legacy","32","32","C:/Users/katie/Documents/School/Quant Methods/KH-subject-1.csv","legacy","Lentiform Loewenfeld","3.3.9","0","h","NA","s","NA","NA","h","513","NA","115334","NA","NA","513","NA","NA","2","legacy","1024","2","48000","-16","experiment","SSHSS","1","odd","172226","118596","NA","NA","131051","3156","NA","NA","173354","3260","NA","NA","173457","173971","173351","173457","NA","Flanker Task","32","16194","33","yes","1024"
"97.0588235294","97.0588235294","513.823529412","513.823529412","black","legacy","legacy","legacy","0","incongruent","uniform","1","undefined","1","s","33","0","0","0","33","0","33","0","33","0","0","0","33","33","33","33","NA","09/17/21 17:06:04","1500","The main experiment item","yes","FlankerTask.osexp","C:\Users\katie\Documents\School\Quant Methods","no","mono","no","18","no","white","no","no","768","legacy","33","33","C:/Users/katie/Documents/School/Quant Methods/KH-subject-1.csv","legacy","Lentiform Loewenfeld","3.3.9","0","s","NA","s","NA","NA","s","1276","NA","115334","NA","NA","1276","NA","NA","2","legacy","1024","2","48000","-16","experiment","HHSHH","1","odd","173984","118596","NA","NA","131051","3156","NA","NA","175066","3260","NA","NA","175170","176455","175064","175170","NA","Flanker Task","33","17470","34","yes","1024"
"97.1428571429","97.1428571429","512.171428571","512.171428571","black","legacy","legacy","legacy","0","incongruent","uniform","1","undefined","1","h","34","0","0","0","34","0","34","0","34","0","0","0","34","34","34","34","NA","09/17/21 17:06:04","1500","The main experiment item","yes","FlankerTask.osexp","C:\Users\katie\Documents\School\Quant Methods","no","mono","no","18","no","white","no","no","768","legacy","34","34","C:/Users/katie/Documents/School/Quant Methods/KH-subject-1.csv","legacy","Lentiform Loewenfeld","3.3.9","0","h","NA","s","NA","NA","h","456","NA","115334","NA","NA","456","NA","NA","2","legacy","1024","2","48000","-16","experiment","SSHSS","1","odd","176489","118596","NA","NA","131051","3156","NA","NA","177677","3260","NA","NA","177780","178236","177674","177780","NA","Flanker Task","34","17926","35","yes","1024"
"97.2222222222","97.2222222222","511.944444444","511.944444444","black","legacy","legacy","legacy","0","incongruent","uniform","1","undefined","1","s","35","0","0","0","35","0","35","0","35","0","0","0","35","35","35","35","NA","09/17/21 17:06:04","1500","The main experiment item","yes","FlankerTask.osexp","C:\Users\katie\Documents\School\Quant Methods","no","mono","no","18","no","white","no","no","768","legacy","35","35","C:/Users/katie/Documents/School/Quant Methods/KH-subject-1.csv","legacy","Lentiform Loewenfeld","3.3.9","0","s","NA","s","NA","NA","s","504","NA","115334","NA","NA","504","NA","NA","2","legacy","1024","2","48000","-16","experiment","HHSHH","1","odd","178249","118596","NA","NA","131051","3156","NA","NA","179327","3260","NA","NA","179431","179936","179324","179431","NA","Flanker Task","35","18430","36","yes","1024"
"97.2972972973","97.2972972973","508.540540541","508.540540541","black","legacy","legacy","legacy","0","incongruent","uniform","1","undefined","1","h","36","0","0","0","36","0","36","0","36","0","0","0","36","36","36","36","NA","09/17/21 17:06:04","1500","The main experiment item","yes","FlankerTask.osexp","C:\Users\katie\Documents\School\Quant Methods","no","mono","no","18","no","white","no","no","768","legacy","36","36","C:/Users/katie/Documents/School/Quant Methods/KH-subject-1.csv","legacy","Lentiform Loewenfeld","3.3.9","0","h","NA","s","NA","NA","h","386","NA","115334","NA","NA","386","NA","NA","2","legacy","1024","2","48000","-16","experiment","SSHSS","1","odd","179949","118596","NA","NA","131051","3156","NA","NA","181032","3260","NA","NA","181135","181522","181029","181135","NA","Flanker Task","36","18816","37","yes","1024"
"97.3684210526","97.3684210526","509.447368421","509.447368421","black","legacy","legacy","legacy","0","incongruent","uniform","1","undefined","1","h","37","0","0","0","37","0","37","0","37","0","0","0","37","37","37","37","NA","09/17/21 17:06:04","1500","The main experiment item","yes","FlankerTask.osexp","C:\Users\katie\Documents\School\Quant Methods","no","mono","no","18","no","white","no","no","768","legacy","37","37","C:/Users/katie/Documents/School/Quant Methods/KH-subject-1.csv","legacy","Lentiform Loewenfeld","3.3.9","0","h","NA","s","NA","NA","h","543","NA","115334","NA","NA","543","NA","NA","2","legacy","1024","2","48000","-16","experiment","SSHSS","1","odd","181537","118596","NA","NA","131051","3156","NA","NA","182638","3260","NA","NA","182742","183286","182635","182742","NA","Flanker Task","37","19359","38","yes","1024"
"97.4358974359","97.4358974359","509.717948718","509.717948718","black","legacy","legacy","legacy","0","congruent","uniform","1","undefined","1","h","38","0","0","0","38","0","38","0","38","0","0","0","38","38","38","38","NA","09/17/21 17:06:04","1500","The main experiment item","yes","FlankerTask.osexp","C:\Users\katie\Documents\School\Quant Methods","no","mono","no","18","no","white","no","no","768","legacy","38","38","C:/Users/katie/Documents/School/Quant Methods/KH-subject-1.csv","legacy","Lentiform Loewenfeld","3.3.9","0","h","NA","s","NA","NA","h","520","NA","115334","NA","NA","520","NA","NA","2","legacy","1024","2","48000","-16","experiment","HHHHH","1","odd","183299","118596","NA","NA","131051","3156","NA","NA","184378","3260","NA","NA","184480","185001","184376","184480","NA","Flanker Task","38","19879","39","yes","1024"
"97.5","97.5","507.6","507.6","black","legacy","legacy","legacy","0","congruent","uniform","1","undefined","1","h","39","0","0","0","39","0","39","0","39","0","0","0","39","39","39","39","NA","09/17/21 17:06:04","1500","The main experiment item","yes","FlankerTask.osexp","C:\Users\katie\Documents\School\Quant Methods","no","mono","no","18","no","white","no","no","768","legacy","39","39","C:/Users/katie/Documents/School/Quant Methods/KH-subject-1.csv","legacy","Lentiform Loewenfeld","3.3.9","0","h","NA","s","NA","NA","h","425","NA","115334","NA","NA","425","NA","NA","2","legacy","1024","2","48000","-16","experiment","HHHHH","1","odd","185012","118596","NA","NA","131051","3156","NA","NA","186120","3260","NA","NA","186224","186650","186114","186223","NA","Flanker Task","39","20304","40","yes","1024"
"95.1219512195","95.1219512195","505.024390244","505.024390244","black","legacy","legacy","legacy","0","incongruent","uniform","0","undefined","0","s","40","0","0","0","40","0","40","0","40","0","0","0","40","40","40","40","NA","09/17/21 17:06:04","1500","The main experiment item","yes","FlankerTask.osexp","C:\Users\katie\Documents\School\Quant Methods","no","mono","no","18","no","white","no","no","768","legacy","40","40","C:/Users/katie/Documents/School/Quant Methods/KH-subject-1.csv","legacy","Lentiform Loewenfeld","3.3.9","0","h","NA","s","NA","NA","h","402","NA","115334","NA","NA","402","NA","NA","2","legacy","1024","2","48000","-16","experiment","HHSHH","1","odd","186662","118596","NA","NA","131051","3156","NA","NA","187750","3260","NA","NA","187853","188267","187748","187853","NA","Flanker Task","39","20706","41","yes","1024"
"95.2380952381","95.2380952381","504.214285714","504.214285714","black","legacy","legacy","legacy","0","congruent","uniform","1","undefined","1","s","41","0","0","0","41","0","41","0","41","0","0","0","41","41","41","41","NA","09/17/21 17:06:04","1500","The main experiment item","yes","FlankerTask.osexp","C:\Users\katie\Documents\School\Quant Methods","no","mono","no","18","no","white","no","no","768","legacy","41","41","C:/Users/katie/Documents/School/Quant Methods/KH-subject-1.csv","legacy","Lentiform Loewenfeld","3.3.9","0","s","NA","s","NA","NA","s","471","NA","115334","NA","NA","471","NA","NA","2","legacy","1024","2","48000","-16","experiment","SSSSS","1","odd","188799","118596","NA","NA","188295","3156","NA","NA","189866","3260","NA","NA","189970","190442","189864","189970","NA","Flanker Task","40","21177","42","yes","1024"
"95.3488372093","95.3488372093","505.720930233","505.720930233","black","legacy","legacy","legacy","0","incongruent","uniform","1","undefined","1","s","42","0","0","0","42","0","42","0","42","0","0","0","42","42","42","42","NA","09/17/21 17:06:04","1500","The main experiment item","yes","FlankerTask.osexp","C:\Users\katie\Documents\School\Quant Methods","no","mono","no","18","no","white","no","no","768","legacy","42","42","C:/Users/katie/Documents/School/Quant Methods/KH-subject-1.csv","legacy","Lentiform Loewenfeld","3.3.9","0","s","NA","s","NA","NA","s","569","NA","115334","NA","NA","569","NA","NA","2","legacy","1024","2","48000","-16","experiment","HHSHH","1","odd","190453","118596","NA","NA","188295","3156","NA","NA","191538","3260","NA","NA","191641","192210","191535","191641","NA","Flanker Task","41","21746","43","yes","1024"
"95.4545454545","95.4545454545","506.568181818","506.568181818","black","legacy","legacy","legacy","0","incongruent","uniform","1","undefined","1","s","43","0","0","0","43","0","43","0","43","0","0","0","43","43","43","43","NA","09/17/21 17:06:04","1500","The main experiment item","yes","FlankerTask.osexp","C:\Users\katie\Documents\School\Quant Methods","no","mono","no","18","no","white","no","no","768","legacy","43","43","C:/Users/katie/Documents/School/Quant Methods/KH-subject-1.csv","legacy","Lentiform Loewenfeld","3.3.9","0","s","NA","s","NA","NA","s","543","NA","115334","NA","NA","543","NA","NA","2","legacy","1024","2","48000","-16","experiment","HHSHH","1","odd","192223","118596","NA","NA","188295","3156","NA","NA","193283","3260","NA","NA","193384","193928","193279","193384","NA","Flanker Task","42","22289","44","yes","1024"
"93.3333333333","93.3333333333","504.644444444","504.644444444","black","legacy","legacy","legacy","0","congruent","uniform","0","undefined","0","h","44","0","0","0","44","0","44","0","44","0","0","0","44","44","44","44","NA","09/17/21 17:06:04","1500","The main experiment item","yes","FlankerTask.osexp","C:\Users\katie\Documents\School\Quant Methods","no","mono","no","18","no","white","no","no","768","legacy","44","44","C:/Users/katie/Documents/School/Quant Methods/KH-subject-1.csv","legacy","Lentiform Loewenfeld","3.3.9","0","s","NA","s","NA","NA","s","420","NA","115334","NA","NA","420","NA","NA","2","legacy","1024","2","48000","-16","experiment","HHHHH","1","odd","193932","118596","NA","NA","188295","3156","NA","NA","194994","3260","NA","NA","195096","195534","194992","195096","NA","Flanker Task","42","22709","45","yes","1024"
"93.4782608696","93.4782608696","503.695652174","503.695652174","black","legacy","legacy","legacy","0","congruent","uniform","1","undefined","1","h","45","0","0","0","45","0","45","0","45","0","0","0","45","45","45","45","NA","09/17/21 17:06:04","1500","The main experiment item","yes","FlankerTask.osexp","C:\Users\katie\Documents\School\Quant Methods","no","mono","no","18","no","white","no","no","768","legacy","45","45","C:/Users/katie/Documents/School/Quant Methods/KH-subject-1.csv","legacy","Lentiform Loewenfeld","3.3.9","0","h","NA","s","NA","NA","h","461","NA","115334","NA","NA","461","NA","NA","2","legacy","1024","2","48000","-16","experiment","HHHHH","1","odd","196049","118596","NA","NA","195547","3156","NA","NA","197122","3260","NA","NA","197225","197686","197119","197225","NA","Flanker Task","43","23170","46","yes","1024"
"93.6170212766","93.6170212766","501.744680851","501.744680851","black","legacy","legacy","legacy","0","incongruent","uniform","1","undefined","1","h","46","0","0","0","46","0","46","0","46","0","0","0","46","46","46","46","NA","09/17/21 17:06:04","1500","The main experiment item","yes","FlankerTask.osexp","C:\Users\katie\Documents\School\Quant Methods","no","mono","no","18","no","white","no","no","768","legacy","46","46","C:/Users/katie/Documents/School/Quant Methods/KH-subject-1.csv","legacy","Lentiform Loewenfeld","3.3.9","0","h","NA","s","NA","NA","h","412","NA","115334","NA","NA","412","NA","NA","2","legacy","1024","2","48000","-16","experiment","SSHSS","1","odd","197691","118596","NA","NA","195547","3156","NA","NA","198774","3260","NA","NA","198876","199290","198771","198876","NA","Flanker Task","44","23582","47","yes","1024"
"93.75","93.75","502.604166667","502.604166667","black","legacy","legacy","legacy","0","incongruent","uniform","1","undefined","1","s","47","0","0","0","47","0","47","0","47","0","0","0","47","47","47","47","NA","09/17/21 17:06:04","1500","The main experiment item","yes","FlankerTask.osexp","C:\Users\katie\Documents\School\Quant Methods","no","mono","no","18","no","white","no","no","768","legacy","47","47","C:/Users/katie/Documents/School/Quant Methods/KH-subject-1.csv","legacy","Lentiform Loewenfeld","3.3.9","0","s","NA","s","NA","NA","s","543","NA","115334","NA","NA","543","NA","NA","2","legacy","1024","2","48000","-16","experiment","HHSHH","1","odd","199296","118596","NA","NA","195547","3156","NA","NA","200387","3260","NA","NA","200490","201036","200385","200490","NA","Flanker Task","45","24125","48","yes","1024"
"93.8775510204","93.8775510204","502.367346939","502.367346939","black","legacy","legacy","legacy","0","congruent","uniform","1","undefined","1","h","48","0","0","0","48","0","48","0","48","0","0","0","48","48","48","48","NA","09/17/21 17:06:04","1500","The main experiment item","yes","FlankerTask.osexp","C:\Users\katie\Documents\School\Quant Methods","no","mono","no","18","no","white","no","no","768","legacy","48","48","C:/Users/katie/Documents/School/Quant Methods/KH-subject-1.csv","legacy","Lentiform Loewenfeld","3.3.9","0","h","NA","s","NA","NA","h","491","NA","115334","NA","NA","491","NA","NA","2","legacy","1024","2","48000","-16","experiment","HHHHH","1","odd","201041","118596","NA","NA","195547","3156","NA","NA","202121","3260","NA","NA","202225","202716","202119","202225","NA","Flanker Task","46","24616","49","yes","1024"
"94","94","501.3","501.3","black","legacy","legacy","legacy","0","incongruent","uniform","1","undefined","1","h","49","0","0","0","49","0","49","0","49","0","0","0","49","49","49","49","NA","09/17/21 17:06:04","1500","The main experiment item","yes","FlankerTask.osexp","C:\Users\katie\Documents\School\Quant Methods","no","mono","no","18","no","white","no","no","768","legacy","49","49","C:/Users/katie/Documents/School/Quant Methods/KH-subject-1.csv","legacy","Lentiform Loewenfeld","3.3.9","0","h","NA","s","NA","NA","h","449","NA","115334","NA","NA","449","NA","NA","2","legacy","1024","2","48000","-16","experiment","SSHSS","1","odd","202731","118596","NA","NA","195547","3156","NA","NA","203808","3260","NA","NA","203911","204361","203806","203911","NA","Flanker Task","47","25065","50","yes","1024"
"94.1176470588","94.1176470588","501.039215686","501.039215686","black","legacy","legacy","legacy","0","congruent","uniform","1","undefined","1","h","50","0","0","0","50","0","50","0","50","0","0","0","50","50","50","50","NA","09/17/21 17:06:04","1500","The main experiment item","yes","FlankerTask.osexp","C:\Users\katie\Documents\School\Quant Methods","no","mono","no","18","no","white","no","no","768","legacy","50","50","C:/Users/katie/Documents/School/Quant Methods/KH-subject-1.csv","legacy","Lentiform Loewenfeld","3.3.9","0","h","NA","s","NA","NA","h","488","NA","115334","NA","NA","488","NA","NA","2","legacy","1024","2","48000","-16","experiment","HHHHH","1","odd","204373","118596","NA","NA","195547","3156","NA","NA","205460","3260","NA","NA","205563","206060","205458","205563","NA","Flanker Task","48","25553","51","yes","1024"
"94.2307692308","94.2307692308","500.211538462","500.211538462","black","legacy","legacy","legacy","0","congruent","uniform","1","undefined","1","s","51","0","0","0","51","0","51","0","51","0","0","0","51","51","51","51","NA","09/17/21 17:06:04","1500","The main experiment item","yes","FlankerTask.osexp","C:\Users\katie\Documents\School\Quant Methods","no","mono","no","18","no","white","no","no","768","legacy","51","51","C:/Users/katie/Documents/School/Quant Methods/KH-subject-1.csv","legacy","Lentiform Loewenfeld","3.3.9","0","s","NA","s","NA","NA","s","458","NA","115334","NA","NA","458","NA","NA","2","legacy","1024","2","48000","-16","experiment","SSSSS","1","odd","206092","118596","NA","NA","195547","3156","NA","NA","207269","3260","NA","NA","207372","207831","207266","207372","NA","Flanker Task","49","26011","52","yes","1024"
"94.3396226415","94.3396226415","498.58490566","498.58490566","black","legacy","legacy","legacy","0","congruent","uniform","1","undefined","1","h","52","0","0","0","52","0","52","0","52","0","0","0","52","52","52","52","NA","09/17/21 17:06:04","1500","The main experiment item","yes","FlankerTask.osexp","C:\Users\katie\Documents\School\Quant Methods","no","mono","no","18","no","white","no","no","768","legacy","52","52","C:/Users/katie/Documents/School/Quant Methods/KH-subject-1.csv","legacy","Lentiform Loewenfeld","3.3.9","0","h","NA","s","NA","NA","h","414","NA","115334","NA","NA","414","NA","NA","2","legacy","1024","2","48000","-16","experiment","HHHHH","1","odd","207845","118596","NA","NA","195547","3156","NA","NA","208917","3260","NA","NA","209020","209435","208913","209020","NA","Flanker Task","50","26425","53","yes","1024"
"94.4444444444","94.4444444444","498.759259259","498.759259259","black","legacy","legacy","legacy","0","congruent","uniform","1","undefined","1","s","53","0","0","0","53","0","53","0","53","0","0","0","53","53","53","53","NA","09/17/21 17:06:04","1500","The main experiment item","yes","FlankerTask.osexp","C:\Users\katie\Documents\School\Quant Methods","no","mono","no","18","no","white","no","no","768","legacy","53","53","C:/Users/katie/Documents/School/Quant Methods/KH-subject-1.csv","legacy","Lentiform Loewenfeld","3.3.9","0","s","NA","s","NA","NA","s","508","NA","115334","NA","NA","508","NA","NA","2","legacy","1024","2","48000","-16","experiment","SSSSS","1","odd","209448","118596","NA","NA","195547","3156","NA","NA","210515","3260","NA","NA","210618","211128","210513","210618","NA","Flanker Task","51","26933","54","yes","1024"
"94.5454545455","94.5454545455","500.036363636","500.036363636","black","legacy","legacy","legacy","0","incongruent","uniform","1","undefined","1","s","54","0","0","0","54","0","54","0","54","0","0","0","54","54","54","54","NA","09/17/21 17:06:04","1500","The main experiment item","yes","FlankerTask.osexp","C:\Users\katie\Documents\School\Quant Methods","no","mono","no","18","no","white","no","no","768","legacy","54","54","C:/Users/katie/Documents/School/Quant Methods/KH-subject-1.csv","legacy","Lentiform Loewenfeld","3.3.9","0","s","NA","s","NA","NA","s","569","NA","115334","NA","NA","569","NA","NA","2","legacy","1024","2","48000","-16","experiment","HHSHH","1","odd","211141","118596","NA","NA","195547","3156","NA","NA","212220","3260","NA","NA","212323","212894","212218","212323","NA","Flanker Task","52","27502","55","yes","1024"
"94.6428571429","94.6428571429","499.803571429","499.803571429","black","legacy","legacy","legacy","0","incongruent","uniform","1","undefined","1","h","55","0","0","0","55","0","55","0","55","0","0","0","55","55","55","55","NA","09/17/21 17:06:04","1500","The main experiment item","yes","FlankerTask.osexp","C:\Users\katie\Documents\School\Quant Methods","no","mono","no","18","no","white","no","no","768","legacy","55","55","C:/Users/katie/Documents/School/Quant Methods/KH-subject-1.csv","legacy","Lentiform Loewenfeld","3.3.9","0","h","NA","s","NA","NA","h","487","NA","115334","NA","NA","487","NA","NA","2","legacy","1024","2","48000","-16","experiment","SSHSS","1","odd","212905","118596","NA","NA","195547","3156","NA","NA","213987","3260","NA","NA","214091","214578","213985","214091","NA","Flanker Task","53","27989","56","yes","1024"
"94.7368421053","94.7368421053","499.070175439","499.070175439","black","legacy","legacy","legacy","0","incongruent","uniform","1","undefined","1","h","56","0","0","0","56","0","56","0","56","0","0","0","56","56","56","56","NA","09/17/21 17:06:04","1500","The main experiment item","yes","FlankerTask.osexp","C:\Users\katie\Documents\School\Quant Methods","no","mono","no","18","no","white","no","no","768","legacy","56","56","C:/Users/katie/Documents/School/Quant Methods/KH-subject-1.csv","legacy","Lentiform Loewenfeld","3.3.9","0","h","NA","s","NA","NA","h","458","NA","115334","NA","NA","458","NA","NA","2","legacy","1024","2","48000","-16","experiment","SSHSS","1","odd","214591","118596","NA","NA","195547","3156","NA","NA","215671","3260","NA","NA","215774","216233","215670","215774","NA","Flanker Task","54","28447","57","yes","1024"
"94.8275862069","94.8275862069","499.068965517","499.068965517","black","legacy","legacy","legacy","0","incongruent","uniform","1","undefined","1","h","57","0","0","0","57","0","57","0","57","0","0","0","57","57","57","57","NA","09/17/21 17:06:04","1500","The main experiment item","yes","FlankerTask.osexp","C:\Users\katie\Documents\School\Quant Methods","no","mono","no","18","no","white","no","no","768","legacy","57","57","C:/Users/katie/Documents/School/Quant Methods/KH-subject-1.csv","legacy","Lentiform Loewenfeld","3.3.9","0","h","NA","s","NA","NA","h","499","NA","115334","NA","NA","499","NA","NA","2","legacy","1024","2","48000","-16","experiment","SSHSS","1","odd","216245","118596","NA","NA","195547","3156","NA","NA","217329","3260","NA","NA","217432","217935","217328","217432","NA","Flanker Task","55","28946","58","yes","1024"
"94.9152542373","94.9152542373","497.728813559","497.728813559","black","legacy","legacy","legacy","0","congruent","uniform","1","undefined","1","h","58","0","0","0","58","0","58","0","58","0","0","0","58","58","58","58","NA","09/17/21 17:06:04","1500","The main experiment item","yes","FlankerTask.osexp","C:\Users\katie\Documents\School\Quant Methods","no","mono","no","18","no","white","no","no","768","legacy","58","58","C:/Users/katie/Documents/School/Quant Methods/KH-subject-1.csv","legacy","Lentiform Loewenfeld","3.3.9","0","h","NA","s","NA","NA","h","420","NA","115334","NA","NA","420","NA","NA","2","legacy","1024","2","48000","-16","experiment","HHHHH","1","odd","217947","118596","NA","NA","195547","3156","NA","NA","219048","3260","NA","NA","219151","219571","219044","219151","NA","Flanker Task","56","29366","59","yes","1024"
"95","95","497.2","497.2","black","legacy","legacy","legacy","0","congruent","uniform","1","undefined","1","h","59","0","0","0","59","0","59","0","59","0","0","0","59","59","59","59","NA","09/17/21 17:06:04","1500","The main experiment item","yes","FlankerTask.osexp","C:\Users\katie\Documents\School\Quant Methods","no","mono","no","18","no","white","no","no","768","legacy","59","59","C:/Users/katie/Documents/School/Quant Methods/KH-subject-1.csv","legacy","Lentiform Loewenfeld","3.3.9","0","h","NA","s","NA","NA","h","466","NA","115334","NA","NA","466","NA","NA","2","legacy","1024","2","48000","-16","experiment","HHHHH","1","odd","219585","118596","NA","NA","195547","3156","NA","NA","220662","3260","NA","NA","220765","221232","220661","220765","NA","Flanker Task","57","29832","60","yes","1024"
"95.0819672131","95.0819672131","496.31147541","496.31147541","black","legacy","legacy","legacy","0","incongruent","uniform","1","undefined","1","s","60","0","0","0","60","0","60","0","60","0","0","0","60","60","60","60","NA","09/17/21 17:06:04","1500","The main experiment item","yes","FlankerTask.osexp","C:\Users\katie\Documents\School\Quant Methods","no","mono","no","18","no","white","no","no","768","legacy","60","60","C:/Users/katie/Documents/School/Quant Methods/KH-subject-1.csv","legacy","Lentiform Loewenfeld","3.3.9","0","s","NA","s","NA","NA","s","443","NA","115334","NA","NA","443","NA","NA","2","legacy","1024","2","48000","-16","experiment","HHSHH","1","odd","221247","118596","NA","NA","195547","3156","NA","NA","222309","3260","NA","NA","222411","222855","222306","222411","NA","Flanker Task","58","30275","61","yes","1024"
"95.1612903226","95.1612903226","497.725806452","497.725806452","black","legacy","legacy","legacy","0","incongruent","uniform","1","undefined","1","h","61","0","0","0","61","0","61","0","61","0","0","0","61","61","61","61","NA","09/17/21 17:06:04","1500","The main experiment item","yes","FlankerTask.osexp","C:\Users\katie\Documents\School\Quant Methods","no","mono","no","18","no","white","no","no","768","legacy","61","61","C:/Users/katie/Documents/School/Quant Methods/KH-subject-1.csv","legacy","Lentiform Loewenfeld","3.3.9","0","h","NA","s","NA","NA","h","584","NA","115334","NA","NA","584","NA","NA","2","legacy","1024","2","48000","-16","experiment","SSHSS","1","odd","222860","118596","NA","NA","195547","3156","NA","NA","223920","3260","NA","NA","224023","224609","223918","224023","NA","Flanker Task","59","30859","62","yes","1024"
"95.2380952381","95.2380952381","496.920634921","496.920634921","black","legacy","legacy","legacy","0","congruent","uniform","1","undefined","1","s","62","0","0","0","62","0","62","0","62","0","0","0","62","62","62","62","NA","09/17/21 17:06:04","1500","The main experiment item","yes","FlankerTask.osexp","C:\Users\katie\Documents\School\Quant Methods","no","mono","no","18","no","white","no","no","768","legacy","62","62","C:/Users/katie/Documents/School/Quant Methods/KH-subject-1.csv","legacy","Lentiform Loewenfeld","3.3.9","0","s","NA","s","NA","NA","s","447","NA","115334","NA","NA","447","NA","NA","2","legacy","1024","2","48000","-16","experiment","SSSSS","1","odd","224622","118596","NA","NA","195547","3156","NA","NA","225690","3260","NA","NA","225793","226244","225688","225793","NA","Flanker Task","60","31306","63","yes","1024"
"95.3125","95.3125","496.484375","496.484375","black","legacy","legacy","legacy","0","congruent","uniform","1","undefined","1","s","63","0","0","0","63","0","63","0","63","0","0","0","63","63","63","63","NA","09/17/21 17:06:04","1500","The main experiment item","yes","FlankerTask.osexp","C:\Users\katie\Documents\School\Quant Methods","no","mono","no","18","no","white","no","no","768","legacy","63","63","C:/Users/katie/Documents/School/Quant Methods/KH-subject-1.csv","legacy","Lentiform Loewenfeld","3.3.9","0","s","NA","s","NA","NA","s","469","NA","115334","NA","NA","469","NA","NA","2","legacy","1024","2","48000","-16","experiment","SSSSS","1","odd","226256","118596","NA","NA","195547","3156","NA","NA","227368","3260","NA","NA","227470","227940","227363","227470","NA","Flanker Task","61","31775","64","yes","1024"
"95.3846153846","95.3846153846","498.676923077","498.676923077","black","legacy","legacy","legacy","0","incongruent","uniform","1","undefined","1","h","64","0","0","0","64","0","64","0","64","0","0","0","64","64","64","64","NA","09/17/21 17:06:04","1500","The main experiment item","yes","FlankerTask.osexp","C:\Users\katie\Documents\School\Quant Methods","no","mono","no","18","no","white","no","no","768","legacy","64","64","C:/Users/katie/Documents/School/Quant Methods/KH-subject-1.csv","legacy","Lentiform Loewenfeld","3.3.9","0","h","NA","s","NA","NA","h","639","NA","115334","NA","NA","639","NA","NA","2","legacy","1024","2","48000","-16","experiment","SSHSS","1","odd","227952","118596","NA","NA","195547","3156","NA","NA","229045","3260","NA","NA","229149","229790","229043","229149","NA","Flanker Task","62","32414","65","yes","1024"
"95.4545454545","95.4545454545","503.606060606","503.606060606","black","legacy","legacy","legacy","0","congruent","uniform","1","undefined","1","s","65","0","0","0","65","0","65","0","65","0","0","0","65","65","65","65","NA","09/17/21 17:06:04","1500","The main experiment item","yes","FlankerTask.osexp","C:\Users\katie\Documents\School\Quant Methods","no","mono","no","18","no","white","no","no","768","legacy","65","65","C:/Users/katie/Documents/School/Quant Methods/KH-subject-1.csv","legacy","Lentiform Loewenfeld","3.3.9","0","s","NA","s","NA","NA","s","824","NA","115334","NA","NA","824","NA","NA","2","legacy","1024","2","48000","-16","experiment","SSSSS","1","odd","229802","118596","NA","NA","195547","3156","NA","NA","230876","3260","NA","NA","230977","231802","230874","230977","NA","Flanker Task","63","33238","66","yes","1024"
"95.5223880597","95.5223880597","503.910447761","503.910447761","black","legacy","legacy","legacy","0","incongruent","uniform","1","undefined","1","s","66","0","0","0","66","0","66","0","66","0","0","0","66","66","66","66","NA","09/17/21 17:06:04","1500","The main experiment item","yes","FlankerTask.osexp","C:\Users\katie\Documents\School\Quant Methods","no","mono","no","18","no","white","no","no","768","legacy","66","66","C:/Users/katie/Documents/School/Quant Methods/KH-subject-1.csv","legacy","Lentiform Loewenfeld","3.3.9","0","s","NA","s","NA","NA","s","524","NA","115334","NA","NA","524","NA","NA","2","legacy","1024","2","48000","-16","experiment","HHSHH","1","odd","231813","118596","NA","NA","195547","3156","NA","NA","232882","3260","NA","NA","232987","233527","232880","232986","NA","Flanker Task","64","33762","67","yes","1024"
"95.5882352941","95.5882352941","504.176470588","504.176470588","black","legacy","legacy","legacy","0","incongruent","uniform","1","undefined","1","s","67","0","0","0","67","0","67","0","67","0","0","0","67","67","67","67","NA","09/17/21 17:06:04","1500","The main experiment item","yes","FlankerTask.osexp","C:\Users\katie\Documents\School\Quant Methods","no","mono","no","18","no","white","no","no","768","legacy","67","67","C:/Users/katie/Documents/School/Quant Methods/KH-subject-1.csv","legacy","Lentiform Loewenfeld","3.3.9","0","s","NA","s","NA","NA","s","522","NA","115334","NA","NA","522","NA","NA","2","legacy","1024","2","48000","-16","experiment","HHSHH","1","odd","233562","118596","NA","NA","195547","3156","NA","NA","234750","3260","NA","NA","234852","235376","234747","234852","NA","Flanker Task","65","34284","68","yes","1024"
"95.652173913","95.652173913","504.15942029","504.15942029","black","legacy","legacy","legacy","0","incongruent","uniform","1","undefined","1","h","68","0","0","0","68","0","68","0","68","0","0","0","68","68","68","68","NA","09/17/21 17:06:04","1500","The main experiment item","yes","FlankerTask.osexp","C:\Users\katie\Documents\School\Quant Methods","no","mono","no","18","no","white","no","no","768","legacy","68","68","C:/Users/katie/Documents/School/Quant Methods/KH-subject-1.csv","legacy","Lentiform Loewenfeld","3.3.9","0","h","NA","s","NA","NA","h","503","NA","115334","NA","NA","503","NA","NA","2","legacy","1024","2","48000","-16","experiment","SSHSS","1","odd","235391","118596","NA","NA","195547","3156","NA","NA","236507","3260","NA","NA","236611","237115","236503","236610","NA","Flanker Task","66","34787","69","yes","1024"
"95.7142857143","95.7142857143","505.857142857","505.857142857","black","legacy","legacy","legacy","0","incongruent","uniform","1","undefined","1","h","69","0","0","0","69","0","69","0","69","0","0","0","69","69","69","69","NA","09/17/21 17:06:04","1500","The main experiment item","yes","FlankerTask.osexp","C:\Users\katie\Documents\School\Quant Methods","no","mono","no","18","no","white","no","no","768","legacy","69","69","C:/Users/katie/Documents/School/Quant Methods/KH-subject-1.csv","legacy","Lentiform Loewenfeld","3.3.9","0","h","NA","s","NA","NA","h","623","NA","115334","NA","NA","623","NA","NA","2","legacy","1024","2","48000","-16","experiment","SSHSS","1","odd","237120","118596","NA","NA","195547","3156","NA","NA","238200","3260","NA","NA","238303","238928","238199","238303","NA","Flanker Task","67","35410","70","yes","1024"
"95.7746478873","95.7746478873","506.309859155","506.309859155","black","legacy","legacy","legacy","0","incongruent","uniform","1","undefined","1","s","70","0","0","0","70","0","70","0","70","0","0","0","70","70","70","70","NA","09/17/21 17:06:04","1500","The main experiment item","yes","FlankerTask.osexp","C:\Users\katie\Documents\School\Quant Methods","no","mono","no","18","no","white","no","no","768","legacy","70","70","C:/Users/katie/Documents/School/Quant Methods/KH-subject-1.csv","legacy","Lentiform Loewenfeld","3.3.9","0","s","NA","s","NA","NA","s","538","NA","115334","NA","NA","538","NA","NA","2","legacy","1024","2","48000","-16","experiment","HHSHH","1","odd","238942","118596","NA","NA","195547","3156","NA","NA","240111","3260","NA","NA","240214","240752","240109","240214","NA","Flanker Task","68","35948","71","yes","1024"
"94.4444444444","94.4444444444","507.638888889","507.638888889","black","legacy","legacy","legacy","0","congruent","uniform","0","undefined","0","s","71","0","0","0","71","0","71","0","71","0","0","0","71","71","71","71","NA","09/17/21 17:06:04","1500","The main experiment item","yes","FlankerTask.osexp","C:\Users\katie\Documents\School\Quant Methods","no","mono","no","18","no","white","no","no","768","legacy","71","71","C:/Users/katie/Documents/School/Quant Methods/KH-subject-1.csv","legacy","Lentiform Loewenfeld","3.3.9","0","h","NA","s","NA","NA","h","602","NA","115334","NA","NA","602","NA","NA","2","legacy","1024","2","48000","-16","experiment","SSSSS","1","odd","240766","118596","NA","NA","195547","3156","NA","NA","241845","3260","NA","NA","241948","242551","241843","241948","NA","Flanker Task","68","36550","72","yes","1024"
"94.5205479452","94.5205479452","506.095890411","506.095890411","black","legacy","legacy","legacy","0","congruent","uniform","1","undefined","1","s","72","0","0","0","72","0","72","0","72","0","0","0","72","72","72","72","NA","09/17/21 17:06:04","1500","The main experiment item","yes","FlankerTask.osexp","C:\Users\katie\Documents\School\Quant Methods","no","mono","no","18","no","white","no","no","768","legacy","72","72","C:/Users/katie/Documents/School/Quant Methods/KH-subject-1.csv","legacy","Lentiform Loewenfeld","3.3.9","0","s","NA","s","NA","NA","s","395","NA","115334","NA","NA","395","NA","NA","2","legacy","1024","2","48000","-16","experiment","SSSSS","1","odd","243068","118596","NA","NA","242565","3156","NA","NA","244148","3260","NA","NA","244250","244646","244146","244250","NA","Flanker Task","69","36945","73","yes","1024"
"94.5945945946","94.5945945946","505.648648649","505.648648649","black","legacy","legacy","legacy","0","congruent","uniform","1","undefined","1","h","73","0","0","0","73","0","73","0","73","0","0","0","73","73","73","73","NA","09/17/21 17:06:04","1500","The main experiment item","yes","FlankerTask.osexp","C:\Users\katie\Documents\School\Quant Methods","no","mono","no","18","no","white","no","no","768","legacy","73","73","C:/Users/katie/Documents/School/Quant Methods/KH-subject-1.csv","legacy","Lentiform Loewenfeld","3.3.9","0","h","NA","s","NA","NA","h","473","NA","115334","NA","NA","473","NA","NA","2","legacy","1024","2","48000","-16","experiment","HHHHH","1","odd","244659","118596","NA","NA","242565","3156","NA","NA","245739","3260","NA","NA","245840","246314","245737","245840","NA","Flanker Task","70","37418","74","yes","1024"
"94.6666666667","94.6666666667","509.026666667","509.026666667","black","legacy","legacy","legacy","0","incongruent","uniform","1","undefined","1","s","74","0","0","0","74","0","74","0","74","0","0","0","74","74","74","74","NA","09/17/21 17:06:04","1500","The main experiment item","yes","FlankerTask.osexp","C:\Users\katie\Documents\School\Quant Methods","no","mono","no","18","no","white","no","no","768","legacy","74","74","C:/Users/katie/Documents/School/Quant Methods/KH-subject-1.csv","legacy","Lentiform Loewenfeld","3.3.9","0","s","NA","s","NA","NA","s","759","NA","115334","NA","NA","759","NA","NA","2","legacy","1024","2","48000","-16","experiment","HHSHH","1","odd","246327","118596","NA","NA","242565","3156","NA","NA","247411","3260","NA","NA","247515","248275","247410","247515","NA","Flanker Task","71","38177","75","yes","1024"
"94.7368421053","94.7368421053","507.736842105","507.736842105","black","legacy","legacy","legacy","0","incongruent","uniform","1","undefined","1","s","75","0","0","0","75","0","75","0","75","0","0","0","75","75","75","75","NA","09/17/21 17:06:04","1500","The main experiment item","yes","FlankerTask.osexp","C:\Users\katie\Documents\School\Quant Methods","no","mono","no","18","no","white","no","no","768","legacy","75","75","C:/Users/katie/Documents/School/Quant Methods/KH-subject-1.csv","legacy","Lentiform Loewenfeld","3.3.9","0","s","NA","s","NA","NA","s","411","NA","115334","NA","NA","411","NA","NA","2","legacy","1024","2","48000","-16","experiment","HHSHH","1","odd","248288","118596","NA","NA","242565","3156","NA","NA","249375","3260","NA","NA","249479","249891","249370","249478","NA","Flanker Task","72","38588","76","yes","1024"
"94.8051948052","94.8051948052","508.662337662","508.662337662","black","legacy","legacy","legacy","0","incongruent","uniform","1","undefined","1","s","76","0","0","0","76","0","76","0","76","0","0","0","76","76","76","76","NA","09/17/21 17:06:04","1500","The main experiment item","yes","FlankerTask.osexp","C:\Users\katie\Documents\School\Quant Methods","no","mono","no","18","no","white","no","no","768","legacy","76","76","C:/Users/katie/Documents/School/Quant Methods/KH-subject-1.csv","legacy","Lentiform Loewenfeld","3.3.9","0","s","NA","s","NA","NA","s","579","NA","115334","NA","NA","579","NA","NA","2","legacy","1024","2","48000","-16","experiment","HHSHH","1","odd","249905","118596","NA","NA","242565","3156","NA","NA","251003","3260","NA","NA","251106","251686","251001","251106","NA","Flanker Task","73","39167","77","yes","1024"
"94.8717948718","94.8717948718","508.948717949","508.948717949","black","legacy","legacy","legacy","0","incongruent","uniform","1","undefined","1","h","77","0","0","0","77","0","77","0","77","0","0","0","77","77","77","77","NA","09/17/21 17:06:04","1500","The main experiment item","yes","FlankerTask.osexp","C:\Users\katie\Documents\School\Quant Methods","no","mono","no","18","no","white","no","no","768","legacy","77","77","C:/Users/katie/Documents/School/Quant Methods/KH-subject-1.csv","legacy","Lentiform Loewenfeld","3.3.9","0","h","NA","s","NA","NA","h","531","NA","115334","NA","NA","531","NA","NA","2","legacy","1024","2","48000","-16","experiment","SSHSS","1","odd","251693","118596","NA","NA","242565","3156","NA","NA","252800","3260","NA","NA","252903","253436","252797","252903","NA","Flanker Task","74","39698","78","yes","1024"
"93.6708860759","93.6708860759","506.974683544","506.974683544","black","legacy","legacy","legacy","0","incongruent","uniform","0","undefined","0","h","78","0","0","0","78","0","78","0","78","0","0","0","78","78","78","78","NA","09/17/21 17:06:04","1500","The main experiment item","yes","FlankerTask.osexp","C:\Users\katie\Documents\School\Quant Methods","no","mono","no","18","no","white","no","no","768","legacy","78","78","C:/Users/katie/Documents/School/Quant Methods/KH-subject-1.csv","legacy","Lentiform Loewenfeld","3.3.9","0","s","NA","s","NA","NA","s","353","NA","115334","NA","NA","353","NA","NA","2","legacy","1024","2","48000","-16","experiment","SSHSS","1","odd","253442","118596","NA","NA","242565","3156","NA","NA","254573","3260","NA","NA","254678","255032","254571","254677","NA","Flanker Task","74","40051","79","yes","1024"
"93.75","93.75","508.3375","508.3375","black","legacy","legacy","legacy","0","incongruent","uniform","1","undefined","1","s","79","0","0","0","79","0","79","0","79","0","0","0","79","79","79","79","NA","09/17/21 17:06:04","1500","The main experiment item","yes","FlankerTask.osexp","C:\Users\katie\Documents\School\Quant Methods","no","mono","no","18","no","white","no","no","768","legacy","79","79","C:/Users/katie/Documents/School/Quant Methods/KH-subject-1.csv","legacy","Lentiform Loewenfeld","3.3.9","0","s","NA","s","NA","NA","s","616","NA","115334","NA","NA","616","NA","NA","2","legacy","1024","2","48000","-16","experiment","HHSHH","1","odd","255542","118596","NA","NA","255040","3156","NA","NA","256654","3260","NA","NA","256757","257373","256650","256757","NA","Flanker Task","75","40667","80","yes","1024"
"93.8271604938","93.8271604938","509.666666667","509.666666667","black","legacy","legacy","legacy","0","incongruent","uniform","1","undefined","1","h","80","0","0","0","80","0","80","0","80","0","0","0","80","80","80","80","NA","09/17/21 17:06:04","600","The main experiment item","yes","FlankerTask.osexp","C:\Users\katie\Documents\School\Quant Methods","no","mono","no","18","no","white","no","no","768","legacy","0","79","C:/Users/katie/Documents/School/Quant Methods/KH-subject-1.csv","legacy","Lentiform Loewenfeld","3.3.9","0","h","NA","s","s","NA","h","616","NA","115334","37930","NA","616","NA","NA","2","legacy","1024","2","48000","-16","experiment","SSHSS","1","odd","257386","118596","296341","NA","255040","3156","NA","NA","296417","3260","258410","NA","296520","297158","296416","296520","NA","Flanker Task","76","41283","81","yes","1024"
"93.9024390244","93.9024390244","510.463414634","510.463414634","black","legacy","legacy","legacy","0","incongruent","uniform","1","undefined","1","h","81","0","0","0","81","0","81","0","81","0","0","0","81","81","81","81","NA","09/17/21 17:06:04","600","The main experiment item","yes","FlankerTask.osexp","C:\Users\katie\Documents\School\Quant Methods","no","mono","no","18","no","white","no","no","768","legacy","1","79","C:/Users/katie/Documents/School/Quant Methods/KH-subject-1.csv","legacy","Lentiform Loewenfeld","3.3.9","0","h","NA","s","s","NA","h","575","NA","115334","37930","NA","575","NA","NA","2","legacy","1024","2","48000","-16","experiment","SSHSS","1","odd","297697","118596","296341","NA","255040","3156","297193","NA","298770","3260","258410","NA","298873","299449","298768","298873","NA","Flanker Task","77","41858","82","yes","1024"
"93.9759036145","93.9759036145","511.34939759","511.34939759","black","legacy","legacy","legacy","0","incongruent","uniform","1","undefined","1","s","82","0","0","0","82","0","82","0","82","0","0","0","82","82","82","82","NA","09/17/21 17:06:04","600","The main experiment item","yes","FlankerTask.osexp","C:\Users\katie\Documents\School\Quant Methods","no","mono","no","18","no","white","no","no","768","legacy","2","79","C:/Users/katie/Documents/School/Quant Methods/KH-subject-1.csv","legacy","Lentiform Loewenfeld","3.3.9","0","s","NA","s","s","NA","s","584","NA","115334","37930","NA","584","NA","NA","2","legacy","1024","2","48000","-16","experiment","HHSHH","1","odd","299456","118596","296341","NA","255040","3156","297193","NA","300532","3260","258410","NA","300635","301221","300530","300635","NA","Flanker Task","78","42442","83","yes","1024"
"94.0476190476","94.0476190476","511.880952381","511.880952381","black","legacy","legacy","legacy","0","incongruent","uniform","1","undefined","1","h","83","0","0","0","83","0","83","0","83","0","0","0","83","83","83","83","NA","09/17/21 17:06:04","600","The main experiment item","yes","FlankerTask.osexp","C:\Users\katie\Documents\School\Quant Methods","no","mono","no","18","no","white","no","no","768","legacy","3","79","C:/Users/katie/Documents/School/Quant Methods/KH-subject-1.csv","legacy","Lentiform Loewenfeld","3.3.9","0","h","NA","s","s","NA","h","556","NA","115334","37930","NA","556","NA","NA","2","legacy","1024","2","48000","-16","experiment","SSHSS","1","odd","301227","118596","296341","NA","255040","3156","297193","NA","302311","3260","258410","NA","302414","302971","302308","302413","NA","Flanker Task","79","42998","84","yes","1024"
"94.1176470588","94.1176470588","510.658823529","510.658823529","black","legacy","legacy","legacy","0","incongruent","uniform","1","undefined","1","s","84","0","0","0","84","0","84","0","84","0","0","0","84","84","84","84","NA","09/17/21 17:06:04","600","The main experiment item","yes","FlankerTask.osexp","C:\Users\katie\Documents\School\Quant Methods","no","mono","no","18","no","white","no","no","768","legacy","4","79","C:/Users/katie/Documents/School/Quant Methods/KH-subject-1.csv","legacy","Lentiform Loewenfeld","3.3.9","0","s","NA","s","s","NA","s","408","NA","115334","37930","NA","408","NA","NA","2","legacy","1024","2","48000","-16","experiment","HHSHH","1","odd","302985","118596","296341","NA","255040","3156","297193","NA","304071","3260","258410","NA","304174","304604","304069","304174","NA","Flanker Task","80","43406","85","yes","1024"
"94.1860465116","94.1860465116","512.837209302","512.837209302","black","legacy","legacy","legacy","0","incongruent","uniform","1","undefined","1","h","85","0","0","0","85","0","85","0","85","0","0","0","85","85","85","85","NA","09/17/21 17:06:04","600","The main experiment item","yes","FlankerTask.osexp","C:\Users\katie\Documents\School\Quant Methods","no","mono","no","18","no","white","no","no","768","legacy","5","79","C:/Users/katie/Documents/School/Quant Methods/KH-subject-1.csv","legacy","Lentiform Loewenfeld","3.3.9","0","h","NA","s","s","NA","h","698","NA","115334","37930","NA","698","NA","NA","2","legacy","1024","2","48000","-16","experiment","SSHSS","1","odd","304642","118596","296341","NA","255040","3156","297193","NA","305826","3260","258410","NA","305929","306627","305823","305929","NA","Flanker Task","81","44104","86","yes","1024"
"94.2528735632","94.2528735632","513.471264368","513.471264368","black","legacy","legacy","legacy","0","incongruent","uniform","1","undefined","1","h","86","0","0","0","86","0","86","0","86","0","0","0","86","86","86","86","NA","09/17/21 17:06:04","600","The main experiment item","yes","FlankerTask.osexp","C:\Users\katie\Documents\School\Quant Methods","no","mono","no","18","no","white","no","no","768","legacy","6","79","C:/Users/katie/Documents/School/Quant Methods/KH-subject-1.csv","legacy","Lentiform Loewenfeld","3.3.9","0","h","NA","s","s","NA","h","568","NA","115334","37930","NA","568","NA","NA","2","legacy","1024","2","48000","-16","experiment","SSHSS","1","odd","307142","118596","296341","NA","255040","3156","306639","NA","308215","3260","258410","NA","308319","308890","308213","308319","NA","Flanker Task","82","44672","87","yes","1024"
"94.3181818182","94.3181818182","513.863636364","513.863636364","black","legacy","legacy","legacy","0","incongruent","uniform","1","undefined","1","h","87","0","0","0","87","0","87","0","87","0","0","0","87","87","87","87","NA","09/17/21 17:06:04","600","The main experiment item","yes","FlankerTask.osexp","C:\Users\katie\Documents\School\Quant Methods","no","mono","no","18","no","white","no","no","768","legacy","7","79","C:/Users/katie/Documents/School/Quant Methods/KH-subject-1.csv","legacy","Lentiform Loewenfeld","3.3.9","0","h","NA","s","s","NA","h","548","NA","115334","37930","NA","548","NA","NA","2","legacy","1024","2","48000","-16","experiment","SSHSS","1","odd","308902","118596","296341","NA","255040","3156","306639","NA","310076","3260","258410","NA","310180","310729","310074","310179","NA","Flanker Task","83","45220","88","yes","1024"
"94.3820224719","94.3820224719","513.651685393","513.651685393","black","legacy","legacy","legacy","0","congruent","uniform","1","undefined","1","h","88","0","0","0","88","0","88","0","88","0","0","0","88","88","88","88","NA","09/17/21 17:06:04","600","The main experiment item","yes","FlankerTask.osexp","C:\Users\katie\Documents\School\Quant Methods","no","mono","no","18","no","white","no","no","768","legacy","8","79","C:/Users/katie/Documents/School/Quant Methods/KH-subject-1.csv","legacy","Lentiform Loewenfeld","3.3.9","0","h","NA","s","s","NA","h","495","NA","115334","37930","NA","495","NA","NA","2","legacy","1024","2","48000","-16","experiment","HHHHH","1","odd","310743","118596","296341","NA","255040","3156","306639","NA","311833","3260","258410","NA","311936","312438","311832","311936","NA","Flanker Task","84","45715","89","yes","1024"
"94.4444444444","94.4444444444","513.555555556","513.555555556","black","legacy","legacy","legacy","0","incongruent","uniform","1","undefined","1","s","89","0","0","0","89","0","89","0","89","0","0","0","89","89","89","89","NA","09/17/21 17:06:04","600","The main experiment item","yes","FlankerTask.osexp","C:\Users\katie\Documents\School\Quant Methods","no","mono","no","18","no","white","no","no","768","legacy","9","79","C:/Users/katie/Documents/School/Quant Methods/KH-subject-1.csv","legacy","Lentiform Loewenfeld","3.3.9","0","s","NA","s","s","NA","s","505","NA","115334","37930","NA","505","NA","NA","2","legacy","1024","2","48000","-16","experiment","HHSHH","1","odd","312446","118596","296341","NA","255040","3156","306639","NA","313521","3260","258410","NA","313624","314130","313517","313624","NA","Flanker Task","85","46220","90","yes","1024"
"94.5054945055","94.5054945055","513.274725275","513.274725275","black","legacy","legacy","legacy","0","incongruent","uniform","1","undefined","1","h","90","0","0","0","90","0","90","0","90","0","0","0","90","90","90","90","NA","09/17/21 17:06:04","600","The main experiment item","yes","FlankerTask.osexp","C:\Users\katie\Documents\School\Quant Methods","no","mono","no","18","no","white","no","no","768","legacy","10","79","C:/Users/katie/Documents/School/Quant Methods/KH-subject-1.csv","legacy","Lentiform Loewenfeld","3.3.9","0","h","NA","s","s","NA","h","488","NA","115334","37930","NA","488","NA","NA","2","legacy","1024","2","48000","-16","experiment","SSHSS","1","odd","314136","118596","296341","NA","255040","3156","306639","NA","315210","3260","258410","NA","315313","315802","315207","315313","NA","Flanker Task","86","46708","91","yes","1024"
"94.5652173913","94.5652173913","513.097826087","513.097826087","black","legacy","legacy","legacy","0","incongruent","uniform","1","undefined","1","h","91","0","0","0","91","0","91","0","91","0","0","0","91","91","91","91","NA","09/17/21 17:06:04","600","The main experiment item","yes","FlankerTask.osexp","C:\Users\katie\Documents\School\Quant Methods","no","mono","no","18","no","white","no","no","768","legacy","11","79","C:/Users/katie/Documents/School/Quant Methods/KH-subject-1.csv","legacy","Lentiform Loewenfeld","3.3.9","0","h","NA","s","s","NA","h","497","NA","115334","37930","NA","497","NA","NA","2","legacy","1024","2","48000","-16","experiment","SSHSS","1","odd","315807","118596","296341","NA","255040","3156","306639","NA","316890","3260","258410","NA","316994","317492","316887","316993","NA","Flanker Task","87","47205","92","yes","1024"
"94.623655914","94.623655914","512.086021505","512.086021505","black","legacy","legacy","legacy","0","congruent","uniform","1","undefined","1","h","92","0","0","0","92","0","92","0","92","0","0","0","92","92","92","92","NA","09/17/21 17:06:04","600","The main experiment item","yes","FlankerTask.osexp","C:\Users\katie\Documents\School\Quant Methods","no","mono","no","18","no","white","no","no","768","legacy","12","79","C:/Users/katie/Documents/School/Quant Methods/KH-subject-1.csv","legacy","Lentiform Loewenfeld","3.3.9","0","h","NA","s","s","NA","h","419","NA","115334","37930","NA","419","NA","NA","2","legacy","1024","2","48000","-16","experiment","HHHHH","1","odd","317499","118596","296341","NA","255040","3156","306639","NA","318626","3260","258410","NA","318729","319149","318622","318729","NA","Flanker Task","88","47624","93","yes","1024"
"94.6808510638","94.6808510638","511.680851064","511.680851064","black","legacy","legacy","legacy","0","congruent","uniform","1","undefined","1","h","93","0","0","0","93","0","93","0","93","0","0","0","93","93","93","93","NA","09/17/21 17:06:04","600","The main experiment item","yes","FlankerTask.osexp","C:\Users\katie\Documents\School\Quant Methods","no","mono","no","18","no","white","no","no","768","legacy","13","79","C:/Users/katie/Documents/School/Quant Methods/KH-subject-1.csv","legacy","Lentiform Loewenfeld","3.3.9","0","h","NA","s","s","NA","h","474","NA","115334","37930","NA","474","NA","NA","2","legacy","1024","2","48000","-16","experiment","HHHHH","1","odd","319163","118596","296341","NA","255040","3156","306639","NA","320238","3260","258410","NA","320342","320817","320235","320342","NA","Flanker Task","89","48098","94","yes","1024"
"94.7368421053","94.7368421053","511.547368421","511.547368421","black","legacy","legacy","legacy","0","congruent","uniform","1","undefined","1","s","94","0","0","0","94","0","94","0","94","0","0","0","94","94","94","94","NA","09/17/21 17:06:04","600","The main experiment item","yes","FlankerTask.osexp","C:\Users\katie\Documents\School\Quant Methods","no","mono","no","18","no","white","no","no","768","legacy","14","79","C:/Users/katie/Documents/School/Quant Methods/KH-subject-1.csv","legacy","Lentiform Loewenfeld","3.3.9","0","s","NA","s","s","NA","s","499","NA","115334","37930","NA","499","NA","NA","2","legacy","1024","2","48000","-16","experiment","SSSSS","1","odd","320831","118596","296341","NA","255040","3156","306639","NA","321902","3260","258410","NA","322006","322506","321900","322005","NA","Flanker Task","90","48597","95","yes","1024"
"94.7916666667","94.7916666667","510.135416667","510.135416667","black","legacy","legacy","legacy","0","congruent","uniform","1","undefined","1","h","95","0","0","0","95","0","95","0","95","0","0","0","95","95","95","95","NA","09/17/21 17:06:04","600","The main experiment item","yes","FlankerTask.osexp","C:\Users\katie\Documents\School\Quant Methods","no","mono","no","18","no","white","no","no","768","legacy","15","79","C:/Users/katie/Documents/School/Quant Methods/KH-subject-1.csv","legacy","Lentiform Loewenfeld","3.3.9","0","h","NA","s","s","NA","h","376","NA","115334","37930","NA","376","NA","NA","2","legacy","1024","2","48000","-16","experiment","HHHHH","1","odd","322521","118596","296341","NA","255040","3156","306639","NA","323603","3260","258410","NA","323706","324083","323600","323706","NA","Flanker Task","91","48973","96","yes","1024"
"94.8453608247","94.8453608247","512.453608247","512.453608247","black","legacy","legacy","legacy","0","congruent","uniform","1","undefined","1","h","96","0","0","0","96","0","96","0","96","0","0","0","96","96","96","96","NA","09/17/21 17:06:04","600","The main experiment item","yes","FlankerTask.osexp","C:\Users\katie\Documents\School\Quant Methods","no","mono","no","18","no","white","no","no","768","legacy","16","79","C:/Users/katie/Documents/School/Quant Methods/KH-subject-1.csv","legacy","Lentiform Loewenfeld","3.3.9","0","h","NA","s","s","NA","h","735","NA","115334","37930","NA","735","NA","NA","2","legacy","1024","2","48000","-16","experiment","HHHHH","1","odd","324098","118596","296341","NA","255040","3156","306639","NA","325178","3260","258410","NA","325281","326017","325176","325281","NA","Flanker Task","92","49708","97","yes","1024"
"94.8979591837","94.8979591837","511.43877551","511.43877551","black","legacy","legacy","legacy","0","congruent","uniform","1","undefined","1","s","97","0","0","0","97","0","97","0","97","0","0","0","97","97","97","97","NA","09/17/21 17:06:04","600","The main experiment item","yes","FlankerTask.osexp","C:\Users\katie\Documents\School\Quant Methods","no","mono","no","18","no","white","no","no","768","legacy","17","79","C:/Users/katie/Documents/School/Quant Methods/KH-subject-1.csv","legacy","Lentiform Loewenfeld","3.3.9","0","s","NA","s","s","NA","s","413","NA","115334","37930","NA","413","NA","NA","2","legacy","1024","2","48000","-16","experiment","SSSSS","1","odd","326532","118596","296341","NA","255040","3156","326029","NA","327611","3260","258410","NA","327714","328128","327609","327714","NA","Flanker Task","93","50121","98","yes","1024"
"94.9494949495","94.9494949495","510.545454545","510.545454545","black","legacy","legacy","legacy","0","congruent","uniform","1","undefined","1","h","98","0","0","0","98","0","98","0","98","0","0","0","98","98","98","98","NA","09/17/21 17:06:04","600","The main experiment item","yes","FlankerTask.osexp","C:\Users\katie\Documents\School\Quant Methods","no","mono","no","18","no","white","no","no","768","legacy","18","79","C:/Users/katie/Documents/School/Quant Methods/KH-subject-1.csv","legacy","Lentiform Loewenfeld","3.3.9","0","h","NA","s","s","NA","h","423","NA","115334","37930","NA","423","NA","NA","2","legacy","1024","2","48000","-16","experiment","HHHHH","1","odd","328140","118596","296341","NA","255040","3156","326029","NA","329234","3260","258410","NA","329337","329761","329230","329337","NA","Flanker Task","94","50544","99","yes","1024"
"95","95","509.93","509.93","black","legacy","legacy","legacy","0","congruent","uniform","1","undefined","1","h","99","0","0","0","99","0","99","0","99","0","0","0","99","99","99","99","NA","09/17/21 17:06:04","600","The main experiment item","yes","FlankerTask.osexp","C:\Users\katie\Documents\School\Quant Methods","no","mono","no","18","no","white","no","no","768","legacy","19","79","C:/Users/katie/Documents/School/Quant Methods/KH-subject-1.csv","legacy","Lentiform Loewenfeld","3.3.9","0","h","NA","s","s","NA","h","449","NA","115334","37930","NA","449","NA","NA","2","legacy","1024","2","48000","-16","experiment","HHHHH","1","odd","329773","118596","296341","NA","255040","3156","326029","NA","330854","3260","258410","NA","330956","331406","330851","330955","NA","Flanker Task","95","50993","100","yes","1024"
"94.0594059406","94.0594059406","508.95049505","508.95049505","black","legacy","legacy","legacy","0","incongruent","uniform","0","undefined","0","h","100","0","0","0","100","0","100","0","100","0","0","0","100","100","100","100","NA","09/17/21 17:06:04","600","The main experiment item","yes","FlankerTask.osexp","C:\Users\katie\Documents\School\Quant Methods","no","mono","no","18","no","white","no","no","768","legacy","20","79","C:/Users/katie/Documents/School/Quant Methods/KH-subject-1.csv","legacy","Lentiform Loewenfeld","3.3.9","0","s","NA","s","s","NA","s","411","NA","115334","37930","NA","411","NA","NA","2","legacy","1024","2","48000","-16","experiment","SSHSS","1","odd","331418","118596","296341","NA","255040","3156","326029","NA","332514","3260","258410","NA","332618","333031","332510","332618","NA","Flanker Task","95","51404","101","yes","1024"
"94.1176470588","94.1176470588","507.735294118","507.735294118","black","legacy","legacy","legacy","0","incongruent","uniform","1","undefined","1","h","101","0","0","0","101","0","101","0","101","0","0","0","101","101","101","101","NA","09/17/21 17:06:04","600","The main experiment item","yes","FlankerTask.osexp","C:\Users\katie\Documents\School\Quant Methods","no","mono","no","18","no","white","no","no","768","legacy","21","79","C:/Users/katie/Documents/School/Quant Methods/KH-subject-1.csv","legacy","Lentiform Loewenfeld","3.3.9","0","h","NA","s","s","NA","h","385","NA","115334","37930","NA","385","NA","NA","2","legacy","1024","2","48000","-16","experiment","SSHSS","1","odd","333546","118596","296341","NA","333042","3156","326029","NA","334617","3260","258410","NA","334721","335107","334614","334721","NA","Flanker Task","96","51789","102","yes","1024"
"94.1747572816","94.1747572816","507.72815534","507.72815534","black","legacy","legacy","legacy","0","congruent","uniform","1","undefined","1","h","102","0","0","0","102","0","102","0","102","0","0","0","102","102","102","102","NA","09/17/21 17:06:04","600","The main experiment item","yes","FlankerTask.osexp","C:\Users\katie\Documents\School\Quant Methods","no","mono","no","18","no","white","no","no","768","legacy","22","79","C:/Users/katie/Documents/School/Quant Methods/KH-subject-1.csv","legacy","Lentiform Loewenfeld","3.3.9","0","h","NA","s","s","NA","h","507","NA","115334","37930","NA","507","NA","NA","2","legacy","1024","2","48000","-16","experiment","HHHHH","1","odd","335119","118596","296341","NA","333042","3156","326029","NA","336208","3260","258410","NA","336311","336820","336205","336310","NA","Flanker Task","97","52296","103","yes","1024"
"94.2307692308","94.2307692308","506.471153846","506.471153846","black","legacy","legacy","legacy","0","congruent","uniform","1","undefined","1","s","103","0","0","0","103","0","103","0","103","0","0","0","103","103","103","103","NA","09/17/21 17:06:04","600","The main experiment item","yes","FlankerTask.osexp","C:\Users\katie\Documents\School\Quant Methods","no","mono","no","18","no","white","no","no","768","legacy","23","79","C:/Users/katie/Documents/School/Quant Methods/KH-subject-1.csv","legacy","Lentiform Loewenfeld","3.3.9","0","s","NA","s","s","NA","s","377","NA","115334","37930","NA","377","NA","NA","2","legacy","1024","2","48000","-16","experiment","SSSSS","1","odd","336831","118596","296341","NA","333042","3156","326029","NA","337919","3260","258410","NA","338023","338401","337917","338022","NA","Flanker Task","98","52673","104","yes","1024"
"94.2857142857","94.2857142857","506.828571429","506.828571429","black","legacy","legacy","legacy","0","congruent","uniform","1","undefined","1","s","104","0","0","0","104","0","104","0","104","0","0","0","104","104","104","104","NA","09/17/21 17:06:04","600","The main experiment item","yes","FlankerTask.osexp","C:\Users\katie\Documents\School\Quant Methods","no","mono","no","18","no","white","no","no","768","legacy","24","79","C:/Users/katie/Documents/School/Quant Methods/KH-subject-1.csv","legacy","Lentiform Loewenfeld","3.3.9","0","s","NA","s","s","NA","s","544","NA","115334","37930","NA","544","NA","NA","2","legacy","1024","2","48000","-16","experiment","SSSSS","1","odd","338407","118596","296341","NA","333042","3156","326029","NA","339538","3260","258410","NA","339641","340188","339536","339641","NA","Flanker Task","99","53217","105","yes","1024"
"94.3396226415","94.3396226415","506.141509434","506.141509434","black","legacy","legacy","legacy","0","congruent","uniform","1","undefined","1","s","105","0","0","0","105","0","105","0","105","0","0","0","105","105","105","105","NA","09/17/21 17:06:04","600","The main experiment item","yes","FlankerTask.osexp","C:\Users\katie\Documents\School\Quant Methods","no","mono","no","18","no","white","no","no","768","legacy","25","79","C:/Users/katie/Documents/School/Quant Methods/KH-subject-1.csv","legacy","Lentiform Loewenfeld","3.3.9","0","s","NA","s","s","NA","s","434","NA","115334","37930","NA","434","NA","NA","2","legacy","1024","2","48000","-16","experiment","SSSSS","1","odd","340194","118596","296341","NA","333042","3156","326029","NA","341270","3260","258410","NA","341373","341808","341266","341373","NA","Flanker Task","100","53651","106","yes","1024"
"94.3925233645","94.3925233645","504.934579439","504.934579439","black","legacy","legacy","legacy","0","congruent","uniform","1","undefined","1","s","106","0","0","0","106","0","106","0","106","0","0","0","106","106","106","106","NA","09/17/21 17:06:04","600","The main experiment item","yes","FlankerTask.osexp","C:\Users\katie\Documents\School\Quant Methods","no","mono","no","18","no","white","no","no","768","legacy","26","79","C:/Users/katie/Documents/School/Quant Methods/KH-subject-1.csv","legacy","Lentiform Loewenfeld","3.3.9","0","s","NA","s","s","NA","s","377","NA","115334","37930","NA","377","NA","NA","2","legacy","1024","2","48000","-16","experiment","SSSSS","1","odd","341819","118596","296341","NA","333042","3156","326029","NA","342902","3260","258410","NA","343006","343383","342899","343006","NA","Flanker Task","101","54028","107","yes","1024"
"94.4444444444","94.4444444444","503.574074074","503.574074074","black","legacy","legacy","legacy","0","incongruent","uniform","1","undefined","1","s","107","0","0","0","107","0","107","0","107","0","0","0","107","107","107","107","NA","09/17/21 17:06:04","600","The main experiment item","yes","FlankerTask.osexp","C:\Users\katie\Documents\School\Quant Methods","no","mono","no","18","no","white","no","no","768","legacy","27","79","C:/Users/katie/Documents/School/Quant Methods/KH-subject-1.csv","legacy","Lentiform Loewenfeld","3.3.9","0","s","NA","s","s","NA","s","358","NA","115334","37930","NA","358","NA","NA","2","legacy","1024","2","48000","-16","experiment","HHSHH","1","odd","343398","118596","296341","NA","333042","3156","326029","NA","344493","3260","258410","NA","344596","344956","344490","344596","NA","Flanker Task","102","54386","108","yes","1024"
"94.495412844","94.495412844","502.743119266","502.743119266","black","legacy","legacy","legacy","0","congruent","uniform","1","undefined","1","h","108","0","0","0","108","0","108","0","108","0","0","0","108","108","108","108","NA","09/17/21 17:06:04","600","The main experiment item","yes","FlankerTask.osexp","C:\Users\katie\Documents\School\Quant Methods","no","mono","no","18","no","white","no","no","768","legacy","28","79","C:/Users/katie/Documents/School/Quant Methods/KH-subject-1.csv","legacy","Lentiform Loewenfeld","3.3.9","0","h","NA","s","s","NA","h","413","NA","115334","37930","NA","413","NA","NA","2","legacy","1024","2","48000","-16","experiment","HHHHH","1","odd","344967","118596","296341","NA","333042","3156","326029","NA","346031","3260","258410","NA","346133","346547","346029","346133","NA","Flanker Task","103","54799","109","yes","1024"
"94.5454545455","94.5454545455","502.336363636","502.336363636","black","legacy","legacy","legacy","0","congruent","uniform","1","undefined","1","h","109","0","0","0","109","0","109","0","109","0","0","0","109","109","109","109","NA","09/17/21 17:06:04","600","The main experiment item","yes","FlankerTask.osexp","C:\Users\katie\Documents\School\Quant Methods","no","mono","no","18","no","white","no","no","768","legacy","29","79","C:/Users/katie/Documents/School/Quant Methods/KH-subject-1.csv","legacy","Lentiform Loewenfeld","3.3.9","0","h","NA","s","s","NA","h","458","NA","115334","37930","NA","458","NA","NA","2","legacy","1024","2","48000","-16","experiment","HHHHH","1","odd","346552","118596","296341","NA","333042","3156","326029","NA","347627","3260","258410","NA","347731","348191","347625","347731","NA","Flanker Task","104","55257","110","yes","1024"
"94.5945945946","94.5945945946","502.342342342","502.342342342","black","legacy","legacy","legacy","0","incongruent","uniform","1","undefined","1","s","110","0","0","0","110","0","110","0","110","0","0","0","110","110","110","110","NA","09/17/21 17:06:04","600","The main experiment item","yes","FlankerTask.osexp","C:\Users\katie\Documents\School\Quant Methods","no","mono","no","18","no","white","no","no","768","legacy","30","79","C:/Users/katie/Documents/School/Quant Methods/KH-subject-1.csv","legacy","Lentiform Loewenfeld","3.3.9","0","s","NA","s","s","NA","s","503","NA","115334","37930","NA","503","NA","NA","2","legacy","1024","2","48000","-16","experiment","HHSHH","1","odd","348203","118596","296341","NA","333042","3156","326029","NA","349286","3260","258410","NA","349389","349897","349282","349389","NA","Flanker Task","105","55760","111","yes","1024"
"94.6428571429","94.6428571429","502.098214286","502.098214286","black","legacy","legacy","legacy","0","congruent","uniform","1","undefined","1","s","111","0","0","0","111","0","111","0","111","0","0","0","111","111","111","111","NA","09/17/21 17:06:04","600","The main experiment item","yes","FlankerTask.osexp","C:\Users\katie\Documents\School\Quant Methods","no","mono","no","18","no","white","no","no","768","legacy","31","79","C:/Users/katie/Documents/School/Quant Methods/KH-subject-1.csv","legacy","Lentiform Loewenfeld","3.3.9","0","s","NA","s","s","NA","s","475","NA","115334","37930","NA","475","NA","NA","2","legacy","1024","2","48000","-16","experiment","SSSSS","1","odd","349910","118596","296341","NA","333042","3156","326029","NA","351096","3260","258410","NA","351201","351677","351093","351200","NA","Flanker Task","106","56235","112","yes","1024"
"94.6902654867","94.6902654867","501.876106195","501.876106195","black","legacy","legacy","legacy","0","congruent","uniform","1","undefined","1","s","112","0","0","0","112","0","112","0","112","0","0","0","112","112","112","112","NA","09/17/21 17:06:04","600","The main experiment item","yes","FlankerTask.osexp","C:\Users\katie\Documents\School\Quant Methods","no","mono","no","18","no","white","no","no","768","legacy","32","79","C:/Users/katie/Documents/School/Quant Methods/KH-subject-1.csv","legacy","Lentiform Loewenfeld","3.3.9","0","s","NA","s","s","NA","s","477","NA","115334","37930","NA","477","NA","NA","2","legacy","1024","2","48000","-16","experiment","SSSSS","1","odd","351689","118596","296341","NA","333042","3156","326029","NA","352808","3260","258410","NA","352912","353390","352804","352912","NA","Flanker Task","107","56712","113","yes","1024"
"94.7368421053","94.7368421053","501.421052632","501.421052632","black","legacy","legacy","legacy","0","incongruent","uniform","1","undefined","1","s","113","0","0","0","113","0","113","0","113","0","0","0","113","113","113","113","NA","09/17/21 17:06:04","600","The main experiment item","yes","FlankerTask.osexp","C:\Users\katie\Documents\School\Quant Methods","no","mono","no","18","no","white","no","no","768","legacy","33","79","C:/Users/katie/Documents/School/Quant Methods/KH-subject-1.csv","legacy","Lentiform Loewenfeld","3.3.9","0","s","NA","s","s","NA","s","450","NA","115334","37930","NA","450","NA","NA","2","legacy","1024","2","48000","-16","experiment","HHSHH","1","odd","353396","118596","296341","NA","333042","3156","326029","NA","354474","3260","258410","NA","354578","355030","354472","354578","NA","Flanker Task","108","57162","114","yes","1024"
"94.7826086957","94.7826086957","501.234782609","501.234782609","black","legacy","legacy","legacy","0","congruent","uniform","1","undefined","1","h","114","0","0","0","114","0","114","0","114","0","0","0","114","114","114","114","NA","09/17/21 17:06:04","600","The main experiment item","yes","FlankerTask.osexp","C:\Users\katie\Documents\School\Quant Methods","no","mono","no","18","no","white","no","no","768","legacy","34","79","C:/Users/katie/Documents/School/Quant Methods/KH-subject-1.csv","legacy","Lentiform Loewenfeld","3.3.9","0","h","NA","s","s","NA","h","480","NA","115334","37930","NA","480","NA","NA","2","legacy","1024","2","48000","-16","experiment","HHHHH","1","odd","355043","118596","296341","NA","333042","3156","326029","NA","356121","3260","258410","NA","356225","356707","356118","356224","NA","Flanker Task","109","57642","115","yes","1024"
"94.8275862069","94.8275862069","501.344827586","501.344827586","black","legacy","legacy","legacy","0","congruent","uniform","1","undefined","1","h","115","0","0","0","115","0","115","0","115","0","0","0","115","115","115","115","NA","09/17/21 17:06:04","600","The main experiment item","yes","FlankerTask.osexp","C:\Users\katie\Documents\School\Quant Methods","no","mono","no","18","no","white","no","no","768","legacy","35","79","C:/Users/katie/Documents/School/Quant Methods/KH-subject-1.csv","legacy","Lentiform Loewenfeld","3.3.9","0","h","NA","s","s","NA","h","514","NA","115334","37930","NA","514","NA","NA","2","legacy","1024","2","48000","-16","experiment","HHHHH","1","odd","356721","118596","296341","NA","333042","3156","326029","NA","357805","3260","258410","NA","357909","358444","357803","357909","NA","Flanker Task","110","58156","116","yes","1024"
