"acc","accuracy","average_response_time","avg_rt","background","canvas_backend","clock_backend","color_backend","condition","correct","correct_instructions1","correct_keyboard_response","correct_response","count_block1","count_block2","count_block3","count_errorFeedback","count_experiment","count_faster","count_finish","count_fixation","count_getting_started","count_instructions1","count_instructions2","count_instructions3","count_isi","count_keyboard_response","count_logger","count_sequence","count_stimulus","count_welcome","datetime","deadline","description","disable_garbage_collection","experiment_file","experiment_path","font_bold","font_family","font_italic","font_size","font_underline","foreground","form_clicks","fullscreen","height","keyboard_backend","live_row","live_row_block1","logfile","mouse_backend","opensesame_codename","opensesame_version","repeat_cycle","response","response_finish","response_instructions1","response_instructions2","response_instructions3","response_keyboard_response","response_time","response_time_finish","response_time_instructions1","response_time_instructions2","response_time_instructions3","response_time_keyboard_response","response_time_welcome","response_welcome","round_decimals","sampler_backend","sound_buf_size","sound_channels","sound_freq","sound_sample_size","start","stimulus","subject_nr","subject_parity","time_block1","time_block2","time_block3","time_errorFeedback","time_experiment","time_faster","time_finish","time_fixation","time_getting_started","time_instructions1","time_instructions2","time_instructions3","time_isi","time_keyboard_response","time_logger","time_sequence","time_stimulus","time_welcome","title","total_correct","total_response_time","total_responses","width"
"100","100","872","872","#3d3846","legacy","legacy","legacy","congruent","1","undefined","1","h","0","0","0","0","0","0","0","0","0","0","0","0","0","0","0","0","0","0","Wed Sep 20 13:35:18 2023","1500","The main experiment item","False","FlankerTask23.osexp","/Users/keelihatcher/Desktop/Tarleton M.D./Advanced Quantitative Methods & Experimental Design","False","mono","False","18","no","white","no","yes","768","legacy","0","0","/Users/keelihatcher/Desktop/Tarleton M.D./Advanced Quantitative Methods & Experimental Design/TH-subject-1.csv","legacy","Melodramatic Milgram","4.0.5","0","h","NA","h","NA","NA","h","872.0","NA","44639","NA","NA","872","NA","NA","2","legacy","1024","2","48000","-16","experiment","HHHHH","1","odd","47559","NA","NA","NA","2799","NA","NA","47605","NA","2892","NA","NA","NA","47709","48591","47601","47708","NA","Flanker Task","1","872.0","1","1024"
"100","100","681","681","#3d3846","legacy","legacy","legacy","incongruent","1","undefined","1","s","0","0","0","1","0","1","0","1","0","0","0","0","1","1","1","1","1","0","Wed Sep 20 13:35:18 2023","1500","The main experiment item","False","FlankerTask23.osexp","/Users/keelihatcher/Desktop/Tarleton M.D./Advanced Quantitative Methods & Experimental Design","False","mono","False","18","no","white","no","yes","768","legacy","1","1","/Users/keelihatcher/Desktop/Tarleton M.D./Advanced Quantitative Methods & Experimental Design/TH-subject-1.csv","legacy","Melodramatic Milgram","4.0.5","0","s","NA","h","NA","NA","s","490.0","NA","44639","NA","NA","490","NA","NA","2","legacy","1024","2","48000","-16","experiment","HHSHH","1","odd","47559","NA","NA","NA","2799","NA","NA","49648","NA","2892","NA","NA","48595","49752","50242","49643","49752","NA","Flanker Task","2","1362.0","2","1024"
"100","100","668","668","#3d3846","legacy","legacy","legacy","incongruent","1","undefined","1","h","0","0","0","2","0","2","0","2","0","0","0","0","2","2","2","2","2","0","Wed Sep 20 13:35:18 2023","1500","The main experiment item","False","FlankerTask23.osexp","/Users/keelihatcher/Desktop/Tarleton M.D./Advanced Quantitative Methods & Experimental Design","False","mono","False","18","no","white","no","yes","768","legacy","2","2","/Users/keelihatcher/Desktop/Tarleton M.D./Advanced Quantitative Methods & Experimental Design/TH-subject-1.csv","legacy","Melodramatic Milgram","4.0.5","0","h","NA","h","NA","NA","h","643.0","NA","44639","NA","NA","643","NA","NA","2","legacy","1024","2","48000","-16","experiment","SSHSS","1","odd","47559","NA","NA","NA","2799","NA","NA","51293","NA","2892","NA","NA","50244","51397","52041","51290","51396","NA","Flanker Task","3","2005.0","3","1024"
"100","100","661","661","#3d3846","legacy","legacy","legacy","incongruent","1","undefined","1","h","0","0","0","3","0","3","0","3","0","0","0","0","3","3","3","3","3","0","Wed Sep 20 13:35:18 2023","1500","The main experiment item","False","FlankerTask23.osexp","/Users/keelihatcher/Desktop/Tarleton M.D./Advanced Quantitative Methods & Experimental Design","False","mono","False","18","no","white","no","yes","768","legacy","3","3","/Users/keelihatcher/Desktop/Tarleton M.D./Advanced Quantitative Methods & Experimental Design/TH-subject-1.csv","legacy","Melodramatic Milgram","4.0.5","0","h","NA","h","NA","NA","h","641.0","NA","44639","NA","NA","641","NA","NA","2","legacy","1024","2","48000","-16","experiment","SSHSS","1","odd","47559","NA","NA","NA","2799","NA","NA","53092","NA","2892","NA","NA","52043","53196","53838","53087","53196","NA","Flanker Task","4","2646.0","4","1024"
"100","100","638","638","#3d3846","legacy","legacy","legacy","incongruent","1","undefined","1","h","0","0","0","4","0","4","0","4","0","0","0","0","4","4","4","4","4","0","Wed Sep 20 13:35:18 2023","1500","The main experiment item","False","FlankerTask23.osexp","/Users/keelihatcher/Desktop/Tarleton M.D./Advanced Quantitative Methods & Experimental Design","False","mono","False","18","no","white","no","yes","768","legacy","4","4","/Users/keelihatcher/Desktop/Tarleton M.D./Advanced Quantitative Methods & Experimental Design/TH-subject-1.csv","legacy","Melodramatic Milgram","4.0.5","0","h","NA","h","NA","NA","h","547.0","NA","44639","NA","NA","547","NA","NA","2","legacy","1024","2","48000","-16","experiment","SSHSS","1","odd","47559","NA","NA","NA","2799","NA","NA","54884","NA","2892","NA","NA","53840","54987","55535","54880","54987","NA","Flanker Task","5","3193.0","5","1024"
"100","100","621","621","#3d3846","legacy","legacy","legacy","congruent","1","undefined","1","s","0","0","0","5","0","5","0","5","0","0","0","0","5","5","5","5","5","0","Wed Sep 20 13:35:18 2023","1500","The main experiment item","False","FlankerTask23.osexp","/Users/keelihatcher/Desktop/Tarleton M.D./Advanced Quantitative Methods & Experimental Design","False","mono","False","18","no","white","no","yes","768","legacy","5","5","/Users/keelihatcher/Desktop/Tarleton M.D./Advanced Quantitative Methods & Experimental Design/TH-subject-1.csv","legacy","Melodramatic Milgram","4.0.5","0","s","NA","h","NA","NA","s","533.0","NA","44639","NA","NA","533","NA","NA","2","legacy","1024","2","48000","-16","experiment","SSSSS","1","odd","47559","NA","NA","NA","2799","NA","NA","56579","NA","2892","NA","NA","55537","56682","57215","56576","56682","NA","Flanker Task","6","3726.0","6","1024"
"100","100","613","613","#3d3846","legacy","legacy","legacy","incongruent","1","undefined","1","s","0","0","0","6","0","6","0","6","0","0","0","0","6","6","6","6","6","0","Wed Sep 20 13:35:18 2023","1500","The main experiment item","False","FlankerTask23.osexp","/Users/keelihatcher/Desktop/Tarleton M.D./Advanced Quantitative Methods & Experimental Design","False","mono","False","18","no","white","no","yes","768","legacy","6","6","/Users/keelihatcher/Desktop/Tarleton M.D./Advanced Quantitative Methods & Experimental Design/TH-subject-1.csv","legacy","Melodramatic Milgram","4.0.5","0","s","NA","h","NA","NA","s","565.0","NA","44639","NA","NA","565","NA","NA","2","legacy","1024","2","48000","-16","experiment","HHSHH","1","odd","47559","NA","NA","NA","2799","NA","NA","58264","NA","2892","NA","NA","57217","58368","58934","58260","58367","NA","Flanker Task","7","4291.0","7","1024"
"100","100","620","620","#3d3846","legacy","legacy","legacy","incongruent","1","undefined","1","h","0","0","0","7","0","7","0","7","0","0","0","0","7","7","7","7","7","0","Wed Sep 20 13:35:18 2023","1500","The main experiment item","False","FlankerTask23.osexp","/Users/keelihatcher/Desktop/Tarleton M.D./Advanced Quantitative Methods & Experimental Design","False","mono","False","18","no","white","no","yes","768","legacy","7","7","/Users/keelihatcher/Desktop/Tarleton M.D./Advanced Quantitative Methods & Experimental Design/TH-subject-1.csv","legacy","Melodramatic Milgram","4.0.5","0","h","NA","h","NA","NA","h","673.0","NA","44639","NA","NA","673","NA","NA","2","legacy","1024","2","48000","-16","experiment","SSHSS","1","odd","47559","NA","NA","NA","2799","NA","NA","59982","NA","2892","NA","NA","58936","60085","60759","59978","60085","NA","Flanker Task","8","4964.0","8","1024"
"100","100","618","618","#3d3846","legacy","legacy","legacy","incongruent","1","undefined","1","h","0","0","0","8","0","8","0","8","0","0","0","0","8","8","8","8","8","0","Wed Sep 20 13:35:18 2023","1500","The main experiment item","False","FlankerTask23.osexp","/Users/keelihatcher/Desktop/Tarleton M.D./Advanced Quantitative Methods & Experimental Design","False","mono","False","18","no","white","no","yes","768","legacy","8","8","/Users/keelihatcher/Desktop/Tarleton M.D./Advanced Quantitative Methods & Experimental Design/TH-subject-1.csv","legacy","Melodramatic Milgram","4.0.5","0","h","NA","h","NA","NA","h","602.0","NA","44639","NA","NA","602","NA","NA","2","legacy","1024","2","48000","-16","experiment","SSHSS","1","odd","47559","NA","NA","NA","2799","NA","NA","61812","NA","2892","NA","NA","60760","61915","62518","61808","61915","NA","Flanker Task","9","5566.0","9","1024"
"100","100","615","615","#3d3846","legacy","legacy","legacy","incongruent","1","undefined","1","h","0","0","0","9","0","9","0","9","0","0","0","0","9","9","9","9","9","0","Wed Sep 20 13:35:18 2023","1500","The main experiment item","False","FlankerTask23.osexp","/Users/keelihatcher/Desktop/Tarleton M.D./Advanced Quantitative Methods & Experimental Design","False","mono","False","18","no","white","no","yes","768","legacy","9","9","/Users/keelihatcher/Desktop/Tarleton M.D./Advanced Quantitative Methods & Experimental Design/TH-subject-1.csv","legacy","Melodramatic Milgram","4.0.5","0","h","NA","h","NA","NA","h","590.0","NA","44639","NA","NA","590","NA","NA","2","legacy","1024","2","48000","-16","experiment","SSHSS","1","odd","47559","NA","NA","NA","2799","NA","NA","63569","NA","2892","NA","NA","62520","63672","64262","63566","63672","NA","Flanker Task","10","6156.0","10","1024"
"100","100","611","611","#3d3846","legacy","legacy","legacy","incongruent","1","undefined","1","s","0","0","0","10","0","10","0","10","0","0","0","0","10","10","10","10","10","0","Wed Sep 20 13:35:18 2023","1500","The main experiment item","False","FlankerTask23.osexp","/Users/keelihatcher/Desktop/Tarleton M.D./Advanced Quantitative Methods & Experimental Design","False","mono","False","18","no","white","no","yes","768","legacy","10","10","/Users/keelihatcher/Desktop/Tarleton M.D./Advanced Quantitative Methods & Experimental Design/TH-subject-1.csv","legacy","Melodramatic Milgram","4.0.5","0","s","NA","h","NA","NA","s","574.0","NA","44639","NA","NA","574","NA","NA","2","legacy","1024","2","48000","-16","experiment","HHSHH","1","odd","47559","NA","NA","NA","2799","NA","NA","65314","NA","2892","NA","NA","64264","65418","65992","65310","65417","NA","Flanker Task","11","6730.0","11","1024"
"100","100","605","605","#3d3846","legacy","legacy","legacy","incongruent","1","undefined","1","h","0","0","0","11","0","11","0","11","0","0","0","0","11","11","11","11","11","0","Wed Sep 20 13:35:18 2023","1500","The main experiment item","False","FlankerTask23.osexp","/Users/keelihatcher/Desktop/Tarleton M.D./Advanced Quantitative Methods & Experimental Design","False","mono","False","18","no","white","no","yes","768","legacy","11","11","/Users/keelihatcher/Desktop/Tarleton M.D./Advanced Quantitative Methods & Experimental Design/TH-subject-1.csv","legacy","Melodramatic Milgram","4.0.5","0","h","NA","h","NA","NA","h","539.0","NA","44639","NA","NA","539","NA","NA","2","legacy","1024","2","48000","-16","experiment","SSHSS","1","odd","47559","NA","NA","NA","2799","NA","NA","67037","NA","2892","NA","NA","65994","67140","67679","67033","67140","NA","Flanker Task","12","7269.0","12","1024"
"100","100","608","608","#3d3846","legacy","legacy","legacy","incongruent","1","undefined","1","h","0","0","0","12","0","12","0","12","0","0","0","0","12","12","12","12","12","0","Wed Sep 20 13:35:18 2023","1500","The main experiment item","False","FlankerTask23.osexp","/Users/keelihatcher/Desktop/Tarleton M.D./Advanced Quantitative Methods & Experimental Design","False","mono","False","18","no","white","no","yes","768","legacy","12","12","/Users/keelihatcher/Desktop/Tarleton M.D./Advanced Quantitative Methods & Experimental Design/TH-subject-1.csv","legacy","Melodramatic Milgram","4.0.5","0","h","NA","h","NA","NA","h","643.0","NA","44639","NA","NA","643","NA","NA","2","legacy","1024","2","48000","-16","experiment","SSHSS","1","odd","47559","NA","NA","NA","2799","NA","NA","68725","NA","2892","NA","NA","67682","68829","69473","68722","68829","NA","Flanker Task","13","7912.0","13","1024"
"100","100","609","609","#3d3846","legacy","legacy","legacy","congruent","1","undefined","1","h","0","0","0","13","0","13","0","13","0","0","0","0","13","13","13","13","13","0","Wed Sep 20 13:35:18 2023","1500","The main experiment item","False","FlankerTask23.osexp","/Users/keelihatcher/Desktop/Tarleton M.D./Advanced Quantitative Methods & Experimental Design","False","mono","False","18","no","white","no","yes","768","legacy","13","13","/Users/keelihatcher/Desktop/Tarleton M.D./Advanced Quantitative Methods & Experimental Design/TH-subject-1.csv","legacy","Melodramatic Milgram","4.0.5","0","h","NA","h","NA","NA","h","620.0","NA","44639","NA","NA","620","NA","NA","2","legacy","1024","2","48000","-16","experiment","HHHHH","1","odd","47559","NA","NA","NA","2799","NA","NA","70521","NA","2892","NA","NA","69475","70625","71245","70518","70625","NA","Flanker Task","14","8532.0","14","1024"
"100","100","611","611","#3d3846","legacy","legacy","legacy","incongruent","1","undefined","1","h","0","0","0","14","0","14","0","14","0","0","0","0","14","14","14","14","14","0","Wed Sep 20 13:35:18 2023","1500","The main experiment item","False","FlankerTask23.osexp","/Users/keelihatcher/Desktop/Tarleton M.D./Advanced Quantitative Methods & Experimental Design","False","mono","False","18","no","white","no","yes","768","legacy","14","14","/Users/keelihatcher/Desktop/Tarleton M.D./Advanced Quantitative Methods & Experimental Design/TH-subject-1.csv","legacy","Melodramatic Milgram","4.0.5","0","h","NA","h","NA","NA","h","645.0","NA","44639","NA","NA","645","NA","NA","2","legacy","1024","2","48000","-16","experiment","SSHSS","1","odd","47559","NA","NA","NA","2799","NA","NA","72287","NA","2892","NA","NA","71247","72390","73035","72284","72390","NA","Flanker Task","15","9177.0","15","1024"
"100","100","610","610","#3d3846","legacy","legacy","legacy","congruent","1","undefined","1","h","0","0","0","15","0","15","0","15","0","0","0","0","15","15","15","15","15","0","Wed Sep 20 13:35:18 2023","1500","The main experiment item","False","FlankerTask23.osexp","/Users/keelihatcher/Desktop/Tarleton M.D./Advanced Quantitative Methods & Experimental Design","False","mono","False","18","no","white","no","yes","768","legacy","15","15","/Users/keelihatcher/Desktop/Tarleton M.D./Advanced Quantitative Methods & Experimental Design/TH-subject-1.csv","legacy","Melodramatic Milgram","4.0.5","0","h","NA","h","NA","NA","h","589.0","NA","44639","NA","NA","589","NA","NA","2","legacy","1024","2","48000","-16","experiment","HHHHH","1","odd","47559","NA","NA","NA","2799","NA","NA","74079","NA","2892","NA","NA","73038","74183","74773","74076","74182","NA","Flanker Task","16","9766.0","16","1024"
"100","100","597","597","#3d3846","legacy","legacy","legacy","incongruent","1","undefined","1","s","0","0","0","16","0","16","0","16","0","0","0","0","16","16","16","16","16","0","Wed Sep 20 13:35:18 2023","1500","The main experiment item","False","FlankerTask23.osexp","/Users/keelihatcher/Desktop/Tarleton M.D./Advanced Quantitative Methods & Experimental Design","False","mono","False","18","no","white","no","yes","768","legacy","16","16","/Users/keelihatcher/Desktop/Tarleton M.D./Advanced Quantitative Methods & Experimental Design/TH-subject-1.csv","legacy","Melodramatic Milgram","4.0.5","0","s","NA","h","NA","NA","s","397.0","NA","44639","NA","NA","397","NA","NA","2","legacy","1024","2","48000","-16","experiment","HHSHH","1","odd","47559","NA","NA","NA","2799","NA","NA","75822","NA","2892","NA","NA","74775","75925","76322","75819","75925","NA","Flanker Task","17","10163.0","17","1024"
"100","100","588","588","#3d3846","legacy","legacy","legacy","incongruent","1","undefined","1","s","0","0","0","17","0","17","0","17","0","0","0","0","17","17","17","17","17","0","Wed Sep 20 13:35:18 2023","1500","The main experiment item","False","FlankerTask23.osexp","/Users/keelihatcher/Desktop/Tarleton M.D./Advanced Quantitative Methods & Experimental Design","False","mono","False","18","no","white","no","yes","768","legacy","17","17","/Users/keelihatcher/Desktop/Tarleton M.D./Advanced Quantitative Methods & Experimental Design/TH-subject-1.csv","legacy","Melodramatic Milgram","4.0.5","0","s","NA","h","NA","NA","s","434.0","NA","44639","NA","NA","434","NA","NA","2","legacy","1024","2","48000","-16","experiment","HHSHH","1","odd","47559","NA","NA","NA","2799","NA","NA","77369","NA","2892","NA","NA","76325","77472","77907","77366","77472","NA","Flanker Task","18","10597.0","18","1024"
"100","100","584","584","#3d3846","legacy","legacy","legacy","congruent","1","undefined","1","s","0","0","0","18","0","18","0","18","0","0","0","0","18","18","18","18","18","0","Wed Sep 20 13:35:18 2023","1500","The main experiment item","False","FlankerTask23.osexp","/Users/keelihatcher/Desktop/Tarleton M.D./Advanced Quantitative Methods & Experimental Design","False","mono","False","18","no","white","no","yes","768","legacy","18","18","/Users/keelihatcher/Desktop/Tarleton M.D./Advanced Quantitative Methods & Experimental Design/TH-subject-1.csv","legacy","Melodramatic Milgram","4.0.5","0","s","NA","h","NA","NA","s","512.0","NA","44639","NA","NA","512","NA","NA","2","legacy","1024","2","48000","-16","experiment","SSSSS","1","odd","47559","NA","NA","NA","2799","NA","NA","78951","NA","2892","NA","NA","77909","79054","79566","78948","79054","NA","Flanker Task","19","11109.0","19","1024"
"100","100","577","577","#3d3846","legacy","legacy","legacy","incongruent","1","undefined","1","s","0","0","0","19","0","19","0","19","0","0","0","0","19","19","19","19","19","0","Wed Sep 20 13:35:18 2023","1500","The main experiment item","False","FlankerTask23.osexp","/Users/keelihatcher/Desktop/Tarleton M.D./Advanced Quantitative Methods & Experimental Design","False","mono","False","18","no","white","no","yes","768","legacy","19","19","/Users/keelihatcher/Desktop/Tarleton M.D./Advanced Quantitative Methods & Experimental Design/TH-subject-1.csv","legacy","Melodramatic Milgram","4.0.5","0","s","NA","h","NA","NA","s","448.0","NA","44639","NA","NA","448","NA","NA","2","legacy","1024","2","48000","-16","experiment","HHSHH","1","odd","47559","NA","NA","NA","2799","NA","NA","80604","NA","2892","NA","NA","79568","80708","81157","80601","80708","NA","Flanker Task","20","11557.0","20","1024"
"100","100","574","574","#3d3846","legacy","legacy","legacy","congruent","1","undefined","1","h","0","0","0","20","0","20","0","20","0","0","0","0","20","20","20","20","20","0","Wed Sep 20 13:35:18 2023","1500","The main experiment item","False","FlankerTask23.osexp","/Users/keelihatcher/Desktop/Tarleton M.D./Advanced Quantitative Methods & Experimental Design","False","mono","False","18","no","white","no","yes","768","legacy","20","20","/Users/keelihatcher/Desktop/Tarleton M.D./Advanced Quantitative Methods & Experimental Design/TH-subject-1.csv","legacy","Melodramatic Milgram","4.0.5","0","h","NA","h","NA","NA","h","514.0","NA","44639","NA","NA","514","NA","NA","2","legacy","1024","2","48000","-16","experiment","HHHHH","1","odd","47559","NA","NA","NA","2799","NA","NA","82200","NA","2892","NA","NA","81159","82303","82817","82196","82303","NA","Flanker Task","21","12071.0","21","1024"
"100","100","568","568","#3d3846","legacy","legacy","legacy","congruent","1","undefined","1","h","0","0","0","21","0","21","0","21","0","0","0","0","21","21","21","21","21","0","Wed Sep 20 13:35:18 2023","1500","The main experiment item","False","FlankerTask23.osexp","/Users/keelihatcher/Desktop/Tarleton M.D./Advanced Quantitative Methods & Experimental Design","False","mono","False","18","no","white","no","yes","768","legacy","21","21","/Users/keelihatcher/Desktop/Tarleton M.D./Advanced Quantitative Methods & Experimental Design/TH-subject-1.csv","legacy","Melodramatic Milgram","4.0.5","0","h","NA","h","NA","NA","h","426.0","NA","44639","NA","NA","426","NA","NA","2","legacy","1024","2","48000","-16","experiment","HHHHH","1","odd","47559","NA","NA","NA","2799","NA","NA","83859","NA","2892","NA","NA","82819","83962","84388","83855","83962","NA","Flanker Task","22","12497.0","22","1024"
"100","100","560","560","#3d3846","legacy","legacy","legacy","incongruent","1","undefined","1","s","0","0","0","22","0","22","0","22","0","0","0","0","22","22","22","22","22","0","Wed Sep 20 13:35:18 2023","1500","The main experiment item","False","FlankerTask23.osexp","/Users/keelihatcher/Desktop/Tarleton M.D./Advanced Quantitative Methods & Experimental Design","False","mono","False","18","no","white","no","yes","768","legacy","22","22","/Users/keelihatcher/Desktop/Tarleton M.D./Advanced Quantitative Methods & Experimental Design/TH-subject-1.csv","legacy","Melodramatic Milgram","4.0.5","0","s","NA","h","NA","NA","s","400.0","NA","44639","NA","NA","400","NA","NA","2","legacy","1024","2","48000","-16","experiment","HHSHH","1","odd","47559","NA","NA","NA","2799","NA","NA","85441","NA","2892","NA","NA","84390","85544","85944","85437","85544","NA","Flanker Task","23","12897.0","23","1024"
"100","100","556","556","#3d3846","legacy","legacy","legacy","incongruent","1","undefined","1","s","0","0","0","23","0","23","0","23","0","0","0","0","23","23","23","23","23","0","Wed Sep 20 13:35:18 2023","1500","The main experiment item","False","FlankerTask23.osexp","/Users/keelihatcher/Desktop/Tarleton M.D./Advanced Quantitative Methods & Experimental Design","False","mono","False","18","no","white","no","yes","768","legacy","23","23","/Users/keelihatcher/Desktop/Tarleton M.D./Advanced Quantitative Methods & Experimental Design/TH-subject-1.csv","legacy","Melodramatic Milgram","4.0.5","0","s","NA","h","NA","NA","s","451.0","NA","44639","NA","NA","451","NA","NA","2","legacy","1024","2","48000","-16","experiment","HHSHH","1","odd","47559","NA","NA","NA","2799","NA","NA","86996","NA","2892","NA","NA","85947","87100","87551","86993","87100","NA","Flanker Task","24","13348.0","24","1024"
"100","100","563","563","#3d3846","legacy","legacy","legacy","congruent","1","undefined","1","h","0","0","0","24","0","24","0","24","0","0","0","0","24","24","24","24","24","0","Wed Sep 20 13:35:18 2023","1500","The main experiment item","False","FlankerTask23.osexp","/Users/keelihatcher/Desktop/Tarleton M.D./Advanced Quantitative Methods & Experimental Design","False","mono","False","18","no","white","no","yes","768","legacy","24","24","/Users/keelihatcher/Desktop/Tarleton M.D./Advanced Quantitative Methods & Experimental Design/TH-subject-1.csv","legacy","Melodramatic Milgram","4.0.5","0","h","NA","h","NA","NA","h","735.0","NA","44639","NA","NA","735","NA","NA","2","legacy","1024","2","48000","-16","experiment","HHHHH","1","odd","47559","NA","NA","NA","2799","NA","NA","88598","NA","2892","NA","NA","87553","88702","89438","88595","88702","NA","Flanker Task","25","14083.0","25","1024"
"100","100","557","557","#3d3846","legacy","legacy","legacy","congruent","1","undefined","1","h","0","0","0","25","0","25","0","25","0","0","0","0","25","25","25","25","25","0","Wed Sep 20 13:35:18 2023","1500","The main experiment item","False","FlankerTask23.osexp","/Users/keelihatcher/Desktop/Tarleton M.D./Advanced Quantitative Methods & Experimental Design","False","mono","False","18","no","white","no","yes","768","legacy","25","25","/Users/keelihatcher/Desktop/Tarleton M.D./Advanced Quantitative Methods & Experimental Design/TH-subject-1.csv","legacy","Melodramatic Milgram","4.0.5","0","h","NA","h","NA","NA","h","415.0","NA","44639","NA","NA","415","NA","NA","2","legacy","1024","2","48000","-16","experiment","HHHHH","1","odd","47559","NA","NA","NA","2799","NA","NA","90480","NA","2892","NA","NA","89440","90584","91000","90477","90584","NA","Flanker Task","26","14498.0","26","1024"
"100","100","556","556","#3d3846","legacy","legacy","legacy","incongruent","1","undefined","1","h","0","0","0","26","0","26","0","26","0","0","0","0","26","26","26","26","26","0","Wed Sep 20 13:35:18 2023","1500","The main experiment item","False","FlankerTask23.osexp","/Users/keelihatcher/Desktop/Tarleton M.D./Advanced Quantitative Methods & Experimental Design","False","mono","False","18","no","white","no","yes","768","legacy","26","26","/Users/keelihatcher/Desktop/Tarleton M.D./Advanced Quantitative Methods & Experimental Design/TH-subject-1.csv","legacy","Melodramatic Milgram","4.0.5","0","h","NA","h","NA","NA","h","535.0","NA","44639","NA","NA","535","NA","NA","2","legacy","1024","2","48000","-16","experiment","SSHSS","1","odd","47559","NA","NA","NA","2799","NA","NA","92042","NA","2892","NA","NA","91002","92145","92680","92039","92145","NA","Flanker Task","27","15033.0","27","1024"
"100","100","555","555","#3d3846","legacy","legacy","legacy","congruent","1","undefined","1","h","0","0","0","27","0","27","0","27","0","0","0","0","27","27","27","27","27","0","Wed Sep 20 13:35:18 2023","1500","The main experiment item","False","FlankerTask23.osexp","/Users/keelihatcher/Desktop/Tarleton M.D./Advanced Quantitative Methods & Experimental Design","False","mono","False","18","no","white","no","yes","768","legacy","27","27","/Users/keelihatcher/Desktop/Tarleton M.D./Advanced Quantitative Methods & Experimental Design/TH-subject-1.csv","legacy","Melodramatic Milgram","4.0.5","0","h","NA","h","NA","NA","h","508.0","NA","44639","NA","NA","508","NA","NA","2","legacy","1024","2","48000","-16","experiment","HHHHH","1","odd","47559","NA","NA","NA","2799","NA","NA","93724","NA","2892","NA","NA","92682","93827","94336","93721","93827","NA","Flanker Task","28","15541.0","28","1024"
"100","100","553","553","#3d3846","legacy","legacy","legacy","incongruent","1","undefined","1","h","0","0","0","28","0","28","0","28","0","0","0","0","28","28","28","28","28","0","Wed Sep 20 13:35:18 2023","1500","The main experiment item","False","FlankerTask23.osexp","/Users/keelihatcher/Desktop/Tarleton M.D./Advanced Quantitative Methods & Experimental Design","False","mono","False","18","no","white","no","yes","768","legacy","28","28","/Users/keelihatcher/Desktop/Tarleton M.D./Advanced Quantitative Methods & Experimental Design/TH-subject-1.csv","legacy","Melodramatic Milgram","4.0.5","0","h","NA","h","NA","NA","h","520.0","NA","44639","NA","NA","520","NA","NA","2","legacy","1024","2","48000","-16","experiment","SSHSS","1","odd","47559","NA","NA","NA","2799","NA","NA","95378","NA","2892","NA","NA","94338","95481","96001","95374","95481","NA","Flanker Task","29","16061.0","29","1024"
"100","100","547","547","#3d3846","legacy","legacy","legacy","congruent","1","undefined","1","s","0","0","0","29","0","29","0","29","0","0","0","0","29","29","29","29","29","0","Wed Sep 20 13:35:18 2023","1500","The main experiment item","False","FlankerTask23.osexp","/Users/keelihatcher/Desktop/Tarleton M.D./Advanced Quantitative Methods & Experimental Design","False","mono","False","18","no","white","no","yes","768","legacy","29","29","/Users/keelihatcher/Desktop/Tarleton M.D./Advanced Quantitative Methods & Experimental Design/TH-subject-1.csv","legacy","Melodramatic Milgram","4.0.5","0","s","NA","h","NA","NA","s","368.0","NA","44639","NA","NA","368","NA","NA","2","legacy","1024","2","48000","-16","experiment","SSSSS","1","odd","47559","NA","NA","NA","2799","NA","NA","97045","NA","2892","NA","NA","96004","97148","97516","97042","97148","NA","Flanker Task","30","16429.0","30","1024"
"100","100","544","544","#3d3846","legacy","legacy","legacy","congruent","1","undefined","1","s","0","0","0","30","0","30","0","30","0","0","0","0","30","30","30","30","30","0","Wed Sep 20 13:35:18 2023","1500","The main experiment item","False","FlankerTask23.osexp","/Users/keelihatcher/Desktop/Tarleton M.D./Advanced Quantitative Methods & Experimental Design","False","mono","False","18","no","white","no","yes","768","legacy","30","30","/Users/keelihatcher/Desktop/Tarleton M.D./Advanced Quantitative Methods & Experimental Design/TH-subject-1.csv","legacy","Melodramatic Milgram","4.0.5","0","s","NA","h","NA","NA","s","459.0","NA","44639","NA","NA","459","NA","NA","2","legacy","1024","2","48000","-16","experiment","SSSSS","1","odd","47559","NA","NA","NA","2799","NA","NA","98557","NA","2892","NA","NA","97518","98660","99119","98554","98660","NA","Flanker Task","31","16888.0","31","1024"
"100","100","541","541","#3d3846","legacy","legacy","legacy","incongruent","1","undefined","1","s","0","0","0","31","0","31","0","31","0","0","0","0","31","31","31","31","31","0","Wed Sep 20 13:35:18 2023","1500","The main experiment item","False","FlankerTask23.osexp","/Users/keelihatcher/Desktop/Tarleton M.D./Advanced Quantitative Methods & Experimental Design","False","mono","False","18","no","white","no","yes","768","legacy","31","31","/Users/keelihatcher/Desktop/Tarleton M.D./Advanced Quantitative Methods & Experimental Design/TH-subject-1.csv","legacy","Melodramatic Milgram","4.0.5","0","s","NA","h","NA","NA","s","450.0","NA","44639","NA","NA","450","NA","NA","2","legacy","1024","2","48000","-16","experiment","HHSHH","1","odd","47559","NA","NA","NA","2799","NA","NA","100163","NA","2892","NA","NA","99121","100266","100716","100160","100266","NA","Flanker Task","32","17338.0","32","1024"
"100","100","543","543","#3d3846","legacy","legacy","legacy","incongruent","1","undefined","1","h","0","0","0","32","0","32","0","32","0","0","0","0","32","32","32","32","32","0","Wed Sep 20 13:35:18 2023","1500","The main experiment item","False","FlankerTask23.osexp","/Users/keelihatcher/Desktop/Tarleton M.D./Advanced Quantitative Methods & Experimental Design","False","mono","False","18","no","white","no","yes","768","legacy","32","32","/Users/keelihatcher/Desktop/Tarleton M.D./Advanced Quantitative Methods & Experimental Design/TH-subject-1.csv","legacy","Melodramatic Milgram","4.0.5","0","h","NA","h","NA","NA","h","582.0","NA","44639","NA","NA","582","NA","NA","2","legacy","1024","2","48000","-16","experiment","SSHSS","1","odd","47559","NA","NA","NA","2799","NA","NA","101759","NA","2892","NA","NA","100718","101862","102445","101756","101862","NA","Flanker Task","33","17920.0","33","1024"
"100","100","541","541","#3d3846","legacy","legacy","legacy","congruent","1","undefined","1","s","0","0","0","33","0","33","0","33","0","0","0","0","33","33","33","33","33","0","Wed Sep 20 13:35:18 2023","1500","The main experiment item","False","FlankerTask23.osexp","/Users/keelihatcher/Desktop/Tarleton M.D./Advanced Quantitative Methods & Experimental Design","False","mono","False","18","no","white","no","yes","768","legacy","33","33","/Users/keelihatcher/Desktop/Tarleton M.D./Advanced Quantitative Methods & Experimental Design/TH-subject-1.csv","legacy","Melodramatic Milgram","4.0.5","0","s","NA","h","NA","NA","s","505.0","NA","44639","NA","NA","505","NA","NA","2","legacy","1024","2","48000","-16","experiment","SSSSS","1","odd","47559","NA","NA","NA","2799","NA","NA","103486","NA","2892","NA","NA","102447","103589","104094","103482","103589","NA","Flanker Task","34","18425.0","34","1024"
"100","100","539","539","#3d3846","legacy","legacy","legacy","congruent","1","undefined","1","s","0","0","0","34","0","34","0","34","0","0","0","0","34","34","34","34","34","0","Wed Sep 20 13:35:18 2023","1500","The main experiment item","False","FlankerTask23.osexp","/Users/keelihatcher/Desktop/Tarleton M.D./Advanced Quantitative Methods & Experimental Design","False","mono","False","18","no","white","no","yes","768","legacy","34","34","/Users/keelihatcher/Desktop/Tarleton M.D./Advanced Quantitative Methods & Experimental Design/TH-subject-1.csv","legacy","Melodramatic Milgram","4.0.5","0","s","NA","h","NA","NA","s","457.0","NA","44639","NA","NA","457","NA","NA","2","legacy","1024","2","48000","-16","experiment","SSSSS","1","odd","47559","NA","NA","NA","2799","NA","NA","105143","NA","2892","NA","NA","104097","105247","105705","105138","105247","NA","Flanker Task","35","18882.0","35","1024"
"100","100","537","537","#3d3846","legacy","legacy","legacy","congruent","1","undefined","1","s","0","0","0","35","0","35","0","35","0","0","0","0","35","35","35","35","35","0","Wed Sep 20 13:35:18 2023","1500","The main experiment item","False","FlankerTask23.osexp","/Users/keelihatcher/Desktop/Tarleton M.D./Advanced Quantitative Methods & Experimental Design","False","mono","False","18","no","white","no","yes","768","legacy","35","35","/Users/keelihatcher/Desktop/Tarleton M.D./Advanced Quantitative Methods & Experimental Design/TH-subject-1.csv","legacy","Melodramatic Milgram","4.0.5","0","s","NA","h","NA","NA","s","476.0","NA","44639","NA","NA","476","NA","NA","2","legacy","1024","2","48000","-16","experiment","SSSSS","1","odd","47559","NA","NA","NA","2799","NA","NA","106751","NA","2892","NA","NA","105707","106854","107330","106748","106854","NA","Flanker Task","36","19358.0","36","1024"
"100","100","538","538","#3d3846","legacy","legacy","legacy","incongruent","1","undefined","1","h","0","0","0","36","0","36","0","36","0","0","0","0","36","36","36","36","36","0","Wed Sep 20 13:35:18 2023","1500","The main experiment item","False","FlankerTask23.osexp","/Users/keelihatcher/Desktop/Tarleton M.D./Advanced Quantitative Methods & Experimental Design","False","mono","False","18","no","white","no","yes","768","legacy","36","36","/Users/keelihatcher/Desktop/Tarleton M.D./Advanced Quantitative Methods & Experimental Design/TH-subject-1.csv","legacy","Melodramatic Milgram","4.0.5","0","h","NA","h","NA","NA","h","567.0","NA","44639","NA","NA","567","NA","NA","2","legacy","1024","2","48000","-16","experiment","SSHSS","1","odd","47559","NA","NA","NA","2799","NA","NA","108382","NA","2892","NA","NA","107333","108485","109053","108379","108485","NA","Flanker Task","37","19925.0","37","1024"
"100","100","537","537","#3d3846","legacy","legacy","legacy","congruent","1","undefined","1","s","0","0","0","37","0","37","0","37","0","0","0","0","37","37","37","37","37","0","Wed Sep 20 13:35:18 2023","1500","The main experiment item","False","FlankerTask23.osexp","/Users/keelihatcher/Desktop/Tarleton M.D./Advanced Quantitative Methods & Experimental Design","False","mono","False","18","no","white","no","yes","768","legacy","37","37","/Users/keelihatcher/Desktop/Tarleton M.D./Advanced Quantitative Methods & Experimental Design/TH-subject-1.csv","legacy","Melodramatic Milgram","4.0.5","0","s","NA","h","NA","NA","s","501.0","NA","44639","NA","NA","501","NA","NA","2","legacy","1024","2","48000","-16","experiment","SSSSS","1","odd","47559","NA","NA","NA","2799","NA","NA","110103","NA","2892","NA","NA","109055","110206","110707","110100","110206","NA","Flanker Task","38","20426.0","38","1024"
"100","100","535","535","#3d3846","legacy","legacy","legacy","congruent","1","undefined","1","h","0","0","0","38","0","38","0","38","0","0","0","0","38","38","38","38","38","0","Wed Sep 20 13:35:18 2023","1500","The main experiment item","False","FlankerTask23.osexp","/Users/keelihatcher/Desktop/Tarleton M.D./Advanced Quantitative Methods & Experimental Design","False","mono","False","18","no","white","no","yes","768","legacy","38","38","/Users/keelihatcher/Desktop/Tarleton M.D./Advanced Quantitative Methods & Experimental Design/TH-subject-1.csv","legacy","Melodramatic Milgram","4.0.5","0","h","NA","h","NA","NA","h","442.0","NA","44639","NA","NA","442","NA","NA","2","legacy","1024","2","48000","-16","experiment","HHHHH","1","odd","47559","NA","NA","NA","2799","NA","NA","111759","NA","2892","NA","NA","110710","111863","112306","111756","111863","NA","Flanker Task","39","20868.0","39","1024"
"100","100","535","535","#3d3846","legacy","legacy","legacy","incongruent","1","undefined","1","h","0","0","0","39","0","39","0","39","0","0","0","0","39","39","39","39","39","0","Wed Sep 20 13:35:18 2023","1500","The main experiment item","False","FlankerTask23.osexp","/Users/keelihatcher/Desktop/Tarleton M.D./Advanced Quantitative Methods & Experimental Design","False","mono","False","18","no","white","no","yes","768","legacy","39","39","/Users/keelihatcher/Desktop/Tarleton M.D./Advanced Quantitative Methods & Experimental Design/TH-subject-1.csv","legacy","Melodramatic Milgram","4.0.5","0","h","NA","h","NA","NA","h","543.0","NA","44639","NA","NA","543","NA","NA","2","legacy","1024","2","48000","-16","experiment","SSHSS","1","odd","47559","NA","NA","NA","2799","NA","NA","113348","NA","2892","NA","NA","112307","113451","113995","113345","113451","NA","Flanker Task","40","21411.0","40","1024"
"100","100","535","535","#3d3846","legacy","legacy","legacy","incongruent","1","undefined","1","s","0","0","0","40","0","40","0","40","0","0","0","0","40","40","40","40","40","0","Wed Sep 20 13:35:18 2023","1500","The main experiment item","False","FlankerTask23.osexp","/Users/keelihatcher/Desktop/Tarleton M.D./Advanced Quantitative Methods & Experimental Design","False","mono","False","18","no","white","no","yes","768","legacy","40","40","/Users/keelihatcher/Desktop/Tarleton M.D./Advanced Quantitative Methods & Experimental Design/TH-subject-1.csv","legacy","Melodramatic Milgram","4.0.5","0","s","NA","h","NA","NA","s","561.0","NA","44639","NA","NA","561","NA","NA","2","legacy","1024","2","48000","-16","experiment","HHSHH","1","odd","47559","NA","NA","NA","2799","NA","NA","115042","NA","2892","NA","NA","113997","115145","115706","115038","115145","NA","Flanker Task","41","21972.0","41","1024"
"100","100","532","532","#3d3846","legacy","legacy","legacy","incongruent","1","undefined","1","s","0","0","0","41","0","41","0","41","0","0","0","0","41","41","41","41","41","0","Wed Sep 20 13:35:18 2023","1500","The main experiment item","False","FlankerTask23.osexp","/Users/keelihatcher/Desktop/Tarleton M.D./Advanced Quantitative Methods & Experimental Design","False","mono","False","18","no","white","no","yes","768","legacy","41","41","/Users/keelihatcher/Desktop/Tarleton M.D./Advanced Quantitative Methods & Experimental Design/TH-subject-1.csv","legacy","Melodramatic Milgram","4.0.5","0","s","NA","h","NA","NA","s","413.0","NA","44639","NA","NA","413","NA","NA","2","legacy","1024","2","48000","-16","experiment","HHSHH","1","odd","47559","NA","NA","NA","2799","NA","NA","116754","NA","2892","NA","NA","115709","116857","117270","116751","116857","NA","Flanker Task","42","22385.0","42","1024"
"100","100","531","531","#3d3846","legacy","legacy","legacy","incongruent","1","undefined","1","h","0","0","0","42","0","42","0","42","0","0","0","0","42","42","42","42","42","0","Wed Sep 20 13:35:18 2023","1500","The main experiment item","False","FlankerTask23.osexp","/Users/keelihatcher/Desktop/Tarleton M.D./Advanced Quantitative Methods & Experimental Design","False","mono","False","18","no","white","no","yes","768","legacy","42","42","/Users/keelihatcher/Desktop/Tarleton M.D./Advanced Quantitative Methods & Experimental Design/TH-subject-1.csv","legacy","Melodramatic Milgram","4.0.5","0","h","NA","h","NA","NA","h","489.0","NA","44639","NA","NA","489","NA","NA","2","legacy","1024","2","48000","-16","experiment","SSHSS","1","odd","47559","NA","NA","NA","2799","NA","NA","118322","NA","2892","NA","NA","117272","118425","118915","118319","118425","NA","Flanker Task","43","22874.0","43","1024"
"100","100","531","531","#3d3846","legacy","legacy","legacy","congruent","1","undefined","1","h","0","0","0","43","0","43","0","43","0","0","0","0","43","43","43","43","43","0","Wed Sep 20 13:35:18 2023","1500","The main experiment item","False","FlankerTask23.osexp","/Users/keelihatcher/Desktop/Tarleton M.D./Advanced Quantitative Methods & Experimental Design","False","mono","False","18","no","white","no","yes","768","legacy","43","43","/Users/keelihatcher/Desktop/Tarleton M.D./Advanced Quantitative Methods & Experimental Design/TH-subject-1.csv","legacy","Melodramatic Milgram","4.0.5","0","h","NA","h","NA","NA","h","498.0","NA","44639","NA","NA","498","NA","NA","2","legacy","1024","2","48000","-16","experiment","HHHHH","1","odd","47559","NA","NA","NA","2799","NA","NA","119967","NA","2892","NA","NA","118917","120070","120568","119963","120070","NA","Flanker Task","44","23372.0","44","1024"
"100","100","530","530","#3d3846","legacy","legacy","legacy","congruent","1","undefined","1","s","0","0","0","44","0","44","0","44","0","0","0","0","44","44","44","44","44","0","Wed Sep 20 13:35:18 2023","1500","The main experiment item","False","FlankerTask23.osexp","/Users/keelihatcher/Desktop/Tarleton M.D./Advanced Quantitative Methods & Experimental Design","False","mono","False","18","no","white","no","yes","768","legacy","44","44","/Users/keelihatcher/Desktop/Tarleton M.D./Advanced Quantitative Methods & Experimental Design/TH-subject-1.csv","legacy","Melodramatic Milgram","4.0.5","0","s","NA","h","NA","NA","s","492.0","NA","44639","NA","NA","492","NA","NA","2","legacy","1024","2","48000","-16","experiment","SSSSS","1","odd","47559","NA","NA","NA","2799","NA","NA","121618","NA","2892","NA","NA","120570","121723","122215","121615","121722","NA","Flanker Task","45","23864.0","45","1024"
"100","100","529","529","#3d3846","legacy","legacy","legacy","incongruent","1","undefined","1","s","0","0","0","45","0","45","0","45","0","0","0","0","45","45","45","45","45","0","Wed Sep 20 13:35:18 2023","1500","The main experiment item","False","FlankerTask23.osexp","/Users/keelihatcher/Desktop/Tarleton M.D./Advanced Quantitative Methods & Experimental Design","False","mono","False","18","no","white","no","yes","768","legacy","45","45","/Users/keelihatcher/Desktop/Tarleton M.D./Advanced Quantitative Methods & Experimental Design/TH-subject-1.csv","legacy","Melodramatic Milgram","4.0.5","0","s","NA","h","NA","NA","s","506.0","NA","44639","NA","NA","506","NA","NA","2","legacy","1024","2","48000","-16","experiment","HHSHH","1","odd","47559","NA","NA","NA","2799","NA","NA","123265","NA","2892","NA","NA","122217","123369","123875","123262","123369","NA","Flanker Task","46","24370.0","46","1024"
"100","100","528","528","#3d3846","legacy","legacy","legacy","incongruent","1","undefined","1","s","0","0","0","46","0","46","0","46","0","0","0","0","46","46","46","46","46","0","Wed Sep 20 13:35:18 2023","1500","The main experiment item","False","FlankerTask23.osexp","/Users/keelihatcher/Desktop/Tarleton M.D./Advanced Quantitative Methods & Experimental Design","False","mono","False","18","no","white","no","yes","768","legacy","46","46","/Users/keelihatcher/Desktop/Tarleton M.D./Advanced Quantitative Methods & Experimental Design/TH-subject-1.csv","legacy","Melodramatic Milgram","4.0.5","0","s","NA","h","NA","NA","s","479.0","NA","44639","NA","NA","479","NA","NA","2","legacy","1024","2","48000","-16","experiment","HHSHH","1","odd","47559","NA","NA","NA","2799","NA","NA","124926","NA","2892","NA","NA","123878","125030","125509","124923","125029","NA","Flanker Task","47","24849.0","47","1024"
"100","100","527","527","#3d3846","legacy","legacy","legacy","congruent","1","undefined","1","h","0","0","0","47","0","47","0","47","0","0","0","0","47","47","47","47","47","0","Wed Sep 20 13:35:18 2023","1500","The main experiment item","False","FlankerTask23.osexp","/Users/keelihatcher/Desktop/Tarleton M.D./Advanced Quantitative Methods & Experimental Design","False","mono","False","18","no","white","no","yes","768","legacy","47","47","/Users/keelihatcher/Desktop/Tarleton M.D./Advanced Quantitative Methods & Experimental Design/TH-subject-1.csv","legacy","Melodramatic Milgram","4.0.5","0","h","NA","h","NA","NA","h","491.0","NA","44639","NA","NA","491","NA","NA","2","legacy","1024","2","48000","-16","experiment","HHHHH","1","odd","47559","NA","NA","NA","2799","NA","NA","126559","NA","2892","NA","NA","125511","126662","127154","126556","126662","NA","Flanker Task","48","25340.0","48","1024"
"100","100","527","527","#3d3846","legacy","legacy","legacy","congruent","1","undefined","1","s","0","0","0","48","0","48","0","48","0","0","0","0","48","48","48","48","48","0","Wed Sep 20 13:35:18 2023","1500","The main experiment item","False","FlankerTask23.osexp","/Users/keelihatcher/Desktop/Tarleton M.D./Advanced Quantitative Methods & Experimental Design","False","mono","False","18","no","white","no","yes","768","legacy","48","48","/Users/keelihatcher/Desktop/Tarleton M.D./Advanced Quantitative Methods & Experimental Design/TH-subject-1.csv","legacy","Melodramatic Milgram","4.0.5","0","s","NA","h","NA","NA","s","486.0","NA","44639","NA","NA","486","NA","NA","2","legacy","1024","2","48000","-16","experiment","SSSSS","1","odd","47559","NA","NA","NA","2799","NA","NA","128206","NA","2892","NA","NA","127156","128310","128797","128203","128310","NA","Flanker Task","49","25826.0","49","1024"
"100","100","525","525","#3d3846","legacy","legacy","legacy","incongruent","1","undefined","1","s","0","0","0","49","0","49","0","49","0","0","0","0","49","49","49","49","49","0","Wed Sep 20 13:35:18 2023","1500","The main experiment item","False","FlankerTask23.osexp","/Users/keelihatcher/Desktop/Tarleton M.D./Advanced Quantitative Methods & Experimental Design","False","mono","False","18","no","white","no","yes","768","legacy","49","49","/Users/keelihatcher/Desktop/Tarleton M.D./Advanced Quantitative Methods & Experimental Design/TH-subject-1.csv","legacy","Melodramatic Milgram","4.0.5","0","s","NA","h","NA","NA","s","451.0","NA","44639","NA","NA","451","NA","NA","2","legacy","1024","2","48000","-16","experiment","HHSHH","1","odd","47559","NA","NA","NA","2799","NA","NA","129848","NA","2892","NA","NA","128799","129952","130404","129845","129951","NA","Flanker Task","50","26277.0","50","1024"
"100","100","524","524","#3d3846","legacy","legacy","legacy","congruent","1","undefined","1","h","0","0","0","50","0","50","0","50","0","0","0","0","50","50","50","50","50","0","Wed Sep 20 13:35:18 2023","1500","The main experiment item","False","FlankerTask23.osexp","/Users/keelihatcher/Desktop/Tarleton M.D./Advanced Quantitative Methods & Experimental Design","False","mono","False","18","no","white","no","yes","768","legacy","50","50","/Users/keelihatcher/Desktop/Tarleton M.D./Advanced Quantitative Methods & Experimental Design/TH-subject-1.csv","legacy","Melodramatic Milgram","4.0.5","0","h","NA","h","NA","NA","h","481.0","NA","44639","NA","NA","481","NA","NA","2","legacy","1024","2","48000","-16","experiment","HHHHH","1","odd","47559","NA","NA","NA","2799","NA","NA","131449","NA","2892","NA","NA","130406","131552","132034","131445","131552","NA","Flanker Task","51","26758.0","51","1024"
"100","100","524","524","#3d3846","legacy","legacy","legacy","congruent","1","undefined","1","h","0","0","0","51","0","51","0","51","0","0","0","0","51","51","51","51","51","0","Wed Sep 20 13:35:18 2023","1500","The main experiment item","False","FlankerTask23.osexp","/Users/keelihatcher/Desktop/Tarleton M.D./Advanced Quantitative Methods & Experimental Design","False","mono","False","18","no","white","no","yes","768","legacy","51","51","/Users/keelihatcher/Desktop/Tarleton M.D./Advanced Quantitative Methods & Experimental Design/TH-subject-1.csv","legacy","Melodramatic Milgram","4.0.5","0","h","NA","h","NA","NA","h","514.0","NA","44639","NA","NA","514","NA","NA","2","legacy","1024","2","48000","-16","experiment","HHHHH","1","odd","47559","NA","NA","NA","2799","NA","NA","133079","NA","2892","NA","NA","132036","133182","133697","133075","133182","NA","Flanker Task","52","27272.0","52","1024"
"100","100","523","523","#3d3846","legacy","legacy","legacy","congruent","1","undefined","1","s","0","0","0","52","0","52","0","52","0","0","0","0","52","52","52","52","52","0","Wed Sep 20 13:35:18 2023","1500","The main experiment item","False","FlankerTask23.osexp","/Users/keelihatcher/Desktop/Tarleton M.D./Advanced Quantitative Methods & Experimental Design","False","mono","False","18","no","white","no","yes","768","legacy","52","52","/Users/keelihatcher/Desktop/Tarleton M.D./Advanced Quantitative Methods & Experimental Design/TH-subject-1.csv","legacy","Melodramatic Milgram","4.0.5","0","s","NA","h","NA","NA","s","491.0","NA","44639","NA","NA","491","NA","NA","2","legacy","1024","2","48000","-16","experiment","SSSSS","1","odd","47559","NA","NA","NA","2799","NA","NA","134745","NA","2892","NA","NA","133699","134848","135340","134741","134848","NA","Flanker Task","53","27763.0","53","1024"
"100","100","523","523","#3d3846","legacy","legacy","legacy","congruent","1","undefined","1","h","0","0","0","53","0","53","0","53","0","0","0","0","53","53","53","53","53","0","Wed Sep 20 13:35:18 2023","1500","The main experiment item","False","FlankerTask23.osexp","/Users/keelihatcher/Desktop/Tarleton M.D./Advanced Quantitative Methods & Experimental Design","False","mono","False","18","no","white","no","yes","768","legacy","53","53","/Users/keelihatcher/Desktop/Tarleton M.D./Advanced Quantitative Methods & Experimental Design/TH-subject-1.csv","legacy","Melodramatic Milgram","4.0.5","0","h","NA","h","NA","NA","h","485.0","NA","44639","NA","NA","485","NA","NA","2","legacy","1024","2","48000","-16","experiment","HHHHH","1","odd","47559","NA","NA","NA","2799","NA","NA","136390","NA","2892","NA","NA","135342","136495","136981","136387","136494","NA","Flanker Task","54","28248.0","54","1024"
"100","100","522","522","#3d3846","legacy","legacy","legacy","congruent","1","undefined","1","s","0","0","0","54","0","54","0","54","0","0","0","0","54","54","54","54","54","0","Wed Sep 20 13:35:18 2023","1500","The main experiment item","False","FlankerTask23.osexp","/Users/keelihatcher/Desktop/Tarleton M.D./Advanced Quantitative Methods & Experimental Design","False","mono","False","18","no","white","no","yes","768","legacy","54","54","/Users/keelihatcher/Desktop/Tarleton M.D./Advanced Quantitative Methods & Experimental Design/TH-subject-1.csv","legacy","Melodramatic Milgram","4.0.5","0","s","NA","h","NA","NA","s","474.0","NA","44639","NA","NA","474","NA","NA","2","legacy","1024","2","48000","-16","experiment","SSSSS","1","odd","47559","NA","NA","NA","2799","NA","NA","138029","NA","2892","NA","NA","136983","138132","138607","138026","138132","NA","Flanker Task","55","28722.0","55","1024"
"100","100","520","520","#3d3846","legacy","legacy","legacy","congruent","1","undefined","1","s","0","0","0","55","0","55","0","55","0","0","0","0","55","55","55","55","55","0","Wed Sep 20 13:35:18 2023","1500","The main experiment item","False","FlankerTask23.osexp","/Users/keelihatcher/Desktop/Tarleton M.D./Advanced Quantitative Methods & Experimental Design","False","mono","False","18","no","white","no","yes","768","legacy","55","55","/Users/keelihatcher/Desktop/Tarleton M.D./Advanced Quantitative Methods & Experimental Design/TH-subject-1.csv","legacy","Melodramatic Milgram","4.0.5","0","s","NA","h","NA","NA","s","418.0","NA","44639","NA","NA","418","NA","NA","2","legacy","1024","2","48000","-16","experiment","SSSSS","1","odd","47559","NA","NA","NA","2799","NA","NA","139656","NA","2892","NA","NA","138609","139759","140178","139652","139759","NA","Flanker Task","56","29140.0","56","1024"
"100","100","519","519","#3d3846","legacy","legacy","legacy","congruent","1","undefined","1","h","0","0","0","56","0","56","0","56","0","0","0","0","56","56","56","56","56","0","Wed Sep 20 13:35:18 2023","1500","The main experiment item","False","FlankerTask23.osexp","/Users/keelihatcher/Desktop/Tarleton M.D./Advanced Quantitative Methods & Experimental Design","False","mono","False","18","no","white","no","yes","768","legacy","56","56","/Users/keelihatcher/Desktop/Tarleton M.D./Advanced Quantitative Methods & Experimental Design/TH-subject-1.csv","legacy","Melodramatic Milgram","4.0.5","0","h","NA","h","NA","NA","h","471.0","NA","44639","NA","NA","471","NA","NA","2","legacy","1024","2","48000","-16","experiment","HHHHH","1","odd","47559","NA","NA","NA","2799","NA","NA","141224","NA","2892","NA","NA","140180","141327","141798","141221","141327","NA","Flanker Task","57","29611.0","57","1024"
"100","100","518","518","#3d3846","legacy","legacy","legacy","congruent","1","undefined","1","s","0","0","0","57","0","57","0","57","0","0","0","0","57","57","57","57","57","0","Wed Sep 20 13:35:18 2023","1500","The main experiment item","False","FlankerTask23.osexp","/Users/keelihatcher/Desktop/Tarleton M.D./Advanced Quantitative Methods & Experimental Design","False","mono","False","18","no","white","no","yes","768","legacy","57","57","/Users/keelihatcher/Desktop/Tarleton M.D./Advanced Quantitative Methods & Experimental Design/TH-subject-1.csv","legacy","Melodramatic Milgram","4.0.5","0","s","NA","h","NA","NA","s","460.0","NA","44639","NA","NA","460","NA","NA","2","legacy","1024","2","48000","-16","experiment","SSSSS","1","odd","47559","NA","NA","NA","2799","NA","NA","142838","NA","2892","NA","NA","141800","142942","143403","142835","142941","NA","Flanker Task","58","30071.0","58","1024"
"100","100","517","517","#3d3846","legacy","legacy","legacy","congruent","1","undefined","1","s","0","0","0","58","0","58","0","58","0","0","0","0","58","58","58","58","58","0","Wed Sep 20 13:35:18 2023","1500","The main experiment item","False","FlankerTask23.osexp","/Users/keelihatcher/Desktop/Tarleton M.D./Advanced Quantitative Methods & Experimental Design","False","mono","False","18","no","white","no","yes","768","legacy","58","58","/Users/keelihatcher/Desktop/Tarleton M.D./Advanced Quantitative Methods & Experimental Design/TH-subject-1.csv","legacy","Melodramatic Milgram","4.0.5","0","s","NA","h","NA","NA","s","477.0","NA","44639","NA","NA","477","NA","NA","2","legacy","1024","2","48000","-16","experiment","SSSSS","1","odd","47559","NA","NA","NA","2799","NA","NA","144446","NA","2892","NA","NA","143404","144550","145028","144443","144549","NA","Flanker Task","59","30548.0","59","1024"
"100","100","517","517","#3d3846","legacy","legacy","legacy","incongruent","1","undefined","1","h","0","0","0","59","0","59","0","59","0","0","0","0","59","59","59","59","59","0","Wed Sep 20 13:35:18 2023","1500","The main experiment item","False","FlankerTask23.osexp","/Users/keelihatcher/Desktop/Tarleton M.D./Advanced Quantitative Methods & Experimental Design","False","mono","False","18","no","white","no","yes","768","legacy","59","59","/Users/keelihatcher/Desktop/Tarleton M.D./Advanced Quantitative Methods & Experimental Design/TH-subject-1.csv","legacy","Melodramatic Milgram","4.0.5","0","h","NA","h","NA","NA","h","522.0","NA","44639","NA","NA","522","NA","NA","2","legacy","1024","2","48000","-16","experiment","SSHSS","1","odd","47559","NA","NA","NA","2799","NA","NA","146071","NA","2892","NA","NA","145030","146175","146698","146068","146174","NA","Flanker Task","60","31070.0","60","1024"
"100","100","518","518","#3d3846","legacy","legacy","legacy","incongruent","1","undefined","1","s","0","0","0","60","0","60","0","60","0","0","0","0","60","60","60","60","60","0","Wed Sep 20 13:35:18 2023","1500","The main experiment item","False","FlankerTask23.osexp","/Users/keelihatcher/Desktop/Tarleton M.D./Advanced Quantitative Methods & Experimental Design","False","mono","False","18","no","white","no","yes","768","legacy","60","60","/Users/keelihatcher/Desktop/Tarleton M.D./Advanced Quantitative Methods & Experimental Design/TH-subject-1.csv","legacy","Melodramatic Milgram","4.0.5","0","s","NA","h","NA","NA","s","541.0","NA","44639","NA","NA","541","NA","NA","2","legacy","1024","2","48000","-16","experiment","HHSHH","1","odd","47559","NA","NA","NA","2799","NA","NA","147739","NA","2892","NA","NA","146700","147843","148384","147736","147843","NA","Flanker Task","61","31611.0","61","1024"
"100","100","518","518","#3d3846","legacy","legacy","legacy","incongruent","1","undefined","1","h","0","0","0","61","0","61","0","61","0","0","0","0","61","61","61","61","61","0","Wed Sep 20 13:35:18 2023","1500","The main experiment item","False","FlankerTask23.osexp","/Users/keelihatcher/Desktop/Tarleton M.D./Advanced Quantitative Methods & Experimental Design","False","mono","False","18","no","white","no","yes","768","legacy","61","61","/Users/keelihatcher/Desktop/Tarleton M.D./Advanced Quantitative Methods & Experimental Design/TH-subject-1.csv","legacy","Melodramatic Milgram","4.0.5","0","h","NA","h","NA","NA","h","545.0","NA","44639","NA","NA","545","NA","NA","2","legacy","1024","2","48000","-16","experiment","SSHSS","1","odd","47559","NA","NA","NA","2799","NA","NA","149428","NA","2892","NA","NA","148387","149531","150076","149425","149531","NA","Flanker Task","62","32156.0","62","1024"
"100","100","518","518","#3d3846","legacy","legacy","legacy","congruent","1","undefined","1","h","0","0","0","62","0","62","0","62","0","0","0","0","62","62","62","62","62","0","Wed Sep 20 13:35:18 2023","1500","The main experiment item","False","FlankerTask23.osexp","/Users/keelihatcher/Desktop/Tarleton M.D./Advanced Quantitative Methods & Experimental Design","False","mono","False","18","no","white","no","yes","768","legacy","62","62","/Users/keelihatcher/Desktop/Tarleton M.D./Advanced Quantitative Methods & Experimental Design/TH-subject-1.csv","legacy","Melodramatic Milgram","4.0.5","0","h","NA","h","NA","NA","h","528.0","NA","44639","NA","NA","528","NA","NA","2","legacy","1024","2","48000","-16","experiment","HHHHH","1","odd","47559","NA","NA","NA","2799","NA","NA","151124","NA","2892","NA","NA","150078","151227","151755","151121","151227","NA","Flanker Task","63","32684.0","63","1024"
"100","100","519","519","#3d3846","legacy","legacy","legacy","incongruent","1","undefined","1","s","0","0","0","63","0","63","0","63","0","0","0","0","63","63","63","63","63","0","Wed Sep 20 13:35:18 2023","1500","The main experiment item","False","FlankerTask23.osexp","/Users/keelihatcher/Desktop/Tarleton M.D./Advanced Quantitative Methods & Experimental Design","False","mono","False","18","no","white","no","yes","768","legacy","63","63","/Users/keelihatcher/Desktop/Tarleton M.D./Advanced Quantitative Methods & Experimental Design/TH-subject-1.csv","legacy","Melodramatic Milgram","4.0.5","0","s","NA","h","NA","NA","s","567.0","NA","44639","NA","NA","567","NA","NA","2","legacy","1024","2","48000","-16","experiment","HHSHH","1","odd","47559","NA","NA","NA","2799","NA","NA","152798","NA","2892","NA","NA","151757","152901","153468","152795","152901","NA","Flanker Task","64","33251.0","64","1024"
"100","100","521","521","#3d3846","legacy","legacy","legacy","incongruent","1","undefined","1","h","0","0","0","64","0","64","0","64","0","0","0","0","64","64","64","64","64","0","Wed Sep 20 13:35:18 2023","1500","The main experiment item","False","FlankerTask23.osexp","/Users/keelihatcher/Desktop/Tarleton M.D./Advanced Quantitative Methods & Experimental Design","False","mono","False","18","no","white","no","yes","768","legacy","64","64","/Users/keelihatcher/Desktop/Tarleton M.D./Advanced Quantitative Methods & Experimental Design/TH-subject-1.csv","legacy","Melodramatic Milgram","4.0.5","0","h","NA","h","NA","NA","h","638.0","NA","44639","NA","NA","638","NA","NA","2","legacy","1024","2","48000","-16","experiment","SSHSS","1","odd","47559","NA","NA","NA","2799","NA","NA","154512","NA","2892","NA","NA","153470","154615","155253","154509","154615","NA","Flanker Task","65","33889.0","65","1024"
"100","100","520","520","#3d3846","legacy","legacy","legacy","incongruent","1","undefined","1","s","0","0","0","65","0","65","0","65","0","0","0","0","65","65","65","65","65","0","Wed Sep 20 13:35:18 2023","1500","The main experiment item","False","FlankerTask23.osexp","/Users/keelihatcher/Desktop/Tarleton M.D./Advanced Quantitative Methods & Experimental Design","False","mono","False","18","no","white","no","yes","768","legacy","65","65","/Users/keelihatcher/Desktop/Tarleton M.D./Advanced Quantitative Methods & Experimental Design/TH-subject-1.csv","legacy","Melodramatic Milgram","4.0.5","0","s","NA","h","NA","NA","s","464.0","NA","44639","NA","NA","464","NA","NA","2","legacy","1024","2","48000","-16","experiment","HHSHH","1","odd","47559","NA","NA","NA","2799","NA","NA","156296","NA","2892","NA","NA","155255","156399","156864","156293","156399","NA","Flanker Task","66","34353.0","66","1024"
"100","100","519","519","#3d3846","legacy","legacy","legacy","congruent","1","undefined","1","s","0","0","0","66","0","66","0","66","0","0","0","0","66","66","66","66","66","0","Wed Sep 20 13:35:18 2023","1500","The main experiment item","False","FlankerTask23.osexp","/Users/keelihatcher/Desktop/Tarleton M.D./Advanced Quantitative Methods & Experimental Design","False","mono","False","18","no","white","no","yes","768","legacy","66","66","/Users/keelihatcher/Desktop/Tarleton M.D./Advanced Quantitative Methods & Experimental Design/TH-subject-1.csv","legacy","Melodramatic Milgram","4.0.5","0","s","NA","h","NA","NA","s","481.0","NA","44639","NA","NA","481","NA","NA","2","legacy","1024","2","48000","-16","experiment","SSSSS","1","odd","47559","NA","NA","NA","2799","NA","NA","157906","NA","2892","NA","NA","156866","158009","158490","157903","158009","NA","Flanker Task","67","34834.0","67","1024"
"100","100","519","519","#3d3846","legacy","legacy","legacy","incongruent","1","undefined","1","s","0","0","0","67","0","67","0","67","0","0","0","0","67","67","67","67","67","0","Wed Sep 20 13:35:18 2023","1500","The main experiment item","False","FlankerTask23.osexp","/Users/keelihatcher/Desktop/Tarleton M.D./Advanced Quantitative Methods & Experimental Design","False","mono","False","18","no","white","no","yes","768","legacy","67","67","/Users/keelihatcher/Desktop/Tarleton M.D./Advanced Quantitative Methods & Experimental Design/TH-subject-1.csv","legacy","Melodramatic Milgram","4.0.5","0","s","NA","h","NA","NA","s","503.0","NA","44639","NA","NA","503","NA","NA","2","legacy","1024","2","48000","-16","experiment","HHSHH","1","odd","47559","NA","NA","NA","2799","NA","NA","159534","NA","2892","NA","NA","158492","159638","160141","159531","159638","NA","Flanker Task","68","35337.0","68","1024"
"100","100","519","519","#3d3846","legacy","legacy","legacy","incongruent","1","undefined","1","s","0","0","0","68","0","68","0","68","0","0","0","0","68","68","68","68","68","0","Wed Sep 20 13:35:18 2023","1500","The main experiment item","False","FlankerTask23.osexp","/Users/keelihatcher/Desktop/Tarleton M.D./Advanced Quantitative Methods & Experimental Design","False","mono","False","18","no","white","no","yes","768","legacy","68","68","/Users/keelihatcher/Desktop/Tarleton M.D./Advanced Quantitative Methods & Experimental Design/TH-subject-1.csv","legacy","Melodramatic Milgram","4.0.5","0","s","NA","h","NA","NA","s","513.0","NA","44639","NA","NA","513","NA","NA","2","legacy","1024","2","48000","-16","experiment","HHSHH","1","odd","47559","NA","NA","NA","2799","NA","NA","161188","NA","2892","NA","NA","160144","161291","161805","161185","161291","NA","Flanker Task","69","35850.0","69","1024"
"100","100","518","518","#3d3846","legacy","legacy","legacy","incongruent","1","undefined","1","h","0","0","0","69","0","69","0","69","0","0","0","0","69","69","69","69","69","0","Wed Sep 20 13:35:18 2023","1500","The main experiment item","False","FlankerTask23.osexp","/Users/keelihatcher/Desktop/Tarleton M.D./Advanced Quantitative Methods & Experimental Design","False","mono","False","18","no","white","no","yes","768","legacy","69","69","/Users/keelihatcher/Desktop/Tarleton M.D./Advanced Quantitative Methods & Experimental Design/TH-subject-1.csv","legacy","Melodramatic Milgram","4.0.5","0","h","NA","h","NA","NA","h","477.0","NA","44639","NA","NA","477","NA","NA","2","legacy","1024","2","48000","-16","experiment","SSHSS","1","odd","47559","NA","NA","NA","2799","NA","NA","162849","NA","2892","NA","NA","161807","162952","163429","162845","162952","NA","Flanker Task","70","36327.0","70","1024"
"100","100","519","519","#3d3846","legacy","legacy","legacy","congruent","1","undefined","1","h","0","0","0","70","0","70","0","70","0","0","0","0","70","70","70","70","70","0","Wed Sep 20 13:35:18 2023","1500","The main experiment item","False","FlankerTask23.osexp","/Users/keelihatcher/Desktop/Tarleton M.D./Advanced Quantitative Methods & Experimental Design","False","mono","False","18","no","white","no","yes","768","legacy","70","70","/Users/keelihatcher/Desktop/Tarleton M.D./Advanced Quantitative Methods & Experimental Design/TH-subject-1.csv","legacy","Melodramatic Milgram","4.0.5","0","h","NA","h","NA","NA","h","532.0","NA","44639","NA","NA","532","NA","NA","2","legacy","1024","2","48000","-16","experiment","HHHHH","1","odd","47559","NA","NA","NA","2799","NA","NA","164471","NA","2892","NA","NA","163431","164574","165106","164468","164574","NA","Flanker Task","71","36859.0","71","1024"
"100","100","518","518","#3d3846","legacy","legacy","legacy","incongruent","1","undefined","1","h","0","0","0","71","0","71","0","71","0","0","0","0","71","71","71","71","71","0","Wed Sep 20 13:35:18 2023","1500","The main experiment item","False","FlankerTask23.osexp","/Users/keelihatcher/Desktop/Tarleton M.D./Advanced Quantitative Methods & Experimental Design","False","mono","False","18","no","white","no","yes","768","legacy","71","71","/Users/keelihatcher/Desktop/Tarleton M.D./Advanced Quantitative Methods & Experimental Design/TH-subject-1.csv","legacy","Melodramatic Milgram","4.0.5","0","h","NA","h","NA","NA","h","505.0","NA","44639","NA","NA","505","NA","NA","2","legacy","1024","2","48000","-16","experiment","SSHSS","1","odd","47559","NA","NA","NA","2799","NA","NA","166149","NA","2892","NA","NA","165109","166252","166757","166146","166252","NA","Flanker Task","72","37364.0","72","1024"
"100","100","519","519","#3d3846","legacy","legacy","legacy","congruent","1","undefined","1","s","0","0","0","72","0","72","0","72","0","0","0","0","72","72","72","72","72","0","Wed Sep 20 13:35:18 2023","1500","The main experiment item","False","FlankerTask23.osexp","/Users/keelihatcher/Desktop/Tarleton M.D./Advanced Quantitative Methods & Experimental Design","False","mono","False","18","no","white","no","yes","768","legacy","72","72","/Users/keelihatcher/Desktop/Tarleton M.D./Advanced Quantitative Methods & Experimental Design/TH-subject-1.csv","legacy","Melodramatic Milgram","4.0.5","0","s","NA","h","NA","NA","s","528.0","NA","44639","NA","NA","528","NA","NA","2","legacy","1024","2","48000","-16","experiment","SSSSS","1","odd","47559","NA","NA","NA","2799","NA","NA","167799","NA","2892","NA","NA","166759","167903","168431","167796","167903","NA","Flanker Task","73","37892.0","73","1024"
"100","100","518","518","#3d3846","legacy","legacy","legacy","congruent","1","undefined","1","h","0","0","0","73","0","73","0","73","0","0","0","0","73","73","73","73","73","0","Wed Sep 20 13:35:18 2023","1500","The main experiment item","False","FlankerTask23.osexp","/Users/keelihatcher/Desktop/Tarleton M.D./Advanced Quantitative Methods & Experimental Design","False","mono","False","18","no","white","no","yes","768","legacy","73","73","/Users/keelihatcher/Desktop/Tarleton M.D./Advanced Quantitative Methods & Experimental Design/TH-subject-1.csv","legacy","Melodramatic Milgram","4.0.5","0","h","NA","h","NA","NA","h","504.0","NA","44639","NA","NA","504","NA","NA","2","legacy","1024","2","48000","-16","experiment","HHHHH","1","odd","47559","NA","NA","NA","2799","NA","NA","169474","NA","2892","NA","NA","168433","169577","170081","169471","169577","NA","Flanker Task","74","38396.0","74","1024"
"100","100","521","521","#3d3846","legacy","legacy","legacy","congruent","1","undefined","1","h","0","0","0","74","0","74","0","74","0","0","0","0","74","74","74","74","74","0","Wed Sep 20 13:35:18 2023","1500","The main experiment item","False","FlankerTask23.osexp","/Users/keelihatcher/Desktop/Tarleton M.D./Advanced Quantitative Methods & Experimental Design","False","mono","False","18","no","white","no","yes","768","legacy","74","74","/Users/keelihatcher/Desktop/Tarleton M.D./Advanced Quantitative Methods & Experimental Design/TH-subject-1.csv","legacy","Melodramatic Milgram","4.0.5","0","h","NA","h","NA","NA","h","732.0","NA","44639","NA","NA","732","NA","NA","2","legacy","1024","2","48000","-16","experiment","HHHHH","1","odd","47559","NA","NA","NA","2799","NA","NA","171128","NA","2892","NA","NA","170084","171231","171963","171124","171231","NA","Flanker Task","75","39128.0","75","1024"
"100","100","520","520","#3d3846","legacy","legacy","legacy","congruent","1","undefined","1","h","0","0","0","75","0","75","0","75","0","0","0","0","75","75","75","75","75","0","Wed Sep 20 13:35:18 2023","1500","The main experiment item","False","FlankerTask23.osexp","/Users/keelihatcher/Desktop/Tarleton M.D./Advanced Quantitative Methods & Experimental Design","False","mono","False","18","no","white","no","yes","768","legacy","75","75","/Users/keelihatcher/Desktop/Tarleton M.D./Advanced Quantitative Methods & Experimental Design/TH-subject-1.csv","legacy","Melodramatic Milgram","4.0.5","0","h","NA","h","NA","NA","h","427.0","NA","44639","NA","NA","427","NA","NA","2","legacy","1024","2","48000","-16","experiment","HHHHH","1","odd","47559","NA","NA","NA","2799","NA","NA","173008","NA","2892","NA","NA","171965","173111","173539","173005","173111","NA","Flanker Task","76","39555.0","76","1024"
"100","100","519","519","#3d3846","legacy","legacy","legacy","congruent","1","undefined","1","s","0","0","0","76","0","76","0","76","0","0","0","0","76","76","76","76","76","0","Wed Sep 20 13:35:18 2023","1500","The main experiment item","False","FlankerTask23.osexp","/Users/keelihatcher/Desktop/Tarleton M.D./Advanced Quantitative Methods & Experimental Design","False","mono","False","18","no","white","no","yes","768","legacy","76","76","/Users/keelihatcher/Desktop/Tarleton M.D./Advanced Quantitative Methods & Experimental Design/TH-subject-1.csv","legacy","Melodramatic Milgram","4.0.5","0","s","NA","h","NA","NA","s","455.0","NA","44639","NA","NA","455","NA","NA","2","legacy","1024","2","48000","-16","experiment","SSSSS","1","odd","47559","NA","NA","NA","2799","NA","NA","174581","NA","2892","NA","NA","173541","174684","175140","174578","174684","NA","Flanker Task","77","40010.0","77","1024"
"100","100","517","517","#3d3846","legacy","legacy","legacy","congruent","1","undefined","1","s","0","0","0","77","0","77","0","77","0","0","0","0","77","77","77","77","77","0","Wed Sep 20 13:35:18 2023","1500","The main experiment item","False","FlankerTask23.osexp","/Users/keelihatcher/Desktop/Tarleton M.D./Advanced Quantitative Methods & Experimental Design","False","mono","False","18","no","white","no","yes","768","legacy","77","77","/Users/keelihatcher/Desktop/Tarleton M.D./Advanced Quantitative Methods & Experimental Design/TH-subject-1.csv","legacy","Melodramatic Milgram","4.0.5","0","s","NA","h","NA","NA","s","344.0","NA","44639","NA","NA","344","NA","NA","2","legacy","1024","2","48000","-16","experiment","SSSSS","1","odd","47559","NA","NA","NA","2799","NA","NA","176183","NA","2892","NA","NA","175142","176284","176628","176179","176284","NA","Flanker Task","78","40354.0","78","1024"
"100","100","515","515","#3d3846","legacy","legacy","legacy","congruent","1","undefined","1","s","0","0","0","78","0","78","0","78","0","0","0","0","78","78","78","78","78","0","Wed Sep 20 13:35:18 2023","1500","The main experiment item","False","FlankerTask23.osexp","/Users/keelihatcher/Desktop/Tarleton M.D./Advanced Quantitative Methods & Experimental Design","False","mono","False","18","no","white","no","yes","768","legacy","78","78","/Users/keelihatcher/Desktop/Tarleton M.D./Advanced Quantitative Methods & Experimental Design/TH-subject-1.csv","legacy","Melodramatic Milgram","4.0.5","0","s","NA","h","NA","NA","s","354.0","NA","44639","NA","NA","354","NA","NA","2","legacy","1024","2","48000","-16","experiment","SSSSS","1","odd","47559","NA","NA","NA","2799","NA","NA","177672","NA","2892","NA","NA","176630","177775","178130","177669","177775","NA","Flanker Task","79","40708.0","79","1024"
"100","100","514","514","#3d3846","legacy","legacy","legacy","incongruent","1","undefined","1","s","0","0","0","79","0","79","0","79","0","0","0","0","79","79","79","79","79","0","Wed Sep 20 13:35:18 2023","1500","The main experiment item","False","FlankerTask23.osexp","/Users/keelihatcher/Desktop/Tarleton M.D./Advanced Quantitative Methods & Experimental Design","False","mono","False","18","no","white","no","yes","768","legacy","79","79","/Users/keelihatcher/Desktop/Tarleton M.D./Advanced Quantitative Methods & Experimental Design/TH-subject-1.csv","legacy","Melodramatic Milgram","4.0.5","0","s","NA","h","NA","NA","s","491.0","NA","44639","NA","NA","491","NA","NA","2","legacy","1024","2","48000","-16","experiment","HHSHH","1","odd","47559","NA","NA","NA","2799","NA","NA","179173","NA","2892","NA","NA","178132","179277","179768","179170","179277","NA","Flanker Task","80","41199.0","80","1024"
"100","100","514","514","#3d3846","legacy","legacy","legacy","congruent","1","undefined","1","h","0","0","0","80","0","80","0","80","0","0","0","0","80","80","80","80","80","0","Wed Sep 20 13:35:18 2023","600","The main experiment item","False","FlankerTask23.osexp","/Users/keelihatcher/Desktop/Tarleton M.D./Advanced Quantitative Methods & Experimental Design","False","mono","False","18","no","white","no","yes","768","legacy","0","79","/Users/keelihatcher/Desktop/Tarleton M.D./Advanced Quantitative Methods & Experimental Design/TH-subject-1.csv","legacy","Melodramatic Milgram","4.0.5","0","h","NA","h","h","NA","h","444.0","NA","44639","20109","NA","444","NA","NA","2","legacy","1024","2","48000","-16","experiment","HHHHH","1","odd","47559","200887","NA","NA","2799","NA","NA","200911","NA","2892","180777","NA","179770","201014","201459","200909","201014","NA","Flanker Task","81","41643.0","81","1024"
"100","100","512","512","#3d3846","legacy","legacy","legacy","incongruent","1","undefined","1","s","0","0","0","81","0","81","0","81","0","0","0","0","81","81","81","81","81","0","Wed Sep 20 13:35:18 2023","600","The main experiment item","False","FlankerTask23.osexp","/Users/keelihatcher/Desktop/Tarleton M.D./Advanced Quantitative Methods & Experimental Design","False","mono","False","18","no","white","no","yes","768","legacy","1","79","/Users/keelihatcher/Desktop/Tarleton M.D./Advanced Quantitative Methods & Experimental Design/TH-subject-1.csv","legacy","Melodramatic Milgram","4.0.5","0","s","NA","h","h","NA","s","398.0","NA","44639","20109","NA","398","NA","NA","2","legacy","1024","2","48000","-16","experiment","HHSHH","1","odd","47559","200887","NA","NA","2799","NA","NA","202513","NA","2892","180777","NA","201462","202617","203016","202508","202617","NA","Flanker Task","82","42041.0","82","1024"
"100","100","510","510","#3d3846","legacy","legacy","legacy","incongruent","1","undefined","1","s","0","0","0","82","0","82","0","82","0","0","0","0","82","82","82","82","82","0","Wed Sep 20 13:35:18 2023","600","The main experiment item","False","FlankerTask23.osexp","/Users/keelihatcher/Desktop/Tarleton M.D./Advanced Quantitative Methods & Experimental Design","False","mono","False","18","no","white","no","yes","768","legacy","2","79","/Users/keelihatcher/Desktop/Tarleton M.D./Advanced Quantitative Methods & Experimental Design/TH-subject-1.csv","legacy","Melodramatic Milgram","4.0.5","0","s","NA","h","h","NA","s","348.0","NA","44639","20109","NA","348","NA","NA","2","legacy","1024","2","48000","-16","experiment","HHSHH","1","odd","47559","200887","NA","NA","2799","NA","NA","204065","NA","2892","180777","NA","203018","204168","204517","204061","204168","NA","Flanker Task","83","42389.0","83","1024"
"100","100","509","509","#3d3846","legacy","legacy","legacy","congruent","1","undefined","1","h","0","0","0","83","0","83","0","83","0","0","0","0","83","83","83","83","83","0","Wed Sep 20 13:35:18 2023","600","The main experiment item","False","FlankerTask23.osexp","/Users/keelihatcher/Desktop/Tarleton M.D./Advanced Quantitative Methods & Experimental Design","False","mono","False","18","no","white","no","yes","768","legacy","3","79","/Users/keelihatcher/Desktop/Tarleton M.D./Advanced Quantitative Methods & Experimental Design/TH-subject-1.csv","legacy","Melodramatic Milgram","4.0.5","0","h","NA","h","h","NA","h","402.0","NA","44639","20109","NA","402","NA","NA","2","legacy","1024","2","48000","-16","experiment","HHHHH","1","odd","47559","200887","NA","NA","2799","NA","NA","205568","NA","2892","180777","NA","204519","205671","206074","205565","205671","NA","Flanker Task","84","42791.0","84","1024"
"100","100","507","507","#3d3846","legacy","legacy","legacy","incongruent","1","undefined","1","s","0","0","0","84","0","84","0","84","0","0","0","0","84","84","84","84","84","0","Wed Sep 20 13:35:18 2023","600","The main experiment item","False","FlankerTask23.osexp","/Users/keelihatcher/Desktop/Tarleton M.D./Advanced Quantitative Methods & Experimental Design","False","mono","False","18","no","white","no","yes","768","legacy","4","79","/Users/keelihatcher/Desktop/Tarleton M.D./Advanced Quantitative Methods & Experimental Design/TH-subject-1.csv","legacy","Melodramatic Milgram","4.0.5","0","s","NA","h","h","NA","s","361.0","NA","44639","20109","NA","361","NA","NA","2","legacy","1024","2","48000","-16","experiment","HHSHH","1","odd","47559","200887","NA","NA","2799","NA","NA","207125","NA","2892","180777","NA","206075","207229","207591","207122","207229","NA","Flanker Task","85","43152.0","85","1024"
"100","100","507","507","#3d3846","legacy","legacy","legacy","congruent","1","undefined","1","s","0","0","0","85","0","85","0","85","0","0","0","0","85","85","85","85","85","0","Wed Sep 20 13:35:18 2023","600","The main experiment item","False","FlankerTask23.osexp","/Users/keelihatcher/Desktop/Tarleton M.D./Advanced Quantitative Methods & Experimental Design","False","mono","False","18","no","white","no","yes","768","legacy","5","79","/Users/keelihatcher/Desktop/Tarleton M.D./Advanced Quantitative Methods & Experimental Design/TH-subject-1.csv","legacy","Melodramatic Milgram","4.0.5","0","s","NA","h","h","NA","s","530.0","NA","44639","20109","NA","530","NA","NA","2","legacy","1024","2","48000","-16","experiment","SSSSS","1","odd","47559","200887","NA","NA","2799","NA","NA","208635","NA","2892","180777","NA","207593","208739","209270","208632","208739","NA","Flanker Task","86","43682.0","86","1024"
"100","100","507","507","#3d3846","legacy","legacy","legacy","congruent","1","undefined","1","s","0","0","0","86","0","86","0","86","0","0","0","0","86","86","86","86","86","0","Wed Sep 20 13:35:18 2023","600","The main experiment item","False","FlankerTask23.osexp","/Users/keelihatcher/Desktop/Tarleton M.D./Advanced Quantitative Methods & Experimental Design","False","mono","False","18","no","white","no","yes","768","legacy","6","79","/Users/keelihatcher/Desktop/Tarleton M.D./Advanced Quantitative Methods & Experimental Design/TH-subject-1.csv","legacy","Melodramatic Milgram","4.0.5","0","s","NA","h","h","NA","s","458.0","NA","44639","20109","NA","458","NA","NA","2","legacy","1024","2","48000","-16","experiment","SSSSS","1","odd","47559","200887","NA","NA","2799","NA","NA","210315","NA","2892","180777","NA","209272","210418","210877","210311","210418","NA","Flanker Task","87","44140.0","87","1024"
"100","100","506","506","#3d3846","legacy","legacy","legacy","incongruent","1","undefined","1","h","0","0","0","87","0","87","0","87","0","0","0","0","87","87","87","87","87","0","Wed Sep 20 13:35:18 2023","600","The main experiment item","False","FlankerTask23.osexp","/Users/keelihatcher/Desktop/Tarleton M.D./Advanced Quantitative Methods & Experimental Design","False","mono","False","18","no","white","no","yes","768","legacy","7","79","/Users/keelihatcher/Desktop/Tarleton M.D./Advanced Quantitative Methods & Experimental Design/TH-subject-1.csv","legacy","Melodramatic Milgram","4.0.5","0","h","NA","h","h","NA","h","452.0","NA","44639","20109","NA","452","NA","NA","2","legacy","1024","2","48000","-16","experiment","SSHSS","1","odd","47559","200887","NA","NA","2799","NA","NA","211918","NA","2892","180777","NA","210879","212022","212475","211915","212022","NA","Flanker Task","88","44592.0","88","1024"
"100","100","505","505","#3d3846","legacy","legacy","legacy","incongruent","1","undefined","1","s","0","0","0","88","0","88","0","88","0","0","0","0","88","88","88","88","88","0","Wed Sep 20 13:35:18 2023","600","The main experiment item","False","FlankerTask23.osexp","/Users/keelihatcher/Desktop/Tarleton M.D./Advanced Quantitative Methods & Experimental Design","False","mono","False","18","no","white","no","yes","768","legacy","8","79","/Users/keelihatcher/Desktop/Tarleton M.D./Advanced Quantitative Methods & Experimental Design/TH-subject-1.csv","legacy","Melodramatic Milgram","4.0.5","0","s","NA","h","h","NA","s","357.0","NA","44639","20109","NA","357","NA","NA","2","legacy","1024","2","48000","-16","experiment","HHSHH","1","odd","47559","200887","NA","NA","2799","NA","NA","213517","NA","2892","180777","NA","212477","213620","213977","213514","213620","NA","Flanker Task","89","44949.0","89","1024"
"100","100","503","503","#3d3846","legacy","legacy","legacy","congruent","1","undefined","1","s","0","0","0","89","0","89","0","89","0","0","0","0","89","89","89","89","89","0","Wed Sep 20 13:35:18 2023","600","The main experiment item","False","FlankerTask23.osexp","/Users/keelihatcher/Desktop/Tarleton M.D./Advanced Quantitative Methods & Experimental Design","False","mono","False","18","no","white","no","yes","768","legacy","9","79","/Users/keelihatcher/Desktop/Tarleton M.D./Advanced Quantitative Methods & Experimental Design/TH-subject-1.csv","legacy","Melodramatic Milgram","4.0.5","0","s","NA","h","h","NA","s","406.0","NA","44639","20109","NA","406","NA","NA","2","legacy","1024","2","48000","-16","experiment","SSSSS","1","odd","47559","200887","NA","NA","2799","NA","NA","215022","NA","2892","180777","NA","213979","215125","215532","215019","215125","NA","Flanker Task","90","45355.0","90","1024"
"100","100","502","502","#3d3846","legacy","legacy","legacy","congruent","1","undefined","1","s","0","0","0","90","0","90","0","90","0","0","0","0","90","90","90","90","90","0","Wed Sep 20 13:35:18 2023","600","The main experiment item","False","FlankerTask23.osexp","/Users/keelihatcher/Desktop/Tarleton M.D./Advanced Quantitative Methods & Experimental Design","False","mono","False","18","no","white","no","yes","768","legacy","10","79","/Users/keelihatcher/Desktop/Tarleton M.D./Advanced Quantitative Methods & Experimental Design/TH-subject-1.csv","legacy","Melodramatic Milgram","4.0.5","0","s","NA","h","h","NA","s","398.0","NA","44639","20109","NA","398","NA","NA","2","legacy","1024","2","48000","-16","experiment","SSSSS","1","odd","47559","200887","NA","NA","2799","NA","NA","216577","NA","2892","180777","NA","215534","216680","217079","216574","216680","NA","Flanker Task","91","45753.0","91","1024"
"100","100","502","502","#3d3846","legacy","legacy","legacy","incongruent","1","undefined","1","s","0","0","0","91","0","91","0","91","0","0","0","0","91","91","91","91","91","0","Wed Sep 20 13:35:18 2023","600","The main experiment item","False","FlankerTask23.osexp","/Users/keelihatcher/Desktop/Tarleton M.D./Advanced Quantitative Methods & Experimental Design","False","mono","False","18","no","white","no","yes","768","legacy","11","79","/Users/keelihatcher/Desktop/Tarleton M.D./Advanced Quantitative Methods & Experimental Design/TH-subject-1.csv","legacy","Melodramatic Milgram","4.0.5","0","s","NA","h","h","NA","s","465.0","NA","44639","20109","NA","465","NA","NA","2","legacy","1024","2","48000","-16","experiment","HHSHH","1","odd","47559","200887","NA","NA","2799","NA","NA","218122","NA","2892","180777","NA","217081","218225","218691","218118","218225","NA","Flanker Task","92","46218.0","92","1024"
"100","100","501","501","#3d3846","legacy","legacy","legacy","incongruent","1","undefined","1","s","0","0","0","92","0","92","0","92","0","0","0","0","92","92","92","92","92","0","Wed Sep 20 13:35:18 2023","600","The main experiment item","False","FlankerTask23.osexp","/Users/keelihatcher/Desktop/Tarleton M.D./Advanced Quantitative Methods & Experimental Design","False","mono","False","18","no","white","no","yes","768","legacy","12","79","/Users/keelihatcher/Desktop/Tarleton M.D./Advanced Quantitative Methods & Experimental Design/TH-subject-1.csv","legacy","Melodramatic Milgram","4.0.5","0","s","NA","h","h","NA","s","454.0","NA","44639","20109","NA","454","NA","NA","2","legacy","1024","2","48000","-16","experiment","HHSHH","1","odd","47559","200887","NA","NA","2799","NA","NA","219737","NA","2892","180777","NA","218693","219840","220295","219734","219840","NA","Flanker Task","93","46672.0","93","1024"
"100","100","500","500","#3d3846","legacy","legacy","legacy","congruent","1","undefined","1","h","0","0","0","93","0","93","0","93","0","0","0","0","93","93","93","93","93","0","Wed Sep 20 13:35:18 2023","600","The main experiment item","False","FlankerTask23.osexp","/Users/keelihatcher/Desktop/Tarleton M.D./Advanced Quantitative Methods & Experimental Design","False","mono","False","18","no","white","no","yes","768","legacy","13","79","/Users/keelihatcher/Desktop/Tarleton M.D./Advanced Quantitative Methods & Experimental Design/TH-subject-1.csv","legacy","Melodramatic Milgram","4.0.5","0","h","NA","h","h","NA","h","411.0","NA","44639","20109","NA","411","NA","NA","2","legacy","1024","2","48000","-16","experiment","HHHHH","1","odd","47559","200887","NA","NA","2799","NA","NA","221338","NA","2892","180777","NA","220297","221441","221853","221334","221441","NA","Flanker Task","94","47083.0","94","1024"
"100","100","499","499","#3d3846","legacy","legacy","legacy","incongruent","1","undefined","1","h","0","0","0","94","0","94","0","94","0","0","0","0","94","94","94","94","94","0","Wed Sep 20 13:35:18 2023","600","The main experiment item","False","FlankerTask23.osexp","/Users/keelihatcher/Desktop/Tarleton M.D./Advanced Quantitative Methods & Experimental Design","False","mono","False","18","no","white","no","yes","768","legacy","14","79","/Users/keelihatcher/Desktop/Tarleton M.D./Advanced Quantitative Methods & Experimental Design/TH-subject-1.csv","legacy","Melodramatic Milgram","4.0.5","0","h","NA","h","h","NA","h","411.0","NA","44639","20109","NA","411","NA","NA","2","legacy","1024","2","48000","-16","experiment","SSHSS","1","odd","47559","200887","NA","NA","2799","NA","NA","222895","NA","2892","180777","NA","221854","222998","223410","222892","222998","NA","Flanker Task","95","47494.0","95","1024"
"100","100","499","499","#3d3846","legacy","legacy","legacy","congruent","1","undefined","1","s","0","0","0","95","0","95","0","95","0","0","0","0","95","95","95","95","95","0","Wed Sep 20 13:35:18 2023","600","The main experiment item","False","FlankerTask23.osexp","/Users/keelihatcher/Desktop/Tarleton M.D./Advanced Quantitative Methods & Experimental Design","False","mono","False","18","no","white","no","yes","768","legacy","15","79","/Users/keelihatcher/Desktop/Tarleton M.D./Advanced Quantitative Methods & Experimental Design/TH-subject-1.csv","legacy","Melodramatic Milgram","4.0.5","0","s","NA","h","h","NA","s","419.0","NA","44639","20109","NA","419","NA","NA","2","legacy","1024","2","48000","-16","experiment","SSSSS","1","odd","47559","200887","NA","NA","2799","NA","NA","224458","NA","2892","180777","NA","223412","224562","224982","224455","224562","NA","Flanker Task","96","47913.0","96","1024"
"100","100","499","499","#3d3846","legacy","legacy","legacy","congruent","1","undefined","1","h","0","0","0","96","0","96","0","96","0","0","0","0","96","96","96","96","96","0","Wed Sep 20 13:35:18 2023","600","The main experiment item","False","FlankerTask23.osexp","/Users/keelihatcher/Desktop/Tarleton M.D./Advanced Quantitative Methods & Experimental Design","False","mono","False","18","no","white","no","yes","768","legacy","16","79","/Users/keelihatcher/Desktop/Tarleton M.D./Advanced Quantitative Methods & Experimental Design/TH-subject-1.csv","legacy","Melodramatic Milgram","4.0.5","0","h","NA","h","h","NA","h","534.0","NA","44639","20109","NA","534","NA","NA","2","legacy","1024","2","48000","-16","experiment","HHHHH","1","odd","47559","200887","NA","NA","2799","NA","NA","226037","NA","2892","180777","NA","224984","226140","226675","226033","226140","NA","Flanker Task","97","48447.0","97","1024"
"100","100","500","500","#3d3846","legacy","legacy","legacy","congruent","1","undefined","1","h","0","0","0","97","0","97","0","97","0","0","0","0","97","97","97","97","97","0","Wed Sep 20 13:35:18 2023","600","The main experiment item","False","FlankerTask23.osexp","/Users/keelihatcher/Desktop/Tarleton M.D./Advanced Quantitative Methods & Experimental Design","False","mono","False","18","no","white","no","yes","768","legacy","17","79","/Users/keelihatcher/Desktop/Tarleton M.D./Advanced Quantitative Methods & Experimental Design/TH-subject-1.csv","legacy","Melodramatic Milgram","4.0.5","0","h","NA","h","h","NA","h","608.0","NA","44639","20109","NA","608","NA","NA","2","legacy","1024","2","48000","-16","experiment","HHHHH","1","odd","47559","200887","NA","NA","2799","NA","NA","227727","NA","2892","180777","NA","226677","227830","228438","227724","227830","NA","Flanker Task","98","49055.0","98","1024"
"100","100","499","499","#3d3846","legacy","legacy","legacy","congruent","1","undefined","1","h","0","0","0","98","0","98","0","98","0","0","0","0","98","98","98","98","98","0","Wed Sep 20 13:35:18 2023","600","The main experiment item","False","FlankerTask23.osexp","/Users/keelihatcher/Desktop/Tarleton M.D./Advanced Quantitative Methods & Experimental Design","False","mono","False","18","no","white","no","yes","768","legacy","18","79","/Users/keelihatcher/Desktop/Tarleton M.D./Advanced Quantitative Methods & Experimental Design/TH-subject-1.csv","legacy","Melodramatic Milgram","4.0.5","0","h","NA","h","h","NA","h","397.0","NA","44639","20109","NA","397","NA","NA","2","legacy","1024","2","48000","-16","experiment","HHHHH","1","odd","47559","200887","NA","NA","2799","228441","NA","229993","NA","2892","180777","NA","228944","230097","230495","229990","230097","NA","Flanker Task","99","49452.0","99","1024"
"100","100","499","499","#3d3846","legacy","legacy","legacy","incongruent","1","undefined","1","s","0","0","0","99","0","99","0","99","0","0","0","0","99","99","99","99","99","0","Wed Sep 20 13:35:18 2023","600","The main experiment item","False","FlankerTask23.osexp","/Users/keelihatcher/Desktop/Tarleton M.D./Advanced Quantitative Methods & Experimental Design","False","mono","False","18","no","white","no","yes","768","legacy","19","79","/Users/keelihatcher/Desktop/Tarleton M.D./Advanced Quantitative Methods & Experimental Design/TH-subject-1.csv","legacy","Melodramatic Milgram","4.0.5","0","s","NA","h","h","NA","s","469.0","NA","44639","20109","NA","469","NA","NA","2","legacy","1024","2","48000","-16","experiment","HHSHH","1","odd","47559","200887","NA","NA","2799","228441","NA","231540","NA","2892","180777","NA","230497","231644","232114","231537","231644","NA","Flanker Task","100","49921.0","100","1024"
"100","100","498","498","#3d3846","legacy","legacy","legacy","congruent","1","undefined","1","h","0","0","0","100","0","100","0","100","0","0","0","0","100","100","100","100","100","0","Wed Sep 20 13:35:18 2023","600","The main experiment item","False","FlankerTask23.osexp","/Users/keelihatcher/Desktop/Tarleton M.D./Advanced Quantitative Methods & Experimental Design","False","mono","False","18","no","white","no","yes","768","legacy","20","79","/Users/keelihatcher/Desktop/Tarleton M.D./Advanced Quantitative Methods & Experimental Design/TH-subject-1.csv","legacy","Melodramatic Milgram","4.0.5","0","h","NA","h","h","NA","h","439.0","NA","44639","20109","NA","439","NA","NA","2","legacy","1024","2","48000","-16","experiment","HHHHH","1","odd","47559","200887","NA","NA","2799","228441","NA","233159","NA","2892","180777","NA","232116","233262","233701","233156","233262","NA","Flanker Task","101","50360.0","101","1024"
"100","100","497","497","#3d3846","legacy","legacy","legacy","congruent","1","undefined","1","s","0","0","0","101","0","101","0","101","0","0","0","0","101","101","101","101","101","0","Wed Sep 20 13:35:18 2023","600","The main experiment item","False","FlankerTask23.osexp","/Users/keelihatcher/Desktop/Tarleton M.D./Advanced Quantitative Methods & Experimental Design","False","mono","False","18","no","white","no","yes","768","legacy","21","79","/Users/keelihatcher/Desktop/Tarleton M.D./Advanced Quantitative Methods & Experimental Design/TH-subject-1.csv","legacy","Melodramatic Milgram","4.0.5","0","s","NA","h","h","NA","s","417.0","NA","44639","20109","NA","417","NA","NA","2","legacy","1024","2","48000","-16","experiment","SSSSS","1","odd","47559","200887","NA","NA","2799","228441","NA","234754","NA","2892","180777","NA","233703","234857","235275","234749","234857","NA","Flanker Task","102","50777.0","102","1024"
"100","100","496","496","#3d3846","legacy","legacy","legacy","incongruent","1","undefined","1","s","0","0","0","102","0","102","0","102","0","0","0","0","102","102","102","102","102","0","Wed Sep 20 13:35:18 2023","600","The main experiment item","False","FlankerTask23.osexp","/Users/keelihatcher/Desktop/Tarleton M.D./Advanced Quantitative Methods & Experimental Design","False","mono","False","18","no","white","no","yes","768","legacy","22","79","/Users/keelihatcher/Desktop/Tarleton M.D./Advanced Quantitative Methods & Experimental Design/TH-subject-1.csv","legacy","Melodramatic Milgram","4.0.5","0","s","NA","h","h","NA","s","383.0","NA","44639","20109","NA","383","NA","NA","2","legacy","1024","2","48000","-16","experiment","HHSHH","1","odd","47559","200887","NA","NA","2799","228441","NA","236321","NA","2892","180777","NA","235278","236424","236807","236317","236424","NA","Flanker Task","103","51160.0","103","1024"
"100","100","496","496","#3d3846","legacy","legacy","legacy","incongruent","1","undefined","1","h","0","0","0","103","0","103","0","103","0","0","0","0","103","103","103","103","103","0","Wed Sep 20 13:35:18 2023","600","The main experiment item","False","FlankerTask23.osexp","/Users/keelihatcher/Desktop/Tarleton M.D./Advanced Quantitative Methods & Experimental Design","False","mono","False","18","no","white","no","yes","768","legacy","23","79","/Users/keelihatcher/Desktop/Tarleton M.D./Advanced Quantitative Methods & Experimental Design/TH-subject-1.csv","legacy","Melodramatic Milgram","4.0.5","0","h","NA","h","h","NA","h","490.0","NA","44639","20109","NA","490","NA","NA","2","legacy","1024","2","48000","-16","experiment","SSHSS","1","odd","47559","200887","NA","NA","2799","228441","NA","237851","NA","2892","180777","NA","236809","237954","238445","237847","237954","NA","Flanker Task","104","51650.0","104","1024"
"100","100","496","496","#3d3846","legacy","legacy","legacy","incongruent","1","undefined","1","s","0","0","0","104","0","104","0","104","0","0","0","0","104","104","104","104","104","0","Wed Sep 20 13:35:18 2023","600","The main experiment item","False","FlankerTask23.osexp","/Users/keelihatcher/Desktop/Tarleton M.D./Advanced Quantitative Methods & Experimental Design","False","mono","False","18","no","white","no","yes","768","legacy","24","79","/Users/keelihatcher/Desktop/Tarleton M.D./Advanced Quantitative Methods & Experimental Design/TH-subject-1.csv","legacy","Melodramatic Milgram","4.0.5","0","s","NA","h","h","NA","s","466.0","NA","44639","20109","NA","466","NA","NA","2","legacy","1024","2","48000","-16","experiment","HHSHH","1","odd","47559","200887","NA","NA","2799","228441","NA","239492","NA","2892","180777","NA","238447","239595","240062","239489","239595","NA","Flanker Task","105","52116.0","105","1024"
"100","100","495","495","#3d3846","legacy","legacy","legacy","incongruent","1","undefined","1","s","0","0","0","105","0","105","0","105","0","0","0","0","105","105","105","105","105","0","Wed Sep 20 13:35:18 2023","600","The main experiment item","False","FlankerTask23.osexp","/Users/keelihatcher/Desktop/Tarleton M.D./Advanced Quantitative Methods & Experimental Design","False","mono","False","18","no","white","no","yes","768","legacy","25","79","/Users/keelihatcher/Desktop/Tarleton M.D./Advanced Quantitative Methods & Experimental Design/TH-subject-1.csv","legacy","Melodramatic Milgram","4.0.5","0","s","NA","h","h","NA","s","453.0","NA","44639","20109","NA","453","NA","NA","2","legacy","1024","2","48000","-16","experiment","HHSHH","1","odd","47559","200887","NA","NA","2799","228441","NA","241112","NA","2892","180777","NA","240064","241215","241669","241109","241215","NA","Flanker Task","106","52569.0","106","1024"
"99","99","494","494","#3d3846","legacy","legacy","legacy","congruent","0","undefined","0","s","0","0","0","106","0","106","0","106","0","0","0","0","106","106","106","106","106","0","Wed Sep 20 13:35:18 2023","600","The main experiment item","False","FlankerTask23.osexp","/Users/keelihatcher/Desktop/Tarleton M.D./Advanced Quantitative Methods & Experimental Design","False","mono","False","18","no","white","no","yes","768","legacy","26","79","/Users/keelihatcher/Desktop/Tarleton M.D./Advanced Quantitative Methods & Experimental Design/TH-subject-1.csv","legacy","Melodramatic Milgram","4.0.5","0","h","NA","h","h","NA","h","350.0","NA","44639","20109","NA","350","NA","NA","2","legacy","1024","2","48000","-16","experiment","SSSSS","1","odd","47559","200887","NA","NA","2799","228441","NA","242711","NA","2892","180777","NA","241671","242814","243165","242708","242814","NA","Flanker Task","106","52919.0","107","1024"
"99","99","494","494","#3d3846","legacy","legacy","legacy","incongruent","1","undefined","1","s","0","0","0","107","0","107","0","107","0","0","0","0","107","107","107","107","107","0","Wed Sep 20 13:35:18 2023","600","The main experiment item","False","FlankerTask23.osexp","/Users/keelihatcher/Desktop/Tarleton M.D./Advanced Quantitative Methods & Experimental Design","False","mono","False","18","no","white","no","yes","768","legacy","27","79","/Users/keelihatcher/Desktop/Tarleton M.D./Advanced Quantitative Methods & Experimental Design/TH-subject-1.csv","legacy","Melodramatic Milgram","4.0.5","0","s","NA","h","h","NA","s","489.0","NA","44639","20109","NA","489","NA","NA","2","legacy","1024","2","48000","-16","experiment","HHSHH","1","odd","47559","200887","NA","243166","2799","228441","NA","244710","NA","2892","180777","NA","243670","244813","245302","244706","244813","NA","Flanker Task","107","53408.0","108","1024"
