acc,accuracy,average_response_time,avg_rt,background,canvas_backend,clock_backend,color_backend,compensation,condition,coordinates,correct,correct_instructions1,correct_keyboard_response,correct_response,count_Block1,count_Block2,count_Block3,count_ISI,count_errorFeedback,count_experiment,count_faster,count_finish,count_fixation,count_getting_started,count_instructions1,count_instructions2,count_instructions3,count_keyboard_response,count_new_logger,count_new_sketchpad,count_sequence,count_stimulus,datetime,deadline,description,disable_garbage_collection,experiment_file,experiment_path,font_bold,font_family,font_italic,font_size,font_underline,foreground,form_clicks,fullscreen,height,keyboard_backend,live_row,live_row_Block1,logfile,mouse_backend,opensesame_codename,opensesame_version,repeat_cycle,response,response_finish,response_instructions1,response_instructions2,response_instructions3,response_keyboard_response,response_new_sketchpad,response_time,response_time_finish,response_time_instructions1,response_time_instructions2,response_time_instructions3,response_time_keyboard_response,response_time_new_sketchpad,round_decimals,sampler_backend,sound_buf_size,sound_channels,sound_freq,sound_sample_size,start,stimulus,subject_nr,subject_parity,time_Block1,time_Block2,time_Block3,time_ISI,time_errorFeedback,time_experiment,time_faster,time_finish,time_fixation,time_getting_started,time_instructions1,time_instructions2,time_instructions3,time_keyboard_response,time_new_logger,time_new_sketchpad,time_sequence,time_stimulus,title,total_correct,total_response_time,total_responses,uniform_coordinates,width
0,0,1500,1500,black,legacy,legacy,legacy,0,congruent,uniform,0,undefined,0,s,0,0,0,0,0,0,0,0,0,0,0,0,0,0,0,NA,0,0,Sun Sep 29 17:49:58 2019,1500,The main experiment item,yes,FlankerTask.osexp,/Users/danielrazo0311/Desktop,no,mono,no,18,no,white,no,yes,768,legacy,0,0,/Users/danielrazo0311/Desktop/DR-Subject-2.csv,legacy,Kafkaesque Koffka,3.2.8,0,None,NA,h,NA,NA,None,NA,1500,NA,30090,NA,NA,1500,NA,2,legacy,1024,2,48000,-16,experiment,SSSSS,1,odd,45827,NA,NA,NA,NA,15506,NA,NA,46072,NA,15528,NA,NA,46185,47685,NA,46055,46185,Flanker Task,0,1500,1,yes,1024
50,50,1198,1198,black,legacy,legacy,legacy,0,incongruent,uniform,1,undefined,1,s,0,0,0,1,1,0,1,0,1,0,0,0,0,1,1,NA,1,1,Sun Sep 29 17:49:58 2019,1500,The main experiment item,yes,FlankerTask.osexp,/Users/danielrazo0311/Desktop,no,mono,no,18,no,white,no,yes,768,legacy,1,1,/Users/danielrazo0311/Desktop/DR-Subject-2.csv,legacy,Kafkaesque Koffka,3.2.8,0,s,NA,h,NA,NA,s,NA,896,NA,30090,NA,NA,896,NA,2,legacy,1024,2,48000,-16,experiment,HHSHH,1,odd,45827,NA,NA,48260,47747,15506,NA,NA,49406,NA,15528,NA,NA,49522,50420,NA,49390,49522,Flanker Task,1,2396,2,yes,1024
66.66666667,66.66666667,998.3333333,998.3333333,black,legacy,legacy,legacy,0,congruent,uniform,1,undefined,1,h,0,0,0,2,2,0,2,0,2,0,0,0,0,2,2,NA,2,2,Sun Sep 29 17:49:58 2019,1500,The main experiment item,yes,FlankerTask.osexp,/Users/danielrazo0311/Desktop,no,mono,no,18,no,white,no,yes,768,legacy,2,2,/Users/danielrazo0311/Desktop/DR-Subject-2.csv,legacy,Kafkaesque Koffka,3.2.8,0,h,NA,h,NA,NA,h,NA,599,NA,30090,NA,NA,599,NA,2,legacy,1024,2,48000,-16,experiment,HHHHH,1,odd,45827,NA,NA,50437,47747,15506,NA,NA,51577,NA,15528,NA,NA,51692,52292,NA,51565,51691,Flanker Task,2,2995,3,yes,1024
75,75,865.5,865.5,black,legacy,legacy,legacy,0,congruent,uniform,1,undefined,1,s,0,0,0,3,3,0,3,0,3,0,0,0,0,3,3,NA,3,3,Sun Sep 29 17:49:58 2019,1500,The main experiment item,yes,FlankerTask.osexp,/Users/danielrazo0311/Desktop,no,mono,no,18,no,white,no,yes,768,legacy,3,3,/Users/danielrazo0311/Desktop/DR-Subject-2.csv,legacy,Kafkaesque Koffka,3.2.8,0,s,NA,h,NA,NA,s,NA,467,NA,30090,NA,NA,467,NA,2,legacy,1024,2,48000,-16,experiment,SSSSS,1,odd,45827,NA,NA,52308,47747,15506,NA,NA,53447,NA,15528,NA,NA,53559,54028,NA,53431,53559,Flanker Task,3,3462,4,yes,1024
80,80,806.4,806.4,black,legacy,legacy,legacy,0,incongruent,uniform,1,undefined,1,h,0,0,0,4,4,0,4,0,4,0,0,0,0,4,4,NA,4,4,Sun Sep 29 17:49:58 2019,1500,The main experiment item,yes,FlankerTask.osexp,/Users/danielrazo0311/Desktop,no,mono,no,18,no,white,no,yes,768,legacy,4,4,/Users/danielrazo0311/Desktop/DR-Subject-2.csv,legacy,Kafkaesque Koffka,3.2.8,0,h,NA,h,NA,NA,h,NA,570,NA,30090,NA,NA,570,NA,2,legacy,1024,2,48000,-16,experiment,SSHSS,1,odd,45827,NA,NA,54044,47747,15506,NA,NA,55176,NA,15528,NA,NA,55289,55861,NA,55162,55289,Flanker Task,4,4032,5,yes,1024
83.33333333,83.33333333,768.8333333,768.8333333,black,legacy,legacy,legacy,0,incongruent,uniform,1,undefined,1,h,0,0,0,5,5,0,5,0,5,0,0,0,0,5,5,NA,5,5,Sun Sep 29 17:49:58 2019,1500,The main experiment item,yes,FlankerTask.osexp,/Users/danielrazo0311/Desktop,no,mono,no,18,no,white,no,yes,768,legacy,5,5,/Users/danielrazo0311/Desktop/DR-Subject-2.csv,legacy,Kafkaesque Koffka,3.2.8,0,h,NA,h,NA,NA,h,NA,581,NA,30090,NA,NA,581,NA,2,legacy,1024,2,48000,-16,experiment,SSHSS,1,odd,45827,NA,NA,55876,47747,15506,NA,NA,57008,NA,15528,NA,NA,57125,57708,NA,56997,57125,Flanker Task,5,4613,6,yes,1024
85.71428571,85.71428571,717,717,black,legacy,legacy,legacy,0,incongruent,uniform,1,undefined,1,h,0,0,0,6,6,0,6,0,6,0,0,0,0,6,6,NA,6,6,Sun Sep 29 17:49:58 2019,1500,The main experiment item,yes,FlankerTask.osexp,/Users/danielrazo0311/Desktop,no,mono,no,18,no,white,no,yes,768,legacy,6,6,/Users/danielrazo0311/Desktop/DR-Subject-2.csv,legacy,Kafkaesque Koffka,3.2.8,0,h,NA,h,NA,NA,h,NA,406,NA,30090,NA,NA,406,NA,2,legacy,1024,2,48000,-16,experiment,SSHSS,1,odd,45827,NA,NA,57723,47747,15506,NA,NA,58853,NA,15528,NA,NA,58972,59380,NA,58841,58972,Flanker Task,6,5019,7,yes,1024
87.5,87.5,686.25,686.25,black,legacy,legacy,legacy,0,congruent,uniform,1,undefined,1,h,0,0,0,7,7,0,7,0,7,0,0,0,0,7,7,NA,7,7,Sun Sep 29 17:49:58 2019,1500,The main experiment item,yes,FlankerTask.osexp,/Users/danielrazo0311/Desktop,no,mono,no,18,no,white,no,yes,768,legacy,7,7,/Users/danielrazo0311/Desktop/DR-Subject-2.csv,legacy,Kafkaesque Koffka,3.2.8,0,h,NA,h,NA,NA,h,NA,471,NA,30090,NA,NA,471,NA,2,legacy,1024,2,48000,-16,experiment,HHHHH,1,odd,45827,NA,NA,59429,47747,15506,NA,NA,60559,NA,15528,NA,NA,60675,61148,NA,60547,60675,Flanker Task,7,5490,8,yes,1024
88.88888889,88.88888889,674.8888889,674.8888889,black,legacy,legacy,legacy,0,incongruent,uniform,1,undefined,1,h,0,0,0,8,8,0,8,0,8,0,0,0,0,8,8,NA,8,8,Sun Sep 29 17:49:58 2019,1500,The main experiment item,yes,FlankerTask.osexp,/Users/danielrazo0311/Desktop,no,mono,no,18,no,white,no,yes,768,legacy,8,8,/Users/danielrazo0311/Desktop/DR-Subject-2.csv,legacy,Kafkaesque Koffka,3.2.8,0,h,NA,h,NA,NA,h,NA,584,NA,30090,NA,NA,584,NA,2,legacy,1024,2,48000,-16,experiment,SSHSS,1,odd,45827,NA,NA,61172,47747,15506,NA,NA,62303,NA,15528,NA,NA,62418,63004,NA,62291,62418,Flanker Task,8,6074,9,yes,1024
90,90,655.8,655.8,black,legacy,legacy,legacy,0,congruent,uniform,1,undefined,1,h,0,0,0,9,9,0,9,0,9,0,0,0,0,9,9,NA,9,9,Sun Sep 29 17:49:58 2019,1500,The main experiment item,yes,FlankerTask.osexp,/Users/danielrazo0311/Desktop,no,mono,no,18,no,white,no,yes,768,legacy,9,9,/Users/danielrazo0311/Desktop/DR-Subject-2.csv,legacy,Kafkaesque Koffka,3.2.8,0,h,NA,h,NA,NA,h,NA,484,NA,30090,NA,NA,484,NA,2,legacy,1024,2,48000,-16,experiment,HHHHH,1,odd,45827,NA,NA,63036,47747,15506,NA,NA,64173,NA,15528,NA,NA,64287,64774,NA,64161,64287,Flanker Task,9,6558,10,yes,1024
90.90909091,90.90909091,634.2727273,634.2727273,black,legacy,legacy,legacy,0,congruent,uniform,1,undefined,1,s,0,0,0,10,10,0,10,0,10,0,0,0,0,10,10,NA,10,10,Sun Sep 29 17:49:58 2019,1500,The main experiment item,yes,FlankerTask.osexp,/Users/danielrazo0311/Desktop,no,mono,no,18,no,white,no,yes,768,legacy,10,10,/Users/danielrazo0311/Desktop/DR-Subject-2.csv,legacy,Kafkaesque Koffka,3.2.8,0,s,NA,h,NA,NA,s,NA,419,NA,30090,NA,NA,419,NA,2,legacy,1024,2,48000,-16,experiment,SSSSS,1,odd,45827,NA,NA,64789,47747,15506,NA,NA,65918,NA,15528,NA,NA,66032,66453,NA,65906,66032,Flanker Task,10,6977,11,yes,1024
83.33333333,83.33333333,608.6666667,608.6666667,black,legacy,legacy,legacy,0,incongruent,uniform,0,undefined,0,s,0,0,0,11,11,0,11,0,11,0,0,0,0,11,11,NA,11,11,Sun Sep 29 17:49:58 2019,1500,The main experiment item,yes,FlankerTask.osexp,/Users/danielrazo0311/Desktop,no,mono,no,18,no,white,no,yes,768,legacy,11,11,/Users/danielrazo0311/Desktop/DR-Subject-2.csv,legacy,Kafkaesque Koffka,3.2.8,0,h,NA,h,NA,NA,h,NA,327,NA,30090,NA,NA,327,NA,2,legacy,1024,2,48000,-16,experiment,HHSHH,1,odd,45827,NA,NA,66478,47747,15506,NA,NA,67609,NA,15528,NA,NA,67724,68053,NA,67596,67724,Flanker Task,10,7304,12,yes,1024
84.61538462,84.61538462,602.7692308,602.7692308,black,legacy,legacy,legacy,0,incongruent,uniform,1,undefined,1,s,0,0,0,12,12,0,12,0,12,0,0,0,0,12,12,NA,12,12,Sun Sep 29 17:49:58 2019,1500,The main experiment item,yes,FlankerTask.osexp,/Users/danielrazo0311/Desktop,no,mono,no,18,no,white,no,yes,768,legacy,12,12,/Users/danielrazo0311/Desktop/DR-Subject-2.csv,legacy,Kafkaesque Koffka,3.2.8,0,s,NA,h,NA,NA,s,NA,532,NA,30090,NA,NA,532,NA,2,legacy,1024,2,48000,-16,experiment,HHSHH,1,odd,45827,NA,NA,68583,68069,15506,NA,NA,69714,NA,15528,NA,NA,69831,70365,NA,69701,69831,Flanker Task,11,7836,13,yes,1024
85.71428571,85.71428571,596.0714286,596.0714286,black,legacy,legacy,legacy,0,congruent,uniform,1,undefined,1,h,0,0,0,13,13,0,13,0,13,0,0,0,0,13,13,NA,13,13,Sun Sep 29 17:49:58 2019,1500,The main experiment item,yes,FlankerTask.osexp,/Users/danielrazo0311/Desktop,no,mono,no,18,no,white,no,yes,768,legacy,13,13,/Users/danielrazo0311/Desktop/DR-Subject-2.csv,legacy,Kafkaesque Koffka,3.2.8,0,h,NA,h,NA,NA,h,NA,509,NA,30090,NA,NA,509,NA,2,legacy,1024,2,48000,-16,experiment,HHHHH,1,odd,45827,NA,NA,70380,68069,15506,NA,NA,71510,NA,15528,NA,NA,71622,72133,NA,71498,71622,Flanker Task,12,8345,14,yes,1024
86.66666667,86.66666667,581.1333333,581.1333333,black,legacy,legacy,legacy,0,congruent,uniform,1,undefined,1,s,0,0,0,14,14,0,14,0,14,0,0,0,0,14,14,NA,14,14,Sun Sep 29 17:49:58 2019,1500,The main experiment item,yes,FlankerTask.osexp,/Users/danielrazo0311/Desktop,no,mono,no,18,no,white,no,yes,768,legacy,14,14,/Users/danielrazo0311/Desktop/DR-Subject-2.csv,legacy,Kafkaesque Koffka,3.2.8,0,s,NA,h,NA,NA,s,NA,372,NA,30090,NA,NA,372,NA,2,legacy,1024,2,48000,-16,experiment,SSSSS,1,odd,45827,NA,NA,72148,68069,15506,NA,NA,73279,NA,15528,NA,NA,73392,73766,NA,73267,73391,Flanker Task,13,8717,15,yes,1024
81.25,81.25,573.1875,573.1875,black,legacy,legacy,legacy,0,incongruent,uniform,0,undefined,0,h,0,0,0,15,15,0,15,0,15,0,0,0,0,15,15,NA,15,15,Sun Sep 29 17:49:58 2019,1500,The main experiment item,yes,FlankerTask.osexp,/Users/danielrazo0311/Desktop,no,mono,no,18,no,white,no,yes,768,legacy,15,15,/Users/danielrazo0311/Desktop/DR-Subject-2.csv,legacy,Kafkaesque Koffka,3.2.8,0,s,NA,h,NA,NA,s,NA,454,NA,30090,NA,NA,454,NA,2,legacy,1024,2,48000,-16,experiment,SSHSS,1,odd,45827,NA,NA,73782,68069,15506,NA,NA,74914,NA,15528,NA,NA,75029,75485,NA,74902,75029,Flanker Task,13,9171,16,yes,1024
82.35294118,82.35294118,575.7058824,575.7058824,black,legacy,legacy,legacy,0,incongruent,uniform,1,undefined,1,s,0,0,0,16,16,0,16,0,16,0,0,0,0,16,16,NA,16,16,Sun Sep 29 17:49:58 2019,1500,The main experiment item,yes,FlankerTask.osexp,/Users/danielrazo0311/Desktop,no,mono,no,18,no,white,no,yes,768,legacy,16,16,/Users/danielrazo0311/Desktop/DR-Subject-2.csv,legacy,Kafkaesque Koffka,3.2.8,0,s,NA,h,NA,NA,s,NA,616,NA,30090,NA,NA,616,NA,2,legacy,1024,2,48000,-16,experiment,HHSHH,1,odd,45827,NA,NA,76015,75500,15506,NA,NA,77147,NA,15528,NA,NA,77260,77878,NA,77134,77260,Flanker Task,14,9787,17,yes,1024
83.33333333,83.33333333,575.3333333,575.3333333,black,legacy,legacy,legacy,0,incongruent,uniform,1,undefined,1,h,0,0,0,17,17,0,17,0,17,0,0,0,0,17,17,NA,17,17,Sun Sep 29 17:49:58 2019,1500,The main experiment item,yes,FlankerTask.osexp,/Users/danielrazo0311/Desktop,no,mono,no,18,no,white,no,yes,768,legacy,17,17,/Users/danielrazo0311/Desktop/DR-Subject-2.csv,legacy,Kafkaesque Koffka,3.2.8,0,h,NA,h,NA,NA,h,NA,569,NA,30090,NA,NA,569,NA,2,legacy,1024,2,48000,-16,experiment,SSHSS,1,odd,45827,NA,NA,77893,75500,15506,NA,NA,79024,NA,15528,NA,NA,79138,79709,NA,79011,79138,Flanker Task,15,10356,18,yes,1024
84.21052632,84.21052632,568.2631579,568.2631579,black,legacy,legacy,legacy,0,congruent,uniform,1,undefined,1,h,0,0,0,18,18,0,18,0,18,0,0,0,0,18,18,NA,18,18,Sun Sep 29 17:49:58 2019,1500,The main experiment item,yes,FlankerTask.osexp,/Users/danielrazo0311/Desktop,no,mono,no,18,no,white,no,yes,768,legacy,18,18,/Users/danielrazo0311/Desktop/DR-Subject-2.csv,legacy,Kafkaesque Koffka,3.2.8,0,h,NA,h,NA,NA,h,NA,441,NA,30090,NA,NA,441,NA,2,legacy,1024,2,48000,-16,experiment,HHHHH,1,odd,45827,NA,NA,79762,75500,15506,NA,NA,80898,NA,15528,NA,NA,81010,81453,NA,80886,81010,Flanker Task,16,10797,19,yes,1024
85,85,560.95,560.95,black,legacy,legacy,legacy,0,congruent,uniform,1,undefined,1,h,0,0,0,19,19,0,19,0,19,0,0,0,0,19,19,NA,19,19,Sun Sep 29 17:49:58 2019,1500,The main experiment item,yes,FlankerTask.osexp,/Users/danielrazo0311/Desktop,no,mono,no,18,no,white,no,yes,768,legacy,19,19,/Users/danielrazo0311/Desktop/DR-Subject-2.csv,legacy,Kafkaesque Koffka,3.2.8,0,h,NA,h,NA,NA,h,NA,422,NA,30090,NA,NA,422,NA,2,legacy,1024,2,48000,-16,experiment,HHHHH,1,odd,45827,NA,NA,81486,75500,15506,NA,NA,82618,NA,15528,NA,NA,82733,83157,NA,82605,82732,Flanker Task,17,11219,20,yes,1024
85.71428571,85.71428571,558.3809524,558.3809524,black,legacy,legacy,legacy,0,incongruent,uniform,1,undefined,1,s,0,0,0,20,20,0,20,0,20,0,0,0,0,20,20,NA,20,20,Sun Sep 29 17:49:58 2019,1500,The main experiment item,yes,FlankerTask.osexp,/Users/danielrazo0311/Desktop,no,mono,no,18,no,white,no,yes,768,legacy,20,20,/Users/danielrazo0311/Desktop/DR-Subject-2.csv,legacy,Kafkaesque Koffka,3.2.8,0,s,NA,h,NA,NA,s,NA,507,NA,30090,NA,NA,507,NA,2,legacy,1024,2,48000,-16,experiment,HHSHH,1,odd,45827,NA,NA,83245,75500,15506,NA,NA,84377,NA,15528,NA,NA,84489,84998,NA,84364,84489,Flanker Task,18,11726,21,yes,1024
86.36363636,86.36363636,555.1818182,555.1818182,black,legacy,legacy,legacy,0,congruent,uniform,1,undefined,1,s,0,0,0,21,21,0,21,0,21,0,0,0,0,21,21,NA,21,21,Sun Sep 29 17:49:58 2019,1500,The main experiment item,yes,FlankerTask.osexp,/Users/danielrazo0311/Desktop,no,mono,no,18,no,white,no,yes,768,legacy,21,21,/Users/danielrazo0311/Desktop/DR-Subject-2.csv,legacy,Kafkaesque Koffka,3.2.8,0,s,NA,h,NA,NA,s,NA,488,NA,30090,NA,NA,488,NA,2,legacy,1024,2,48000,-16,experiment,SSSSS,1,odd,45827,NA,NA,85012,75500,15506,NA,NA,86145,NA,15528,NA,NA,86260,86750,NA,86133,86260,Flanker Task,19,12214,22,yes,1024
86.95652174,86.95652174,554.4347826,554.4347826,black,legacy,legacy,legacy,0,congruent,uniform,1,undefined,1,h,0,0,0,22,22,0,22,0,22,0,0,0,0,22,22,NA,22,22,Sun Sep 29 17:49:58 2019,1500,The main experiment item,yes,FlankerTask.osexp,/Users/danielrazo0311/Desktop,no,mono,no,18,no,white,no,yes,768,legacy,22,22,/Users/danielrazo0311/Desktop/DR-Subject-2.csv,legacy,Kafkaesque Koffka,3.2.8,0,h,NA,h,NA,NA,h,NA,538,NA,30090,NA,NA,538,NA,2,legacy,1024,2,48000,-16,experiment,HHHHH,1,odd,45827,NA,NA,86782,75500,15506,NA,NA,87911,NA,15528,NA,NA,88025,88565,NA,87899,88025,Flanker Task,20,12752,23,yes,1024
83.33333333,83.33333333,554.375,554.375,black,legacy,legacy,legacy,0,incongruent,uniform,0,undefined,0,h,0,0,0,23,23,0,23,0,23,0,0,0,0,23,23,NA,23,23,Sun Sep 29 17:49:58 2019,1500,The main experiment item,yes,FlankerTask.osexp,/Users/danielrazo0311/Desktop,no,mono,no,18,no,white,no,yes,768,legacy,23,23,/Users/danielrazo0311/Desktop/DR-Subject-2.csv,legacy,Kafkaesque Koffka,3.2.8,0,s,NA,h,NA,NA,s,NA,553,NA,30090,NA,NA,553,NA,2,legacy,1024,2,48000,-16,experiment,SSHSS,1,odd,45827,NA,NA,88586,75500,15506,NA,NA,89721,NA,15528,NA,NA,89834,90389,NA,89704,89834,Flanker Task,20,13305,24,yes,1024
84,84,555.56,555.56,black,legacy,legacy,legacy,0,incongruent,uniform,1,undefined,1,h,0,0,0,24,24,0,24,0,24,0,0,0,0,24,24,NA,24,24,Sun Sep 29 17:49:58 2019,1500,The main experiment item,yes,FlankerTask.osexp,/Users/danielrazo0311/Desktop,no,mono,no,18,no,white,no,yes,768,legacy,24,24,/Users/danielrazo0311/Desktop/DR-Subject-2.csv,legacy,Kafkaesque Koffka,3.2.8,0,h,NA,h,NA,NA,h,NA,584,NA,30090,NA,NA,584,NA,2,legacy,1024,2,48000,-16,experiment,SSHSS,1,odd,45827,NA,NA,90917,90405,15506,NA,NA,92048,NA,15528,NA,NA,92164,92750,NA,92035,92163,Flanker Task,21,13889,25,yes,1024
84.61538462,84.61538462,552.9615385,552.9615385,black,legacy,legacy,legacy,0,incongruent,uniform,1,undefined,1,h,0,0,0,25,25,0,25,0,25,0,0,0,0,25,25,NA,25,25,Sun Sep 29 17:49:58 2019,1500,The main experiment item,yes,FlankerTask.osexp,/Users/danielrazo0311/Desktop,no,mono,no,18,no,white,no,yes,768,legacy,25,25,/Users/danielrazo0311/Desktop/DR-Subject-2.csv,legacy,Kafkaesque Koffka,3.2.8,0,h,NA,h,NA,NA,h,NA,488,NA,30090,NA,NA,488,NA,2,legacy,1024,2,48000,-16,experiment,SSHSS,1,odd,45827,NA,NA,92767,90405,15506,NA,NA,93898,NA,15528,NA,NA,94011,94501,NA,93885,94011,Flanker Task,22,14377,26,yes,1024
85.18518519,85.18518519,551.7777778,551.7777778,black,legacy,legacy,legacy,0,congruent,uniform,1,undefined,1,s,0,0,0,26,26,0,26,0,26,0,0,0,0,26,26,NA,26,26,Sun Sep 29 17:49:58 2019,1500,The main experiment item,yes,FlankerTask.osexp,/Users/danielrazo0311/Desktop,no,mono,no,18,no,white,no,yes,768,legacy,26,26,/Users/danielrazo0311/Desktop/DR-Subject-2.csv,legacy,Kafkaesque Koffka,3.2.8,0,s,NA,h,NA,NA,s,NA,521,NA,30090,NA,NA,521,NA,2,legacy,1024,2,48000,-16,experiment,SSSSS,1,odd,45827,NA,NA,94550,90405,15506,NA,NA,95681,NA,15528,NA,NA,95794,96318,NA,95668,95794,Flanker Task,23,14898,27,yes,1024
85.71428571,85.71428571,550.2857143,550.2857143,black,legacy,legacy,legacy,0,congruent,uniform,1,undefined,1,h,0,0,0,27,27,0,27,0,27,0,0,0,0,27,27,NA,27,27,Sun Sep 29 17:49:58 2019,1500,The main experiment item,yes,FlankerTask.osexp,/Users/danielrazo0311/Desktop,no,mono,no,18,no,white,no,yes,768,legacy,27,27,/Users/danielrazo0311/Desktop/DR-Subject-2.csv,legacy,Kafkaesque Koffka,3.2.8,0,h,NA,h,NA,NA,h,NA,510,NA,30090,NA,NA,510,NA,2,legacy,1024,2,48000,-16,experiment,HHHHH,1,odd,45827,NA,NA,96335,90405,15506,NA,NA,97466,NA,15528,NA,NA,97581,98094,NA,97453,97581,Flanker Task,24,15408,28,yes,1024
86.20689655,86.20689655,549.3793103,549.3793103,black,legacy,legacy,legacy,0,incongruent,uniform,1,undefined,1,s,0,0,0,28,28,0,28,0,28,0,0,0,0,28,28,NA,28,28,Sun Sep 29 17:49:58 2019,1500,The main experiment item,yes,FlankerTask.osexp,/Users/danielrazo0311/Desktop,no,mono,no,18,no,white,no,yes,768,legacy,28,28,/Users/danielrazo0311/Desktop/DR-Subject-2.csv,legacy,Kafkaesque Koffka,3.2.8,0,s,NA,h,NA,NA,s,NA,524,NA,30090,NA,NA,524,NA,2,legacy,1024,2,48000,-16,experiment,HHSHH,1,odd,45827,NA,NA,98145,90405,15506,NA,NA,99279,NA,15528,NA,NA,99392,99919,NA,99267,99392,Flanker Task,25,15932,29,yes,1024
86.66666667,86.66666667,550.2,550.2,black,legacy,legacy,legacy,0,incongruent,uniform,1,undefined,1,s,0,0,0,29,29,0,29,0,29,0,0,0,0,29,29,NA,29,29,Sun Sep 29 17:49:58 2019,1500,The main experiment item,yes,FlankerTask.osexp,/Users/danielrazo0311/Desktop,no,mono,no,18,no,white,no,yes,768,legacy,29,29,/Users/danielrazo0311/Desktop/DR-Subject-2.csv,legacy,Kafkaesque Koffka,3.2.8,0,s,NA,h,NA,NA,s,NA,574,NA,30090,NA,NA,574,NA,2,legacy,1024,2,48000,-16,experiment,HHSHH,1,odd,45827,NA,NA,99994,90405,15506,NA,NA,101124,NA,15528,NA,NA,101238,101815,NA,101111,101238,Flanker Task,26,16506,30,yes,1024
87.09677419,87.09677419,547.6129032,547.6129032,black,legacy,legacy,legacy,0,congruent,uniform,1,undefined,1,s,0,0,0,30,30,0,30,0,30,0,0,0,0,30,30,NA,30,30,Sun Sep 29 17:49:58 2019,1500,The main experiment item,yes,FlankerTask.osexp,/Users/danielrazo0311/Desktop,no,mono,no,18,no,white,no,yes,768,legacy,30,30,/Users/danielrazo0311/Desktop/DR-Subject-2.csv,legacy,Kafkaesque Koffka,3.2.8,0,s,NA,h,NA,NA,s,NA,470,NA,30090,NA,NA,470,NA,2,legacy,1024,2,48000,-16,experiment,SSSSS,1,odd,45827,NA,NA,101848,90405,15506,NA,NA,102980,NA,15528,NA,NA,103093,103566,NA,102968,103093,Flanker Task,27,16976,31,yes,1024
87.5,87.5,546.34375,546.34375,black,legacy,legacy,legacy,0,incongruent,uniform,1,undefined,1,h,0,0,0,31,31,0,31,0,31,0,0,0,0,31,31,NA,31,31,Sun Sep 29 17:49:58 2019,1500,The main experiment item,yes,FlankerTask.osexp,/Users/danielrazo0311/Desktop,no,mono,no,18,no,white,no,yes,768,legacy,31,31,/Users/danielrazo0311/Desktop/DR-Subject-2.csv,legacy,Kafkaesque Koffka,3.2.8,0,h,NA,h,NA,NA,h,NA,507,NA,30090,NA,NA,507,NA,2,legacy,1024,2,48000,-16,experiment,SSHSS,1,odd,45827,NA,NA,103581,90405,15506,NA,NA,104712,NA,15528,NA,NA,104824,105334,NA,104699,104824,Flanker Task,28,17483,32,yes,1024
87.87878788,87.87878788,544.5757576,544.5757576,black,legacy,legacy,legacy,0,congruent,uniform,1,undefined,1,h,0,0,0,32,32,0,32,0,32,0,0,0,0,32,32,NA,32,32,Sun Sep 29 17:49:58 2019,1500,The main experiment item,yes,FlankerTask.osexp,/Users/danielrazo0311/Desktop,no,mono,no,18,no,white,no,yes,768,legacy,32,32,/Users/danielrazo0311/Desktop/DR-Subject-2.csv,legacy,Kafkaesque Koffka,3.2.8,0,h,NA,h,NA,NA,h,NA,488,NA,30090,NA,NA,488,NA,2,legacy,1024,2,48000,-16,experiment,HHHHH,1,odd,45827,NA,NA,105349,90405,15506,NA,NA,106480,NA,15528,NA,NA,106595,107086,NA,106468,106595,Flanker Task,29,17971,33,yes,1024
88.23529412,88.23529412,540.7058824,540.7058824,black,legacy,legacy,legacy,0,congruent,uniform,1,undefined,1,h,0,0,0,33,33,0,33,0,33,0,0,0,0,33,33,NA,33,33,Sun Sep 29 17:49:58 2019,1500,The main experiment item,yes,FlankerTask.osexp,/Users/danielrazo0311/Desktop,no,mono,no,18,no,white,no,yes,768,legacy,33,33,/Users/danielrazo0311/Desktop/DR-Subject-2.csv,legacy,Kafkaesque Koffka,3.2.8,0,h,NA,h,NA,NA,h,NA,413,NA,30090,NA,NA,413,NA,2,legacy,1024,2,48000,-16,experiment,HHHHH,1,odd,45827,NA,NA,107178,90405,15506,NA,NA,108310,NA,15528,NA,NA,108423,108839,NA,108297,108423,Flanker Task,30,18384,34,yes,1024
88.57142857,88.57142857,537.2285714,537.2285714,black,legacy,legacy,legacy,0,congruent,uniform,1,undefined,1,s,0,0,0,34,34,0,34,0,34,0,0,0,0,34,34,NA,34,34,Sun Sep 29 17:49:58 2019,1500,The main experiment item,yes,FlankerTask.osexp,/Users/danielrazo0311/Desktop,no,mono,no,18,no,white,no,yes,768,legacy,34,34,/Users/danielrazo0311/Desktop/DR-Subject-2.csv,legacy,Kafkaesque Koffka,3.2.8,0,s,NA,h,NA,NA,s,NA,419,NA,30090,NA,NA,419,NA,2,legacy,1024,2,48000,-16,experiment,SSSSS,1,odd,45827,NA,NA,108883,90405,15506,NA,NA,110015,NA,15528,NA,NA,110128,110550,NA,110002,110128,Flanker Task,31,18803,35,yes,1024
88.88888889,88.88888889,537.25,537.25,black,legacy,legacy,legacy,0,incongruent,uniform,1,undefined,1,h,0,0,0,35,35,0,35,0,35,0,0,0,0,35,35,NA,35,35,Sun Sep 29 17:49:58 2019,1500,The main experiment item,yes,FlankerTask.osexp,/Users/danielrazo0311/Desktop,no,mono,no,18,no,white,no,yes,768,legacy,35,35,/Users/danielrazo0311/Desktop/DR-Subject-2.csv,legacy,Kafkaesque Koffka,3.2.8,0,h,NA,h,NA,NA,h,NA,538,NA,30090,NA,NA,538,NA,2,legacy,1024,2,48000,-16,experiment,SSHSS,1,odd,45827,NA,NA,110620,90405,15506,NA,NA,111751,NA,15528,NA,NA,111866,112406,NA,111737,111866,Flanker Task,32,19341,36,yes,1024
89.18918919,89.18918919,536.5405405,536.5405405,black,legacy,legacy,legacy,0,incongruent,uniform,1,undefined,1,h,0,0,0,36,36,0,36,0,36,0,0,0,0,36,36,NA,36,36,Sun Sep 29 17:49:58 2019,1500,The main experiment item,yes,FlankerTask.osexp,/Users/danielrazo0311/Desktop,no,mono,no,18,no,white,no,yes,768,legacy,36,36,/Users/danielrazo0311/Desktop/DR-Subject-2.csv,legacy,Kafkaesque Koffka,3.2.8,0,h,NA,h,NA,NA,h,NA,511,NA,30090,NA,NA,511,NA,2,legacy,1024,2,48000,-16,experiment,SSHSS,1,odd,45827,NA,NA,112438,90405,15506,NA,NA,113571,NA,15528,NA,NA,113685,114198,NA,113558,113685,Flanker Task,33,19852,37,yes,1024
89.47368421,89.47368421,536.0789474,536.0789474,black,legacy,legacy,legacy,0,incongruent,uniform,1,undefined,1,s,0,0,0,37,37,0,37,0,37,0,0,0,0,37,37,NA,37,37,Sun Sep 29 17:49:58 2019,1500,The main experiment item,yes,FlankerTask.osexp,/Users/danielrazo0311/Desktop,no,mono,no,18,no,white,no,yes,768,legacy,37,37,/Users/danielrazo0311/Desktop/DR-Subject-2.csv,legacy,Kafkaesque Koffka,3.2.8,0,s,NA,h,NA,NA,s,NA,519,NA,30090,NA,NA,519,NA,2,legacy,1024,2,48000,-16,experiment,HHSHH,1,odd,45827,NA,NA,114279,90405,15506,NA,NA,115412,NA,15528,NA,NA,115525,116046,NA,115399,115525,Flanker Task,34,20371,38,yes,1024
89.74358974,89.74358974,533.7435897,533.7435897,black,legacy,legacy,legacy,0,congruent,uniform,1,undefined,1,s,0,0,0,38,38,0,38,0,38,0,0,0,0,38,38,NA,38,38,Sun Sep 29 17:49:58 2019,1500,The main experiment item,yes,FlankerTask.osexp,/Users/danielrazo0311/Desktop,no,mono,no,18,no,white,no,yes,768,legacy,38,38,/Users/danielrazo0311/Desktop/DR-Subject-2.csv,legacy,Kafkaesque Koffka,3.2.8,0,s,NA,h,NA,NA,s,NA,445,NA,30090,NA,NA,445,NA,2,legacy,1024,2,48000,-16,experiment,SSSSS,1,odd,45827,NA,NA,116076,90405,15506,NA,NA,117205,NA,15528,NA,NA,117320,117767,NA,117193,117320,Flanker Task,35,20816,39,yes,1024
90,90,532.15,532.15,black,legacy,legacy,legacy,0,congruent,uniform,1,undefined,1,s,0,0,0,39,39,0,39,0,39,0,0,0,0,39,39,NA,39,39,Sun Sep 29 17:49:58 2019,1500,The main experiment item,yes,FlankerTask.osexp,/Users/danielrazo0311/Desktop,no,mono,no,18,no,white,no,yes,768,legacy,39,39,/Users/danielrazo0311/Desktop/DR-Subject-2.csv,legacy,Kafkaesque Koffka,3.2.8,0,s,NA,h,NA,NA,s,NA,470,NA,30090,NA,NA,470,NA,2,legacy,1024,2,48000,-16,experiment,SSSSS,1,odd,45827,NA,NA,117808,90405,15506,NA,NA,118942,NA,15528,NA,NA,119054,119526,NA,118930,119054,Flanker Task,36,21286,40,yes,1024
90.24390244,90.24390244,530.9512195,530.9512195,black,legacy,legacy,legacy,0,incongruent,uniform,1,undefined,1,h,0,0,0,40,40,0,40,0,40,0,0,0,0,40,40,NA,40,40,Sun Sep 29 17:49:58 2019,1500,The main experiment item,yes,FlankerTask.osexp,/Users/danielrazo0311/Desktop,no,mono,no,18,no,white,no,yes,768,legacy,40,40,/Users/danielrazo0311/Desktop/DR-Subject-2.csv,legacy,Kafkaesque Koffka,3.2.8,0,h,NA,h,NA,NA,h,NA,483,NA,30090,NA,NA,483,NA,2,legacy,1024,2,48000,-16,experiment,SSHSS,1,odd,45827,NA,NA,119587,90405,15506,NA,NA,120718,NA,15528,NA,NA,120833,121318,NA,120706,120833,Flanker Task,37,21769,41,yes,1024
90.47619048,90.47619048,530.5,530.5,black,legacy,legacy,legacy,0,congruent,uniform,1,undefined,1,s,0,0,0,41,41,0,41,0,41,0,0,0,0,41,41,NA,41,41,Sun Sep 29 17:49:58 2019,1500,The main experiment item,yes,FlankerTask.osexp,/Users/danielrazo0311/Desktop,no,mono,no,18,no,white,no,yes,768,legacy,41,41,/Users/danielrazo0311/Desktop/DR-Subject-2.csv,legacy,Kafkaesque Koffka,3.2.8,0,s,NA,h,NA,NA,s,NA,512,NA,30090,NA,NA,512,NA,2,legacy,1024,2,48000,-16,experiment,SSSSS,1,odd,45827,NA,NA,121333,90405,15506,NA,NA,122467,NA,15528,NA,NA,122580,123094,NA,122454,122579,Flanker Task,38,22281,42,yes,1024
90.69767442,90.69767442,528.3488372,528.3488372,black,legacy,legacy,legacy,0,congruent,uniform,1,undefined,1,h,0,0,0,42,42,0,42,0,42,0,0,0,0,42,42,NA,42,42,Sun Sep 29 17:49:58 2019,1500,The main experiment item,yes,FlankerTask.osexp,/Users/danielrazo0311/Desktop,no,mono,no,18,no,white,no,yes,768,legacy,42,42,/Users/danielrazo0311/Desktop/DR-Subject-2.csv,legacy,Kafkaesque Koffka,3.2.8,0,h,NA,h,NA,NA,h,NA,438,NA,30090,NA,NA,438,NA,2,legacy,1024,2,48000,-16,experiment,HHHHH,1,odd,45827,NA,NA,123165,90405,15506,NA,NA,124311,NA,15528,NA,NA,124423,124863,NA,124299,124423,Flanker Task,39,22719,43,yes,1024
90.90909091,90.90909091,526.5454545,526.5454545,black,legacy,legacy,legacy,0,congruent,uniform,1,undefined,1,h,0,0,0,43,43,0,43,0,43,0,0,0,0,43,43,NA,43,43,Sun Sep 29 17:49:58 2019,1500,The main experiment item,yes,FlankerTask.osexp,/Users/danielrazo0311/Desktop,no,mono,no,18,no,white,no,yes,768,legacy,43,43,/Users/danielrazo0311/Desktop/DR-Subject-2.csv,legacy,Kafkaesque Koffka,3.2.8,0,h,NA,h,NA,NA,h,NA,449,NA,30090,NA,NA,449,NA,2,legacy,1024,2,48000,-16,experiment,HHHHH,1,odd,45827,NA,NA,124879,90405,15506,NA,NA,126010,NA,15528,NA,NA,126123,126574,NA,125998,126123,Flanker Task,40,23168,44,yes,1024
91.11111111,91.11111111,525.3777778,525.3777778,black,legacy,legacy,legacy,0,incongruent,uniform,1,undefined,1,s,0,0,0,44,44,0,44,0,44,0,0,0,0,44,44,NA,44,44,Sun Sep 29 17:49:58 2019,1500,The main experiment item,yes,FlankerTask.osexp,/Users/danielrazo0311/Desktop,no,mono,no,18,no,white,no,yes,768,legacy,44,44,/Users/danielrazo0311/Desktop/DR-Subject-2.csv,legacy,Kafkaesque Koffka,3.2.8,0,s,NA,h,NA,NA,s,NA,474,NA,30090,NA,NA,474,NA,2,legacy,1024,2,48000,-16,experiment,HHSHH,1,odd,45827,NA,NA,126644,90405,15506,NA,NA,127776,NA,15528,NA,NA,127890,128366,NA,127764,127890,Flanker Task,41,23642,45,yes,1024
91.30434783,91.30434783,522.826087,522.826087,black,legacy,legacy,legacy,0,congruent,uniform,1,undefined,1,s,0,0,0,45,45,0,45,0,45,0,0,0,0,45,45,NA,45,45,Sun Sep 29 17:49:58 2019,1500,The main experiment item,yes,FlankerTask.osexp,/Users/danielrazo0311/Desktop,no,mono,no,18,no,white,no,yes,768,legacy,45,45,/Users/danielrazo0311/Desktop/DR-Subject-2.csv,legacy,Kafkaesque Koffka,3.2.8,0,s,NA,h,NA,NA,s,NA,408,NA,30090,NA,NA,408,NA,2,legacy,1024,2,48000,-16,experiment,SSSSS,1,odd,45827,NA,NA,128382,90405,15506,NA,NA,129514,NA,15528,NA,NA,129628,130039,NA,129502,129628,Flanker Task,42,24050,46,yes,1024
91.4893617,91.4893617,521.8085106,521.8085106,black,legacy,legacy,legacy,0,congruent,uniform,1,undefined,1,s,0,0,0,46,46,0,46,0,46,0,0,0,0,46,46,NA,46,46,Sun Sep 29 17:49:58 2019,1500,The main experiment item,yes,FlankerTask.osexp,/Users/danielrazo0311/Desktop,no,mono,no,18,no,white,no,yes,768,legacy,46,46,/Users/danielrazo0311/Desktop/DR-Subject-2.csv,legacy,Kafkaesque Koffka,3.2.8,0,s,NA,h,NA,NA,s,NA,475,NA,30090,NA,NA,475,NA,2,legacy,1024,2,48000,-16,experiment,SSSSS,1,odd,45827,NA,NA,130054,90405,15506,NA,NA,131184,NA,15528,NA,NA,131298,131776,NA,131172,131297,Flanker Task,43,24525,47,yes,1024
91.66666667,91.66666667,519.8125,519.8125,black,legacy,legacy,legacy,0,congruent,uniform,1,undefined,1,h,0,0,0,47,47,0,47,0,47,0,0,0,0,47,47,NA,47,47,Sun Sep 29 17:49:58 2019,1500,The main experiment item,yes,FlankerTask.osexp,/Users/danielrazo0311/Desktop,no,mono,no,18,no,white,no,yes,768,legacy,47,47,/Users/danielrazo0311/Desktop/DR-Subject-2.csv,legacy,Kafkaesque Koffka,3.2.8,0,h,NA,h,NA,NA,h,NA,426,NA,30090,NA,NA,426,NA,2,legacy,1024,2,48000,-16,experiment,HHHHH,1,odd,45827,NA,NA,131791,90405,15506,NA,NA,132928,NA,15528,NA,NA,133042,133471,NA,132915,133042,Flanker Task,44,24951,48,yes,1024
91.83673469,91.83673469,518.122449,518.122449,black,legacy,legacy,legacy,0,congruent,uniform,1,undefined,1,h,0,0,0,48,48,0,48,0,48,0,0,0,0,48,48,NA,48,48,Sun Sep 29 17:49:58 2019,1500,The main experiment item,yes,FlankerTask.osexp,/Users/danielrazo0311/Desktop,no,mono,no,18,no,white,no,yes,768,legacy,48,48,/Users/danielrazo0311/Desktop/DR-Subject-2.csv,legacy,Kafkaesque Koffka,3.2.8,0,h,NA,h,NA,NA,h,NA,437,NA,30090,NA,NA,437,NA,2,legacy,1024,2,48000,-16,experiment,HHHHH,1,odd,45827,NA,NA,133546,90405,15506,NA,NA,134677,NA,15528,NA,NA,134791,135231,NA,134665,134790,Flanker Task,45,25388,49,yes,1024
92,92,516.58,516.58,black,legacy,legacy,legacy,0,congruent,uniform,1,undefined,1,h,0,0,0,49,49,0,49,0,49,0,0,0,0,49,49,NA,49,49,Sun Sep 29 17:49:58 2019,1500,The main experiment item,yes,FlankerTask.osexp,/Users/danielrazo0311/Desktop,no,mono,no,18,no,white,no,yes,768,legacy,49,49,/Users/danielrazo0311/Desktop/DR-Subject-2.csv,legacy,Kafkaesque Koffka,3.2.8,0,h,NA,h,NA,NA,h,NA,441,NA,30090,NA,NA,441,NA,2,legacy,1024,2,48000,-16,experiment,HHHHH,1,odd,45827,NA,NA,135246,90405,15506,NA,NA,136379,NA,15528,NA,NA,136492,136936,NA,136367,136492,Flanker Task,46,25829,50,yes,1024
92.15686275,92.15686275,515.9411765,515.9411765,black,legacy,legacy,legacy,0,congruent,uniform,1,undefined,1,h,0,0,0,50,50,0,50,0,50,0,0,0,0,50,50,NA,50,50,Sun Sep 29 17:49:58 2019,1500,The main experiment item,yes,FlankerTask.osexp,/Users/danielrazo0311/Desktop,no,mono,no,18,no,white,no,yes,768,legacy,50,50,/Users/danielrazo0311/Desktop/DR-Subject-2.csv,legacy,Kafkaesque Koffka,3.2.8,0,h,NA,h,NA,NA,h,NA,484,NA,30090,NA,NA,484,NA,2,legacy,1024,2,48000,-16,experiment,HHHHH,1,odd,45827,NA,NA,137012,90405,15506,NA,NA,138144,NA,15528,NA,NA,138257,138744,NA,138132,138257,Flanker Task,47,26313,51,yes,1024
90.38461538,90.38461538,513.5769231,513.5769231,black,legacy,legacy,legacy,0,incongruent,uniform,0,undefined,0,h,0,0,0,51,51,0,51,0,51,0,0,0,0,51,51,NA,51,51,Sun Sep 29 17:49:58 2019,1500,The main experiment item,yes,FlankerTask.osexp,/Users/danielrazo0311/Desktop,no,mono,no,18,no,white,no,yes,768,legacy,51,51,/Users/danielrazo0311/Desktop/DR-Subject-2.csv,legacy,Kafkaesque Koffka,3.2.8,0,s,NA,h,NA,NA,s,NA,393,NA,30090,NA,NA,393,NA,2,legacy,1024,2,48000,-16,experiment,SSHSS,1,odd,45827,NA,NA,138760,90405,15506,NA,NA,139890,NA,15528,NA,NA,140003,140399,NA,139878,140003,Flanker Task,47,26706,52,yes,1024
90.56603774,90.56603774,514.8867925,514.8867925,black,legacy,legacy,legacy,0,incongruent,uniform,1,undefined,1,s,0,0,0,52,52,0,52,0,52,0,0,0,0,52,52,NA,52,52,Sun Sep 29 17:49:58 2019,1500,The main experiment item,yes,FlankerTask.osexp,/Users/danielrazo0311/Desktop,no,mono,no,18,no,white,no,yes,768,legacy,52,52,/Users/danielrazo0311/Desktop/DR-Subject-2.csv,legacy,Kafkaesque Koffka,3.2.8,0,s,NA,h,NA,NA,s,NA,583,NA,30090,NA,NA,583,NA,2,legacy,1024,2,48000,-16,experiment,HHSHH,1,odd,45827,NA,NA,140929,140414,15506,NA,NA,142060,NA,15528,NA,NA,142174,142760,NA,142048,142174,Flanker Task,48,27289,53,yes,1024
90.74074074,90.74074074,513.1851852,513.1851852,black,legacy,legacy,legacy,0,congruent,uniform,1,undefined,1,h,0,0,0,53,53,0,53,0,53,0,0,0,0,53,53,NA,53,53,Sun Sep 29 17:49:58 2019,1500,The main experiment item,yes,FlankerTask.osexp,/Users/danielrazo0311/Desktop,no,mono,no,18,no,white,no,yes,768,legacy,53,53,/Users/danielrazo0311/Desktop/DR-Subject-2.csv,legacy,Kafkaesque Koffka,3.2.8,0,h,NA,h,NA,NA,h,NA,423,NA,30090,NA,NA,423,NA,2,legacy,1024,2,48000,-16,experiment,HHHHH,1,odd,45827,NA,NA,142775,140414,15506,NA,NA,143909,NA,15528,NA,NA,144021,144447,NA,143896,144021,Flanker Task,49,27712,54,yes,1024
89.09090909,89.09090909,509.9090909,509.9090909,black,legacy,legacy,legacy,0,incongruent,uniform,0,undefined,0,s,0,0,0,54,54,0,54,0,54,0,0,0,0,54,54,NA,54,54,Sun Sep 29 17:49:58 2019,1500,The main experiment item,yes,FlankerTask.osexp,/Users/danielrazo0311/Desktop,no,mono,no,18,no,white,no,yes,768,legacy,54,54,/Users/danielrazo0311/Desktop/DR-Subject-2.csv,legacy,Kafkaesque Koffka,3.2.8,0,h,NA,h,NA,NA,h,NA,333,NA,30090,NA,NA,333,NA,2,legacy,1024,2,48000,-16,experiment,HHSHH,1,odd,45827,NA,NA,144549,140414,15506,NA,NA,145682,NA,15528,NA,NA,145799,146135,NA,145669,145798,Flanker Task,49,28045,55,yes,1024
89.28571429,89.28571429,510.1428571,510.1428571,black,legacy,legacy,legacy,0,incongruent,uniform,1,undefined,1,s,0,0,0,55,55,0,55,0,55,0,0,0,0,55,55,NA,55,55,Sun Sep 29 17:49:58 2019,1500,The main experiment item,yes,FlankerTask.osexp,/Users/danielrazo0311/Desktop,no,mono,no,18,no,white,no,yes,768,legacy,55,55,/Users/danielrazo0311/Desktop/DR-Subject-2.csv,legacy,Kafkaesque Koffka,3.2.8,0,s,NA,h,NA,NA,s,NA,523,NA,30090,NA,NA,523,NA,2,legacy,1024,2,48000,-16,experiment,HHSHH,1,odd,45827,NA,NA,146665,146151,15506,NA,NA,147801,NA,15528,NA,NA,147913,148439,NA,147789,147913,Flanker Task,50,28568,56,yes,1024
89.47368421,89.47368421,509.1578947,509.1578947,black,legacy,legacy,legacy,0,congruent,uniform,1,undefined,1,h,0,0,0,56,56,0,56,0,56,0,0,0,0,56,56,NA,56,56,Sun Sep 29 17:49:58 2019,1500,The main experiment item,yes,FlankerTask.osexp,/Users/danielrazo0311/Desktop,no,mono,no,18,no,white,no,yes,768,legacy,56,56,/Users/danielrazo0311/Desktop/DR-Subject-2.csv,legacy,Kafkaesque Koffka,3.2.8,0,h,NA,h,NA,NA,h,NA,454,NA,30090,NA,NA,454,NA,2,legacy,1024,2,48000,-16,experiment,HHHHH,1,odd,45827,NA,NA,148455,146151,15506,NA,NA,149587,NA,15528,NA,NA,149702,150160,NA,149574,149701,Flanker Task,51,29022,57,yes,1024
87.93103448,87.93103448,508.2068966,508.2068966,black,legacy,legacy,legacy,0,incongruent,uniform,0,undefined,0,s,0,0,0,57,57,0,57,0,57,0,0,0,0,57,57,NA,57,57,Sun Sep 29 17:49:58 2019,1500,The main experiment item,yes,FlankerTask.osexp,/Users/danielrazo0311/Desktop,no,mono,no,18,no,white,no,yes,768,legacy,57,57,/Users/danielrazo0311/Desktop/DR-Subject-2.csv,legacy,Kafkaesque Koffka,3.2.8,0,h,NA,h,NA,NA,h,NA,454,NA,30090,NA,NA,454,NA,2,legacy,1024,2,48000,-16,experiment,HHSHH,1,odd,45827,NA,NA,150201,146151,15506,NA,NA,151332,NA,15528,NA,NA,151447,151904,NA,151319,151447,Flanker Task,51,29476,58,yes,1024
88.13559322,88.13559322,507.8135593,507.8135593,black,legacy,legacy,legacy,0,congruent,uniform,1,undefined,1,s,0,0,0,58,58,0,58,0,58,0,0,0,0,58,58,NA,58,58,Sun Sep 29 17:49:58 2019,1500,The main experiment item,yes,FlankerTask.osexp,/Users/danielrazo0311/Desktop,no,mono,no,18,no,white,no,yes,768,legacy,58,58,/Users/danielrazo0311/Desktop/DR-Subject-2.csv,legacy,Kafkaesque Koffka,3.2.8,0,s,NA,h,NA,NA,s,NA,485,NA,30090,NA,NA,485,NA,2,legacy,1024,2,48000,-16,experiment,SSSSS,1,odd,45827,NA,NA,152433,151919,15506,NA,NA,153565,NA,15528,NA,NA,153679,154167,NA,153553,153679,Flanker Task,52,29961,59,yes,1024
88.33333333,88.33333333,506.7,506.7,black,legacy,legacy,legacy,0,congruent,uniform,1,undefined,1,s,0,0,0,59,59,0,59,0,59,0,0,0,0,59,59,NA,59,59,Sun Sep 29 17:49:58 2019,1500,The main experiment item,yes,FlankerTask.osexp,/Users/danielrazo0311/Desktop,no,mono,no,18,no,white,no,yes,768,legacy,59,59,/Users/danielrazo0311/Desktop/DR-Subject-2.csv,legacy,Kafkaesque Koffka,3.2.8,0,s,NA,h,NA,NA,s,NA,441,NA,30090,NA,NA,441,NA,2,legacy,1024,2,48000,-16,experiment,SSSSS,1,odd,45827,NA,NA,154183,151919,15506,NA,NA,155313,NA,15528,NA,NA,155428,155872,NA,155300,155428,Flanker Task,53,30402,60,yes,1024
86.8852459,86.8852459,506.3770492,506.3770492,black,legacy,legacy,legacy,0,incongruent,uniform,0,undefined,0,s,0,0,0,60,60,0,60,0,60,0,0,0,0,60,60,NA,60,60,Sun Sep 29 17:49:58 2019,1500,The main experiment item,yes,FlankerTask.osexp,/Users/danielrazo0311/Desktop,no,mono,no,18,no,white,no,yes,768,legacy,60,60,/Users/danielrazo0311/Desktop/DR-Subject-2.csv,legacy,Kafkaesque Koffka,3.2.8,0,h,NA,h,NA,NA,h,NA,487,NA,30090,NA,NA,487,NA,2,legacy,1024,2,48000,-16,experiment,HHSHH,1,odd,45827,NA,NA,155911,151919,15506,NA,NA,157042,NA,15528,NA,NA,157158,157647,NA,157030,157158,Flanker Task,53,30889,61,yes,1024
87.09677419,87.09677419,506.8548387,506.8548387,black,legacy,legacy,legacy,0,congruent,uniform,1,undefined,1,s,0,0,0,61,61,0,61,0,61,0,0,0,0,61,61,NA,61,61,Sun Sep 29 17:49:58 2019,1500,The main experiment item,yes,FlankerTask.osexp,/Users/danielrazo0311/Desktop,no,mono,no,18,no,white,no,yes,768,legacy,61,61,/Users/danielrazo0311/Desktop/DR-Subject-2.csv,legacy,Kafkaesque Koffka,3.2.8,0,s,NA,h,NA,NA,s,NA,536,NA,30090,NA,NA,536,NA,2,legacy,1024,2,48000,-16,experiment,SSSSS,1,odd,45827,NA,NA,158201,157689,15506,NA,NA,159332,NA,15528,NA,NA,159446,159984,NA,159319,159446,Flanker Task,54,31425,62,yes,1024
85.71428571,85.71428571,506.7936508,506.7936508,black,legacy,legacy,legacy,0,incongruent,uniform,0,undefined,0,s,0,0,0,62,62,0,62,0,62,0,0,0,0,62,62,NA,62,62,Sun Sep 29 17:49:58 2019,1500,The main experiment item,yes,FlankerTask.osexp,/Users/danielrazo0311/Desktop,no,mono,no,18,no,white,no,yes,768,legacy,62,62,/Users/danielrazo0311/Desktop/DR-Subject-2.csv,legacy,Kafkaesque Koffka,3.2.8,0,h,NA,h,NA,NA,h,NA,503,NA,30090,NA,NA,503,NA,2,legacy,1024,2,48000,-16,experiment,HHSHH,1,odd,45827,NA,NA,160000,157689,15506,NA,NA,161134,NA,15528,NA,NA,161247,161752,NA,161118,161247,Flanker Task,54,31928,63,yes,1024
85.9375,85.9375,507.640625,507.640625,black,legacy,legacy,legacy,0,incongruent,uniform,1,undefined,1,s,0,0,0,63,63,0,63,0,63,0,0,0,0,63,63,NA,63,63,Sun Sep 29 17:49:58 2019,1500,The main experiment item,yes,FlankerTask.osexp,/Users/danielrazo0311/Desktop,no,mono,no,18,no,white,no,yes,768,legacy,63,63,/Users/danielrazo0311/Desktop/DR-Subject-2.csv,legacy,Kafkaesque Koffka,3.2.8,0,s,NA,h,NA,NA,s,NA,561,NA,30090,NA,NA,561,NA,2,legacy,1024,2,48000,-16,experiment,HHSHH,1,odd,45827,NA,NA,162280,161768,15506,NA,NA,163418,NA,15528,NA,NA,163532,164095,NA,163406,163532,Flanker Task,55,32489,64,yes,1024
86.15384615,86.15384615,507.8,507.8,black,legacy,legacy,legacy,0,incongruent,uniform,1,undefined,1,s,0,0,0,64,64,0,64,0,64,0,0,0,0,64,64,NA,64,64,Sun Sep 29 17:49:58 2019,1500,The main experiment item,yes,FlankerTask.osexp,/Users/danielrazo0311/Desktop,no,mono,no,18,no,white,no,yes,768,legacy,64,64,/Users/danielrazo0311/Desktop/DR-Subject-2.csv,legacy,Kafkaesque Koffka,3.2.8,0,s,NA,h,NA,NA,s,NA,518,NA,30090,NA,NA,518,NA,2,legacy,1024,2,48000,-16,experiment,HHSHH,1,odd,45827,NA,NA,164111,161768,15506,NA,NA,165242,NA,15528,NA,NA,165360,165881,NA,165229,165360,Flanker Task,56,33007,65,yes,1024
86.36363636,86.36363636,506.3333333,506.3333333,black,legacy,legacy,legacy,0,congruent,uniform,1,undefined,1,s,0,0,0,65,65,0,65,0,65,0,0,0,0,65,65,NA,65,65,Sun Sep 29 17:49:58 2019,1500,The main experiment item,yes,FlankerTask.osexp,/Users/danielrazo0311/Desktop,no,mono,no,18,no,white,no,yes,768,legacy,65,65,/Users/danielrazo0311/Desktop/DR-Subject-2.csv,legacy,Kafkaesque Koffka,3.2.8,0,s,NA,h,NA,NA,s,NA,411,NA,30090,NA,NA,411,NA,2,legacy,1024,2,48000,-16,experiment,SSSSS,1,odd,45827,NA,NA,165949,161768,15506,NA,NA,167079,NA,15528,NA,NA,167194,167607,NA,167066,167193,Flanker Task,57,33418,66,yes,1024
86.56716418,86.56716418,507.0298507,507.0298507,black,legacy,legacy,legacy,0,incongruent,uniform,1,undefined,1,h,0,0,0,66,66,0,66,0,66,0,0,0,0,66,66,NA,66,66,Sun Sep 29 17:49:58 2019,1500,The main experiment item,yes,FlankerTask.osexp,/Users/danielrazo0311/Desktop,no,mono,no,18,no,white,no,yes,768,legacy,66,66,/Users/danielrazo0311/Desktop/DR-Subject-2.csv,legacy,Kafkaesque Koffka,3.2.8,0,h,NA,h,NA,NA,h,NA,553,NA,30090,NA,NA,553,NA,2,legacy,1024,2,48000,-16,experiment,SSHSS,1,odd,45827,NA,NA,167624,161768,15506,NA,NA,168762,NA,15528,NA,NA,168876,169432,NA,168748,168876,Flanker Task,58,33971,67,yes,1024
86.76470588,86.76470588,507.0441176,507.0441176,black,legacy,legacy,legacy,0,incongruent,uniform,1,undefined,1,s,0,0,0,67,67,0,67,0,67,0,0,0,0,67,67,NA,67,67,Sun Sep 29 17:49:58 2019,1500,The main experiment item,yes,FlankerTask.osexp,/Users/danielrazo0311/Desktop,no,mono,no,18,no,white,no,yes,768,legacy,67,67,/Users/danielrazo0311/Desktop/DR-Subject-2.csv,legacy,Kafkaesque Koffka,3.2.8,0,s,NA,h,NA,NA,s,NA,508,NA,30090,NA,NA,508,NA,2,legacy,1024,2,48000,-16,experiment,HHSHH,1,odd,45827,NA,NA,169492,161768,15506,NA,NA,170621,NA,15528,NA,NA,170737,171248,NA,170609,170737,Flanker Task,59,34479,68,yes,1024
86.95652174,86.95652174,505.9565217,505.9565217,black,legacy,legacy,legacy,0,congruent,uniform,1,undefined,1,s,0,0,0,68,68,0,68,0,68,0,0,0,0,68,68,NA,68,68,Sun Sep 29 17:49:58 2019,1500,The main experiment item,yes,FlankerTask.osexp,/Users/danielrazo0311/Desktop,no,mono,no,18,no,white,no,yes,768,legacy,68,68,/Users/danielrazo0311/Desktop/DR-Subject-2.csv,legacy,Kafkaesque Koffka,3.2.8,0,s,NA,h,NA,NA,s,NA,432,NA,30090,NA,NA,432,NA,2,legacy,1024,2,48000,-16,experiment,SSSSS,1,odd,45827,NA,NA,171272,161768,15506,NA,NA,172403,NA,15528,NA,NA,172518,172953,NA,172389,172517,Flanker Task,60,34911,69,yes,1024
87.14285714,87.14285714,505.2428571,505.2428571,black,legacy,legacy,legacy,0,congruent,uniform,1,undefined,1,s,0,0,0,69,69,0,69,0,69,0,0,0,0,69,69,NA,69,69,Sun Sep 29 17:49:58 2019,1500,The main experiment item,yes,FlankerTask.osexp,/Users/danielrazo0311/Desktop,no,mono,no,18,no,white,no,yes,768,legacy,69,69,/Users/danielrazo0311/Desktop/DR-Subject-2.csv,legacy,Kafkaesque Koffka,3.2.8,0,s,NA,h,NA,NA,s,NA,456,NA,30090,NA,NA,456,NA,2,legacy,1024,2,48000,-16,experiment,SSSSS,1,odd,45827,NA,NA,172968,161768,15506,NA,NA,174096,NA,15528,NA,NA,174213,174672,NA,174084,174213,Flanker Task,61,35367,70,yes,1024
87.32394366,87.32394366,505.5633803,505.5633803,black,legacy,legacy,legacy,0,incongruent,uniform,1,undefined,1,h,0,0,0,70,70,0,70,0,70,0,0,0,0,70,70,NA,70,70,Sun Sep 29 17:49:58 2019,1500,The main experiment item,yes,FlankerTask.osexp,/Users/danielrazo0311/Desktop,no,mono,no,18,no,white,no,yes,768,legacy,70,70,/Users/danielrazo0311/Desktop/DR-Subject-2.csv,legacy,Kafkaesque Koffka,3.2.8,0,h,NA,h,NA,NA,h,NA,528,NA,30090,NA,NA,528,NA,2,legacy,1024,2,48000,-16,experiment,SSHSS,1,odd,45827,NA,NA,174687,161768,15506,NA,NA,175819,NA,15528,NA,NA,175933,176464,NA,175807,175933,Flanker Task,62,35895,71,yes,1024
87.5,87.5,504.4027778,504.4027778,black,legacy,legacy,legacy,0,congruent,uniform,1,undefined,1,h,0,0,0,71,71,0,71,0,71,0,0,0,0,71,71,NA,71,71,Sun Sep 29 17:49:58 2019,1500,The main experiment item,yes,FlankerTask.osexp,/Users/danielrazo0311/Desktop,no,mono,no,18,no,white,no,yes,768,legacy,71,71,/Users/danielrazo0311/Desktop/DR-Subject-2.csv,legacy,Kafkaesque Koffka,3.2.8,0,h,NA,h,NA,NA,h,NA,422,NA,30090,NA,NA,422,NA,2,legacy,1024,2,48000,-16,experiment,HHHHH,1,odd,45827,NA,NA,176479,161768,15506,NA,NA,177613,NA,15528,NA,NA,177727,178152,NA,177600,177727,Flanker Task,63,36317,72,yes,1024
87.67123288,87.67123288,504.6575342,504.6575342,black,legacy,legacy,legacy,0,incongruent,uniform,1,undefined,1,h,0,0,0,72,72,0,72,0,72,0,0,0,0,72,72,NA,72,72,Sun Sep 29 17:49:58 2019,1500,The main experiment item,yes,FlankerTask.osexp,/Users/danielrazo0311/Desktop,no,mono,no,18,no,white,no,yes,768,legacy,72,72,/Users/danielrazo0311/Desktop/DR-Subject-2.csv,legacy,Kafkaesque Koffka,3.2.8,0,h,NA,h,NA,NA,h,NA,523,NA,30090,NA,NA,523,NA,2,legacy,1024,2,48000,-16,experiment,SSHSS,1,odd,45827,NA,NA,178167,161768,15506,NA,NA,179298,NA,15528,NA,NA,179411,179937,NA,179286,179411,Flanker Task,64,36840,73,yes,1024
87.83783784,87.83783784,503.8918919,503.8918919,black,legacy,legacy,legacy,0,congruent,uniform,1,undefined,1,s,0,0,0,73,73,0,73,0,73,0,0,0,0,73,73,NA,73,73,Sun Sep 29 17:49:58 2019,1500,The main experiment item,yes,FlankerTask.osexp,/Users/danielrazo0311/Desktop,no,mono,no,18,no,white,no,yes,768,legacy,73,73,/Users/danielrazo0311/Desktop/DR-Subject-2.csv,legacy,Kafkaesque Koffka,3.2.8,0,s,NA,h,NA,NA,s,NA,448,NA,30090,NA,NA,448,NA,2,legacy,1024,2,48000,-16,experiment,SSSSS,1,odd,45827,NA,NA,179952,161768,15506,NA,NA,181082,NA,15528,NA,NA,181197,181648,NA,181070,181197,Flanker Task,65,37288,74,yes,1024
88,88,503.5866667,503.5866667,black,legacy,legacy,legacy,0,incongruent,uniform,1,undefined,1,h,0,0,0,74,74,0,74,0,74,0,0,0,0,74,74,NA,74,74,Sun Sep 29 17:49:58 2019,1500,The main experiment item,yes,FlankerTask.osexp,/Users/danielrazo0311/Desktop,no,mono,no,18,no,white,no,yes,768,legacy,74,74,/Users/danielrazo0311/Desktop/DR-Subject-2.csv,legacy,Kafkaesque Koffka,3.2.8,0,h,NA,h,NA,NA,h,NA,481,NA,30090,NA,NA,481,NA,2,legacy,1024,2,48000,-16,experiment,SSHSS,1,odd,45827,NA,NA,181663,161768,15506,NA,NA,182796,NA,15528,NA,NA,182908,183392,NA,182783,182908,Flanker Task,66,37769,75,yes,1024
88.15789474,88.15789474,503.8026316,503.8026316,black,legacy,legacy,legacy,0,incongruent,uniform,1,undefined,1,s,0,0,0,75,75,0,75,0,75,0,0,0,0,75,75,NA,75,75,Sun Sep 29 17:49:58 2019,1500,The main experiment item,yes,FlankerTask.osexp,/Users/danielrazo0311/Desktop,no,mono,no,18,no,white,no,yes,768,legacy,75,75,/Users/danielrazo0311/Desktop/DR-Subject-2.csv,legacy,Kafkaesque Koffka,3.2.8,0,s,NA,h,NA,NA,s,NA,520,NA,30090,NA,NA,520,NA,2,legacy,1024,2,48000,-16,experiment,HHSHH,1,odd,45827,NA,NA,183407,161768,15506,NA,NA,184539,NA,15528,NA,NA,184653,185176,NA,184527,184652,Flanker Task,67,38289,76,yes,1024
88.31168831,88.31168831,504.3636364,504.3636364,black,legacy,legacy,legacy,0,incongruent,uniform,1,undefined,1,h,0,0,0,76,76,0,76,0,76,0,0,0,0,76,76,NA,76,76,Sun Sep 29 17:49:58 2019,1500,The main experiment item,yes,FlankerTask.osexp,/Users/danielrazo0311/Desktop,no,mono,no,18,no,white,no,yes,768,legacy,76,76,/Users/danielrazo0311/Desktop/DR-Subject-2.csv,legacy,Kafkaesque Koffka,3.2.8,0,h,NA,h,NA,NA,h,NA,547,NA,30090,NA,NA,547,NA,2,legacy,1024,2,48000,-16,experiment,SSHSS,1,odd,45827,NA,NA,185191,161768,15506,NA,NA,186321,NA,15528,NA,NA,186435,186985,NA,186308,186435,Flanker Task,68,38836,77,yes,1024
88.46153846,88.46153846,503.8589744,503.8589744,black,legacy,legacy,legacy,0,congruent,uniform,1,undefined,1,h,0,0,0,77,77,0,77,0,77,0,0,0,0,77,77,NA,77,77,Sun Sep 29 17:49:58 2019,1500,The main experiment item,yes,FlankerTask.osexp,/Users/danielrazo0311/Desktop,no,mono,no,18,no,white,no,yes,768,legacy,77,77,/Users/danielrazo0311/Desktop/DR-Subject-2.csv,legacy,Kafkaesque Koffka,3.2.8,0,h,NA,h,NA,NA,h,NA,465,NA,30090,NA,NA,465,NA,2,legacy,1024,2,48000,-16,experiment,HHHHH,1,odd,45827,NA,NA,187000,161768,15506,NA,NA,188131,NA,15528,NA,NA,188244,188712,NA,188118,188244,Flanker Task,69,39301,78,yes,1024
88.60759494,88.60759494,503.6202532,503.6202532,black,legacy,legacy,legacy,0,incongruent,uniform,1,undefined,1,s,0,0,0,78,78,0,78,0,78,0,0,0,0,78,78,NA,78,78,Sun Sep 29 17:49:58 2019,1500,The main experiment item,yes,FlankerTask.osexp,/Users/danielrazo0311/Desktop,no,mono,no,18,no,white,no,yes,768,legacy,78,78,/Users/danielrazo0311/Desktop/DR-Subject-2.csv,legacy,Kafkaesque Koffka,3.2.8,0,s,NA,h,NA,NA,s,NA,485,NA,30090,NA,NA,485,NA,2,legacy,1024,2,48000,-16,experiment,HHSHH,1,odd,45827,NA,NA,188729,161768,15506,NA,NA,189863,NA,15528,NA,NA,189976,190464,NA,189850,189976,Flanker Task,70,39786,79,yes,1024
88.75,88.75,505.15,505.15,black,legacy,legacy,legacy,0,incongruent,uniform,1,undefined,1,h,0,0,0,79,79,0,79,0,79,0,0,0,0,79,79,NA,79,79,Sun Sep 29 17:49:58 2019,1500,The main experiment item,yes,FlankerTask.osexp,/Users/danielrazo0311/Desktop,no,mono,no,18,no,white,no,yes,768,legacy,79,79,/Users/danielrazo0311/Desktop/DR-Subject-2.csv,legacy,Kafkaesque Koffka,3.2.8,0,h,NA,h,NA,NA,h,NA,626,NA,30090,NA,NA,626,NA,2,legacy,1024,2,48000,-16,experiment,SSHSS,1,odd,45827,NA,NA,190479,161768,15506,NA,NA,191609,NA,15528,NA,NA,191723,192352,NA,191597,191723,Flanker Task,71,40412,80,yes,1024
88.88888889,88.88888889,504.5802469,504.5802469,black,legacy,legacy,legacy,0,congruent,uniform,1,undefined,1,s,0,0,0,80,80,0,80,0,80,0,0,0,0,80,80,NA,80,80,Sun Sep 29 17:49:58 2019,600,The main experiment item,yes,FlankerTask.osexp,/Users/danielrazo0311/Desktop,no,mono,no,18,no,white,no,yes,768,legacy,0,79,/Users/danielrazo0311/Desktop/DR-Subject-2.csv,legacy,Kafkaesque Koffka,3.2.8,0,s,NA,h,s,NA,s,NA,459,NA,30090,30908,NA,459,NA,2,legacy,1024,2,48000,-16,experiment,SSSSS,1,odd,45827,224315,NA,192367,161768,15506,NA,NA,224443,NA,15528,193404,NA,224557,225019,NA,224430,224556,Flanker Task,72,40871,81,yes,1024
89.02439024,89.02439024,504.2926829,504.2926829,black,legacy,legacy,legacy,0,congruent,uniform,1,undefined,1,h,0,0,0,81,81,0,81,0,81,0,0,0,0,81,81,NA,81,81,Sun Sep 29 17:49:58 2019,600,The main experiment item,yes,FlankerTask.osexp,/Users/danielrazo0311/Desktop,no,mono,no,18,no,white,no,yes,768,legacy,1,79,/Users/danielrazo0311/Desktop/DR-Subject-2.csv,legacy,Kafkaesque Koffka,3.2.8,0,h,NA,h,s,NA,h,NA,481,NA,30090,30908,NA,481,NA,2,legacy,1024,2,48000,-16,experiment,HHHHH,1,odd,45827,224315,NA,225042,161768,15506,NA,NA,226174,NA,15528,193404,NA,226288,226772,NA,226161,226288,Flanker Task,73,41352,82,yes,1024
87.95180723,87.95180723,503.2409639,503.2409639,black,legacy,legacy,legacy,0,congruent,uniform,0,undefined,0,s,0,0,0,82,82,0,82,0,82,0,0,0,0,82,82,NA,82,82,Sun Sep 29 17:49:58 2019,600,The main experiment item,yes,FlankerTask.osexp,/Users/danielrazo0311/Desktop,no,mono,no,18,no,white,no,yes,768,legacy,2,79,/Users/danielrazo0311/Desktop/DR-Subject-2.csv,legacy,Kafkaesque Koffka,3.2.8,0,h,NA,h,s,NA,h,NA,417,NA,30090,30908,NA,417,NA,2,legacy,1024,2,48000,-16,experiment,SSSSS,1,odd,45827,224315,NA,226787,161768,15506,NA,NA,227918,NA,15528,193404,NA,228031,228451,NA,227905,228031,Flanker Task,73,41769,83,yes,1024
88.0952381,88.0952381,502.1309524,502.1309524,black,legacy,legacy,legacy,0,congruent,uniform,1,undefined,1,s,0,0,0,83,83,0,83,0,83,0,0,0,0,83,83,NA,83,83,Sun Sep 29 17:49:58 2019,600,The main experiment item,yes,FlankerTask.osexp,/Users/danielrazo0311/Desktop,no,mono,no,18,no,white,no,yes,768,legacy,3,79,/Users/danielrazo0311/Desktop/DR-Subject-2.csv,legacy,Kafkaesque Koffka,3.2.8,0,s,NA,h,s,NA,s,NA,410,NA,30090,30908,NA,410,NA,2,legacy,1024,2,48000,-16,experiment,SSSSS,1,odd,45827,224315,NA,228980,228466,15506,NA,NA,230109,NA,15528,193404,NA,230222,230635,NA,230097,230221,Flanker Task,74,42179,84,yes,1024
88.23529412,88.23529412,503.4470588,503.4470588,black,legacy,legacy,legacy,0,incongruent,uniform,1,undefined,1,s,0,0,0,84,84,0,84,0,84,0,0,0,0,84,84,NA,84,84,Sun Sep 29 17:49:58 2019,600,The main experiment item,yes,FlankerTask.osexp,/Users/danielrazo0311/Desktop,no,mono,no,18,no,white,no,yes,768,legacy,4,79,/Users/danielrazo0311/Desktop/DR-Subject-2.csv,legacy,Kafkaesque Koffka,3.2.8,0,s,NA,h,s,NA,s,NA,614,NA,30090,30908,NA,614,NA,2,legacy,1024,2,48000,-16,experiment,HHSHH,1,odd,45827,224315,NA,230650,228466,15506,NA,NA,231792,NA,15528,193404,NA,231906,232523,NA,231779,231906,Flanker Task,75,42793,85,yes,1024
88.37209302,88.37209302,501.4883721,501.4883721,black,legacy,legacy,legacy,0,incongruent,uniform,1,undefined,1,s,0,0,0,85,85,0,85,0,85,0,0,0,0,85,85,NA,85,85,Sun Sep 29 17:49:58 2019,600,The main experiment item,yes,FlankerTask.osexp,/Users/danielrazo0311/Desktop,no,mono,no,18,no,white,no,yes,768,legacy,5,79,/Users/danielrazo0311/Desktop/DR-Subject-2.csv,legacy,Kafkaesque Koffka,3.2.8,0,s,NA,h,s,NA,s,NA,335,NA,30090,30908,NA,335,NA,2,legacy,1024,2,48000,-16,experiment,HHSHH,1,odd,45827,224315,NA,233050,228466,15506,232538,NA,234183,NA,15528,193404,NA,234297,234635,NA,234171,234297,Flanker Task,76,43128,86,yes,1024
88.50574713,88.50574713,499.8965517,499.8965517,black,legacy,legacy,legacy,0,incongruent,uniform,1,undefined,1,s,0,0,0,86,86,0,86,0,86,0,0,0,0,86,86,NA,86,86,Sun Sep 29 17:49:58 2019,600,The main experiment item,yes,FlankerTask.osexp,/Users/danielrazo0311/Desktop,no,mono,no,18,no,white,no,yes,768,legacy,6,79,/Users/danielrazo0311/Desktop/DR-Subject-2.csv,legacy,Kafkaesque Koffka,3.2.8,0,s,NA,h,s,NA,s,NA,363,NA,30090,30908,NA,363,NA,2,legacy,1024,2,48000,-16,experiment,HHSHH,1,odd,45827,224315,NA,234650,228466,15506,232538,NA,235789,NA,15528,193404,NA,235901,236267,NA,235775,235901,Flanker Task,77,43491,87,yes,1024
87.5,87.5,498.7954545,498.7954545,black,legacy,legacy,legacy,0,incongruent,uniform,0,undefined,0,h,0,0,0,87,87,0,87,0,87,0,0,0,0,87,87,NA,87,87,Sun Sep 29 17:49:58 2019,600,The main experiment item,yes,FlankerTask.osexp,/Users/danielrazo0311/Desktop,no,mono,no,18,no,white,no,yes,768,legacy,7,79,/Users/danielrazo0311/Desktop/DR-Subject-2.csv,legacy,Kafkaesque Koffka,3.2.8,0,s,NA,h,s,NA,s,NA,403,NA,30090,30908,NA,403,NA,2,legacy,1024,2,48000,-16,experiment,SSHSS,1,odd,45827,224315,NA,236282,228466,15506,232538,NA,237412,NA,15528,193404,NA,237526,237932,NA,237400,237526,Flanker Task,77,43894,88,yes,1024
87.64044944,87.64044944,498.1910112,498.1910112,black,legacy,legacy,legacy,0,incongruent,uniform,1,undefined,1,h,0,0,0,88,88,0,88,0,88,0,0,0,0,88,88,NA,88,88,Sun Sep 29 17:49:58 2019,600,The main experiment item,yes,FlankerTask.osexp,/Users/danielrazo0311/Desktop,no,mono,no,18,no,white,no,yes,768,legacy,8,79,/Users/danielrazo0311/Desktop/DR-Subject-2.csv,legacy,Kafkaesque Koffka,3.2.8,0,h,NA,h,s,NA,h,NA,445,NA,30090,30908,NA,445,NA,2,legacy,1024,2,48000,-16,experiment,SSHSS,1,odd,45827,224315,NA,238461,237947,15506,232538,NA,239592,NA,15528,193404,NA,239707,240155,NA,239579,239707,Flanker Task,78,44339,89,yes,1024
87.77777778,87.77777778,497.5555556,497.5555556,black,legacy,legacy,legacy,0,congruent,uniform,1,undefined,1,s,0,0,0,89,89,0,89,0,89,0,0,0,0,89,89,NA,89,89,Sun Sep 29 17:49:58 2019,600,The main experiment item,yes,FlankerTask.osexp,/Users/danielrazo0311/Desktop,no,mono,no,18,no,white,no,yes,768,legacy,9,79,/Users/danielrazo0311/Desktop/DR-Subject-2.csv,legacy,Kafkaesque Koffka,3.2.8,0,s,NA,h,s,NA,s,NA,441,NA,30090,30908,NA,441,NA,2,legacy,1024,2,48000,-16,experiment,SSSSS,1,odd,45827,224315,NA,240170,237947,15506,232538,NA,241301,NA,15528,193404,NA,241416,241860,NA,241288,241416,Flanker Task,79,44780,90,yes,1024
87.91208791,87.91208791,497.1868132,497.1868132,black,legacy,legacy,legacy,0,congruent,uniform,1,undefined,1,h,0,0,0,90,90,0,90,0,90,0,0,0,0,90,90,NA,90,90,Sun Sep 29 17:49:58 2019,600,The main experiment item,yes,FlankerTask.osexp,/Users/danielrazo0311/Desktop,no,mono,no,18,no,white,no,yes,768,legacy,10,79,/Users/danielrazo0311/Desktop/DR-Subject-2.csv,legacy,Kafkaesque Koffka,3.2.8,0,h,NA,h,s,NA,h,NA,464,NA,30090,30908,NA,464,NA,2,legacy,1024,2,48000,-16,experiment,HHHHH,1,odd,45827,224315,NA,241875,237947,15506,232538,NA,243006,NA,15528,193404,NA,243120,243587,NA,242994,243120,Flanker Task,80,45244,91,yes,1024
88.04347826,88.04347826,497.3804348,497.3804348,black,legacy,legacy,legacy,0,incongruent,uniform,1,undefined,1,s,0,0,0,91,91,0,91,0,91,0,0,0,0,91,91,NA,91,91,Sun Sep 29 17:49:58 2019,600,The main experiment item,yes,FlankerTask.osexp,/Users/danielrazo0311/Desktop,no,mono,no,18,no,white,no,yes,768,legacy,11,79,/Users/danielrazo0311/Desktop/DR-Subject-2.csv,legacy,Kafkaesque Koffka,3.2.8,0,s,NA,h,s,NA,s,NA,515,NA,30090,30908,NA,515,NA,2,legacy,1024,2,48000,-16,experiment,HHSHH,1,odd,45827,224315,NA,243602,237947,15506,232538,NA,244735,NA,15528,193404,NA,244853,245371,NA,244723,244853,Flanker Task,81,45759,92,yes,1024
88.17204301,88.17204301,496.4301075,496.4301075,black,legacy,legacy,legacy,0,congruent,uniform,1,undefined,1,h,0,0,0,92,92,0,92,0,92,0,0,0,0,92,92,NA,92,92,Sun Sep 29 17:49:58 2019,600,The main experiment item,yes,FlankerTask.osexp,/Users/danielrazo0311/Desktop,no,mono,no,18,no,white,no,yes,768,legacy,12,79,/Users/danielrazo0311/Desktop/DR-Subject-2.csv,legacy,Kafkaesque Koffka,3.2.8,0,h,NA,h,s,NA,h,NA,409,NA,30090,30908,NA,409,NA,2,legacy,1024,2,48000,-16,experiment,HHHHH,1,odd,45827,224315,NA,245386,237947,15506,232538,NA,246517,NA,15528,193404,NA,246631,247043,NA,246505,246631,Flanker Task,82,46168,93,yes,1024
88.29787234,88.29787234,495.9574468,495.9574468,black,legacy,legacy,legacy,0,congruent,uniform,1,undefined,1,h,0,0,0,93,93,0,93,0,93,0,0,0,0,93,93,NA,93,93,Sun Sep 29 17:49:58 2019,600,The main experiment item,yes,FlankerTask.osexp,/Users/danielrazo0311/Desktop,no,mono,no,18,no,white,no,yes,768,legacy,13,79,/Users/danielrazo0311/Desktop/DR-Subject-2.csv,legacy,Kafkaesque Koffka,3.2.8,0,h,NA,h,s,NA,h,NA,452,NA,30090,30908,NA,452,NA,2,legacy,1024,2,48000,-16,experiment,HHHHH,1,odd,45827,224315,NA,247060,237947,15506,232538,NA,248193,NA,15528,193404,NA,248309,248764,NA,248180,248309,Flanker Task,83,46620,94,yes,1024
88.42105263,88.42105263,495.4421053,495.4421053,black,legacy,legacy,legacy,0,congruent,uniform,1,undefined,1,h,0,0,0,94,94,0,94,0,94,0,0,0,0,94,94,NA,94,94,Sun Sep 29 17:49:58 2019,600,The main experiment item,yes,FlankerTask.osexp,/Users/danielrazo0311/Desktop,no,mono,no,18,no,white,no,yes,768,legacy,14,79,/Users/danielrazo0311/Desktop/DR-Subject-2.csv,legacy,Kafkaesque Koffka,3.2.8,0,h,NA,h,s,NA,h,NA,447,NA,30090,30908,NA,447,NA,2,legacy,1024,2,48000,-16,experiment,HHHHH,1,odd,45827,224315,NA,248779,237947,15506,232538,NA,249912,NA,15528,193404,NA,250025,250475,NA,249899,250025,Flanker Task,84,47067,95,yes,1024
88.54166667,88.54166667,494.4791667,494.4791667,black,legacy,legacy,legacy,0,congruent,uniform,1,undefined,1,s,0,0,0,95,95,0,95,0,95,0,0,0,0,95,95,NA,95,95,Sun Sep 29 17:49:58 2019,600,The main experiment item,yes,FlankerTask.osexp,/Users/danielrazo0311/Desktop,no,mono,no,18,no,white,no,yes,768,legacy,15,79,/Users/danielrazo0311/Desktop/DR-Subject-2.csv,legacy,Kafkaesque Koffka,3.2.8,0,s,NA,h,s,NA,s,NA,403,NA,30090,30908,NA,403,NA,2,legacy,1024,2,48000,-16,experiment,SSSSS,1,odd,45827,224315,NA,250491,237947,15506,232538,NA,251620,NA,15528,193404,NA,251733,252139,NA,251607,251733,Flanker Task,85,47470,96,yes,1024
88.65979381,88.65979381,494.443299,494.443299,black,legacy,legacy,legacy,0,incongruent,uniform,1,undefined,1,h,0,0,0,96,96,0,96,0,96,0,0,0,0,96,96,NA,96,96,Sun Sep 29 17:49:58 2019,600,The main experiment item,yes,FlankerTask.osexp,/Users/danielrazo0311/Desktop,no,mono,no,18,no,white,no,yes,768,legacy,16,79,/Users/danielrazo0311/Desktop/DR-Subject-2.csv,legacy,Kafkaesque Koffka,3.2.8,0,h,NA,h,s,NA,h,NA,491,NA,30090,30908,NA,491,NA,2,legacy,1024,2,48000,-16,experiment,SSHSS,1,odd,45827,224315,NA,252155,237947,15506,232538,NA,253284,NA,15528,193404,NA,253398,253892,NA,253272,253398,Flanker Task,86,47961,97,yes,1024
87.75510204,87.75510204,494.3061224,494.3061224,black,legacy,legacy,legacy,0,incongruent,uniform,0,undefined,0,h,0,0,0,97,97,0,97,0,97,0,0,0,0,97,97,NA,97,97,Sun Sep 29 17:49:58 2019,600,The main experiment item,yes,FlankerTask.osexp,/Users/danielrazo0311/Desktop,no,mono,no,18,no,white,no,yes,768,legacy,17,79,/Users/danielrazo0311/Desktop/DR-Subject-2.csv,legacy,Kafkaesque Koffka,3.2.8,0,s,NA,h,s,NA,s,NA,481,NA,30090,30908,NA,481,NA,2,legacy,1024,2,48000,-16,experiment,SSHSS,1,odd,45827,224315,NA,253908,237947,15506,232538,NA,255043,NA,15528,193404,NA,255159,255643,NA,255031,255158,Flanker Task,86,48442,98,yes,1024
87.87878788,87.87878788,494.5151515,494.5151515,black,legacy,legacy,legacy,0,congruent,uniform,1,undefined,1,s,0,0,0,98,98,0,98,0,98,0,0,0,0,98,98,NA,98,98,Sun Sep 29 17:49:58 2019,600,The main experiment item,yes,FlankerTask.osexp,/Users/danielrazo0311/Desktop,no,mono,no,18,no,white,no,yes,768,legacy,18,79,/Users/danielrazo0311/Desktop/DR-Subject-2.csv,legacy,Kafkaesque Koffka,3.2.8,0,s,NA,h,s,NA,s,NA,515,NA,30090,30908,NA,515,NA,2,legacy,1024,2,48000,-16,experiment,SSSSS,1,odd,45827,224315,NA,256173,255658,15506,232538,NA,257302,NA,15528,193404,NA,257414,257932,NA,257290,257414,Flanker Task,87,48957,99,yes,1024
88,88,494.12,494.12,black,legacy,legacy,legacy,0,incongruent,uniform,1,undefined,1,h,0,0,0,99,99,0,99,0,99,0,0,0,0,99,99,NA,99,99,Sun Sep 29 17:49:58 2019,600,The main experiment item,yes,FlankerTask.osexp,/Users/danielrazo0311/Desktop,no,mono,no,18,no,white,no,yes,768,legacy,19,79,/Users/danielrazo0311/Desktop/DR-Subject-2.csv,legacy,Kafkaesque Koffka,3.2.8,0,h,NA,h,s,NA,h,NA,455,NA,30090,30908,NA,455,NA,2,legacy,1024,2,48000,-16,experiment,SSHSS,1,odd,45827,224315,NA,257948,255658,15506,232538,NA,259080,NA,15528,193404,NA,259193,259651,NA,259067,259193,Flanker Task,88,49412,100,yes,1024
88.11881188,88.11881188,494.4455446,494.4455446,black,legacy,legacy,legacy,0,congruent,uniform,1,undefined,1,h,0,0,0,100,100,0,100,0,100,0,0,0,0,100,100,NA,100,100,Sun Sep 29 17:49:58 2019,600,The main experiment item,yes,FlankerTask.osexp,/Users/danielrazo0311/Desktop,no,mono,no,18,no,white,no,yes,768,legacy,20,79,/Users/danielrazo0311/Desktop/DR-Subject-2.csv,legacy,Kafkaesque Koffka,3.2.8,0,h,NA,h,s,NA,h,NA,527,NA,30090,30908,NA,527,NA,2,legacy,1024,2,48000,-16,experiment,HHHHH,1,odd,45827,224315,NA,259666,255658,15506,232538,NA,260799,NA,15528,193404,NA,260913,261443,NA,260786,260913,Flanker Task,89,49939,101,yes,1024
88.23529412,88.23529412,493.9607843,493.9607843,black,legacy,legacy,legacy,0,congruent,uniform,1,undefined,1,h,0,0,0,101,101,0,101,0,101,0,0,0,0,101,101,NA,101,101,Sun Sep 29 17:49:58 2019,600,The main experiment item,yes,FlankerTask.osexp,/Users/danielrazo0311/Desktop,no,mono,no,18,no,white,no,yes,768,legacy,21,79,/Users/danielrazo0311/Desktop/DR-Subject-2.csv,legacy,Kafkaesque Koffka,3.2.8,0,h,NA,h,s,NA,h,NA,445,NA,30090,30908,NA,445,NA,2,legacy,1024,2,48000,-16,experiment,HHHHH,1,odd,45827,224315,NA,261459,255658,15506,232538,NA,262590,NA,15528,193404,NA,262707,263156,NA,262577,262707,Flanker Task,90,50384,102,yes,1024
88.34951456,88.34951456,492.7669903,492.7669903,black,legacy,legacy,legacy,0,incongruent,uniform,1,undefined,1,s,0,0,0,102,102,0,102,0,102,0,0,0,0,102,102,NA,102,102,Sun Sep 29 17:49:58 2019,600,The main experiment item,yes,FlankerTask.osexp,/Users/danielrazo0311/Desktop,no,mono,no,18,no,white,no,yes,768,legacy,22,79,/Users/danielrazo0311/Desktop/DR-Subject-2.csv,legacy,Kafkaesque Koffka,3.2.8,0,s,NA,h,s,NA,s,NA,371,NA,30090,30908,NA,371,NA,2,legacy,1024,2,48000,-16,experiment,HHSHH,1,odd,45827,224315,NA,263171,255658,15506,232538,NA,264301,NA,15528,193404,NA,264414,264789,NA,264288,264413,Flanker Task,91,50755,103,yes,1024
88.46153846,88.46153846,493.25,493.25,black,legacy,legacy,legacy,0,incongruent,uniform,1,undefined,1,s,0,0,0,103,103,0,103,0,103,0,0,0,0,103,103,NA,103,103,Sun Sep 29 17:49:58 2019,600,The main experiment item,yes,FlankerTask.osexp,/Users/danielrazo0311/Desktop,no,mono,no,18,no,white,no,yes,768,legacy,23,79,/Users/danielrazo0311/Desktop/DR-Subject-2.csv,legacy,Kafkaesque Koffka,3.2.8,0,s,NA,h,s,NA,s,NA,543,NA,30090,30908,NA,543,NA,2,legacy,1024,2,48000,-16,experiment,HHSHH,1,odd,45827,224315,NA,264804,255658,15506,232538,NA,265935,NA,15528,193404,NA,266049,266596,NA,265923,266049,Flanker Task,92,51298,104,yes,1024
88.57142857,88.57142857,493.3333333,493.3333333,black,legacy,legacy,legacy,0,congruent,uniform,1,undefined,1,h,0,0,0,104,104,0,104,0,104,0,0,0,0,104,104,NA,104,104,Sun Sep 29 17:49:58 2019,600,The main experiment item,yes,FlankerTask.osexp,/Users/danielrazo0311/Desktop,no,mono,no,18,no,white,no,yes,768,legacy,24,79,/Users/danielrazo0311/Desktop/DR-Subject-2.csv,legacy,Kafkaesque Koffka,3.2.8,0,h,NA,h,s,NA,h,NA,502,NA,30090,30908,NA,502,NA,2,legacy,1024,2,48000,-16,experiment,HHHHH,1,odd,45827,224315,NA,266611,255658,15506,232538,NA,267744,NA,15528,193404,NA,267858,268364,NA,267730,267858,Flanker Task,93,51800,105,yes,1024
88.67924528,88.67924528,493.745283,493.745283,black,legacy,legacy,legacy,0,incongruent,uniform,1,undefined,1,s,0,0,0,105,105,0,105,0,105,0,0,0,0,105,105,NA,105,105,Sun Sep 29 17:49:58 2019,600,The main experiment item,yes,FlankerTask.osexp,/Users/danielrazo0311/Desktop,no,mono,no,18,no,white,no,yes,768,legacy,25,79,/Users/danielrazo0311/Desktop/DR-Subject-2.csv,legacy,Kafkaesque Koffka,3.2.8,0,s,NA,h,s,NA,s,NA,537,NA,30090,30908,NA,537,NA,2,legacy,1024,2,48000,-16,experiment,HHSHH,1,odd,45827,224315,NA,268395,255658,15506,232538,NA,269536,NA,15528,193404,NA,269648,270188,NA,269524,269648,Flanker Task,94,52337,106,yes,1024
88.78504673,88.78504673,493.3084112,493.3084112,black,legacy,legacy,legacy,0,incongruent,uniform,1,undefined,1,s,0,0,0,106,106,0,106,0,106,0,0,0,0,106,106,NA,106,106,Sun Sep 29 17:49:58 2019,600,The main experiment item,yes,FlankerTask.osexp,/Users/danielrazo0311/Desktop,no,mono,no,18,no,white,no,yes,768,legacy,26,79,/Users/danielrazo0311/Desktop/DR-Subject-2.csv,legacy,Kafkaesque Koffka,3.2.8,0,s,NA,h,s,NA,s,NA,447,NA,30090,30908,NA,447,NA,2,legacy,1024,2,48000,-16,experiment,HHSHH,1,odd,45827,224315,NA,270204,255658,15506,232538,NA,271336,NA,15528,193404,NA,271451,271901,NA,271323,271450,Flanker Task,95,52784,107,yes,1024
87.96296296,87.96296296,493.0277778,493.0277778,black,legacy,legacy,legacy,0,incongruent,uniform,0,undefined,0,h,0,0,0,107,107,0,107,0,107,0,0,0,0,107,107,NA,107,107,Sun Sep 29 17:49:58 2019,600,The main experiment item,yes,FlankerTask.osexp,/Users/danielrazo0311/Desktop,no,mono,no,18,no,white,no,yes,768,legacy,27,79,/Users/danielrazo0311/Desktop/DR-Subject-2.csv,legacy,Kafkaesque Koffka,3.2.8,0,s,NA,h,s,NA,s,NA,463,NA,30090,30908,NA,463,NA,2,legacy,1024,2,48000,-16,experiment,SSHSS,1,odd,45827,224315,NA,271919,255658,15506,232538,NA,273049,NA,15528,193404,NA,273162,273629,NA,273036,273162,Flanker Task,95,53247,108,yes,1024
88.0733945,88.0733945,492.9816514,492.9816514,black,legacy,legacy,legacy,0,congruent,uniform,1,undefined,1,h,0,0,0,108,108,0,108,0,108,0,0,0,0,108,108,NA,108,108,Sun Sep 29 17:49:58 2019,600,The main experiment item,yes,FlankerTask.osexp,/Users/danielrazo0311/Desktop,no,mono,no,18,no,white,no,yes,768,legacy,28,79,/Users/danielrazo0311/Desktop/DR-Subject-2.csv,legacy,Kafkaesque Koffka,3.2.8,0,h,NA,h,s,NA,h,NA,488,NA,30090,30908,NA,488,NA,2,legacy,1024,2,48000,-16,experiment,HHHHH,1,odd,45827,224315,NA,274159,273645,15506,232538,NA,275289,NA,15528,193404,NA,275402,275894,NA,275277,275402,Flanker Task,96,53735,109,yes,1024
88.18181818,88.18181818,493.1727273,493.1727273,black,legacy,legacy,legacy,0,incongruent,uniform,1,undefined,1,h,0,0,0,109,109,0,109,0,109,0,0,0,0,109,109,NA,109,109,Sun Sep 29 17:49:58 2019,600,The main experiment item,yes,FlankerTask.osexp,/Users/danielrazo0311/Desktop,no,mono,no,18,no,white,no,yes,768,legacy,29,79,/Users/danielrazo0311/Desktop/DR-Subject-2.csv,legacy,Kafkaesque Koffka,3.2.8,0,h,NA,h,s,NA,h,NA,514,NA,30090,30908,NA,514,NA,2,legacy,1024,2,48000,-16,experiment,SSHSS,1,odd,45827,224315,NA,275909,273645,15506,232538,NA,277039,NA,15528,193404,NA,277151,277668,NA,277026,277151,Flanker Task,97,54249,110,yes,1024
88.28828829,88.28828829,492.5585586,492.5585586,black,legacy,legacy,legacy,0,congruent,uniform,1,undefined,1,h,0,0,0,110,110,0,110,0,110,0,0,0,0,110,110,NA,110,110,Sun Sep 29 17:49:58 2019,600,The main experiment item,yes,FlankerTask.osexp,/Users/danielrazo0311/Desktop,no,mono,no,18,no,white,no,yes,768,legacy,30,79,/Users/danielrazo0311/Desktop/DR-Subject-2.csv,legacy,Kafkaesque Koffka,3.2.8,0,h,NA,h,s,NA,h,NA,425,NA,30090,30908,NA,425,NA,2,legacy,1024,2,48000,-16,experiment,HHHHH,1,odd,45827,224315,NA,277684,273645,15506,232538,NA,278822,NA,15528,193404,NA,278936,279364,NA,278809,278936,Flanker Task,98,54674,111,yes,1024
88.39285714,88.39285714,492.1964286,492.1964286,black,legacy,legacy,legacy,0,congruent,uniform,1,undefined,1,s,0,0,0,111,111,0,111,0,111,0,0,0,0,111,111,NA,111,111,Sun Sep 29 17:49:58 2019,600,The main experiment item,yes,FlankerTask.osexp,/Users/danielrazo0311/Desktop,no,mono,no,18,no,white,no,yes,768,legacy,31,79,/Users/danielrazo0311/Desktop/DR-Subject-2.csv,legacy,Kafkaesque Koffka,3.2.8,0,s,NA,h,s,NA,s,NA,452,NA,30090,30908,NA,452,NA,2,legacy,1024,2,48000,-16,experiment,SSSSS,1,odd,45827,224315,NA,279379,273645,15506,232538,NA,280516,NA,15528,193404,NA,280629,281084,NA,280503,280628,Flanker Task,99,55126,112,yes,1024
88.49557522,88.49557522,492.6902655,492.6902655,black,legacy,legacy,legacy,0,congruent,uniform,1,undefined,1,s,0,0,0,112,112,0,112,0,112,0,0,0,0,112,112,NA,112,112,Sun Sep 29 17:49:58 2019,600,The main experiment item,yes,FlankerTask.osexp,/Users/danielrazo0311/Desktop,no,mono,no,18,no,white,no,yes,768,legacy,32,79,/Users/danielrazo0311/Desktop/DR-Subject-2.csv,legacy,Kafkaesque Koffka,3.2.8,0,s,NA,h,s,NA,s,NA,548,NA,30090,30908,NA,548,NA,2,legacy,1024,2,48000,-16,experiment,SSSSS,1,odd,45827,224315,NA,281100,273645,15506,232538,NA,282236,NA,15528,193404,NA,282350,282901,NA,282223,282350,Flanker Task,100,55674,113,yes,1024
88.59649123,88.59649123,493.2894737,493.2894737,black,legacy,legacy,legacy,0,incongruent,uniform,1,undefined,1,h,0,0,0,113,113,0,113,0,113,0,0,0,0,113,113,NA,113,113,Sun Sep 29 17:49:58 2019,600,The main experiment item,yes,FlankerTask.osexp,/Users/danielrazo0311/Desktop,no,mono,no,18,no,white,no,yes,768,legacy,33,79,/Users/danielrazo0311/Desktop/DR-Subject-2.csv,legacy,Kafkaesque Koffka,3.2.8,0,h,NA,h,s,NA,h,NA,561,NA,30090,30908,NA,561,NA,2,legacy,1024,2,48000,-16,experiment,SSHSS,1,odd,45827,224315,NA,282916,273645,15506,232538,NA,284046,NA,15528,193404,NA,284160,284724,NA,284033,284160,Flanker Task,101,56235,114,yes,1024
88.69565217,88.69565217,492.6869565,492.6869565,black,legacy,legacy,legacy,0,incongruent,uniform,1,undefined,1,h,0,0,0,114,114,0,114,0,114,0,0,0,0,114,114,NA,114,114,Sun Sep 29 17:49:58 2019,600,The main experiment item,yes,FlankerTask.osexp,/Users/danielrazo0311/Desktop,no,mono,no,18,no,white,no,yes,768,legacy,34,79,/Users/danielrazo0311/Desktop/DR-Subject-2.csv,legacy,Kafkaesque Koffka,3.2.8,0,h,NA,h,s,NA,h,NA,424,NA,30090,30908,NA,424,NA,2,legacy,1024,2,48000,-16,experiment,SSHSS,1,odd,45827,224315,NA,284740,273645,15506,232538,NA,285871,NA,15528,193404,NA,285985,286412,NA,285858,285985,Flanker Task,102,56659,115,yes,1024
88.79310345,88.79310345,492.1293103,492.1293103,black,legacy,legacy,legacy,0,congruent,uniform,1,undefined,1,h,0,0,0,115,115,0,115,0,115,0,0,0,0,115,115,NA,115,115,Sun Sep 29 17:49:58 2019,600,The main experiment item,yes,FlankerTask.osexp,/Users/danielrazo0311/Desktop,no,mono,no,18,no,white,no,yes,768,legacy,35,79,/Users/danielrazo0311/Desktop/DR-Subject-2.csv,legacy,Kafkaesque Koffka,3.2.8,0,h,NA,h,s,NA,h,NA,428,NA,30090,30908,NA,428,NA,2,legacy,1024,2,48000,-16,experiment,HHHHH,1,odd,45827,224315,NA,286431,273645,15506,232538,NA,287562,NA,15528,193404,NA,287677,288108,NA,287550,287676,Flanker Task,103,57087,116,yes,1024
88.88888889,88.88888889,492.7948718,492.7948718,black,legacy,legacy,legacy,0,incongruent,uniform,1,undefined,1,h,0,0,0,116,116,0,116,0,116,0,0,0,0,116,116,NA,116,116,Sun Sep 29 17:49:58 2019,600,The main experiment item,yes,FlankerTask.osexp,/Users/danielrazo0311/Desktop,no,mono,no,18,no,white,no,yes,768,legacy,36,79,/Users/danielrazo0311/Desktop/DR-Subject-2.csv,legacy,Kafkaesque Koffka,3.2.8,0,h,NA,h,s,NA,h,NA,570,NA,30090,30908,NA,570,NA,2,legacy,1024,2,48000,-16,experiment,SSHSS,1,odd,45827,224315,NA,288124,273645,15506,232538,NA,289255,NA,15528,193404,NA,289368,289942,NA,289242,289368,Flanker Task,104,57657,117,yes,1024
88.98305085,88.98305085,492.2288136,492.2288136,black,legacy,legacy,legacy,0,congruent,uniform,1,undefined,1,s,0,0,0,117,117,0,117,0,117,0,0,0,0,117,117,NA,117,117,Sun Sep 29 17:49:58 2019,600,The main experiment item,yes,FlankerTask.osexp,/Users/danielrazo0311/Desktop,no,mono,no,18,no,white,no,yes,768,legacy,37,79,/Users/danielrazo0311/Desktop/DR-Subject-2.csv,legacy,Kafkaesque Koffka,3.2.8,0,s,NA,h,s,NA,s,NA,426,NA,30090,30908,NA,426,NA,2,legacy,1024,2,48000,-16,experiment,SSSSS,1,odd,45827,224315,NA,289957,273645,15506,232538,NA,291085,NA,15528,193404,NA,291199,291628,NA,291073,291199,Flanker Task,105,58083,118,yes,1024
89.07563025,89.07563025,492.5210084,492.5210084,black,legacy,legacy,legacy,0,incongruent,uniform,1,undefined,1,s,0,0,0,118,118,0,118,0,118,0,0,0,0,118,118,NA,118,118,Sun Sep 29 17:49:58 2019,600,The main experiment item,yes,FlankerTask.osexp,/Users/danielrazo0311/Desktop,no,mono,no,18,no,white,no,yes,768,legacy,38,79,/Users/danielrazo0311/Desktop/DR-Subject-2.csv,legacy,Kafkaesque Koffka,3.2.8,0,s,NA,h,s,NA,s,NA,527,NA,30090,30908,NA,527,NA,2,legacy,1024,2,48000,-16,experiment,HHSHH,1,odd,45827,224315,NA,291644,273645,15506,232538,NA,292777,NA,15528,193404,NA,292890,293422,NA,292764,292890,Flanker Task,106,58610,119,yes,1024
89.16666667,89.16666667,492.9416667,492.9416667,black,legacy,legacy,legacy,0,incongruent,uniform,1,undefined,1,h,0,0,0,119,119,0,119,0,119,0,0,0,0,119,119,NA,119,119,Sun Sep 29 17:49:58 2019,600,The main experiment item,yes,FlankerTask.osexp,/Users/danielrazo0311/Desktop,no,mono,no,18,no,white,no,yes,768,legacy,39,79,/Users/danielrazo0311/Desktop/DR-Subject-2.csv,legacy,Kafkaesque Koffka,3.2.8,0,h,NA,h,s,NA,h,NA,543,NA,30090,30908,NA,543,NA,2,legacy,1024,2,48000,-16,experiment,SSHSS,1,odd,45827,224315,NA,293438,273645,15506,232538,NA,294568,NA,15528,193404,NA,294682,295228,NA,294556,294682,Flanker Task,107,59153,120,yes,1024
89.25619835,89.25619835,493.1652893,493.1652893,black,legacy,legacy,legacy,0,incongruent,uniform,1,undefined,1,h,0,0,0,120,120,0,120,0,120,0,0,0,0,120,120,NA,120,120,Sun Sep 29 17:49:58 2019,600,The main experiment item,yes,FlankerTask.osexp,/Users/danielrazo0311/Desktop,no,mono,no,18,no,white,no,yes,768,legacy,40,79,/Users/danielrazo0311/Desktop/DR-Subject-2.csv,legacy,Kafkaesque Koffka,3.2.8,0,h,NA,h,s,NA,h,NA,520,NA,30090,30908,NA,520,NA,2,legacy,1024,2,48000,-16,experiment,SSHSS,1,odd,45827,224315,NA,295251,273645,15506,232538,NA,296383,NA,15528,193404,NA,296497,297021,NA,296371,296497,Flanker Task,108,59673,121,yes,1024
89.3442623,89.3442623,493.5327869,493.5327869,black,legacy,legacy,legacy,0,incongruent,uniform,1,undefined,1,s,0,0,0,121,121,0,121,0,121,0,0,0,0,121,121,NA,121,121,Sun Sep 29 17:49:58 2019,600,The main experiment item,yes,FlankerTask.osexp,/Users/danielrazo0311/Desktop,no,mono,no,18,no,white,no,yes,768,legacy,41,79,/Users/danielrazo0311/Desktop/DR-Subject-2.csv,legacy,Kafkaesque Koffka,3.2.8,0,s,NA,h,s,NA,s,NA,538,NA,30090,30908,NA,538,NA,2,legacy,1024,2,48000,-16,experiment,HHSHH,1,odd,45827,224315,NA,297036,273645,15506,232538,NA,298166,NA,15528,193404,NA,298280,298822,NA,298153,298279,Flanker Task,109,60211,122,yes,1024
89.43089431,89.43089431,493.2926829,493.2926829,black,legacy,legacy,legacy,0,incongruent,uniform,1,undefined,1,s,0,0,0,122,122,0,122,0,122,0,0,0,0,122,122,NA,122,122,Sun Sep 29 17:49:58 2019,600,The main experiment item,yes,FlankerTask.osexp,/Users/danielrazo0311/Desktop,no,mono,no,18,no,white,no,yes,768,legacy,42,79,/Users/danielrazo0311/Desktop/DR-Subject-2.csv,legacy,Kafkaesque Koffka,3.2.8,0,s,NA,h,s,NA,s,NA,464,NA,30090,30908,NA,464,NA,2,legacy,1024,2,48000,-16,experiment,HHSHH,1,odd,45827,224315,NA,298837,273645,15506,232538,NA,299967,NA,15528,193404,NA,300081,300549,NA,299955,300080,Flanker Task,110,60675,123,yes,1024
89.51612903,89.51612903,492.9919355,492.9919355,black,legacy,legacy,legacy,0,incongruent,uniform,1,undefined,1,s,0,0,0,123,123,0,123,0,123,0,0,0,0,123,123,NA,123,123,Sun Sep 29 17:49:58 2019,600,The main experiment item,yes,FlankerTask.osexp,/Users/danielrazo0311/Desktop,no,mono,no,18,no,white,no,yes,768,legacy,43,79,/Users/danielrazo0311/Desktop/DR-Subject-2.csv,legacy,Kafkaesque Koffka,3.2.8,0,s,NA,h,s,NA,s,NA,456,NA,30090,30908,NA,456,NA,2,legacy,1024,2,48000,-16,experiment,HHSHH,1,odd,45827,224315,NA,300564,273645,15506,232538,NA,301696,NA,15528,193404,NA,301809,302269,NA,301684,301809,Flanker Task,111,61131,124,yes,1024
89.6,89.6,493.336,493.336,black,legacy,legacy,legacy,0,incongruent,uniform,1,undefined,1,h,0,0,0,124,124,0,124,0,124,0,0,0,0,124,124,NA,124,124,Sun Sep 29 17:49:58 2019,600,The main experiment item,yes,FlankerTask.osexp,/Users/danielrazo0311/Desktop,no,mono,no,18,no,white,no,yes,768,legacy,44,79,/Users/danielrazo0311/Desktop/DR-Subject-2.csv,legacy,Kafkaesque Koffka,3.2.8,0,h,NA,h,s,NA,h,NA,536,NA,30090,30908,NA,536,NA,2,legacy,1024,2,48000,-16,experiment,SSHSS,1,odd,45827,224315,NA,302284,273645,15506,232538,NA,303415,NA,15528,193404,NA,303529,304069,NA,303402,303529,Flanker Task,112,61667,125,yes,1024
89.68253968,89.68253968,493.3333333,493.3333333,black,legacy,legacy,legacy,0,congruent,uniform,1,undefined,1,h,0,0,0,125,125,0,125,0,125,0,0,0,0,125,125,NA,125,125,Sun Sep 29 17:49:58 2019,600,The main experiment item,yes,FlankerTask.osexp,/Users/danielrazo0311/Desktop,no,mono,no,18,no,white,no,yes,768,legacy,45,79,/Users/danielrazo0311/Desktop/DR-Subject-2.csv,legacy,Kafkaesque Koffka,3.2.8,0,h,NA,h,s,NA,h,NA,493,NA,30090,30908,NA,493,NA,2,legacy,1024,2,48000,-16,experiment,HHHHH,1,odd,45827,224315,NA,304142,273645,15506,232538,NA,305274,NA,15528,193404,NA,305389,305886,NA,305262,305388,Flanker Task,113,62160,126,yes,1024
89.76377953,89.76377953,492.9055118,492.9055118,black,legacy,legacy,legacy,0,congruent,uniform,1,undefined,1,s,0,0,0,126,126,0,126,0,126,0,0,0,0,126,126,NA,126,126,Sun Sep 29 17:49:58 2019,600,The main experiment item,yes,FlankerTask.osexp,/Users/danielrazo0311/Desktop,no,mono,no,18,no,white,no,yes,768,legacy,46,79,/Users/danielrazo0311/Desktop/DR-Subject-2.csv,legacy,Kafkaesque Koffka,3.2.8,0,s,NA,h,s,NA,s,NA,439,NA,30090,30908,NA,439,NA,2,legacy,1024,2,48000,-16,experiment,SSSSS,1,odd,45827,224315,NA,305910,273645,15506,232538,NA,307039,NA,15528,193404,NA,307154,307597,NA,307027,307153,Flanker Task,114,62599,127,yes,1024
89.84375,89.84375,493.0546875,493.0546875,black,legacy,legacy,legacy,0,congruent,uniform,1,undefined,1,h,0,0,0,127,127,0,127,0,127,0,0,0,0,127,127,NA,127,127,Sun Sep 29 17:49:58 2019,600,The main experiment item,yes,FlankerTask.osexp,/Users/danielrazo0311/Desktop,no,mono,no,18,no,white,no,yes,768,legacy,47,79,/Users/danielrazo0311/Desktop/DR-Subject-2.csv,legacy,Kafkaesque Koffka,3.2.8,0,h,NA,h,s,NA,h,NA,512,NA,30090,30908,NA,512,NA,2,legacy,1024,2,48000,-16,experiment,HHHHH,1,odd,45827,224315,NA,307649,273645,15506,232538,NA,308790,NA,15528,193404,NA,308905,309421,NA,308778,308904,Flanker Task,115,63111,128,yes,1024
89.92248062,89.92248062,493.2713178,493.2713178,black,legacy,legacy,legacy,0,congruent,uniform,1,undefined,1,s,0,0,0,128,128,0,128,0,128,0,0,0,0,128,128,NA,128,128,Sun Sep 29 17:49:58 2019,600,The main experiment item,yes,FlankerTask.osexp,/Users/danielrazo0311/Desktop,no,mono,no,18,no,white,no,yes,768,legacy,48,79,/Users/danielrazo0311/Desktop/DR-Subject-2.csv,legacy,Kafkaesque Koffka,3.2.8,0,s,NA,h,s,NA,s,NA,521,NA,30090,30908,NA,521,NA,2,legacy,1024,2,48000,-16,experiment,SSSSS,1,odd,45827,224315,NA,309460,273645,15506,232538,NA,310591,NA,15528,193404,NA,310704,311229,NA,310578,310704,Flanker Task,116,63632,129,yes,1024
90,90,492.8615385,492.8615385,black,legacy,legacy,legacy,0,congruent,uniform,1,undefined,1,s,0,0,0,129,129,0,129,0,129,0,0,0,0,129,129,NA,129,129,Sun Sep 29 17:49:58 2019,600,The main experiment item,yes,FlankerTask.osexp,/Users/danielrazo0311/Desktop,no,mono,no,18,no,white,no,yes,768,legacy,49,79,/Users/danielrazo0311/Desktop/DR-Subject-2.csv,legacy,Kafkaesque Koffka,3.2.8,0,s,NA,h,s,NA,s,NA,440,NA,30090,30908,NA,440,NA,2,legacy,1024,2,48000,-16,experiment,SSSSS,1,odd,45827,224315,NA,311244,273645,15506,232538,NA,312375,NA,15528,193404,NA,312490,312934,NA,312363,312490,Flanker Task,117,64072,130,yes,1024
90.07633588,90.07633588,492.8244275,492.8244275,black,legacy,legacy,legacy,0,congruent,uniform,1,undefined,1,h,0,0,0,130,130,0,130,0,130,0,0,0,0,130,130,NA,130,130,Sun Sep 29 17:49:58 2019,600,The main experiment item,yes,FlankerTask.osexp,/Users/danielrazo0311/Desktop,no,mono,no,18,no,white,no,yes,768,legacy,50,79,/Users/danielrazo0311/Desktop/DR-Subject-2.csv,legacy,Kafkaesque Koffka,3.2.8,0,h,NA,h,s,NA,h,NA,488,NA,30090,30908,NA,488,NA,2,legacy,1024,2,48000,-16,experiment,HHHHH,1,odd,45827,224315,NA,312949,273645,15506,232538,NA,314080,NA,15528,193404,NA,314194,314685,NA,314068,314194,Flanker Task,118,64560,131,yes,1024
90.15151515,90.15151515,492.3181818,492.3181818,black,legacy,legacy,legacy,0,congruent,uniform,1,undefined,1,s,0,0,0,131,131,0,131,0,131,0,0,0,0,131,131,NA,131,131,Sun Sep 29 17:49:58 2019,600,The main experiment item,yes,FlankerTask.osexp,/Users/danielrazo0311/Desktop,no,mono,no,18,no,white,no,yes,768,legacy,51,79,/Users/danielrazo0311/Desktop/DR-Subject-2.csv,legacy,Kafkaesque Koffka,3.2.8,0,s,NA,h,s,NA,s,NA,426,NA,30090,30908,NA,426,NA,2,legacy,1024,2,48000,-16,experiment,SSSSS,1,odd,45827,224315,NA,314700,273645,15506,232538,NA,315831,NA,15528,193404,NA,315943,316373,NA,315819,315943,Flanker Task,119,64986,132,yes,1024
90.22556391,90.22556391,492.1804511,492.1804511,black,legacy,legacy,legacy,0,incongruent,uniform,1,undefined,1,h,0,0,0,132,132,0,132,0,132,0,0,0,0,132,132,NA,132,132,Sun Sep 29 17:49:58 2019,600,The main experiment item,yes,FlankerTask.osexp,/Users/danielrazo0311/Desktop,no,mono,no,18,no,white,no,yes,768,legacy,52,79,/Users/danielrazo0311/Desktop/DR-Subject-2.csv,legacy,Kafkaesque Koffka,3.2.8,0,h,NA,h,s,NA,h,NA,474,NA,30090,30908,NA,474,NA,2,legacy,1024,2,48000,-16,experiment,SSHSS,1,odd,45827,224315,NA,316388,273645,15506,232538,NA,317520,NA,15528,193404,NA,317632,318109,NA,317507,317632,Flanker Task,120,65460,133,yes,1024
90.29850746,90.29850746,492.261194,492.261194,black,legacy,legacy,legacy,0,congruent,uniform,1,undefined,1,h,0,0,0,133,133,0,133,0,133,0,0,0,0,133,133,NA,133,133,Sun Sep 29 17:49:58 2019,600,The main experiment item,yes,FlankerTask.osexp,/Users/danielrazo0311/Desktop,no,mono,no,18,no,white,no,yes,768,legacy,53,79,/Users/danielrazo0311/Desktop/DR-Subject-2.csv,legacy,Kafkaesque Koffka,3.2.8,0,h,NA,h,s,NA,h,NA,503,NA,30090,30908,NA,503,NA,2,legacy,1024,2,48000,-16,experiment,HHHHH,1,odd,45827,224315,NA,318151,273645,15506,232538,NA,319283,NA,15528,193404,NA,319396,319902,NA,319270,319396,Flanker Task,121,65963,134,yes,1024
89.62962963,89.62962963,491.2148148,491.2148148,black,legacy,legacy,legacy,0,incongruent,uniform,0,undefined,0,h,0,0,0,134,134,0,134,0,134,0,0,0,0,134,134,NA,134,134,Sun Sep 29 17:49:58 2019,600,The main experiment item,yes,FlankerTask.osexp,/Users/danielrazo0311/Desktop,no,mono,no,18,no,white,no,yes,768,legacy,54,79,/Users/danielrazo0311/Desktop/DR-Subject-2.csv,legacy,Kafkaesque Koffka,3.2.8,0,s,NA,h,s,NA,s,NA,351,NA,30090,30908,NA,351,NA,2,legacy,1024,2,48000,-16,experiment,SSHSS,1,odd,45827,224315,NA,319917,273645,15506,232538,NA,321049,NA,15528,193404,NA,321163,321517,NA,321037,321162,Flanker Task,121,66314,135,yes,1024
89.70588235,89.70588235,492.2647059,492.2647059,black,legacy,legacy,legacy,0,incongruent,uniform,1,undefined,1,s,0,0,0,135,135,0,135,0,135,0,0,0,0,135,135,NA,135,135,Sun Sep 29 17:49:58 2019,600,The main experiment item,yes,FlankerTask.osexp,/Users/danielrazo0311/Desktop,no,mono,no,18,no,white,no,yes,768,legacy,55,79,/Users/danielrazo0311/Desktop/DR-Subject-2.csv,legacy,Kafkaesque Koffka,3.2.8,0,s,NA,h,s,NA,s,NA,634,NA,30090,30908,NA,634,NA,2,legacy,1024,2,48000,-16,experiment,HHSHH,1,odd,45827,224315,NA,322045,321532,15506,232538,NA,323176,NA,15528,193404,NA,323289,323926,NA,323164,323289,Flanker Task,122,66948,136,yes,1024
89.7810219,89.7810219,491.7956204,491.7956204,black,legacy,legacy,legacy,0,congruent,uniform,1,undefined,1,h,0,0,0,136,136,0,136,0,136,0,0,0,0,136,136,NA,136,136,Sun Sep 29 17:49:58 2019,600,The main experiment item,yes,FlankerTask.osexp,/Users/danielrazo0311/Desktop,no,mono,no,18,no,white,no,yes,768,legacy,56,79,/Users/danielrazo0311/Desktop/DR-Subject-2.csv,legacy,Kafkaesque Koffka,3.2.8,0,h,NA,h,s,NA,h,NA,428,NA,30090,30908,NA,428,NA,2,legacy,1024,2,48000,-16,experiment,HHHHH,1,odd,45827,224315,NA,324456,321532,15506,323942,NA,325587,NA,15528,193404,NA,325702,326133,NA,325574,325702,Flanker Task,123,67376,137,yes,1024
89.85507246,89.85507246,492.2391304,492.2391304,black,legacy,legacy,legacy,0,incongruent,uniform,1,undefined,1,h,0,0,0,137,137,0,137,0,137,0,0,0,0,137,137,NA,137,137,Sun Sep 29 17:49:58 2019,600,The main experiment item,yes,FlankerTask.osexp,/Users/danielrazo0311/Desktop,no,mono,no,18,no,white,no,yes,768,legacy,57,79,/Users/danielrazo0311/Desktop/DR-Subject-2.csv,legacy,Kafkaesque Koffka,3.2.8,0,h,NA,h,s,NA,h,NA,553,NA,30090,30908,NA,553,NA,2,legacy,1024,2,48000,-16,experiment,SSHSS,1,odd,45827,224315,NA,326148,321532,15506,323942,NA,327281,NA,15528,193404,NA,327394,327951,NA,327268,327394,Flanker Task,124,67929,138,yes,1024
89.92805755,89.92805755,491.4532374,491.4532374,black,legacy,legacy,legacy,0,congruent,uniform,1,undefined,1,h,0,0,0,138,138,0,138,0,138,0,0,0,0,138,138,NA,138,138,Sun Sep 29 17:49:58 2019,600,The main experiment item,yes,FlankerTask.osexp,/Users/danielrazo0311/Desktop,no,mono,no,18,no,white,no,yes,768,legacy,58,79,/Users/danielrazo0311/Desktop/DR-Subject-2.csv,legacy,Kafkaesque Koffka,3.2.8,0,h,NA,h,s,NA,h,NA,383,NA,30090,30908,NA,383,NA,2,legacy,1024,2,48000,-16,experiment,HHHHH,1,odd,45827,224315,NA,327966,321532,15506,323942,NA,329096,NA,15528,193404,NA,329211,329597,NA,329084,329210,Flanker Task,125,68312,139,yes,1024
90,90,490.6642857,490.6642857,black,legacy,legacy,legacy,0,congruent,uniform,1,undefined,1,h,0,0,0,139,139,0,139,0,139,0,0,0,0,139,139,NA,139,139,Sun Sep 29 17:49:58 2019,600,The main experiment item,yes,FlankerTask.osexp,/Users/danielrazo0311/Desktop,no,mono,no,18,no,white,no,yes,768,legacy,59,79,/Users/danielrazo0311/Desktop/DR-Subject-2.csv,legacy,Kafkaesque Koffka,3.2.8,0,h,NA,h,s,NA,h,NA,381,NA,30090,30908,NA,381,NA,2,legacy,1024,2,48000,-16,experiment,HHHHH,1,odd,45827,224315,NA,329613,321532,15506,323942,NA,330749,NA,15528,193404,NA,330861,331246,NA,330736,330861,Flanker Task,126,68693,140,yes,1024
90.07092199,90.07092199,491.4964539,491.4964539,black,legacy,legacy,legacy,0,incongruent,uniform,1,undefined,1,h,0,0,0,140,140,0,140,0,140,0,0,0,0,140,140,NA,140,140,Sun Sep 29 17:49:58 2019,600,The main experiment item,yes,FlankerTask.osexp,/Users/danielrazo0311/Desktop,no,mono,no,18,no,white,no,yes,768,legacy,60,79,/Users/danielrazo0311/Desktop/DR-Subject-2.csv,legacy,Kafkaesque Koffka,3.2.8,0,h,NA,h,s,NA,h,NA,608,NA,30090,30908,NA,608,NA,2,legacy,1024,2,48000,-16,experiment,SSHSS,1,odd,45827,224315,NA,331261,321532,15506,323942,NA,332391,NA,15528,193404,NA,332506,333118,NA,332379,332505,Flanker Task,127,69301,141,yes,1024
90.14084507,90.14084507,491.471831,491.471831,black,legacy,legacy,legacy,0,congruent,uniform,1,undefined,1,s,0,0,0,141,141,0,141,0,141,0,0,0,0,141,141,NA,141,141,Sun Sep 29 17:49:58 2019,600,The main experiment item,yes,FlankerTask.osexp,/Users/danielrazo0311/Desktop,no,mono,no,18,no,white,no,yes,768,legacy,61,79,/Users/danielrazo0311/Desktop/DR-Subject-2.csv,legacy,Kafkaesque Koffka,3.2.8,0,s,NA,h,s,NA,s,NA,488,NA,30090,30908,NA,488,NA,2,legacy,1024,2,48000,-16,experiment,SSSSS,1,odd,45827,224315,NA,333668,321532,15506,333156,NA,334800,NA,15528,193404,NA,334914,335406,NA,334787,334914,Flanker Task,128,69789,142,yes,1024
90.20979021,90.20979021,490.6643357,490.6643357,black,legacy,legacy,legacy,0,congruent,uniform,1,undefined,1,s,0,0,0,142,142,0,142,0,142,0,0,0,0,142,142,NA,142,142,Sun Sep 29 17:49:58 2019,600,The main experiment item,yes,FlankerTask.osexp,/Users/danielrazo0311/Desktop,no,mono,no,18,no,white,no,yes,768,legacy,62,79,/Users/danielrazo0311/Desktop/DR-Subject-2.csv,legacy,Kafkaesque Koffka,3.2.8,0,s,NA,h,s,NA,s,NA,376,NA,30090,30908,NA,376,NA,2,legacy,1024,2,48000,-16,experiment,SSSSS,1,odd,45827,224315,NA,335423,321532,15506,333156,NA,336554,NA,15528,193404,NA,336666,337046,NA,336542,336666,Flanker Task,129,70165,143,yes,1024
90.27777778,90.27777778,491.2013889,491.2013889,black,legacy,legacy,legacy,0,incongruent,uniform,1,undefined,1,h,0,0,0,143,143,0,143,0,143,0,0,0,0,143,143,NA,143,143,Sun Sep 29 17:49:58 2019,600,The main experiment item,yes,FlankerTask.osexp,/Users/danielrazo0311/Desktop,no,mono,no,18,no,white,no,yes,768,legacy,63,79,/Users/danielrazo0311/Desktop/DR-Subject-2.csv,legacy,Kafkaesque Koffka,3.2.8,0,h,NA,h,s,NA,h,NA,568,NA,30090,30908,NA,568,NA,2,legacy,1024,2,48000,-16,experiment,SSHSS,1,odd,45827,224315,NA,337061,321532,15506,333156,NA,338192,NA,15528,193404,NA,338307,338879,NA,338180,338307,Flanker Task,130,70733,144,yes,1024
89.65517241,89.65517241,491.3517241,491.3517241,black,legacy,legacy,legacy,0,incongruent,uniform,0,undefined,0,s,0,0,0,144,144,0,144,0,144,0,0,0,0,144,144,NA,144,144,Sun Sep 29 17:49:58 2019,600,The main experiment item,yes,FlankerTask.osexp,/Users/danielrazo0311/Desktop,no,mono,no,18,no,white,no,yes,768,legacy,64,79,/Users/danielrazo0311/Desktop/DR-Subject-2.csv,legacy,Kafkaesque Koffka,3.2.8,0,h,NA,h,s,NA,h,NA,513,NA,30090,30908,NA,513,NA,2,legacy,1024,2,48000,-16,experiment,HHSHH,1,odd,45827,224315,NA,338894,321532,15506,333156,NA,340024,NA,15528,193404,NA,340137,340654,NA,340012,340137,Flanker Task,130,71246,145,yes,1024
89.7260274,89.7260274,492.9315068,492.9315068,black,legacy,legacy,legacy,0,congruent,uniform,1,undefined,1,s,0,0,0,145,145,0,145,0,145,0,0,0,0,145,145,NA,145,145,Sun Sep 29 17:49:58 2019,600,The main experiment item,yes,FlankerTask.osexp,/Users/danielrazo0311/Desktop,no,mono,no,18,no,white,no,yes,768,legacy,65,79,/Users/danielrazo0311/Desktop/DR-Subject-2.csv,legacy,Kafkaesque Koffka,3.2.8,0,s,NA,h,s,NA,s,NA,722,NA,30090,30908,NA,722,NA,2,legacy,1024,2,48000,-16,experiment,SSSSS,1,odd,45827,224315,NA,341181,340669,15506,333156,NA,342311,NA,15528,193404,NA,342424,343150,NA,342299,342424,Flanker Task,131,71968,146,yes,1024
89.79591837,89.79591837,492.5170068,492.5170068,black,legacy,legacy,legacy,0,congruent,uniform,1,undefined,1,s,0,0,0,146,146,0,146,0,146,0,0,0,0,146,146,NA,146,146,Sun Sep 29 17:49:58 2019,600,The main experiment item,yes,FlankerTask.osexp,/Users/danielrazo0311/Desktop,no,mono,no,18,no,white,no,yes,768,legacy,66,79,/Users/danielrazo0311/Desktop/DR-Subject-2.csv,legacy,Kafkaesque Koffka,3.2.8,0,s,NA,h,s,NA,s,NA,432,NA,30090,30908,NA,432,NA,2,legacy,1024,2,48000,-16,experiment,SSSSS,1,odd,45827,224315,NA,343677,340669,15506,343165,NA,344807,NA,15528,193404,NA,344922,345358,NA,344795,344922,Flanker Task,132,72400,147,yes,1024
89.86486486,89.86486486,491.8445946,491.8445946,black,legacy,legacy,legacy,0,incongruent,uniform,1,undefined,1,s,0,0,0,147,147,0,147,0,147,0,0,0,0,147,147,NA,147,147,Sun Sep 29 17:49:58 2019,600,The main experiment item,yes,FlankerTask.osexp,/Users/danielrazo0311/Desktop,no,mono,no,18,no,white,no,yes,768,legacy,67,79,/Users/danielrazo0311/Desktop/DR-Subject-2.csv,legacy,Kafkaesque Koffka,3.2.8,0,s,NA,h,s,NA,s,NA,393,NA,30090,30908,NA,393,NA,2,legacy,1024,2,48000,-16,experiment,HHSHH,1,odd,45827,224315,NA,345373,340669,15506,343165,NA,346504,NA,15528,193404,NA,346617,347014,NA,346492,346617,Flanker Task,133,72793,148,yes,1024
89.93288591,89.93288591,492.0939597,492.0939597,black,legacy,legacy,legacy,0,incongruent,uniform,1,undefined,1,s,0,0,0,148,148,0,148,0,148,0,0,0,0,148,148,NA,148,148,Sun Sep 29 17:49:58 2019,600,The main experiment item,yes,FlankerTask.osexp,/Users/danielrazo0311/Desktop,no,mono,no,18,no,white,no,yes,768,legacy,68,79,/Users/danielrazo0311/Desktop/DR-Subject-2.csv,legacy,Kafkaesque Koffka,3.2.8,0,s,NA,h,s,NA,s,NA,529,NA,30090,30908,NA,529,NA,2,legacy,1024,2,48000,-16,experiment,HHSHH,1,odd,45827,224315,NA,347029,340669,15506,343165,NA,348159,NA,15528,193404,NA,348274,348807,NA,348147,348274,Flanker Task,134,73322,149,yes,1024
89.33333333,89.33333333,491.52,491.52,black,legacy,legacy,legacy,0,incongruent,uniform,0,undefined,0,s,0,0,0,149,149,0,149,0,149,0,0,0,0,149,149,NA,149,149,Sun Sep 29 17:49:58 2019,600,The main experiment item,yes,FlankerTask.osexp,/Users/danielrazo0311/Desktop,no,mono,no,18,no,white,no,yes,768,legacy,69,79,/Users/danielrazo0311/Desktop/DR-Subject-2.csv,legacy,Kafkaesque Koffka,3.2.8,0,h,NA,h,s,NA,h,NA,406,NA,30090,30908,NA,406,NA,2,legacy,1024,2,48000,-16,experiment,HHSHH,1,odd,45827,224315,NA,348822,340669,15506,343165,NA,349953,NA,15528,193404,NA,350068,350478,NA,349941,350067,Flanker Task,134,73728,150,yes,1024
89.40397351,89.40397351,491.3377483,491.3377483,black,legacy,legacy,legacy,0,congruent,uniform,1,undefined,1,h,0,0,0,150,150,0,150,0,150,0,0,0,0,150,150,NA,150,150,Sun Sep 29 17:49:58 2019,600,The main experiment item,yes,FlankerTask.osexp,/Users/danielrazo0311/Desktop,no,mono,no,18,no,white,no,yes,768,legacy,70,79,/Users/danielrazo0311/Desktop/DR-Subject-2.csv,legacy,Kafkaesque Koffka,3.2.8,0,h,NA,h,s,NA,h,NA,464,NA,30090,30908,NA,464,NA,2,legacy,1024,2,48000,-16,experiment,HHHHH,1,odd,45827,224315,NA,351006,350493,15506,343165,NA,352144,NA,15528,193404,NA,352258,352726,NA,352132,352258,Flanker Task,135,74192,151,yes,1024
89.47368421,89.47368421,492.1973684,492.1973684,black,legacy,legacy,legacy,0,incongruent,uniform,1,undefined,1,h,0,0,0,151,151,0,151,0,151,0,0,0,0,151,151,NA,151,151,Sun Sep 29 17:49:58 2019,600,The main experiment item,yes,FlankerTask.osexp,/Users/danielrazo0311/Desktop,no,mono,no,18,no,white,no,yes,768,legacy,71,79,/Users/danielrazo0311/Desktop/DR-Subject-2.csv,legacy,Kafkaesque Koffka,3.2.8,0,h,NA,h,s,NA,h,NA,622,NA,30090,30908,NA,622,NA,2,legacy,1024,2,48000,-16,experiment,SSHSS,1,odd,45827,224315,NA,352742,350493,15506,343165,NA,353873,NA,15528,193404,NA,353988,354614,NA,353860,353988,Flanker Task,136,74814,152,yes,1024
89.54248366,89.54248366,491.8496732,491.8496732,black,legacy,legacy,legacy,0,congruent,uniform,1,undefined,1,s,0,0,0,152,152,0,152,0,152,0,0,0,0,152,152,NA,152,152,Sun Sep 29 17:49:58 2019,600,The main experiment item,yes,FlankerTask.osexp,/Users/danielrazo0311/Desktop,no,mono,no,18,no,white,no,yes,768,legacy,72,79,/Users/danielrazo0311/Desktop/DR-Subject-2.csv,legacy,Kafkaesque Koffka,3.2.8,0,s,NA,h,s,NA,s,NA,439,NA,30090,30908,NA,439,NA,2,legacy,1024,2,48000,-16,experiment,SSSSS,1,odd,45827,224315,NA,355143,350493,15506,354629,NA,356273,NA,15528,193404,NA,356388,356831,NA,356261,356387,Flanker Task,137,75253,153,yes,1024
89.61038961,89.61038961,491.3051948,491.3051948,black,legacy,legacy,legacy,0,incongruent,uniform,1,undefined,1,h,0,0,0,153,153,0,153,0,153,0,0,0,0,153,153,NA,153,153,Sun Sep 29 17:49:58 2019,600,The main experiment item,yes,FlankerTask.osexp,/Users/danielrazo0311/Desktop,no,mono,no,18,no,white,no,yes,768,legacy,73,79,/Users/danielrazo0311/Desktop/DR-Subject-2.csv,legacy,Kafkaesque Koffka,3.2.8,0,h,NA,h,s,NA,h,NA,408,NA,30090,30908,NA,408,NA,2,legacy,1024,2,48000,-16,experiment,SSHSS,1,odd,45827,224315,NA,356847,350493,15506,354629,NA,357978,NA,15528,193404,NA,358091,358503,NA,357965,358091,Flanker Task,138,75661,154,yes,1024
89.03225806,89.03225806,491.2322581,491.2322581,black,legacy,legacy,legacy,0,incongruent,uniform,0,undefined,0,s,0,0,0,154,154,0,154,0,154,0,0,0,0,154,154,NA,154,154,Sun Sep 29 17:49:58 2019,600,The main experiment item,yes,FlankerTask.osexp,/Users/danielrazo0311/Desktop,no,mono,no,18,no,white,no,yes,768,legacy,74,79,/Users/danielrazo0311/Desktop/DR-Subject-2.csv,legacy,Kafkaesque Koffka,3.2.8,0,h,NA,h,s,NA,h,NA,480,NA,30090,30908,NA,480,NA,2,legacy,1024,2,48000,-16,experiment,HHSHH,1,odd,45827,224315,NA,358518,350493,15506,354629,NA,359656,NA,15528,193404,NA,359770,360254,NA,359643,359770,Flanker Task,138,76141,155,yes,1024
89.1025641,89.1025641,491.4487179,491.4487179,black,legacy,legacy,legacy,0,incongruent,uniform,1,undefined,1,s,0,0,0,155,155,0,155,0,155,0,0,0,0,155,155,NA,155,155,Sun Sep 29 17:49:58 2019,600,The main experiment item,yes,FlankerTask.osexp,/Users/danielrazo0311/Desktop,no,mono,no,18,no,white,no,yes,768,legacy,75,79,/Users/danielrazo0311/Desktop/DR-Subject-2.csv,legacy,Kafkaesque Koffka,3.2.8,0,s,NA,h,s,NA,s,NA,525,NA,30090,30908,NA,525,NA,2,legacy,1024,2,48000,-16,experiment,HHSHH,1,odd,45827,224315,NA,360784,360269,15506,354629,NA,361915,NA,15528,193404,NA,362029,362558,NA,361903,362029,Flanker Task,139,76666,156,yes,1024
89.17197452,89.17197452,491.3184713,491.3184713,black,legacy,legacy,legacy,0,incongruent,uniform,1,undefined,1,s,0,0,0,156,156,0,156,0,156,0,0,0,0,156,156,NA,156,156,Sun Sep 29 17:49:58 2019,600,The main experiment item,yes,FlankerTask.osexp,/Users/danielrazo0311/Desktop,no,mono,no,18,no,white,no,yes,768,legacy,76,79,/Users/danielrazo0311/Desktop/DR-Subject-2.csv,legacy,Kafkaesque Koffka,3.2.8,0,s,NA,h,s,NA,s,NA,471,NA,30090,30908,NA,471,NA,2,legacy,1024,2,48000,-16,experiment,HHSHH,1,odd,45827,224315,NA,362574,360269,15506,354629,NA,363705,NA,15528,193404,NA,363820,364294,NA,363693,363820,Flanker Task,140,77137,157,yes,1024
89.24050633,89.24050633,491.4936709,491.4936709,black,legacy,legacy,legacy,0,congruent,uniform,1,undefined,1,h,0,0,0,157,157,0,157,0,157,0,0,0,0,157,157,NA,157,157,Sun Sep 29 17:49:58 2019,600,The main experiment item,yes,FlankerTask.osexp,/Users/danielrazo0311/Desktop,no,mono,no,18,no,white,no,yes,768,legacy,77,79,/Users/danielrazo0311/Desktop/DR-Subject-2.csv,legacy,Kafkaesque Koffka,3.2.8,0,h,NA,h,s,NA,h,NA,519,NA,30090,30908,NA,519,NA,2,legacy,1024,2,48000,-16,experiment,HHHHH,1,odd,45827,224315,NA,364312,360269,15506,354629,NA,365444,NA,15528,193404,NA,365556,366079,NA,365431,365556,Flanker Task,141,77656,158,yes,1024
89.3081761,89.3081761,491.4591195,491.4591195,black,legacy,legacy,legacy,0,congruent,uniform,1,undefined,1,s,0,0,0,158,158,0,158,0,158,0,0,0,0,158,158,NA,158,158,Sun Sep 29 17:49:58 2019,600,The main experiment item,yes,FlankerTask.osexp,/Users/danielrazo0311/Desktop,no,mono,no,18,no,white,no,yes,768,legacy,78,79,/Users/danielrazo0311/Desktop/DR-Subject-2.csv,legacy,Kafkaesque Koffka,3.2.8,0,s,NA,h,s,NA,s,NA,486,NA,30090,30908,NA,486,NA,2,legacy,1024,2,48000,-16,experiment,SSSSS,1,odd,45827,224315,NA,366106,360269,15506,354629,NA,367237,NA,15528,193404,NA,367350,367840,NA,367224,367350,Flanker Task,142,78142,159,yes,1024
89.375,89.375,490.94375,490.94375,black,legacy,legacy,legacy,0,congruent,uniform,1,undefined,1,s,0,0,0,159,159,0,159,0,159,0,0,0,0,159,159,NA,159,159,Sun Sep 29 17:49:58 2019,600,The main experiment item,yes,FlankerTask.osexp,/Users/danielrazo0311/Desktop,no,mono,no,18,no,white,no,yes,768,legacy,79,79,/Users/danielrazo0311/Desktop/DR-Subject-2.csv,legacy,Kafkaesque Koffka,3.2.8,0,s,NA,h,s,NA,s,NA,409,NA,30090,30908,NA,409,NA,2,legacy,1024,2,48000,-16,experiment,SSSSS,1,odd,45827,224315,NA,367862,360269,15506,354629,NA,368991,NA,15528,193404,NA,369106,369519,NA,368979,369106,Flanker Task,143,78551,160,yes,1024
