"acc","accuracy","average_response_time","avg_rt","background","canvas_backend","clock_backend","color_backend","compensation","condition","coordinates","correct","correct_instructions1","correct_keyboard_response","correct_response","count_ISI","count_block1","count_block2","count_block3","count_errorFeedback","count_experiment","count_faster","count_finish","count_fixation","count_instructions1","count_instructions2","count_instructions3","count_keyboard_response","count_logger","count_sequence","count_stimulus","datetime","deadline","description","disable_garbage_collection","experiment_file","experiment_path","font_bold","font_family","font_italic","font_size","font_underline","foreground","form_clicks","fullscreen","height","keyboard_backend","live_row","live_row_block1","logfile","mouse_backend","opensesame_codename","opensesame_version","repeat_cycle","response","response_finish","response_instructions1","response_instructions2","response_instructions3","response_keyboard_response","response_time","response_time_finish","response_time_instructions1","response_time_instructions2","response_time_instructions3","response_time_keyboard_response","round_decimals","sampler_backend","sound_buf_size","sound_channels","sound_freq","sound_sample_size","start","stimulus","subject_nr","subject_parity","time_ISI","time_block1","time_block2","time_block3","time_errorFeedback","time_experiment","time_faster","time_finish","time_fixation","time_instructions1","time_instructions2","time_instructions3","time_keyboard_response","time_logger","time_sequence","time_stimulus","title","total_correct","total_response_time","total_responses","uniform_coordinates","width"
"100","100","513","513","black","legacy","legacy","legacy","0","congruent","uniform","1","undefined","1","h","0","0","0","0","0","0","0","0","0","0","0","0","0","0","0","0","09/25/22 18:58:48","1500","The main experiment item","yes","FlankerTask.osexp","C:\Users\casme\OneDrive\Desktop\Fall 2022","no","mono","no","18","no","white","no","yes","768","legacy","0","0","C:/Users/casme/OneDrive/Desktop/Fall 2022/IC-subject-3.csv","legacy","Lentiform Loewenfeld","3.3.12","0","h","NA","h","NA","NA","h","513","NA","71809","NA","NA","513","2","legacy","1024","2","48000","-16","experiment","HHHHH","3","odd","NA","74328","NA","NA","NA","2471","NA","NA","74398","2518","NA","NA","74501","75015","74396","74500","Flanker Task","1","513","1","yes","1024"
"100","100","537","537","black","legacy","legacy","legacy","0","incongruent","uniform","1","undefined","1","s","1","0","0","0","1","0","1","0","1","0","0","0","1","1","1","1","09/25/22 18:58:48","1500","The main experiment item","yes","FlankerTask.osexp","C:\Users\casme\OneDrive\Desktop\Fall 2022","no","mono","no","18","no","white","no","yes","768","legacy","1","1","C:/Users/casme/OneDrive/Desktop/Fall 2022/IC-subject-3.csv","legacy","Lentiform Loewenfeld","3.3.12","0","s","NA","h","NA","NA","s","561","NA","71809","NA","NA","561","2","legacy","1024","2","48000","-16","experiment","HHSHH","3","odd","75027","74328","NA","NA","NA","2471","NA","NA","76092","2518","NA","NA","76195","76756","76090","76194","Flanker Task","2","1074","2","yes","1024"
"100","100","575.333333333","575.333333333","black","legacy","legacy","legacy","0","congruent","uniform","1","undefined","1","h","2","0","0","0","2","0","2","0","2","0","0","0","2","2","2","2","09/25/22 18:58:48","1500","The main experiment item","yes","FlankerTask.osexp","C:\Users\casme\OneDrive\Desktop\Fall 2022","no","mono","no","18","no","white","no","yes","768","legacy","2","2","C:/Users/casme/OneDrive/Desktop/Fall 2022/IC-subject-3.csv","legacy","Lentiform Loewenfeld","3.3.12","0","h","NA","h","NA","NA","h","652","NA","71809","NA","NA","652","2","legacy","1024","2","48000","-16","experiment","HHHHH","3","odd","76763","74328","NA","NA","NA","2471","NA","NA","77821","2518","NA","NA","77922","78574","77819","77922","Flanker Task","3","1726","3","yes","1024"
"100","100","536.25","536.25","black","legacy","legacy","legacy","0","congruent","uniform","1","undefined","1","h","3","0","0","0","3","0","3","0","3","0","0","0","3","3","3","3","09/25/22 18:58:48","1500","The main experiment item","yes","FlankerTask.osexp","C:\Users\casme\OneDrive\Desktop\Fall 2022","no","mono","no","18","no","white","no","yes","768","legacy","3","3","C:/Users/casme/OneDrive/Desktop/Fall 2022/IC-subject-3.csv","legacy","Lentiform Loewenfeld","3.3.12","0","h","NA","h","NA","NA","h","419","NA","71809","NA","NA","419","2","legacy","1024","2","48000","-16","experiment","HHHHH","3","odd","78580","74328","NA","NA","NA","2471","NA","NA","79632","2518","NA","NA","79733","80153","79630","79733","Flanker Task","4","2145","4","yes","1024"
"100","100","529.8","529.8","black","legacy","legacy","legacy","0","incongruent","uniform","1","undefined","1","s","4","0","0","0","4","0","4","0","4","0","0","0","4","4","4","4","09/25/22 18:58:48","1500","The main experiment item","yes","FlankerTask.osexp","C:\Users\casme\OneDrive\Desktop\Fall 2022","no","mono","no","18","no","white","no","yes","768","legacy","4","4","C:/Users/casme/OneDrive/Desktop/Fall 2022/IC-subject-3.csv","legacy","Lentiform Loewenfeld","3.3.12","0","s","NA","h","NA","NA","s","504","NA","71809","NA","NA","504","2","legacy","1024","2","48000","-16","experiment","HHSHH","3","odd","80159","74328","NA","NA","NA","2471","NA","NA","81215","2518","NA","NA","81316","81820","81213","81316","Flanker Task","5","2649","5","yes","1024"
"100","100","542.333333333","542.333333333","black","legacy","legacy","legacy","0","incongruent","uniform","1","undefined","1","s","5","0","0","0","5","0","5","0","5","0","0","0","5","5","5","5","09/25/22 18:58:48","1500","The main experiment item","yes","FlankerTask.osexp","C:\Users\casme\OneDrive\Desktop\Fall 2022","no","mono","no","18","no","white","no","yes","768","legacy","5","5","C:/Users/casme/OneDrive/Desktop/Fall 2022/IC-subject-3.csv","legacy","Lentiform Loewenfeld","3.3.12","0","s","NA","h","NA","NA","s","605","NA","71809","NA","NA","605","2","legacy","1024","2","48000","-16","experiment","HHSHH","3","odd","81827","74328","NA","NA","NA","2471","NA","NA","82886","2518","NA","NA","82987","83593","82883","82987","Flanker Task","6","3254","6","yes","1024"
"100","100","541.857142857","541.857142857","black","legacy","legacy","legacy","0","incongruent","uniform","1","undefined","1","h","6","0","0","0","6","0","6","0","6","0","0","0","6","6","6","6","09/25/22 18:58:48","1500","The main experiment item","yes","FlankerTask.osexp","C:\Users\casme\OneDrive\Desktop\Fall 2022","no","mono","no","18","no","white","no","yes","768","legacy","6","6","C:/Users/casme/OneDrive/Desktop/Fall 2022/IC-subject-3.csv","legacy","Lentiform Loewenfeld","3.3.12","0","h","NA","h","NA","NA","h","539","NA","71809","NA","NA","539","2","legacy","1024","2","48000","-16","experiment","SSHSS","3","odd","83599","74328","NA","NA","NA","2471","NA","NA","84658","2518","NA","NA","84759","85298","84656","84759","Flanker Task","7","3793","7","yes","1024"
"100","100","535.5","535.5","black","legacy","legacy","legacy","0","incongruent","uniform","1","undefined","1","s","7","0","0","0","7","0","7","0","7","0","0","0","7","7","7","7","09/25/22 18:58:48","1500","The main experiment item","yes","FlankerTask.osexp","C:\Users\casme\OneDrive\Desktop\Fall 2022","no","mono","no","18","no","white","no","yes","768","legacy","7","7","C:/Users/casme/OneDrive/Desktop/Fall 2022/IC-subject-3.csv","legacy","Lentiform Loewenfeld","3.3.12","0","s","NA","h","NA","NA","s","491","NA","71809","NA","NA","491","2","legacy","1024","2","48000","-16","experiment","HHSHH","3","odd","85304","74328","NA","NA","NA","2471","NA","NA","86362","2518","NA","NA","86464","86955","86359","86464","Flanker Task","8","4284","8","yes","1024"
"100","100","540.666666667","540.666666667","black","legacy","legacy","legacy","0","incongruent","uniform","1","undefined","1","s","8","0","0","0","8","0","8","0","8","0","0","0","8","8","8","8","09/25/22 18:58:48","1500","The main experiment item","yes","FlankerTask.osexp","C:\Users\casme\OneDrive\Desktop\Fall 2022","no","mono","no","18","no","white","no","yes","768","legacy","8","8","C:/Users/casme/OneDrive/Desktop/Fall 2022/IC-subject-3.csv","legacy","Lentiform Loewenfeld","3.3.12","0","s","NA","h","NA","NA","s","582","NA","71809","NA","NA","582","2","legacy","1024","2","48000","-16","experiment","HHSHH","3","odd","86962","74328","NA","NA","NA","2471","NA","NA","88018","2518","NA","NA","88119","88702","88016","88119","Flanker Task","9","4866","9","yes","1024"
"100","100","530.9","530.9","black","legacy","legacy","legacy","0","congruent","uniform","1","undefined","1","s","9","0","0","0","9","0","9","0","9","0","0","0","9","9","9","9","09/25/22 18:58:48","1500","The main experiment item","yes","FlankerTask.osexp","C:\Users\casme\OneDrive\Desktop\Fall 2022","no","mono","no","18","no","white","no","yes","768","legacy","9","9","C:/Users/casme/OneDrive/Desktop/Fall 2022/IC-subject-3.csv","legacy","Lentiform Loewenfeld","3.3.12","0","s","NA","h","NA","NA","s","443","NA","71809","NA","NA","443","2","legacy","1024","2","48000","-16","experiment","SSSSS","3","odd","88708","74328","NA","NA","NA","2471","NA","NA","89766","2518","NA","NA","89869","90312","89764","89869","Flanker Task","10","5309","10","yes","1024"
"100","100","519.181818182","519.181818182","black","legacy","legacy","legacy","0","congruent","uniform","1","undefined","1","s","10","0","0","0","10","0","10","0","10","0","0","0","10","10","10","10","09/25/22 18:58:48","1500","The main experiment item","yes","FlankerTask.osexp","C:\Users\casme\OneDrive\Desktop\Fall 2022","no","mono","no","18","no","white","no","yes","768","legacy","10","10","C:/Users/casme/OneDrive/Desktop/Fall 2022/IC-subject-3.csv","legacy","Lentiform Loewenfeld","3.3.12","0","s","NA","h","NA","NA","s","402","NA","71809","NA","NA","402","2","legacy","1024","2","48000","-16","experiment","SSSSS","3","odd","90319","74328","NA","NA","NA","2471","NA","NA","91375","2518","NA","NA","91476","91878","91373","91476","Flanker Task","11","5711","11","yes","1024"
"100","100","505.416666667","505.416666667","black","legacy","legacy","legacy","0","congruent","uniform","1","undefined","1","s","11","0","0","0","11","0","11","0","11","0","0","0","11","11","11","11","09/25/22 18:58:48","1500","The main experiment item","yes","FlankerTask.osexp","C:\Users\casme\OneDrive\Desktop\Fall 2022","no","mono","no","18","no","white","no","yes","768","legacy","11","11","C:/Users/casme/OneDrive/Desktop/Fall 2022/IC-subject-3.csv","legacy","Lentiform Loewenfeld","3.3.12","0","s","NA","h","NA","NA","s","354","NA","71809","NA","NA","354","2","legacy","1024","2","48000","-16","experiment","SSSSS","3","odd","91885","74328","NA","NA","NA","2471","NA","NA","92943","2518","NA","NA","93044","93399","92941","93044","Flanker Task","12","6065","12","yes","1024"
"92.3076923077","92.3076923077","492.384615385","492.384615385","black","legacy","legacy","legacy","0","incongruent","uniform","0","undefined","0","h","12","0","0","0","12","0","12","0","12","0","0","0","12","12","12","12","09/25/22 18:58:48","1500","The main experiment item","yes","FlankerTask.osexp","C:\Users\casme\OneDrive\Desktop\Fall 2022","no","mono","no","18","no","white","no","yes","768","legacy","12","12","C:/Users/casme/OneDrive/Desktop/Fall 2022/IC-subject-3.csv","legacy","Lentiform Loewenfeld","3.3.12","0","s","NA","h","NA","NA","s","336","NA","71809","NA","NA","336","2","legacy","1024","2","48000","-16","experiment","SSHSS","3","odd","93405","74328","NA","NA","NA","2471","NA","NA","94463","2518","NA","NA","94566","94903","94461","94566","Flanker Task","12","6401","13","yes","1024"
"92.8571428571","92.8571428571","493.928571429","493.928571429","black","legacy","legacy","legacy","0","incongruent","uniform","1","undefined","1","s","13","0","0","0","13","0","13","0","13","0","0","0","13","13","13","13","09/25/22 18:58:48","1500","The main experiment item","yes","FlankerTask.osexp","C:\Users\casme\OneDrive\Desktop\Fall 2022","no","mono","no","18","no","white","no","yes","768","legacy","13","13","C:/Users/casme/OneDrive/Desktop/Fall 2022/IC-subject-3.csv","legacy","Lentiform Loewenfeld","3.3.12","0","s","NA","h","NA","NA","s","514","NA","71809","NA","NA","514","2","legacy","1024","2","48000","-16","experiment","HHSHH","3","odd","95411","74328","NA","NA","94909","2471","NA","NA","96466","2518","NA","NA","96568","97083","96463","96568","Flanker Task","13","6915","14","yes","1024"
"93.3333333333","93.3333333333","494.333333333","494.333333333","black","legacy","legacy","legacy","0","incongruent","uniform","1","undefined","1","h","14","0","0","0","14","0","14","0","14","0","0","0","14","14","14","14","09/25/22 18:58:48","1500","The main experiment item","yes","FlankerTask.osexp","C:\Users\casme\OneDrive\Desktop\Fall 2022","no","mono","no","18","no","white","no","yes","768","legacy","14","14","C:/Users/casme/OneDrive/Desktop/Fall 2022/IC-subject-3.csv","legacy","Lentiform Loewenfeld","3.3.12","0","h","NA","h","NA","NA","h","500","NA","71809","NA","NA","500","2","legacy","1024","2","48000","-16","experiment","SSHSS","3","odd","97089","74328","NA","NA","94909","2471","NA","NA","98142","2518","NA","NA","98244","98745","98140","98244","Flanker Task","14","7415","15","yes","1024"
"93.75","93.75","492.0625","492.0625","black","legacy","legacy","legacy","0","congruent","uniform","1","undefined","1","h","15","0","0","0","15","0","15","0","15","0","0","0","15","15","15","15","09/25/22 18:58:48","1500","The main experiment item","yes","FlankerTask.osexp","C:\Users\casme\OneDrive\Desktop\Fall 2022","no","mono","no","18","no","white","no","yes","768","legacy","15","15","C:/Users/casme/OneDrive/Desktop/Fall 2022/IC-subject-3.csv","legacy","Lentiform Loewenfeld","3.3.12","0","h","NA","h","NA","NA","h","458","NA","71809","NA","NA","458","2","legacy","1024","2","48000","-16","experiment","HHHHH","3","odd","98751","74328","NA","NA","94909","2471","NA","NA","99810","2518","NA","NA","99913","100371","99808","99912","Flanker Task","15","7873","16","yes","1024"
"94.1176470588","94.1176470588","501.176470588","501.176470588","black","legacy","legacy","legacy","0","congruent","uniform","1","undefined","1","s","16","0","0","0","16","0","16","0","16","0","0","0","16","16","16","16","09/25/22 18:58:48","1500","The main experiment item","yes","FlankerTask.osexp","C:\Users\casme\OneDrive\Desktop\Fall 2022","no","mono","no","18","no","white","no","yes","768","legacy","16","16","C:/Users/casme/OneDrive/Desktop/Fall 2022/IC-subject-3.csv","legacy","Lentiform Loewenfeld","3.3.12","0","s","NA","h","NA","NA","s","647","NA","71809","NA","NA","647","2","legacy","1024","2","48000","-16","experiment","SSSSS","3","odd","100378","74328","NA","NA","94909","2471","NA","NA","101445","2518","NA","NA","101548","102196","101443","101548","Flanker Task","16","8520","17","yes","1024"
"94.4444444444","94.4444444444","496.888888889","496.888888889","black","legacy","legacy","legacy","0","incongruent","uniform","1","undefined","1","h","17","0","0","0","17","0","17","0","17","0","0","0","17","17","17","17","09/25/22 18:58:48","1500","The main experiment item","yes","FlankerTask.osexp","C:\Users\casme\OneDrive\Desktop\Fall 2022","no","mono","no","18","no","white","no","yes","768","legacy","17","17","C:/Users/casme/OneDrive/Desktop/Fall 2022/IC-subject-3.csv","legacy","Lentiform Loewenfeld","3.3.12","0","h","NA","h","NA","NA","h","424","NA","71809","NA","NA","424","2","legacy","1024","2","48000","-16","experiment","SSHSS","3","odd","102202","74328","NA","NA","94909","2471","NA","NA","103257","2518","NA","NA","103359","103784","103255","103359","Flanker Task","17","8944","18","yes","1024"
"94.7368421053","94.7368421053","496.157894737","496.157894737","black","legacy","legacy","legacy","0","incongruent","uniform","1","undefined","1","h","18","0","0","0","18","0","18","0","18","0","0","0","18","18","18","18","09/25/22 18:58:48","1500","The main experiment item","yes","FlankerTask.osexp","C:\Users\casme\OneDrive\Desktop\Fall 2022","no","mono","no","18","no","white","no","yes","768","legacy","18","18","C:/Users/casme/OneDrive/Desktop/Fall 2022/IC-subject-3.csv","legacy","Lentiform Loewenfeld","3.3.12","0","h","NA","h","NA","NA","h","483","NA","71809","NA","NA","483","2","legacy","1024","2","48000","-16","experiment","SSHSS","3","odd","103790","74328","NA","NA","94909","2471","NA","NA","104849","2518","NA","NA","104950","105434","104847","104950","Flanker Task","18","9427","19","yes","1024"
"95","95","494.55","494.55","black","legacy","legacy","legacy","0","congruent","uniform","1","undefined","1","s","19","0","0","0","19","0","19","0","19","0","0","0","19","19","19","19","09/25/22 18:58:48","1500","The main experiment item","yes","FlankerTask.osexp","C:\Users\casme\OneDrive\Desktop\Fall 2022","no","mono","no","18","no","white","no","yes","768","legacy","19","19","C:/Users/casme/OneDrive/Desktop/Fall 2022/IC-subject-3.csv","legacy","Lentiform Loewenfeld","3.3.12","0","s","NA","h","NA","NA","s","464","NA","71809","NA","NA","464","2","legacy","1024","2","48000","-16","experiment","SSSSS","3","odd","105440","74328","NA","NA","94909","2471","NA","NA","106497","2518","NA","NA","106599","107065","106495","106598","Flanker Task","19","9891","20","yes","1024"
"90.4761904762","90.4761904762","492.380952381","492.380952381","black","legacy","legacy","legacy","0","congruent","uniform","0","undefined","0","s","20","0","0","0","20","0","20","0","20","0","0","0","20","20","20","20","09/25/22 18:58:48","1500","The main experiment item","yes","FlankerTask.osexp","C:\Users\casme\OneDrive\Desktop\Fall 2022","no","mono","no","18","no","white","no","yes","768","legacy","20","20","C:/Users/casme/OneDrive/Desktop/Fall 2022/IC-subject-3.csv","legacy","Lentiform Loewenfeld","3.3.12","0","h","NA","h","NA","NA","h","449","NA","71809","NA","NA","449","2","legacy","1024","2","48000","-16","experiment","SSSSS","3","odd","107071","74328","NA","NA","94909","2471","NA","NA","108124","2518","NA","NA","108225","108675","108122","108225","Flanker Task","19","10340","21","yes","1024"
"90.9090909091","90.9090909091","491.681818182","491.681818182","black","legacy","legacy","legacy","0","congruent","uniform","1","undefined","1","s","21","0","0","0","21","0","21","0","21","0","0","0","21","21","21","21","09/25/22 18:58:48","1500","The main experiment item","yes","FlankerTask.osexp","C:\Users\casme\OneDrive\Desktop\Fall 2022","no","mono","no","18","no","white","no","yes","768","legacy","21","21","C:/Users/casme/OneDrive/Desktop/Fall 2022/IC-subject-3.csv","legacy","Lentiform Loewenfeld","3.3.12","0","s","NA","h","NA","NA","s","477","NA","71809","NA","NA","477","2","legacy","1024","2","48000","-16","experiment","SSSSS","3","odd","109184","74328","NA","NA","108681","2471","NA","NA","110238","2518","NA","NA","110339","110817","110236","110339","Flanker Task","20","10817","22","yes","1024"
"91.3043478261","91.3043478261","493.304347826","493.304347826","black","legacy","legacy","legacy","0","incongruent","uniform","1","undefined","1","h","22","0","0","0","22","0","22","0","22","0","0","0","22","22","22","22","09/25/22 18:58:48","1500","The main experiment item","yes","FlankerTask.osexp","C:\Users\casme\OneDrive\Desktop\Fall 2022","no","mono","no","18","no","white","no","yes","768","legacy","22","22","C:/Users/casme/OneDrive/Desktop/Fall 2022/IC-subject-3.csv","legacy","Lentiform Loewenfeld","3.3.12","0","h","NA","h","NA","NA","h","529","NA","71809","NA","NA","529","2","legacy","1024","2","48000","-16","experiment","SSHSS","3","odd","110823","74328","NA","NA","108681","2471","NA","NA","111879","2518","NA","NA","111980","112509","111877","111980","Flanker Task","21","11346","23","yes","1024"
"91.6666666667","91.6666666667","489.333333333","489.333333333","black","legacy","legacy","legacy","0","congruent","uniform","1","undefined","1","h","23","0","0","0","23","0","23","0","23","0","0","0","23","23","23","23","09/25/22 18:58:48","1500","The main experiment item","yes","FlankerTask.osexp","C:\Users\casme\OneDrive\Desktop\Fall 2022","no","mono","no","18","no","white","no","yes","768","legacy","23","23","C:/Users/casme/OneDrive/Desktop/Fall 2022/IC-subject-3.csv","legacy","Lentiform Loewenfeld","3.3.12","0","h","NA","h","NA","NA","h","398","NA","71809","NA","NA","398","2","legacy","1024","2","48000","-16","experiment","HHHHH","3","odd","112516","74328","NA","NA","108681","2471","NA","NA","113574","2518","NA","NA","113676","114075","113572","113676","Flanker Task","22","11744","24","yes","1024"
"88","88","483.76","483.76","black","legacy","legacy","legacy","0","congruent","uniform","0","undefined","0","s","24","0","0","0","24","0","24","0","24","0","0","0","24","24","24","24","09/25/22 18:58:48","1500","The main experiment item","yes","FlankerTask.osexp","C:\Users\casme\OneDrive\Desktop\Fall 2022","no","mono","no","18","no","white","no","yes","768","legacy","24","24","C:/Users/casme/OneDrive/Desktop/Fall 2022/IC-subject-3.csv","legacy","Lentiform Loewenfeld","3.3.12","0","h","NA","h","NA","NA","h","350","NA","71809","NA","NA","350","2","legacy","1024","2","48000","-16","experiment","SSSSS","3","odd","114081","74328","NA","NA","108681","2471","NA","NA","115143","2518","NA","NA","115244","115594","115140","115244","Flanker Task","22","12094","25","yes","1024"
"88.4615384615","88.4615384615","485.692307692","485.692307692","black","legacy","legacy","legacy","0","incongruent","uniform","1","undefined","1","h","25","0","0","0","25","0","25","0","25","0","0","0","25","25","25","25","09/25/22 18:58:48","1500","The main experiment item","yes","FlankerTask.osexp","C:\Users\casme\OneDrive\Desktop\Fall 2022","no","mono","no","18","no","white","no","yes","768","legacy","25","25","C:/Users/casme/OneDrive/Desktop/Fall 2022/IC-subject-3.csv","legacy","Lentiform Loewenfeld","3.3.12","0","h","NA","h","NA","NA","h","534","NA","71809","NA","NA","534","2","legacy","1024","2","48000","-16","experiment","SSHSS","3","odd","116101","74328","NA","NA","115600","2471","NA","NA","117156","2518","NA","NA","117257","117792","117154","117257","Flanker Task","23","12628","26","yes","1024"
"88.8888888889","88.8888888889","485.62962963","485.62962963","black","legacy","legacy","legacy","0","incongruent","uniform","1","undefined","1","s","26","0","0","0","26","0","26","0","26","0","0","0","26","26","26","26","09/25/22 18:58:48","1500","The main experiment item","yes","FlankerTask.osexp","C:\Users\casme\OneDrive\Desktop\Fall 2022","no","mono","no","18","no","white","no","yes","768","legacy","26","26","C:/Users/casme/OneDrive/Desktop/Fall 2022/IC-subject-3.csv","legacy","Lentiform Loewenfeld","3.3.12","0","s","NA","h","NA","NA","s","484","NA","71809","NA","NA","484","2","legacy","1024","2","48000","-16","experiment","HHSHH","3","odd","117798","74328","NA","NA","115600","2471","NA","NA","118857","2518","NA","NA","118960","119444","118855","118960","Flanker Task","24","13112","27","yes","1024"
"89.2857142857","89.2857142857","485.714285714","485.714285714","black","legacy","legacy","legacy","0","incongruent","uniform","1","undefined","1","h","27","0","0","0","27","0","27","0","27","0","0","0","27","27","27","27","09/25/22 18:58:48","1500","The main experiment item","yes","FlankerTask.osexp","C:\Users\casme\OneDrive\Desktop\Fall 2022","no","mono","no","18","no","white","no","yes","768","legacy","27","27","C:/Users/casme/OneDrive/Desktop/Fall 2022/IC-subject-3.csv","legacy","Lentiform Loewenfeld","3.3.12","0","h","NA","h","NA","NA","h","488","NA","71809","NA","NA","488","2","legacy","1024","2","48000","-16","experiment","SSHSS","3","odd","119451","74328","NA","NA","115600","2471","NA","NA","120506","2518","NA","NA","120607","121096","120504","120607","Flanker Task","25","13600","28","yes","1024"
"89.6551724138","89.6551724138","480.793103448","480.793103448","black","legacy","legacy","legacy","0","congruent","uniform","1","undefined","1","h","28","0","0","0","28","0","28","0","28","0","0","0","28","28","28","28","09/25/22 18:58:48","1500","The main experiment item","yes","FlankerTask.osexp","C:\Users\casme\OneDrive\Desktop\Fall 2022","no","mono","no","18","no","white","no","yes","768","legacy","28","28","C:/Users/casme/OneDrive/Desktop/Fall 2022/IC-subject-3.csv","legacy","Lentiform Loewenfeld","3.3.12","0","h","NA","h","NA","NA","h","343","NA","71809","NA","NA","343","2","legacy","1024","2","48000","-16","experiment","HHHHH","3","odd","121103","74328","NA","NA","115600","2471","NA","NA","122157","2518","NA","NA","122258","122601","122155","122258","Flanker Task","26","13943","29","yes","1024"
"90","90","481.066666667","481.066666667","black","legacy","legacy","legacy","0","congruent","uniform","1","undefined","1","h","29","0","0","0","29","0","29","0","29","0","0","0","29","29","29","29","09/25/22 18:58:48","1500","The main experiment item","yes","FlankerTask.osexp","C:\Users\casme\OneDrive\Desktop\Fall 2022","no","mono","no","18","no","white","no","yes","768","legacy","29","29","C:/Users/casme/OneDrive/Desktop/Fall 2022/IC-subject-3.csv","legacy","Lentiform Loewenfeld","3.3.12","0","h","NA","h","NA","NA","h","489","NA","71809","NA","NA","489","2","legacy","1024","2","48000","-16","experiment","HHHHH","3","odd","122607","74328","NA","NA","115600","2471","NA","NA","123665","2518","NA","NA","123768","124258","123663","123768","Flanker Task","27","14432","30","yes","1024"
"90.3225806452","90.3225806452","480.258064516","480.258064516","black","legacy","legacy","legacy","0","incongruent","uniform","1","undefined","1","s","30","0","0","0","30","0","30","0","30","0","0","0","30","30","30","30","09/25/22 18:58:48","1500","The main experiment item","yes","FlankerTask.osexp","C:\Users\casme\OneDrive\Desktop\Fall 2022","no","mono","no","18","no","white","no","yes","768","legacy","30","30","C:/Users/casme/OneDrive/Desktop/Fall 2022/IC-subject-3.csv","legacy","Lentiform Loewenfeld","3.3.12","0","s","NA","h","NA","NA","s","456","NA","71809","NA","NA","456","2","legacy","1024","2","48000","-16","experiment","HHSHH","3","odd","124264","74328","NA","NA","115600","2471","NA","NA","125319","2518","NA","NA","125421","125878","125317","125421","Flanker Task","28","14888","31","yes","1024"
"90.625","90.625","482.46875","482.46875","black","legacy","legacy","legacy","0","incongruent","uniform","1","undefined","1","s","31","0","0","0","31","0","31","0","31","0","0","0","31","31","31","31","09/25/22 18:58:48","1500","The main experiment item","yes","FlankerTask.osexp","C:\Users\casme\OneDrive\Desktop\Fall 2022","no","mono","no","18","no","white","no","yes","768","legacy","31","31","C:/Users/casme/OneDrive/Desktop/Fall 2022/IC-subject-3.csv","legacy","Lentiform Loewenfeld","3.3.12","0","s","NA","h","NA","NA","s","551","NA","71809","NA","NA","551","2","legacy","1024","2","48000","-16","experiment","HHSHH","3","odd","125885","74328","NA","NA","115600","2471","NA","NA","126947","2518","NA","NA","127048","127600","126945","127048","Flanker Task","29","15439","32","yes","1024"
"90.9090909091","90.9090909091","480.424242424","480.424242424","black","legacy","legacy","legacy","0","congruent","uniform","1","undefined","1","h","32","0","0","0","32","0","32","0","32","0","0","0","32","32","32","32","09/25/22 18:58:48","1500","The main experiment item","yes","FlankerTask.osexp","C:\Users\casme\OneDrive\Desktop\Fall 2022","no","mono","no","18","no","white","no","yes","768","legacy","32","32","C:/Users/casme/OneDrive/Desktop/Fall 2022/IC-subject-3.csv","legacy","Lentiform Loewenfeld","3.3.12","0","h","NA","h","NA","NA","h","415","NA","71809","NA","NA","415","2","legacy","1024","2","48000","-16","experiment","HHHHH","3","odd","127606","74328","NA","NA","115600","2471","NA","NA","128659","2518","NA","NA","128761","129176","128657","128761","Flanker Task","30","15854","33","yes","1024"
"91.1764705882","91.1764705882","482.617647059","482.617647059","black","legacy","legacy","legacy","0","congruent","uniform","1","undefined","1","h","33","0","0","0","33","0","33","0","33","0","0","0","33","33","33","33","09/25/22 18:58:48","1500","The main experiment item","yes","FlankerTask.osexp","C:\Users\casme\OneDrive\Desktop\Fall 2022","no","mono","no","18","no","white","no","yes","768","legacy","33","33","C:/Users/casme/OneDrive/Desktop/Fall 2022/IC-subject-3.csv","legacy","Lentiform Loewenfeld","3.3.12","0","h","NA","h","NA","NA","h","555","NA","71809","NA","NA","555","2","legacy","1024","2","48000","-16","experiment","HHHHH","3","odd","129183","74328","NA","NA","115600","2471","NA","NA","130237","2518","NA","NA","130339","130895","130235","130339","Flanker Task","31","16409","34","yes","1024"
"91.4285714286","91.4285714286","485.257142857","485.257142857","black","legacy","legacy","legacy","0","incongruent","uniform","1","undefined","1","h","34","0","0","0","34","0","34","0","34","0","0","0","34","34","34","34","09/25/22 18:58:48","1500","The main experiment item","yes","FlankerTask.osexp","C:\Users\casme\OneDrive\Desktop\Fall 2022","no","mono","no","18","no","white","no","yes","768","legacy","34","34","C:/Users/casme/OneDrive/Desktop/Fall 2022/IC-subject-3.csv","legacy","Lentiform Loewenfeld","3.3.12","0","h","NA","h","NA","NA","h","575","NA","71809","NA","NA","575","2","legacy","1024","2","48000","-16","experiment","SSHSS","3","odd","130901","74328","NA","NA","115600","2471","NA","NA","131968","2518","NA","NA","132070","132646","131966","132070","Flanker Task","32","16984","35","yes","1024"
"91.6666666667","91.6666666667","485.055555556","485.055555556","black","legacy","legacy","legacy","0","incongruent","uniform","1","undefined","1","h","35","0","0","0","35","0","35","0","35","0","0","0","35","35","35","35","09/25/22 18:58:48","1500","The main experiment item","yes","FlankerTask.osexp","C:\Users\casme\OneDrive\Desktop\Fall 2022","no","mono","no","18","no","white","no","yes","768","legacy","35","35","C:/Users/casme/OneDrive/Desktop/Fall 2022/IC-subject-3.csv","legacy","Lentiform Loewenfeld","3.3.12","0","h","NA","h","NA","NA","h","478","NA","71809","NA","NA","478","2","legacy","1024","2","48000","-16","experiment","SSHSS","3","odd","132653","74328","NA","NA","115600","2471","NA","NA","133709","2518","NA","NA","133810","134289","133707","133810","Flanker Task","33","17462","36","yes","1024"
"91.8918918919","91.8918918919","484.162162162","484.162162162","black","legacy","legacy","legacy","0","congruent","uniform","1","undefined","1","h","36","0","0","0","36","0","36","0","36","0","0","0","36","36","36","36","09/25/22 18:58:48","1500","The main experiment item","yes","FlankerTask.osexp","C:\Users\casme\OneDrive\Desktop\Fall 2022","no","mono","no","18","no","white","no","yes","768","legacy","36","36","C:/Users/casme/OneDrive/Desktop/Fall 2022/IC-subject-3.csv","legacy","Lentiform Loewenfeld","3.3.12","0","h","NA","h","NA","NA","h","452","NA","71809","NA","NA","452","2","legacy","1024","2","48000","-16","experiment","HHHHH","3","odd","134294","74328","NA","NA","115600","2471","NA","NA","135351","2518","NA","NA","135454","135906","135349","135453","Flanker Task","34","17914","37","yes","1024"
"92.1052631579","92.1052631579","485","485","black","legacy","legacy","legacy","0","incongruent","uniform","1","undefined","1","s","37","0","0","0","37","0","37","0","37","0","0","0","37","37","37","37","09/25/22 18:58:48","1500","The main experiment item","yes","FlankerTask.osexp","C:\Users\casme\OneDrive\Desktop\Fall 2022","no","mono","no","18","no","white","no","yes","768","legacy","37","37","C:/Users/casme/OneDrive/Desktop/Fall 2022/IC-subject-3.csv","legacy","Lentiform Loewenfeld","3.3.12","0","s","NA","h","NA","NA","s","516","NA","71809","NA","NA","516","2","legacy","1024","2","48000","-16","experiment","HHSHH","3","odd","135913","74328","NA","NA","115600","2471","NA","NA","136983","2518","NA","NA","137086","137603","136980","137086","Flanker Task","35","18430","38","yes","1024"
"92.3076923077","92.3076923077","480.641025641","480.641025641","black","legacy","legacy","legacy","0","congruent","uniform","1","undefined","1","s","38","0","0","0","38","0","38","0","38","0","0","0","38","38","38","38","09/25/22 18:58:48","1500","The main experiment item","yes","FlankerTask.osexp","C:\Users\casme\OneDrive\Desktop\Fall 2022","no","mono","no","18","no","white","no","yes","768","legacy","38","38","C:/Users/casme/OneDrive/Desktop/Fall 2022/IC-subject-3.csv","legacy","Lentiform Loewenfeld","3.3.12","0","s","NA","h","NA","NA","s","315","NA","71809","NA","NA","315","2","legacy","1024","2","48000","-16","experiment","SSSSS","3","odd","137609","74328","NA","NA","115600","2471","NA","NA","138665","2518","NA","NA","138767","139083","138663","138766","Flanker Task","36","18745","39","yes","1024"
"92.5","92.5","479.65","479.65","black","legacy","legacy","legacy","0","incongruent","uniform","1","undefined","1","h","39","0","0","0","39","0","39","0","39","0","0","0","39","39","39","39","09/25/22 18:58:48","1500","The main experiment item","yes","FlankerTask.osexp","C:\Users\casme\OneDrive\Desktop\Fall 2022","no","mono","no","18","no","white","no","yes","768","legacy","39","39","C:/Users/casme/OneDrive/Desktop/Fall 2022/IC-subject-3.csv","legacy","Lentiform Loewenfeld","3.3.12","0","h","NA","h","NA","NA","h","441","NA","71809","NA","NA","441","2","legacy","1024","2","48000","-16","experiment","SSHSS","3","odd","139090","74328","NA","NA","115600","2471","NA","NA","140150","2518","NA","NA","140252","140693","140148","140251","Flanker Task","37","19186","40","yes","1024"
"92.6829268293","92.6829268293","481.780487805","481.780487805","black","legacy","legacy","legacy","0","congruent","uniform","1","undefined","1","s","40","0","0","0","40","0","40","0","40","0","0","0","40","40","40","40","09/25/22 18:58:48","1500","The main experiment item","yes","FlankerTask.osexp","C:\Users\casme\OneDrive\Desktop\Fall 2022","no","mono","no","18","no","white","no","yes","768","legacy","40","40","C:/Users/casme/OneDrive/Desktop/Fall 2022/IC-subject-3.csv","legacy","Lentiform Loewenfeld","3.3.12","0","s","NA","h","NA","NA","s","567","NA","71809","NA","NA","567","2","legacy","1024","2","48000","-16","experiment","SSSSS","3","odd","140699","74328","NA","NA","115600","2471","NA","NA","141750","2518","NA","NA","141855","142422","141749","141855","Flanker Task","38","19753","41","yes","1024"
"92.8571428571","92.8571428571","478.904761905","478.904761905","black","legacy","legacy","legacy","0","incongruent","uniform","1","undefined","1","h","41","0","0","0","41","0","41","0","41","0","0","0","41","41","41","41","09/25/22 18:58:48","1500","The main experiment item","yes","FlankerTask.osexp","C:\Users\casme\OneDrive\Desktop\Fall 2022","no","mono","no","18","no","white","no","yes","768","legacy","41","41","C:/Users/casme/OneDrive/Desktop/Fall 2022/IC-subject-3.csv","legacy","Lentiform Loewenfeld","3.3.12","0","h","NA","h","NA","NA","h","361","NA","71809","NA","NA","361","2","legacy","1024","2","48000","-16","experiment","SSHSS","3","odd","142429","74328","NA","NA","115600","2471","NA","NA","143502","2518","NA","NA","143603","143965","143499","143603","Flanker Task","39","20114","42","yes","1024"
"93.023255814","93.023255814","481.046511628","481.046511628","black","legacy","legacy","legacy","0","incongruent","uniform","1","undefined","1","s","42","0","0","0","42","0","42","0","42","0","0","0","42","42","42","42","09/25/22 18:58:48","1500","The main experiment item","yes","FlankerTask.osexp","C:\Users\casme\OneDrive\Desktop\Fall 2022","no","mono","no","18","no","white","no","yes","768","legacy","42","42","C:/Users/casme/OneDrive/Desktop/Fall 2022/IC-subject-3.csv","legacy","Lentiform Loewenfeld","3.3.12","0","s","NA","h","NA","NA","s","571","NA","71809","NA","NA","571","2","legacy","1024","2","48000","-16","experiment","HHSHH","3","odd","143972","74328","NA","NA","115600","2471","NA","NA","145027","2518","NA","NA","145131","145702","145024","145131","Flanker Task","40","20685","43","yes","1024"
"93.1818181818","93.1818181818","480.954545455","480.954545455","black","legacy","legacy","legacy","0","incongruent","uniform","1","undefined","1","h","43","0","0","0","43","0","43","0","43","0","0","0","43","43","43","43","09/25/22 18:58:48","1500","The main experiment item","yes","FlankerTask.osexp","C:\Users\casme\OneDrive\Desktop\Fall 2022","no","mono","no","18","no","white","no","yes","768","legacy","43","43","C:/Users/casme/OneDrive/Desktop/Fall 2022/IC-subject-3.csv","legacy","Lentiform Loewenfeld","3.3.12","0","h","NA","h","NA","NA","h","477","NA","71809","NA","NA","477","2","legacy","1024","2","48000","-16","experiment","SSHSS","3","odd","145708","74328","NA","NA","115600","2471","NA","NA","146775","2518","NA","NA","146878","147356","146773","146878","Flanker Task","41","21162","44","yes","1024"
"93.3333333333","93.3333333333","482.488888889","482.488888889","black","legacy","legacy","legacy","0","congruent","uniform","1","undefined","1","s","44","0","0","0","44","0","44","0","44","0","0","0","44","44","44","44","09/25/22 18:58:48","1500","The main experiment item","yes","FlankerTask.osexp","C:\Users\casme\OneDrive\Desktop\Fall 2022","no","mono","no","18","no","white","no","yes","768","legacy","44","44","C:/Users/casme/OneDrive/Desktop/Fall 2022/IC-subject-3.csv","legacy","Lentiform Loewenfeld","3.3.12","0","s","NA","h","NA","NA","s","550","NA","71809","NA","NA","550","2","legacy","1024","2","48000","-16","experiment","SSSSS","3","odd","147363","74328","NA","NA","115600","2471","NA","NA","148418","2518","NA","NA","148519","149070","148416","148519","Flanker Task","42","21712","45","yes","1024"
"93.4782608696","93.4782608696","482.673913043","482.673913043","black","legacy","legacy","legacy","0","congruent","uniform","1","undefined","1","s","45","0","0","0","45","0","45","0","45","0","0","0","45","45","45","45","09/25/22 18:58:48","1500","The main experiment item","yes","FlankerTask.osexp","C:\Users\casme\OneDrive\Desktop\Fall 2022","no","mono","no","18","no","white","no","yes","768","legacy","45","45","C:/Users/casme/OneDrive/Desktop/Fall 2022/IC-subject-3.csv","legacy","Lentiform Loewenfeld","3.3.12","0","s","NA","h","NA","NA","s","491","NA","71809","NA","NA","491","2","legacy","1024","2","48000","-16","experiment","SSSSS","3","odd","149077","74328","NA","NA","115600","2471","NA","NA","150132","2518","NA","NA","150235","150726","150130","150235","Flanker Task","43","22203","46","yes","1024"
"93.6170212766","93.6170212766","484.531914894","484.531914894","black","legacy","legacy","legacy","0","congruent","uniform","1","undefined","1","h","46","0","0","0","46","0","46","0","46","0","0","0","46","46","46","46","09/25/22 18:58:48","1500","The main experiment item","yes","FlankerTask.osexp","C:\Users\casme\OneDrive\Desktop\Fall 2022","no","mono","no","18","no","white","no","yes","768","legacy","46","46","C:/Users/casme/OneDrive/Desktop/Fall 2022/IC-subject-3.csv","legacy","Lentiform Loewenfeld","3.3.12","0","h","NA","h","NA","NA","h","570","NA","71809","NA","NA","570","2","legacy","1024","2","48000","-16","experiment","HHHHH","3","odd","150732","74328","NA","NA","115600","2471","NA","NA","151786","2518","NA","NA","151887","152458","151783","151887","Flanker Task","44","22773","47","yes","1024"
"93.75","93.75","493.458333333","493.458333333","black","legacy","legacy","legacy","0","incongruent","uniform","1","undefined","1","s","47","0","0","0","47","0","47","0","47","0","0","0","47","47","47","47","09/25/22 18:58:48","1500","The main experiment item","yes","FlankerTask.osexp","C:\Users\casme\OneDrive\Desktop\Fall 2022","no","mono","no","18","no","white","no","yes","768","legacy","47","47","C:/Users/casme/OneDrive/Desktop/Fall 2022/IC-subject-3.csv","legacy","Lentiform Loewenfeld","3.3.12","0","s","NA","h","NA","NA","s","913","NA","71809","NA","NA","913","2","legacy","1024","2","48000","-16","experiment","HHSHH","3","odd","152464","74328","NA","NA","115600","2471","NA","NA","153519","2518","NA","NA","153621","154535","153516","153620","Flanker Task","45","23686","48","yes","1024"
"93.8775510204","93.8775510204","495.795918367","495.795918367","black","legacy","legacy","legacy","0","incongruent","uniform","1","undefined","1","s","48","0","0","0","48","0","48","0","48","0","0","0","48","48","48","48","09/25/22 18:58:48","1500","The main experiment item","yes","FlankerTask.osexp","C:\Users\casme\OneDrive\Desktop\Fall 2022","no","mono","no","18","no","white","no","yes","768","legacy","48","48","C:/Users/casme/OneDrive/Desktop/Fall 2022/IC-subject-3.csv","legacy","Lentiform Loewenfeld","3.3.12","0","s","NA","h","NA","NA","s","608","NA","71809","NA","NA","608","2","legacy","1024","2","48000","-16","experiment","HHSHH","3","odd","154541","74328","NA","NA","115600","2471","NA","NA","155609","2518","NA","NA","155711","156320","155607","155711","Flanker Task","46","24294","49","yes","1024"
"94","94","495.06","495.06","black","legacy","legacy","legacy","0","incongruent","uniform","1","undefined","1","h","49","0","0","0","49","0","49","0","49","0","0","0","49","49","49","49","09/25/22 18:58:48","1500","The main experiment item","yes","FlankerTask.osexp","C:\Users\casme\OneDrive\Desktop\Fall 2022","no","mono","no","18","no","white","no","yes","768","legacy","49","49","C:/Users/casme/OneDrive/Desktop/Fall 2022/IC-subject-3.csv","legacy","Lentiform Loewenfeld","3.3.12","0","h","NA","h","NA","NA","h","459","NA","71809","NA","NA","459","2","legacy","1024","2","48000","-16","experiment","SSHSS","3","odd","156327","74328","NA","NA","115600","2471","NA","NA","157379","2518","NA","NA","157481","157941","157378","157481","Flanker Task","47","24753","50","yes","1024"
"94.1176470588","94.1176470588","494.607843137","494.607843137","black","legacy","legacy","legacy","0","congruent","uniform","1","undefined","1","s","50","0","0","0","50","0","50","0","50","0","0","0","50","50","50","50","09/25/22 18:58:48","1500","The main experiment item","yes","FlankerTask.osexp","C:\Users\casme\OneDrive\Desktop\Fall 2022","no","mono","no","18","no","white","no","yes","768","legacy","50","50","C:/Users/casme/OneDrive/Desktop/Fall 2022/IC-subject-3.csv","legacy","Lentiform Loewenfeld","3.3.12","0","s","NA","h","NA","NA","s","472","NA","71809","NA","NA","472","2","legacy","1024","2","48000","-16","experiment","SSSSS","3","odd","157948","74328","NA","NA","115600","2471","NA","NA","159004","2518","NA","NA","159105","159578","159002","159105","Flanker Task","48","25225","51","yes","1024"
"94.2307692308","94.2307692308","492.403846154","492.403846154","black","legacy","legacy","legacy","0","congruent","uniform","1","undefined","1","h","51","0","0","0","51","0","51","0","51","0","0","0","51","51","51","51","09/25/22 18:58:48","1500","The main experiment item","yes","FlankerTask.osexp","C:\Users\casme\OneDrive\Desktop\Fall 2022","no","mono","no","18","no","white","no","yes","768","legacy","51","51","C:/Users/casme/OneDrive/Desktop/Fall 2022/IC-subject-3.csv","legacy","Lentiform Loewenfeld","3.3.12","0","h","NA","h","NA","NA","h","380","NA","71809","NA","NA","380","2","legacy","1024","2","48000","-16","experiment","HHHHH","3","odd","159584","74328","NA","NA","115600","2471","NA","NA","160639","2518","NA","NA","160741","161121","160637","160740","Flanker Task","49","25605","52","yes","1024"
"94.3396226415","94.3396226415","491.716981132","491.716981132","black","legacy","legacy","legacy","0","incongruent","uniform","1","undefined","1","s","52","0","0","0","52","0","52","0","52","0","0","0","52","52","52","52","09/25/22 18:58:48","1500","The main experiment item","yes","FlankerTask.osexp","C:\Users\casme\OneDrive\Desktop\Fall 2022","no","mono","no","18","no","white","no","yes","768","legacy","52","52","C:/Users/casme/OneDrive/Desktop/Fall 2022/IC-subject-3.csv","legacy","Lentiform Loewenfeld","3.3.12","0","s","NA","h","NA","NA","s","456","NA","71809","NA","NA","456","2","legacy","1024","2","48000","-16","experiment","HHSHH","3","odd","161128","74328","NA","NA","115600","2471","NA","NA","162186","2518","NA","NA","162288","162744","162184","162288","Flanker Task","50","26061","53","yes","1024"
"94.4444444444","94.4444444444","490.962962963","490.962962963","black","legacy","legacy","legacy","0","incongruent","uniform","1","undefined","1","h","53","0","0","0","53","0","53","0","53","0","0","0","53","53","53","53","09/25/22 18:58:48","1500","The main experiment item","yes","FlankerTask.osexp","C:\Users\casme\OneDrive\Desktop\Fall 2022","no","mono","no","18","no","white","no","yes","768","legacy","53","53","C:/Users/casme/OneDrive/Desktop/Fall 2022/IC-subject-3.csv","legacy","Lentiform Loewenfeld","3.3.12","0","h","NA","h","NA","NA","h","451","NA","71809","NA","NA","451","2","legacy","1024","2","48000","-16","experiment","SSHSS","3","odd","162750","74328","NA","NA","115600","2471","NA","NA","163813","2518","NA","NA","163914","164366","163811","163914","Flanker Task","51","26512","54","yes","1024"
"94.5454545455","94.5454545455","489.2","489.2","black","legacy","legacy","legacy","0","congruent","uniform","1","undefined","1","h","54","0","0","0","54","0","54","0","54","0","0","0","54","54","54","54","09/25/22 18:58:48","1500","The main experiment item","yes","FlankerTask.osexp","C:\Users\casme\OneDrive\Desktop\Fall 2022","no","mono","no","18","no","white","no","yes","768","legacy","54","54","C:/Users/casme/OneDrive/Desktop/Fall 2022/IC-subject-3.csv","legacy","Lentiform Loewenfeld","3.3.12","0","h","NA","h","NA","NA","h","394","NA","71809","NA","NA","394","2","legacy","1024","2","48000","-16","experiment","HHHHH","3","odd","164372","74328","NA","NA","115600","2471","NA","NA","165435","2518","NA","NA","165538","165933","165432","165538","Flanker Task","52","26906","55","yes","1024"
"94.6428571429","94.6428571429","487.75","487.75","black","legacy","legacy","legacy","0","incongruent","uniform","1","undefined","1","h","55","0","0","0","55","0","55","0","55","0","0","0","55","55","55","55","09/25/22 18:58:48","1500","The main experiment item","yes","FlankerTask.osexp","C:\Users\casme\OneDrive\Desktop\Fall 2022","no","mono","no","18","no","white","no","yes","768","legacy","55","55","C:/Users/casme/OneDrive/Desktop/Fall 2022/IC-subject-3.csv","legacy","Lentiform Loewenfeld","3.3.12","0","h","NA","h","NA","NA","h","408","NA","71809","NA","NA","408","2","legacy","1024","2","48000","-16","experiment","SSHSS","3","odd","165940","74328","NA","NA","115600","2471","NA","NA","166998","2518","NA","NA","167100","167509","166996","167100","Flanker Task","53","27314","56","yes","1024"
"94.7368421053","94.7368421053","487.298245614","487.298245614","black","legacy","legacy","legacy","0","congruent","uniform","1","undefined","1","s","56","0","0","0","56","0","56","0","56","0","0","0","56","56","56","56","09/25/22 18:58:48","1500","The main experiment item","yes","FlankerTask.osexp","C:\Users\casme\OneDrive\Desktop\Fall 2022","no","mono","no","18","no","white","no","yes","768","legacy","56","56","C:/Users/casme/OneDrive/Desktop/Fall 2022/IC-subject-3.csv","legacy","Lentiform Loewenfeld","3.3.12","0","s","NA","h","NA","NA","s","462","NA","71809","NA","NA","462","2","legacy","1024","2","48000","-16","experiment","SSSSS","3","odd","167516","74328","NA","NA","115600","2471","NA","NA","168569","2518","NA","NA","168670","169132","168567","168670","Flanker Task","54","27776","57","yes","1024"
"94.8275862069","94.8275862069","484.879310345","484.879310345","black","legacy","legacy","legacy","0","congruent","uniform","1","undefined","1","s","57","0","0","0","57","0","57","0","57","0","0","0","57","57","57","57","09/25/22 18:58:48","1500","The main experiment item","yes","FlankerTask.osexp","C:\Users\casme\OneDrive\Desktop\Fall 2022","no","mono","no","18","no","white","no","yes","768","legacy","57","57","C:/Users/casme/OneDrive/Desktop/Fall 2022/IC-subject-3.csv","legacy","Lentiform Loewenfeld","3.3.12","0","s","NA","h","NA","NA","s","347","NA","71809","NA","NA","347","2","legacy","1024","2","48000","-16","experiment","SSSSS","3","odd","169138","74328","NA","NA","115600","2471","NA","NA","170195","2518","NA","NA","170297","170645","170193","170297","Flanker Task","55","28123","58","yes","1024"
"94.9152542373","94.9152542373","484.508474576","484.508474576","black","legacy","legacy","legacy","0","incongruent","uniform","1","undefined","1","h","58","0","0","0","58","0","58","0","58","0","0","0","58","58","58","58","09/25/22 18:58:48","1500","The main experiment item","yes","FlankerTask.osexp","C:\Users\casme\OneDrive\Desktop\Fall 2022","no","mono","no","18","no","white","no","yes","768","legacy","58","58","C:/Users/casme/OneDrive/Desktop/Fall 2022/IC-subject-3.csv","legacy","Lentiform Loewenfeld","3.3.12","0","h","NA","h","NA","NA","h","463","NA","71809","NA","NA","463","2","legacy","1024","2","48000","-16","experiment","SSHSS","3","odd","170652","74328","NA","NA","115600","2471","NA","NA","171708","2518","NA","NA","171809","172273","171706","171809","Flanker Task","56","28586","59","yes","1024"
"95","95","482.766666667","482.766666667","black","legacy","legacy","legacy","0","congruent","uniform","1","undefined","1","h","59","0","0","0","59","0","59","0","59","0","0","0","59","59","59","59","09/25/22 18:58:48","1500","The main experiment item","yes","FlankerTask.osexp","C:\Users\casme\OneDrive\Desktop\Fall 2022","no","mono","no","18","no","white","no","yes","768","legacy","59","59","C:/Users/casme/OneDrive/Desktop/Fall 2022/IC-subject-3.csv","legacy","Lentiform Loewenfeld","3.3.12","0","h","NA","h","NA","NA","h","380","NA","71809","NA","NA","380","2","legacy","1024","2","48000","-16","experiment","HHHHH","3","odd","172279","74328","NA","NA","115600","2471","NA","NA","173334","2518","NA","NA","173436","173817","173331","173436","Flanker Task","57","28966","60","yes","1024"
"95.0819672131","95.0819672131","480.344262295","480.344262295","black","legacy","legacy","legacy","0","incongruent","uniform","1","undefined","1","h","60","0","0","0","60","0","60","0","60","0","0","0","60","60","60","60","09/25/22 18:58:48","1500","The main experiment item","yes","FlankerTask.osexp","C:\Users\casme\OneDrive\Desktop\Fall 2022","no","mono","no","18","no","white","no","yes","768","legacy","60","60","C:/Users/casme/OneDrive/Desktop/Fall 2022/IC-subject-3.csv","legacy","Lentiform Loewenfeld","3.3.12","0","h","NA","h","NA","NA","h","335","NA","71809","NA","NA","335","2","legacy","1024","2","48000","-16","experiment","SSHSS","3","odd","173824","74328","NA","NA","115600","2471","NA","NA","174876","2518","NA","NA","174979","175315","174874","174979","Flanker Task","58","29301","61","yes","1024"
"95.1612903226","95.1612903226","478.14516129","478.14516129","black","legacy","legacy","legacy","0","congruent","uniform","1","undefined","1","h","61","0","0","0","61","0","61","0","61","0","0","0","61","61","61","61","09/25/22 18:58:48","1500","The main experiment item","yes","FlankerTask.osexp","C:\Users\casme\OneDrive\Desktop\Fall 2022","no","mono","no","18","no","white","no","yes","768","legacy","61","61","C:/Users/casme/OneDrive/Desktop/Fall 2022/IC-subject-3.csv","legacy","Lentiform Loewenfeld","3.3.12","0","h","NA","h","NA","NA","h","344","NA","71809","NA","NA","344","2","legacy","1024","2","48000","-16","experiment","HHHHH","3","odd","175321","74328","NA","NA","115600","2471","NA","NA","176376","2518","NA","NA","176478","176823","176374","176477","Flanker Task","59","29645","62","yes","1024"
"95.2380952381","95.2380952381","476.047619048","476.047619048","black","legacy","legacy","legacy","0","incongruent","uniform","1","undefined","1","h","62","0","0","0","62","0","62","0","62","0","0","0","62","62","62","62","09/25/22 18:58:48","1500","The main experiment item","yes","FlankerTask.osexp","C:\Users\casme\OneDrive\Desktop\Fall 2022","no","mono","no","18","no","white","no","yes","768","legacy","62","62","C:/Users/casme/OneDrive/Desktop/Fall 2022/IC-subject-3.csv","legacy","Lentiform Loewenfeld","3.3.12","0","h","NA","h","NA","NA","h","346","NA","71809","NA","NA","346","2","legacy","1024","2","48000","-16","experiment","SSHSS","3","odd","176830","74328","NA","NA","115600","2471","NA","NA","177889","2518","NA","NA","177990","178337","177887","177990","Flanker Task","60","29991","63","yes","1024"
"95.3125","95.3125","476.15625","476.15625","black","legacy","legacy","legacy","0","congruent","uniform","1","undefined","1","h","63","0","0","0","63","0","63","0","63","0","0","0","63","63","63","63","09/25/22 18:58:48","1500","The main experiment item","yes","FlankerTask.osexp","C:\Users\casme\OneDrive\Desktop\Fall 2022","no","mono","no","18","no","white","no","yes","768","legacy","63","63","C:/Users/casme/OneDrive/Desktop/Fall 2022/IC-subject-3.csv","legacy","Lentiform Loewenfeld","3.3.12","0","h","NA","h","NA","NA","h","483","NA","71809","NA","NA","483","2","legacy","1024","2","48000","-16","experiment","HHHHH","3","odd","178344","74328","NA","NA","115600","2471","NA","NA","179398","2518","NA","NA","179498","179982","179396","179498","Flanker Task","61","30474","64","yes","1024"
"95.3846153846","95.3846153846","473.830769231","473.830769231","black","legacy","legacy","legacy","0","congruent","uniform","1","undefined","1","h","64","0","0","0","64","0","64","0","64","0","0","0","64","64","64","64","09/25/22 18:58:48","1500","The main experiment item","yes","FlankerTask.osexp","C:\Users\casme\OneDrive\Desktop\Fall 2022","no","mono","no","18","no","white","no","yes","768","legacy","64","64","C:/Users/casme/OneDrive/Desktop/Fall 2022/IC-subject-3.csv","legacy","Lentiform Loewenfeld","3.3.12","0","h","NA","h","NA","NA","h","325","NA","71809","NA","NA","325","2","legacy","1024","2","48000","-16","experiment","HHHHH","3","odd","179989","74328","NA","NA","115600","2471","NA","NA","181053","2518","NA","NA","181156","181483","181051","181156","Flanker Task","62","30799","65","yes","1024"
"95.4545454545","95.4545454545","471.212121212","471.212121212","black","legacy","legacy","legacy","0","congruent","uniform","1","undefined","1","h","65","0","0","0","65","0","65","0","65","0","0","0","65","65","65","65","09/25/22 18:58:48","1500","The main experiment item","yes","FlankerTask.osexp","C:\Users\casme\OneDrive\Desktop\Fall 2022","no","mono","no","18","no","white","no","yes","768","legacy","65","65","C:/Users/casme/OneDrive/Desktop/Fall 2022/IC-subject-3.csv","legacy","Lentiform Loewenfeld","3.3.12","0","h","NA","h","NA","NA","h","301","NA","71809","NA","NA","301","2","legacy","1024","2","48000","-16","experiment","HHHHH","3","odd","181489","74328","NA","NA","115600","2471","NA","NA","182543","2518","NA","NA","182646","182948","182541","182646","Flanker Task","63","31100","66","yes","1024"
"95.5223880597","95.5223880597","471.23880597","471.23880597","black","legacy","legacy","legacy","0","congruent","uniform","1","undefined","1","s","66","0","0","0","66","0","66","0","66","0","0","0","66","66","66","66","09/25/22 18:58:48","1500","The main experiment item","yes","FlankerTask.osexp","C:\Users\casme\OneDrive\Desktop\Fall 2022","no","mono","no","18","no","white","no","yes","768","legacy","66","66","C:/Users/casme/OneDrive/Desktop/Fall 2022/IC-subject-3.csv","legacy","Lentiform Loewenfeld","3.3.12","0","s","NA","h","NA","NA","s","473","NA","71809","NA","NA","473","2","legacy","1024","2","48000","-16","experiment","SSSSS","3","odd","182955","74328","NA","NA","115600","2471","NA","NA","184011","2518","NA","NA","184112","184586","184009","184112","Flanker Task","64","31573","67","yes","1024"
"95.5882352941","95.5882352941","471.205882353","471.205882353","black","legacy","legacy","legacy","0","incongruent","uniform","1","undefined","1","s","67","0","0","0","67","0","67","0","67","0","0","0","67","67","67","67","09/25/22 18:58:48","1500","The main experiment item","yes","FlankerTask.osexp","C:\Users\casme\OneDrive\Desktop\Fall 2022","no","mono","no","18","no","white","no","yes","768","legacy","67","67","C:/Users/casme/OneDrive/Desktop/Fall 2022/IC-subject-3.csv","legacy","Lentiform Loewenfeld","3.3.12","0","s","NA","h","NA","NA","s","469","NA","71809","NA","NA","469","2","legacy","1024","2","48000","-16","experiment","HHSHH","3","odd","184593","74328","NA","NA","115600","2471","NA","NA","185649","2518","NA","NA","185750","186220","185646","185750","Flanker Task","65","32042","68","yes","1024"
"95.652173913","95.652173913","469.260869565","469.260869565","black","legacy","legacy","legacy","0","congruent","uniform","1","undefined","1","s","68","0","0","0","68","0","68","0","68","0","0","0","68","68","68","68","09/25/22 18:58:48","1500","The main experiment item","yes","FlankerTask.osexp","C:\Users\casme\OneDrive\Desktop\Fall 2022","no","mono","no","18","no","white","no","yes","768","legacy","68","68","C:/Users/casme/OneDrive/Desktop/Fall 2022/IC-subject-3.csv","legacy","Lentiform Loewenfeld","3.3.12","0","s","NA","h","NA","NA","s","337","NA","71809","NA","NA","337","2","legacy","1024","2","48000","-16","experiment","SSSSS","3","odd","186227","74328","NA","NA","115600","2471","NA","NA","187282","2518","NA","NA","187383","187721","187280","187383","Flanker Task","66","32379","69","yes","1024"
"94.2857142857","94.2857142857","468.585714286","468.585714286","black","legacy","legacy","legacy","0","incongruent","uniform","0","undefined","0","s","69","0","0","0","69","0","69","0","69","0","0","0","69","69","69","69","09/25/22 18:58:48","1500","The main experiment item","yes","FlankerTask.osexp","C:\Users\casme\OneDrive\Desktop\Fall 2022","no","mono","no","18","no","white","no","yes","768","legacy","69","69","C:/Users/casme/OneDrive/Desktop/Fall 2022/IC-subject-3.csv","legacy","Lentiform Loewenfeld","3.3.12","0","h","NA","h","NA","NA","h","422","NA","71809","NA","NA","422","2","legacy","1024","2","48000","-16","experiment","HHSHH","3","odd","187727","74328","NA","NA","115600","2471","NA","NA","188781","2518","NA","NA","188882","189305","188779","188882","Flanker Task","66","32801","70","yes","1024"
"94.3661971831","94.3661971831","466.661971831","466.661971831","black","legacy","legacy","legacy","0","congruent","uniform","1","undefined","1","h","70","0","0","0","70","0","70","0","70","0","0","0","70","70","70","70","09/25/22 18:58:48","1500","The main experiment item","yes","FlankerTask.osexp","C:\Users\casme\OneDrive\Desktop\Fall 2022","no","mono","no","18","no","white","no","yes","768","legacy","70","70","C:/Users/casme/OneDrive/Desktop/Fall 2022/IC-subject-3.csv","legacy","Lentiform Loewenfeld","3.3.12","0","h","NA","h","NA","NA","h","332","NA","71809","NA","NA","332","2","legacy","1024","2","48000","-16","experiment","HHHHH","3","odd","189814","74328","NA","NA","189312","2471","NA","NA","190880","2518","NA","NA","190981","191314","190878","190981","Flanker Task","67","33133","71","yes","1024"
"94.4444444444","94.4444444444","466.75","466.75","black","legacy","legacy","legacy","0","congruent","uniform","1","undefined","1","h","71","0","0","0","71","0","71","0","71","0","0","0","71","71","71","71","09/25/22 18:58:48","1500","The main experiment item","yes","FlankerTask.osexp","C:\Users\casme\OneDrive\Desktop\Fall 2022","no","mono","no","18","no","white","no","yes","768","legacy","71","71","C:/Users/casme/OneDrive/Desktop/Fall 2022/IC-subject-3.csv","legacy","Lentiform Loewenfeld","3.3.12","0","h","NA","h","NA","NA","h","473","NA","71809","NA","NA","473","2","legacy","1024","2","48000","-16","experiment","HHHHH","3","odd","191320","74328","NA","NA","189312","2471","NA","NA","192372","2518","NA","NA","192473","192946","192370","192473","Flanker Task","68","33606","72","yes","1024"
"94.5205479452","94.5205479452","465.575342466","465.575342466","black","legacy","legacy","legacy","0","congruent","uniform","1","undefined","1","s","72","0","0","0","72","0","72","0","72","0","0","0","72","72","72","72","09/25/22 18:58:48","1500","The main experiment item","yes","FlankerTask.osexp","C:\Users\casme\OneDrive\Desktop\Fall 2022","no","mono","no","18","no","white","no","yes","768","legacy","72","72","C:/Users/casme/OneDrive/Desktop/Fall 2022/IC-subject-3.csv","legacy","Lentiform Loewenfeld","3.3.12","0","s","NA","h","NA","NA","s","381","NA","71809","NA","NA","381","2","legacy","1024","2","48000","-16","experiment","SSSSS","3","odd","192953","74328","NA","NA","189312","2471","NA","NA","194019","2518","NA","NA","194120","194502","194017","194120","Flanker Task","69","33987","73","yes","1024"
"94.5945945946","94.5945945946","467.72972973","467.72972973","black","legacy","legacy","legacy","0","incongruent","uniform","1","undefined","1","s","73","0","0","0","73","0","73","0","73","0","0","0","73","73","73","73","09/25/22 18:58:48","1500","The main experiment item","yes","FlankerTask.osexp","C:\Users\casme\OneDrive\Desktop\Fall 2022","no","mono","no","18","no","white","no","yes","768","legacy","73","73","C:/Users/casme/OneDrive/Desktop/Fall 2022/IC-subject-3.csv","legacy","Lentiform Loewenfeld","3.3.12","0","s","NA","h","NA","NA","s","625","NA","71809","NA","NA","625","2","legacy","1024","2","48000","-16","experiment","HHSHH","3","odd","194507","74328","NA","NA","189312","2471","NA","NA","195564","2518","NA","NA","195667","196293","195562","195667","Flanker Task","70","34612","74","yes","1024"
"94.6666666667","94.6666666667","465.786666667","465.786666667","black","legacy","legacy","legacy","0","congruent","uniform","1","undefined","1","s","74","0","0","0","74","0","74","0","74","0","0","0","74","74","74","74","09/25/22 18:58:48","1500","The main experiment item","yes","FlankerTask.osexp","C:\Users\casme\OneDrive\Desktop\Fall 2022","no","mono","no","18","no","white","no","yes","768","legacy","74","74","C:/Users/casme/OneDrive/Desktop/Fall 2022/IC-subject-3.csv","legacy","Lentiform Loewenfeld","3.3.12","0","s","NA","h","NA","NA","s","322","NA","71809","NA","NA","322","2","legacy","1024","2","48000","-16","experiment","SSSSS","3","odd","196299","74328","NA","NA","189312","2471","NA","NA","197352","2518","NA","NA","197455","197778","197349","197455","Flanker Task","71","34934","75","yes","1024"
"94.7368421053","94.7368421053","464.815789474","464.815789474","black","legacy","legacy","legacy","0","incongruent","uniform","1","undefined","1","s","75","0","0","0","75","0","75","0","75","0","0","0","75","75","75","75","09/25/22 18:58:48","1500","The main experiment item","yes","FlankerTask.osexp","C:\Users\casme\OneDrive\Desktop\Fall 2022","no","mono","no","18","no","white","no","yes","768","legacy","75","75","C:/Users/casme/OneDrive/Desktop/Fall 2022/IC-subject-3.csv","legacy","Lentiform Loewenfeld","3.3.12","0","s","NA","h","NA","NA","s","392","NA","71809","NA","NA","392","2","legacy","1024","2","48000","-16","experiment","HHSHH","3","odd","197784","74328","NA","NA","189312","2471","NA","NA","198837","2518","NA","NA","198938","199331","198835","198938","Flanker Task","72","35326","76","yes","1024"
"94.8051948052","94.8051948052","463.454545455","463.454545455","black","legacy","legacy","legacy","0","congruent","uniform","1","undefined","1","s","76","0","0","0","76","0","76","0","76","0","0","0","76","76","76","76","09/25/22 18:58:48","1500","The main experiment item","yes","FlankerTask.osexp","C:\Users\casme\OneDrive\Desktop\Fall 2022","no","mono","no","18","no","white","no","yes","768","legacy","76","76","C:/Users/casme/OneDrive/Desktop/Fall 2022/IC-subject-3.csv","legacy","Lentiform Loewenfeld","3.3.12","0","s","NA","h","NA","NA","s","360","NA","71809","NA","NA","360","2","legacy","1024","2","48000","-16","experiment","SSSSS","3","odd","199338","74328","NA","NA","189312","2471","NA","NA","200398","2518","NA","NA","200499","200861","200396","200499","Flanker Task","73","35686","77","yes","1024"
"94.8717948718","94.8717948718","464.333333333","464.333333333","black","legacy","legacy","legacy","0","incongruent","uniform","1","undefined","1","h","77","0","0","0","77","0","77","0","77","0","0","0","77","77","77","77","09/25/22 18:58:48","1500","The main experiment item","yes","FlankerTask.osexp","C:\Users\casme\OneDrive\Desktop\Fall 2022","no","mono","no","18","no","white","no","yes","768","legacy","77","77","C:/Users/casme/OneDrive/Desktop/Fall 2022/IC-subject-3.csv","legacy","Lentiform Loewenfeld","3.3.12","0","h","NA","h","NA","NA","h","532","NA","71809","NA","NA","532","2","legacy","1024","2","48000","-16","experiment","SSHSS","3","odd","200867","74328","NA","NA","189312","2471","NA","NA","201922","2518","NA","NA","202024","202557","201920","202024","Flanker Task","74","36218","78","yes","1024"
"94.9367088608","94.9367088608","464.088607595","464.088607595","black","legacy","legacy","legacy","0","incongruent","uniform","1","undefined","1","s","78","0","0","0","78","0","78","0","78","0","0","0","78","78","78","78","09/25/22 18:58:48","1500","The main experiment item","yes","FlankerTask.osexp","C:\Users\casme\OneDrive\Desktop\Fall 2022","no","mono","no","18","no","white","no","yes","768","legacy","78","78","C:/Users/casme/OneDrive/Desktop/Fall 2022/IC-subject-3.csv","legacy","Lentiform Loewenfeld","3.3.12","0","s","NA","h","NA","NA","s","445","NA","71809","NA","NA","445","2","legacy","1024","2","48000","-16","experiment","HHSHH","3","odd","202564","74328","NA","NA","189312","2471","NA","NA","203627","2518","NA","NA","203728","204175","203625","203728","Flanker Task","75","36663","79","yes","1024"
"95","95","464.7875","464.7875","black","legacy","legacy","legacy","0","incongruent","uniform","1","undefined","1","s","79","0","0","0","79","0","79","0","79","0","0","0","79","79","79","79","09/25/22 18:58:48","1500","The main experiment item","yes","FlankerTask.osexp","C:\Users\casme\OneDrive\Desktop\Fall 2022","no","mono","no","18","no","white","no","yes","768","legacy","79","79","C:/Users/casme/OneDrive/Desktop/Fall 2022/IC-subject-3.csv","legacy","Lentiform Loewenfeld","3.3.12","0","s","NA","h","NA","NA","s","520","NA","71809","NA","NA","520","2","legacy","1024","2","48000","-16","experiment","HHSHH","3","odd","204181","74328","NA","NA","189312","2471","NA","NA","205238","2518","NA","NA","205339","205860","205235","205339","Flanker Task","76","37183","80","yes","1024"
"95.0617283951","95.0617283951","466.012345679","466.012345679","black","legacy","legacy","legacy","0","incongruent","uniform","1","undefined","1","h","80","0","0","0","80","0","80","0","80","0","0","0","80","80","80","80","09/25/22 18:58:48","600","The main experiment item","yes","FlankerTask.osexp","C:\Users\casme\OneDrive\Desktop\Fall 2022","no","mono","no","18","no","white","no","yes","768","legacy","0","79","C:/Users/casme/OneDrive/Desktop/Fall 2022/IC-subject-3.csv","legacy","Lentiform Loewenfeld","3.3.12","0","h","NA","h","s","NA","h","564","NA","71809","66144","NA","564","2","legacy","1024","2","48000","-16","experiment","SSHSS","3","odd","205867","74328","273023","NA","189312","2471","NA","NA","273087","2518","206878","NA","273189","273754","273086","273189","Flanker Task","77","37747","81","yes","1024"
"95.1219512195","95.1219512195","465.158536585","465.158536585","black","legacy","legacy","legacy","0","incongruent","uniform","1","undefined","1","h","81","0","0","0","81","0","81","0","81","0","0","0","81","81","81","81","09/25/22 18:58:48","600","The main experiment item","yes","FlankerTask.osexp","C:\Users\casme\OneDrive\Desktop\Fall 2022","no","mono","no","18","no","white","no","yes","768","legacy","1","79","C:/Users/casme/OneDrive/Desktop/Fall 2022/IC-subject-3.csv","legacy","Lentiform Loewenfeld","3.3.12","0","h","NA","h","s","NA","h","396","NA","71809","66144","NA","396","2","legacy","1024","2","48000","-16","experiment","SSHSS","3","odd","273760","74328","273023","NA","189312","2471","NA","NA","274818","2518","206878","NA","274919","275316","274815","274919","Flanker Task","78","38143","82","yes","1024"
"93.9759036145","93.9759036145","463.975903614","463.975903614","black","legacy","legacy","legacy","0","incongruent","uniform","0","undefined","0","s","82","0","0","0","82","0","82","0","82","0","0","0","82","82","82","82","09/25/22 18:58:48","600","The main experiment item","yes","FlankerTask.osexp","C:\Users\casme\OneDrive\Desktop\Fall 2022","no","mono","no","18","no","white","no","yes","768","legacy","2","79","C:/Users/casme/OneDrive/Desktop/Fall 2022/IC-subject-3.csv","legacy","Lentiform Loewenfeld","3.3.12","0","h","NA","h","s","NA","h","367","NA","71809","66144","NA","367","2","legacy","1024","2","48000","-16","experiment","HHSHH","3","odd","275324","74328","273023","NA","189312","2471","NA","NA","276378","2518","206878","NA","276479","276847","276376","276479","Flanker Task","78","38510","83","yes","1024"
"94.0476190476","94.0476190476","463.75","463.75","black","legacy","legacy","legacy","0","congruent","uniform","1","undefined","1","s","83","0","0","0","83","0","83","0","83","0","0","0","83","83","83","83","09/25/22 18:58:48","600","The main experiment item","yes","FlankerTask.osexp","C:\Users\casme\OneDrive\Desktop\Fall 2022","no","mono","no","18","no","white","no","yes","768","legacy","3","79","C:/Users/casme/OneDrive/Desktop/Fall 2022/IC-subject-3.csv","legacy","Lentiform Loewenfeld","3.3.12","0","s","NA","h","s","NA","s","445","NA","71809","66144","NA","445","2","legacy","1024","2","48000","-16","experiment","SSSSS","3","odd","277354","74328","273023","NA","276853","2471","NA","NA","278411","2518","206878","NA","278512","278958","278409","278512","Flanker Task","79","38955","84","yes","1024"
"94.1176470588","94.1176470588","462.635294118","462.635294118","black","legacy","legacy","legacy","0","congruent","uniform","1","undefined","1","s","84","0","0","0","84","0","84","0","84","0","0","0","84","84","84","84","09/25/22 18:58:48","600","The main experiment item","yes","FlankerTask.osexp","C:\Users\casme\OneDrive\Desktop\Fall 2022","no","mono","no","18","no","white","no","yes","768","legacy","4","79","C:/Users/casme/OneDrive/Desktop/Fall 2022/IC-subject-3.csv","legacy","Lentiform Loewenfeld","3.3.12","0","s","NA","h","s","NA","s","369","NA","71809","66144","NA","369","2","legacy","1024","2","48000","-16","experiment","SSSSS","3","odd","278964","74328","273023","NA","276853","2471","NA","NA","280025","2518","206878","NA","280127","280497","280023","280127","Flanker Task","80","39324","85","yes","1024"
"94.1860465116","94.1860465116","461.686046512","461.686046512","black","legacy","legacy","legacy","0","congruent","uniform","1","undefined","1","h","85","0","0","0","85","0","85","0","85","0","0","0","85","85","85","85","09/25/22 18:58:48","600","The main experiment item","yes","FlankerTask.osexp","C:\Users\casme\OneDrive\Desktop\Fall 2022","no","mono","no","18","no","white","no","yes","768","legacy","5","79","C:/Users/casme/OneDrive/Desktop/Fall 2022/IC-subject-3.csv","legacy","Lentiform Loewenfeld","3.3.12","0","h","NA","h","s","NA","h","381","NA","71809","66144","NA","381","2","legacy","1024","2","48000","-16","experiment","HHHHH","3","odd","280503","74328","273023","NA","276853","2471","NA","NA","281565","2518","206878","NA","281666","282048","281562","281666","Flanker Task","81","39705","86","yes","1024"
"94.2528735632","94.2528735632","461.436781609","461.436781609","black","legacy","legacy","legacy","0","congruent","uniform","1","undefined","1","h","86","0","0","0","86","0","86","0","86","0","0","0","86","86","86","86","09/25/22 18:58:48","600","The main experiment item","yes","FlankerTask.osexp","C:\Users\casme\OneDrive\Desktop\Fall 2022","no","mono","no","18","no","white","no","yes","768","legacy","6","79","C:/Users/casme/OneDrive/Desktop/Fall 2022/IC-subject-3.csv","legacy","Lentiform Loewenfeld","3.3.12","0","h","NA","h","s","NA","h","440","NA","71809","66144","NA","440","2","legacy","1024","2","48000","-16","experiment","HHHHH","3","odd","282054","74328","273023","NA","276853","2471","NA","NA","283115","2518","206878","NA","283216","283657","283113","283216","Flanker Task","82","40145","87","yes","1024"
"94.3181818182","94.3181818182","460.886363636","460.886363636","black","legacy","legacy","legacy","0","congruent","uniform","1","undefined","1","s","87","0","0","0","87","0","87","0","87","0","0","0","87","87","87","87","09/25/22 18:58:48","600","The main experiment item","yes","FlankerTask.osexp","C:\Users\casme\OneDrive\Desktop\Fall 2022","no","mono","no","18","no","white","no","yes","768","legacy","7","79","C:/Users/casme/OneDrive/Desktop/Fall 2022/IC-subject-3.csv","legacy","Lentiform Loewenfeld","3.3.12","0","s","NA","h","s","NA","s","413","NA","71809","66144","NA","413","2","legacy","1024","2","48000","-16","experiment","SSSSS","3","odd","283663","74328","273023","NA","276853","2471","NA","NA","284720","2518","206878","NA","284821","285236","284717","284821","Flanker Task","83","40558","88","yes","1024"
"94.3820224719","94.3820224719","459.741573034","459.741573034","black","legacy","legacy","legacy","0","congruent","uniform","1","undefined","1","s","88","0","0","0","88","0","88","0","88","0","0","0","88","88","88","88","09/25/22 18:58:48","600","The main experiment item","yes","FlankerTask.osexp","C:\Users\casme\OneDrive\Desktop\Fall 2022","no","mono","no","18","no","white","no","yes","768","legacy","8","79","C:/Users/casme/OneDrive/Desktop/Fall 2022/IC-subject-3.csv","legacy","Lentiform Loewenfeld","3.3.12","0","s","NA","h","s","NA","s","359","NA","71809","66144","NA","359","2","legacy","1024","2","48000","-16","experiment","SSSSS","3","odd","285241","74328","273023","NA","276853","2471","NA","NA","286296","2518","206878","NA","286397","286757","286294","286397","Flanker Task","84","40917","89","yes","1024"
"94.4444444444","94.4444444444","459.422222222","459.422222222","black","legacy","legacy","legacy","0","incongruent","uniform","1","undefined","1","h","89","0","0","0","89","0","89","0","89","0","0","0","89","89","89","89","09/25/22 18:58:48","600","The main experiment item","yes","FlankerTask.osexp","C:\Users\casme\OneDrive\Desktop\Fall 2022","no","mono","no","18","no","white","no","yes","768","legacy","9","79","C:/Users/casme/OneDrive/Desktop/Fall 2022/IC-subject-3.csv","legacy","Lentiform Loewenfeld","3.3.12","0","h","NA","h","s","NA","h","431","NA","71809","66144","NA","431","2","legacy","1024","2","48000","-16","experiment","SSHSS","3","odd","286763","74328","273023","NA","276853","2471","NA","NA","287824","2518","206878","NA","287926","288358","287822","287926","Flanker Task","85","41348","90","yes","1024"
"94.5054945055","94.5054945055","458.692307692","458.692307692","black","legacy","legacy","legacy","0","incongruent","uniform","1","undefined","1","h","90","0","0","0","90","0","90","0","90","0","0","0","90","90","90","90","09/25/22 18:58:48","600","The main experiment item","yes","FlankerTask.osexp","C:\Users\casme\OneDrive\Desktop\Fall 2022","no","mono","no","18","no","white","no","yes","768","legacy","10","79","C:/Users/casme/OneDrive/Desktop/Fall 2022/IC-subject-3.csv","legacy","Lentiform Loewenfeld","3.3.12","0","h","NA","h","s","NA","h","393","NA","71809","66144","NA","393","2","legacy","1024","2","48000","-16","experiment","SSHSS","3","odd","288363","74328","273023","NA","276853","2471","NA","NA","289425","2518","206878","NA","289527","289921","289423","289527","Flanker Task","86","41741","91","yes","1024"
"94.5652173913","94.5652173913","457.967391304","457.967391304","black","legacy","legacy","legacy","0","congruent","uniform","1","undefined","1","h","91","0","0","0","91","0","91","0","91","0","0","0","91","91","91","91","09/25/22 18:58:48","600","The main experiment item","yes","FlankerTask.osexp","C:\Users\casme\OneDrive\Desktop\Fall 2022","no","mono","no","18","no","white","no","yes","768","legacy","11","79","C:/Users/casme/OneDrive/Desktop/Fall 2022/IC-subject-3.csv","legacy","Lentiform Loewenfeld","3.3.12","0","h","NA","h","s","NA","h","392","NA","71809","66144","NA","392","2","legacy","1024","2","48000","-16","experiment","HHHHH","3","odd","289928","74328","273023","NA","276853","2471","NA","NA","290995","2518","206878","NA","291097","291490","290993","291096","Flanker Task","87","42133","92","yes","1024"
"94.623655914","94.623655914","457.860215054","457.860215054","black","legacy","legacy","legacy","0","incongruent","uniform","1","undefined","1","s","92","0","0","0","92","0","92","0","92","0","0","0","92","92","92","92","09/25/22 18:58:48","600","The main experiment item","yes","FlankerTask.osexp","C:\Users\casme\OneDrive\Desktop\Fall 2022","no","mono","no","18","no","white","no","yes","768","legacy","12","79","C:/Users/casme/OneDrive/Desktop/Fall 2022/IC-subject-3.csv","legacy","Lentiform Loewenfeld","3.3.12","0","s","NA","h","s","NA","s","448","NA","71809","66144","NA","448","2","legacy","1024","2","48000","-16","experiment","HHSHH","3","odd","291496","74328","273023","NA","276853","2471","NA","NA","292557","2518","206878","NA","292658","293108","292555","292658","Flanker Task","88","42581","93","yes","1024"
"94.6808510638","94.6808510638","458.212765957","458.212765957","black","legacy","legacy","legacy","0","incongruent","uniform","1","undefined","1","s","93","0","0","0","93","0","93","0","93","0","0","0","93","93","93","93","09/25/22 18:58:48","600","The main experiment item","yes","FlankerTask.osexp","C:\Users\casme\OneDrive\Desktop\Fall 2022","no","mono","no","18","no","white","no","yes","768","legacy","13","79","C:/Users/casme/OneDrive/Desktop/Fall 2022/IC-subject-3.csv","legacy","Lentiform Loewenfeld","3.3.12","0","s","NA","h","s","NA","s","491","NA","71809","66144","NA","491","2","legacy","1024","2","48000","-16","experiment","HHSHH","3","odd","293121","74328","273023","NA","276853","2471","NA","NA","294177","2518","206878","NA","294278","294772","294175","294278","Flanker Task","89","43072","94","yes","1024"
"94.7368421053","94.7368421053","458.6","458.6","black","legacy","legacy","legacy","0","incongruent","uniform","1","undefined","1","s","94","0","0","0","94","0","94","0","94","0","0","0","94","94","94","94","09/25/22 18:58:48","600","The main experiment item","yes","FlankerTask.osexp","C:\Users\casme\OneDrive\Desktop\Fall 2022","no","mono","no","18","no","white","no","yes","768","legacy","14","79","C:/Users/casme/OneDrive/Desktop/Fall 2022/IC-subject-3.csv","legacy","Lentiform Loewenfeld","3.3.12","0","s","NA","h","s","NA","s","495","NA","71809","66144","NA","495","2","legacy","1024","2","48000","-16","experiment","HHSHH","3","odd","294779","74328","273023","NA","276853","2471","NA","NA","295837","2518","206878","NA","295938","296434","295835","295938","Flanker Task","90","43567","95","yes","1024"
"93.75","93.75","457.71875","457.71875","black","legacy","legacy","legacy","0","incongruent","uniform","0","undefined","0","h","95","0","0","0","95","0","95","0","95","0","0","0","95","95","95","95","09/25/22 18:58:48","600","The main experiment item","yes","FlankerTask.osexp","C:\Users\casme\OneDrive\Desktop\Fall 2022","no","mono","no","18","no","white","no","yes","768","legacy","15","79","C:/Users/casme/OneDrive/Desktop/Fall 2022/IC-subject-3.csv","legacy","Lentiform Loewenfeld","3.3.12","0","s","NA","h","s","NA","s","374","NA","71809","66144","NA","374","2","legacy","1024","2","48000","-16","experiment","SSHSS","3","odd","296440","74328","273023","NA","276853","2471","NA","NA","297498","2518","206878","NA","297600","297976","297496","297600","Flanker Task","90","43941","96","yes","1024"
"93.8144329897","93.8144329897","458.329896907","458.329896907","black","legacy","legacy","legacy","0","congruent","uniform","1","undefined","1","s","96","0","0","0","96","0","96","0","96","0","0","0","96","96","96","96","09/25/22 18:58:48","600","The main experiment item","yes","FlankerTask.osexp","C:\Users\casme\OneDrive\Desktop\Fall 2022","no","mono","no","18","no","white","no","yes","768","legacy","16","79","C:/Users/casme/OneDrive/Desktop/Fall 2022/IC-subject-3.csv","legacy","Lentiform Loewenfeld","3.3.12","0","s","NA","h","s","NA","s","517","NA","71809","66144","NA","517","2","legacy","1024","2","48000","-16","experiment","SSSSS","3","odd","298482","74328","273023","NA","297981","2471","NA","NA","299546","2518","206878","NA","299647","300165","299544","299647","Flanker Task","91","44458","97","yes","1024"
"93.8775510204","93.8775510204","458.357142857","458.357142857","black","legacy","legacy","legacy","0","incongruent","uniform","1","undefined","1","h","97","0","0","0","97","0","97","0","97","0","0","0","97","97","97","97","09/25/22 18:58:48","600","The main experiment item","yes","FlankerTask.osexp","C:\Users\casme\OneDrive\Desktop\Fall 2022","no","mono","no","18","no","white","no","yes","768","legacy","17","79","C:/Users/casme/OneDrive/Desktop/Fall 2022/IC-subject-3.csv","legacy","Lentiform Loewenfeld","3.3.12","0","h","NA","h","s","NA","h","461","NA","71809","66144","NA","461","2","legacy","1024","2","48000","-16","experiment","SSHSS","3","odd","300170","74328","273023","NA","297981","2471","NA","NA","301229","2518","206878","NA","301330","301793","301227","301330","Flanker Task","92","44919","98","yes","1024"
"93.9393939394","93.9393939394","458.050505051","458.050505051","black","legacy","legacy","legacy","0","congruent","uniform","1","undefined","1","h","98","0","0","0","98","0","98","0","98","0","0","0","98","98","98","98","09/25/22 18:58:48","600","The main experiment item","yes","FlankerTask.osexp","C:\Users\casme\OneDrive\Desktop\Fall 2022","no","mono","no","18","no","white","no","yes","768","legacy","18","79","C:/Users/casme/OneDrive/Desktop/Fall 2022/IC-subject-3.csv","legacy","Lentiform Loewenfeld","3.3.12","0","h","NA","h","s","NA","h","428","NA","71809","66144","NA","428","2","legacy","1024","2","48000","-16","experiment","HHHHH","3","odd","301798","74328","273023","NA","297981","2471","NA","NA","302854","2518","206878","NA","302956","303385","302852","302955","Flanker Task","93","45347","99","yes","1024"
"94","94","458.4","458.4","black","legacy","legacy","legacy","0","incongruent","uniform","1","undefined","1","s","99","0","0","0","99","0","99","0","99","0","0","0","99","99","99","99","09/25/22 18:58:48","600","The main experiment item","yes","FlankerTask.osexp","C:\Users\casme\OneDrive\Desktop\Fall 2022","no","mono","no","18","no","white","no","yes","768","legacy","19","79","C:/Users/casme/OneDrive/Desktop/Fall 2022/IC-subject-3.csv","legacy","Lentiform Loewenfeld","3.3.12","0","s","NA","h","s","NA","s","493","NA","71809","66144","NA","493","2","legacy","1024","2","48000","-16","experiment","HHSHH","3","odd","303390","74328","273023","NA","297981","2471","NA","NA","304443","2518","206878","NA","304544","305038","304441","304544","Flanker Task","94","45840","100","yes","1024"
"94.0594059406","94.0594059406","458.069306931","458.069306931","black","legacy","legacy","legacy","0","incongruent","uniform","1","undefined","1","h","100","0","0","0","100","0","100","0","100","0","0","0","100","100","100","100","09/25/22 18:58:48","600","The main experiment item","yes","FlankerTask.osexp","C:\Users\casme\OneDrive\Desktop\Fall 2022","no","mono","no","18","no","white","no","yes","768","legacy","20","79","C:/Users/casme/OneDrive/Desktop/Fall 2022/IC-subject-3.csv","legacy","Lentiform Loewenfeld","3.3.12","0","h","NA","h","s","NA","h","425","NA","71809","66144","NA","425","2","legacy","1024","2","48000","-16","experiment","SSHSS","3","odd","305044","74328","273023","NA","297981","2471","NA","NA","306098","2518","206878","NA","306200","306626","306096","306200","Flanker Task","95","46265","101","yes","1024"
"94.1176470588","94.1176470588","459.019607843","459.019607843","black","legacy","legacy","legacy","0","congruent","uniform","1","undefined","1","s","101","0","0","0","101","0","101","0","101","0","0","0","101","101","101","101","09/25/22 18:58:48","600","The main experiment item","yes","FlankerTask.osexp","C:\Users\casme\OneDrive\Desktop\Fall 2022","no","mono","no","18","no","white","no","yes","768","legacy","21","79","C:/Users/casme/OneDrive/Desktop/Fall 2022/IC-subject-3.csv","legacy","Lentiform Loewenfeld","3.3.12","0","s","NA","h","s","NA","s","555","NA","71809","66144","NA","555","2","legacy","1024","2","48000","-16","experiment","SSSSS","3","odd","306632","74328","273023","NA","297981","2471","NA","NA","307690","2518","206878","NA","307791","308347","307688","307791","Flanker Task","96","46820","102","yes","1024"
"94.1747572816","94.1747572816","458.805825243","458.805825243","black","legacy","legacy","legacy","0","incongruent","uniform","1","undefined","1","h","102","0","0","0","102","0","102","0","102","0","0","0","102","102","102","102","09/25/22 18:58:48","600","The main experiment item","yes","FlankerTask.osexp","C:\Users\casme\OneDrive\Desktop\Fall 2022","no","mono","no","18","no","white","no","yes","768","legacy","22","79","C:/Users/casme/OneDrive/Desktop/Fall 2022/IC-subject-3.csv","legacy","Lentiform Loewenfeld","3.3.12","0","h","NA","h","s","NA","h","437","NA","71809","66144","NA","437","2","legacy","1024","2","48000","-16","experiment","SSHSS","3","odd","308354","74328","273023","NA","297981","2471","NA","NA","309412","2518","206878","NA","309513","309951","309410","309513","Flanker Task","97","47257","103","yes","1024"
"94.2307692308","94.2307692308","458.817307692","458.817307692","black","legacy","legacy","legacy","0","congruent","uniform","1","undefined","1","h","103","0","0","0","103","0","103","0","103","0","0","0","103","103","103","103","09/25/22 18:58:48","600","The main experiment item","yes","FlankerTask.osexp","C:\Users\casme\OneDrive\Desktop\Fall 2022","no","mono","no","18","no","white","no","yes","768","legacy","23","79","C:/Users/casme/OneDrive/Desktop/Fall 2022/IC-subject-3.csv","legacy","Lentiform Loewenfeld","3.3.12","0","h","NA","h","s","NA","h","460","NA","71809","66144","NA","460","2","legacy","1024","2","48000","-16","experiment","HHHHH","3","odd","309958","74328","273023","NA","297981","2471","NA","NA","311014","2518","206878","NA","311115","311577","311012","311115","Flanker Task","98","47717","104","yes","1024"
"94.2857142857","94.2857142857","458.933333333","458.933333333","black","legacy","legacy","legacy","0","incongruent","uniform","1","undefined","1","h","104","0","0","0","104","0","104","0","104","0","0","0","104","104","104","104","09/25/22 18:58:48","600","The main experiment item","yes","FlankerTask.osexp","C:\Users\casme\OneDrive\Desktop\Fall 2022","no","mono","no","18","no","white","no","yes","768","legacy","24","79","C:/Users/casme/OneDrive/Desktop/Fall 2022/IC-subject-3.csv","legacy","Lentiform Loewenfeld","3.3.12","0","h","NA","h","s","NA","h","471","NA","71809","66144","NA","471","2","legacy","1024","2","48000","-16","experiment","SSHSS","3","odd","311589","74328","273023","NA","297981","2471","NA","NA","312645","2518","206878","NA","312747","313219","312642","312746","Flanker Task","99","48188","105","yes","1024"
"94.3396226415","94.3396226415","464.660377358","464.660377358","black","legacy","legacy","legacy","0","incongruent","uniform","1","undefined","1","s","105","0","0","0","105","0","105","0","105","0","0","0","105","105","105","105","09/25/22 18:58:48","600","The main experiment item","yes","FlankerTask.osexp","C:\Users\casme\OneDrive\Desktop\Fall 2022","no","mono","no","18","no","white","no","yes","768","legacy","25","79","C:/Users/casme/OneDrive/Desktop/Fall 2022/IC-subject-3.csv","legacy","Lentiform Loewenfeld","3.3.12","0","s","NA","h","s","NA","s","1066","NA","71809","66144","NA","1066","2","legacy","1024","2","48000","-16","experiment","HHSHH","3","odd","313225","74328","273023","NA","297981","2471","NA","NA","314294","2518","206878","NA","314396","315463","314291","314395","Flanker Task","100","49254","106","yes","1024"
"94.3925233645","94.3925233645","464.672897196","464.672897196","black","legacy","legacy","legacy","0","congruent","uniform","1","undefined","1","h","106","0","0","0","106","0","106","0","106","0","0","0","106","106","106","106","09/25/22 18:58:48","600","The main experiment item","yes","FlankerTask.osexp","C:\Users\casme\OneDrive\Desktop\Fall 2022","no","mono","no","18","no","white","no","yes","768","legacy","26","79","C:/Users/casme/OneDrive/Desktop/Fall 2022/IC-subject-3.csv","legacy","Lentiform Loewenfeld","3.3.12","0","h","NA","h","s","NA","h","466","NA","71809","66144","NA","466","2","legacy","1024","2","48000","-16","experiment","HHHHH","3","odd","315970","74328","273023","NA","297981","2471","315469","NA","317027","2518","206878","NA","317128","317595","317025","317128","Flanker Task","101","49720","107","yes","1024"
"94.4444444444","94.4444444444","463.611111111","463.611111111","black","legacy","legacy","legacy","0","congruent","uniform","1","undefined","1","h","107","0","0","0","107","0","107","0","107","0","0","0","107","107","107","107","09/25/22 18:58:48","600","The main experiment item","yes","FlankerTask.osexp","C:\Users\casme\OneDrive\Desktop\Fall 2022","no","mono","no","18","no","white","no","yes","768","legacy","27","79","C:/Users/casme/OneDrive/Desktop/Fall 2022/IC-subject-3.csv","legacy","Lentiform Loewenfeld","3.3.12","0","h","NA","h","s","NA","h","350","NA","71809","66144","NA","350","2","legacy","1024","2","48000","-16","experiment","HHHHH","3","odd","317601","74328","273023","NA","297981","2471","315469","NA","318660","2518","206878","NA","318763","319115","318657","318763","Flanker Task","102","50070","108","yes","1024"
"93.5779816514","93.5779816514","463.651376147","463.651376147","black","legacy","legacy","legacy","0","incongruent","uniform","0","undefined","0","h","108","0","0","0","108","0","108","0","108","0","0","0","108","108","108","108","09/25/22 18:58:48","600","The main experiment item","yes","FlankerTask.osexp","C:\Users\casme\OneDrive\Desktop\Fall 2022","no","mono","no","18","no","white","no","yes","768","legacy","28","79","C:/Users/casme/OneDrive/Desktop/Fall 2022/IC-subject-3.csv","legacy","Lentiform Loewenfeld","3.3.12","0","s","NA","h","s","NA","s","468","NA","71809","66144","NA","468","2","legacy","1024","2","48000","-16","experiment","SSHSS","3","odd","319120","74328","273023","NA","297981","2471","315469","NA","320188","2518","206878","NA","320291","320760","320186","320291","Flanker Task","102","50538","109","yes","1024"
"93.6363636364","93.6363636364","464.1","464.1","black","legacy","legacy","legacy","0","incongruent","uniform","1","undefined","1","s","109","0","0","0","109","0","109","0","109","0","0","0","109","109","109","109","09/25/22 18:58:48","600","The main experiment item","yes","FlankerTask.osexp","C:\Users\casme\OneDrive\Desktop\Fall 2022","no","mono","no","18","no","white","no","yes","768","legacy","29","79","C:/Users/casme/OneDrive/Desktop/Fall 2022/IC-subject-3.csv","legacy","Lentiform Loewenfeld","3.3.12","0","s","NA","h","s","NA","s","513","NA","71809","66144","NA","513","2","legacy","1024","2","48000","-16","experiment","HHSHH","3","odd","321280","74328","273023","NA","320779","2471","315469","NA","322345","2518","206878","NA","322446","322961","322343","322446","Flanker Task","103","51051","110","yes","1024"
"93.6936936937","93.6936936937","464.855855856","464.855855856","black","legacy","legacy","legacy","0","incongruent","uniform","1","undefined","1","s","110","0","0","0","110","0","110","0","110","0","0","0","110","110","110","110","09/25/22 18:58:48","600","The main experiment item","yes","FlankerTask.osexp","C:\Users\casme\OneDrive\Desktop\Fall 2022","no","mono","no","18","no","white","no","yes","768","legacy","30","79","C:/Users/casme/OneDrive/Desktop/Fall 2022/IC-subject-3.csv","legacy","Lentiform Loewenfeld","3.3.12","0","s","NA","h","s","NA","s","548","NA","71809","66144","NA","548","2","legacy","1024","2","48000","-16","experiment","HHSHH","3","odd","322966","74328","273023","NA","320779","2471","315469","NA","324028","2518","206878","NA","324131","324681","324026","324131","Flanker Task","104","51599","111","yes","1024"
"92.8571428571","92.8571428571","474.107142857","474.107142857","black","legacy","legacy","legacy","0","incongruent","uniform","0","undefined","0","h","111","0","0","0","111","0","111","0","111","0","0","0","111","111","111","111","09/25/22 18:58:48","600","The main experiment item","yes","FlankerTask.osexp","C:\Users\casme\OneDrive\Desktop\Fall 2022","no","mono","no","18","no","white","no","yes","768","legacy","31","79","C:/Users/casme/OneDrive/Desktop/Fall 2022/IC-subject-3.csv","legacy","Lentiform Loewenfeld","3.3.12","0","None","NA","h","s","NA","None","1501","NA","71809","66144","NA","1501","2","legacy","1024","2","48000","-16","experiment","SSHSS","3","odd","324689","74328","273023","NA","320779","2471","315469","NA","325972","2518","206878","NA","326078","327581","325743","326075","Flanker Task","104","53100","112","yes","1024"
"92.0353982301","92.0353982301","483.185840708","483.185840708","black","legacy","legacy","legacy","0","incongruent","uniform","0","undefined","0","s","112","0","0","0","112","0","112","0","112","0","0","0","112","112","112","112","09/25/22 18:58:48","600","The main experiment item","yes","FlankerTask.osexp","C:\Users\casme\OneDrive\Desktop\Fall 2022","no","mono","no","18","no","white","no","yes","768","legacy","32","79","C:/Users/casme/OneDrive/Desktop/Fall 2022/IC-subject-3.csv","legacy","Lentiform Loewenfeld","3.3.12","0","None","NA","h","s","NA","None","1500","NA","71809","66144","NA","1500","2","legacy","1024","2","48000","-16","experiment","HHSHH","3","odd","328589","74328","273023","NA","327587","2471","328088","NA","329644","2518","206878","NA","329745","331246","329643","329745","Flanker Task","104","54600","113","yes","1024"
"91.2280701754","91.2280701754","492.105263158","492.105263158","black","legacy","legacy","legacy","0","congruent","uniform","0","undefined","0","s","113","0","0","0","113","0","113","0","113","0","0","0","113","113","113","113","09/25/22 18:58:48","600","The main experiment item","yes","FlankerTask.osexp","C:\Users\casme\OneDrive\Desktop\Fall 2022","no","mono","no","18","no","white","no","yes","768","legacy","33","79","C:/Users/casme/OneDrive/Desktop/Fall 2022/IC-subject-3.csv","legacy","Lentiform Loewenfeld","3.3.12","0","None","NA","h","s","NA","None","1500","NA","71809","66144","NA","1500","2","legacy","1024","2","48000","-16","experiment","SSSSS","3","odd","332253","74328","273023","NA","331251","2471","331752","NA","333327","2518","206878","NA","333428","334929","333325","333428","Flanker Task","104","56100","114","yes","1024"
"91.3043478261","91.3043478261","494.426086957","494.426086957","black","legacy","legacy","legacy","0","congruent","uniform","1","undefined","1","s","114","0","0","0","114","0","114","0","114","0","0","0","114","114","114","114","09/25/22 18:58:48","600","The main experiment item","yes","FlankerTask.osexp","C:\Users\casme\OneDrive\Desktop\Fall 2022","no","mono","no","18","no","white","no","yes","768","legacy","34","79","C:/Users/casme/OneDrive/Desktop/Fall 2022/IC-subject-3.csv","legacy","Lentiform Loewenfeld","3.3.12","0","s","NA","h","s","NA","s","759","NA","71809","66144","NA","759","2","legacy","1024","2","48000","-16","experiment","SSSSS","3","odd","335936","74328","273023","NA","334934","2471","335435","NA","337149","2518","206878","NA","337266","338028","337003","337262","Flanker Task","105","56859","115","yes","1024"
"91.3793103448","91.3793103448","494.577586207","494.577586207","black","legacy","legacy","legacy","0","congruent","uniform","1","undefined","1","s","115","0","0","0","115","0","115","0","115","0","0","0","115","115","115","115","09/25/22 18:58:48","600","The main experiment item","yes","FlankerTask.osexp","C:\Users\casme\OneDrive\Desktop\Fall 2022","no","mono","no","18","no","white","no","yes","768","legacy","35","79","C:/Users/casme/OneDrive/Desktop/Fall 2022/IC-subject-3.csv","legacy","Lentiform Loewenfeld","3.3.12","0","s","NA","h","s","NA","s","512","NA","71809","66144","NA","512","2","legacy","1024","2","48000","-16","experiment","SSSSS","3","odd","338536","74328","273023","NA","334934","2471","338034","NA","339593","2518","206878","NA","339694","340207","339590","339694","Flanker Task","106","57371","116","yes","1024"
"91.452991453","91.452991453","493.564102564","493.564102564","black","legacy","legacy","legacy","0","congruent","uniform","1","undefined","1","s","116","0","0","0","116","0","116","0","116","0","0","0","116","116","116","116","09/25/22 18:58:48","600","The main experiment item","yes","FlankerTask.osexp","C:\Users\casme\OneDrive\Desktop\Fall 2022","no","mono","no","18","no","white","no","yes","768","legacy","36","79","C:/Users/casme/OneDrive/Desktop/Fall 2022/IC-subject-3.csv","legacy","Lentiform Loewenfeld","3.3.12","0","s","NA","h","s","NA","s","376","NA","71809","66144","NA","376","2","legacy","1024","2","48000","-16","experiment","SSSSS","3","odd","340212","74328","273023","NA","334934","2471","338034","NA","341276","2518","206878","NA","341378","341755","341274","341378","Flanker Task","107","57747","117","yes","1024"
"91.5254237288","91.5254237288","492.754237288","492.754237288","black","legacy","legacy","legacy","0","congruent","uniform","1","undefined","1","h","117","0","0","0","117","0","117","0","117","0","0","0","117","117","117","117","09/25/22 18:58:48","600","The main experiment item","yes","FlankerTask.osexp","C:\Users\casme\OneDrive\Desktop\Fall 2022","no","mono","no","18","no","white","no","yes","768","legacy","37","79","C:/Users/casme/OneDrive/Desktop/Fall 2022/IC-subject-3.csv","legacy","Lentiform Loewenfeld","3.3.12","0","h","NA","h","s","NA","h","398","NA","71809","66144","NA","398","2","legacy","1024","2","48000","-16","experiment","HHHHH","3","odd","341761","74328","273023","NA","334934","2471","338034","NA","342824","2518","206878","NA","342927","343327","342822","342927","Flanker Task","108","58145","118","yes","1024"
"91.5966386555","91.5966386555","495.067226891","495.067226891","black","legacy","legacy","legacy","0","incongruent","uniform","1","undefined","1","h","118","0","0","0","118","0","118","0","118","0","0","0","118","118","118","118","09/25/22 18:58:48","600","The main experiment item","yes","FlankerTask.osexp","C:\Users\casme\OneDrive\Desktop\Fall 2022","no","mono","no","18","no","white","no","yes","768","legacy","38","79","C:/Users/casme/OneDrive/Desktop/Fall 2022/IC-subject-3.csv","legacy","Lentiform Loewenfeld","3.3.12","0","h","NA","h","s","NA","h","768","NA","71809","66144","NA","768","2","legacy","1024","2","48000","-16","experiment","SSHSS","3","odd","343333","74328","273023","NA","334934","2471","338034","NA","344386","2518","206878","NA","344488","345258","344384","344488","Flanker Task","109","58913","119","yes","1024"
"90.8333333333","90.8333333333","493.716666667","493.716666667","black","legacy","legacy","legacy","0","incongruent","uniform","0","undefined","0","s","119","0","0","0","119","0","119","0","119","0","0","0","119","119","119","119","09/25/22 18:58:48","600","The main experiment item","yes","FlankerTask.osexp","C:\Users\casme\OneDrive\Desktop\Fall 2022","no","mono","no","18","no","white","no","yes","768","legacy","39","79","C:/Users/casme/OneDrive/Desktop/Fall 2022/IC-subject-3.csv","legacy","Lentiform Loewenfeld","3.3.12","0","h","NA","h","s","NA","h","333","NA","71809","66144","NA","333","2","legacy","1024","2","48000","-16","experiment","HHSHH","3","odd","345768","74328","273023","NA","334934","2471","345264","NA","346834","2518","206878","NA","346936","347270","346832","346935","Flanker Task","109","59246","120","yes","1024"
"90.0826446281","90.0826446281","494.099173554","494.099173554","black","legacy","legacy","legacy","0","congruent","uniform","0","undefined","0","s","120","0","0","0","120","0","120","0","120","0","0","0","120","120","120","120","09/25/22 18:58:48","600","The main experiment item","yes","FlankerTask.osexp","C:\Users\casme\OneDrive\Desktop\Fall 2022","no","mono","no","18","no","white","no","yes","768","legacy","40","79","C:/Users/casme/OneDrive/Desktop/Fall 2022/IC-subject-3.csv","legacy","Lentiform Loewenfeld","3.3.12","0","h","NA","h","s","NA","h","540","NA","71809","66144","NA","540","2","legacy","1024","2","48000","-16","experiment","SSSSS","3","odd","347777","74328","273023","NA","347276","2471","345264","NA","348839","2518","206878","NA","348941","349482","348837","348941","Flanker Task","109","59786","121","yes","1024"
