condition,deadline,Stimulus,acc,accuracy,average_response_time,avg_rt,background,canvas_backend,clock_backend,color_backend,compensation,coordinates,correct,correct_Instructions1,correct_keyboard_response,correct_response,count_Block1,count_Block2,count_Block3,count_Finish,count_Fixation,count_ISI,count_Instructions1,count_Instructions2,count_Instructions3,count_Sequence,count_Stimulus,count_errorFeedback,count_experiment,count_faster,count_keyboard_response,count_logger,datetime,description,disable_garbage_collection,experiment_file,experiment_path,font_bold,font_family,font_italic,font_size,font_underline,foreground,form_clicks,fullscreen,height,keyboard_backend,live_row,live_row_Block1,logfile,mouse_backend,opensesame_codename,opensesame_version,repeat_cycle,response,response_Finish,response_Instructions1,response_Instructions2,response_Instructions3,response_keyboard_response,response_time,response_time_Finish,response_time_Instructions1,response_time_Instructions2,response_time_Instructions3,response_time_keyboard_response,round_decimals,sampler_backend,sound_buf_size,sound_channels,sound_freq,sound_sample_size,start,subject_nr,subject_parity,time_Block1,time_Block2,time_Block3,time_Finish,time_Fixation,time_ISI,time_Instructions1,time_Instructions2,time_Instructions3,time_Sequence,time_Stimulus,time_errorFeedback,time_experiment,time_faster,time_keyboard_response,time_logger,title,total_correct,total_response_time,total_responses,uniform_coordinates,width
Congruent,1500,SSSSS,100,100,591,591,black,legacy,legacy,legacy,0,uniform,1,undefined,1,s,0,0,0,0,0,0,0,0,0,0,0,0,0,0,0,0,Sun Sep 26 18:21:10 2021,The main experiment item,yes,FlankerTask.osexp,/Users/samonemarks/Downloads,no,mono,no,18,no,white,no,yes,768,legacy,0,0,/Users/samonemarks/Downloads/EW-subject-1.csv,legacy,Lentiform Loewenfeld,3.3.9,0,s,NA,s,NA,NA,s,591,NA,5572,NA,NA,591,2,legacy,1024,2,48000,-16,experiment,1,odd,9976,NA,NA,NA,10034,NA,4394,NA,NA,10032,10139,NA,4360,NA,10139,10732,Flanker Task,1,591,1,yes,1024
Incongruent,1500,HHSHH,100,100,608,608,black,legacy,legacy,legacy,0,uniform,1,undefined,1,s,0,0,0,0,1,1,0,0,0,1,1,1,0,1,1,1,Sun Sep 26 18:21:10 2021,The main experiment item,yes,FlankerTask.osexp,/Users/samonemarks/Downloads,no,mono,no,18,no,white,no,yes,768,legacy,1,1,/Users/samonemarks/Downloads/EW-subject-1.csv,legacy,Lentiform Loewenfeld,3.3.9,0,s,NA,s,NA,NA,s,625,NA,5572,NA,NA,625,2,legacy,1024,2,48000,-16,experiment,1,odd,9976,NA,NA,NA,11808,10738,4394,NA,NA,11806,11911,NA,4360,NA,11912,12538,Flanker Task,2,1216,2,yes,1024
Congruent,1500,SSSSS,100,100,549.3333333,549.3333333,black,legacy,legacy,legacy,0,uniform,1,undefined,1,s,0,0,0,0,2,2,0,0,0,2,2,2,0,2,2,2,Sun Sep 26 18:21:10 2021,The main experiment item,yes,FlankerTask.osexp,/Users/samonemarks/Downloads,no,mono,no,18,no,white,no,yes,768,legacy,2,2,/Users/samonemarks/Downloads/EW-subject-1.csv,legacy,Lentiform Loewenfeld,3.3.9,0,s,NA,s,NA,NA,s,432,NA,5572,NA,NA,432,2,legacy,1024,2,48000,-16,experiment,1,odd,9976,NA,NA,NA,13607,12542,4394,NA,NA,13602,13709,NA,4360,NA,13710,14142,Flanker Task,3,1648,3,yes,1024
Incongruent,1500,SSHSS,100,100,548.25,548.25,black,legacy,legacy,legacy,0,uniform,1,undefined,1,h,0,0,0,0,3,3,0,0,0,3,3,3,0,3,3,3,Sun Sep 26 18:21:10 2021,The main experiment item,yes,FlankerTask.osexp,/Users/samonemarks/Downloads,no,mono,no,18,no,white,no,yes,768,legacy,3,3,/Users/samonemarks/Downloads/EW-subject-1.csv,legacy,Lentiform Loewenfeld,3.3.9,0,h,NA,s,NA,NA,h,545,NA,5572,NA,NA,545,2,legacy,1024,2,48000,-16,experiment,1,odd,9976,NA,NA,NA,15212,14148,4394,NA,NA,15210,15314,NA,4360,NA,15314,15859,Flanker Task,4,2193,4,yes,1024
Incongruent,1500,HHSHH,100,100,560.6,560.6,black,legacy,legacy,legacy,0,uniform,1,undefined,1,s,0,0,0,0,4,4,0,0,0,4,4,4,0,4,4,4,Sun Sep 26 18:21:10 2021,The main experiment item,yes,FlankerTask.osexp,/Users/samonemarks/Downloads,no,mono,no,18,no,white,no,yes,768,legacy,4,4,/Users/samonemarks/Downloads/EW-subject-1.csv,legacy,Lentiform Loewenfeld,3.3.9,0,s,NA,s,NA,NA,s,610,NA,5572,NA,NA,610,2,legacy,1024,2,48000,-16,experiment,1,odd,9976,NA,NA,NA,16927,15864,4394,NA,NA,16924,17031,NA,4360,NA,17031,17641,Flanker Task,5,2803,5,yes,1024
Incongruent,1500,HHSHH,100,100,558.8333333,558.8333333,black,legacy,legacy,legacy,0,uniform,1,undefined,1,s,0,0,0,0,5,5,0,0,0,5,5,5,0,5,5,5,Sun Sep 26 18:21:10 2021,The main experiment item,yes,FlankerTask.osexp,/Users/samonemarks/Downloads,no,mono,no,18,no,white,no,yes,768,legacy,5,5,/Users/samonemarks/Downloads/EW-subject-1.csv,legacy,Lentiform Loewenfeld,3.3.9,0,s,NA,s,NA,NA,s,550,NA,5572,NA,NA,550,2,legacy,1024,2,48000,-16,experiment,1,odd,9976,NA,NA,NA,18709,17646,4394,NA,NA,18707,18811,NA,4360,NA,18811,19361,Flanker Task,6,3353,6,yes,1024
Congruent,1500,HHHHH,100,100,552,552,black,legacy,legacy,legacy,0,uniform,1,undefined,1,h,0,0,0,0,6,6,0,0,0,6,6,6,0,6,6,6,Sun Sep 26 18:21:10 2021,The main experiment item,yes,FlankerTask.osexp,/Users/samonemarks/Downloads,no,mono,no,18,no,white,no,yes,768,legacy,6,6,/Users/samonemarks/Downloads/EW-subject-1.csv,legacy,Lentiform Loewenfeld,3.3.9,0,h,NA,s,NA,NA,h,511,NA,5572,NA,NA,511,2,legacy,1024,2,48000,-16,experiment,1,odd,9976,NA,NA,NA,20428,19366,4394,NA,NA,20426,20530,NA,4360,NA,20530,21041,Flanker Task,7,3864,7,yes,1024
Congruent,1500,HHHHH,100,100,547.5,547.5,black,legacy,legacy,legacy,0,uniform,1,undefined,1,h,0,0,0,0,7,7,0,0,0,7,7,7,0,7,7,7,Sun Sep 26 18:21:10 2021,The main experiment item,yes,FlankerTask.osexp,/Users/samonemarks/Downloads,no,mono,no,18,no,white,no,yes,768,legacy,7,7,/Users/samonemarks/Downloads/EW-subject-1.csv,legacy,Lentiform Loewenfeld,3.3.9,0,h,NA,s,NA,NA,h,516,NA,5572,NA,NA,516,2,legacy,1024,2,48000,-16,experiment,1,odd,9976,NA,NA,NA,22108,21046,4394,NA,NA,22105,22211,NA,4360,NA,22211,22727,Flanker Task,8,4380,8,yes,1024
Incongruent,1500,SSHSS,100,100,548.6666667,548.6666667,black,legacy,legacy,legacy,0,uniform,1,undefined,1,h,0,0,0,0,8,8,0,0,0,8,8,8,0,8,8,8,Sun Sep 26 18:21:10 2021,The main experiment item,yes,FlankerTask.osexp,/Users/samonemarks/Downloads,no,mono,no,18,no,white,no,yes,768,legacy,8,8,/Users/samonemarks/Downloads/EW-subject-1.csv,legacy,Lentiform Loewenfeld,3.3.9,0,h,NA,s,NA,NA,h,558,NA,5572,NA,NA,558,2,legacy,1024,2,48000,-16,experiment,1,odd,9976,NA,NA,NA,23793,22730,4394,NA,NA,23790,23895,NA,4360,NA,23895,24454,Flanker Task,9,4938,9,yes,1024
Incongruent,1500,SSHSS,100,100,547,547,black,legacy,legacy,legacy,0,uniform,1,undefined,1,h,0,0,0,0,9,9,0,0,0,9,9,9,0,9,9,9,Sun Sep 26 18:21:10 2021,The main experiment item,yes,FlankerTask.osexp,/Users/samonemarks/Downloads,no,mono,no,18,no,white,no,yes,768,legacy,9,9,/Users/samonemarks/Downloads/EW-subject-1.csv,legacy,Lentiform Loewenfeld,3.3.9,0,h,NA,s,NA,NA,h,532,NA,5572,NA,NA,532,2,legacy,1024,2,48000,-16,experiment,1,odd,9976,NA,NA,NA,25525,24459,4394,NA,NA,25521,25628,NA,4360,NA,25628,26161,Flanker Task,10,5470,10,yes,1024
Congruent,1500,SSSSS,100,100,552.9090909,552.9090909,black,legacy,legacy,legacy,0,uniform,1,undefined,1,s,0,0,0,0,10,10,0,0,0,10,10,10,0,10,10,10,Sun Sep 26 18:21:10 2021,The main experiment item,yes,FlankerTask.osexp,/Users/samonemarks/Downloads,no,mono,no,18,no,white,no,yes,768,legacy,10,10,/Users/samonemarks/Downloads/EW-subject-1.csv,legacy,Lentiform Loewenfeld,3.3.9,0,s,NA,s,NA,NA,s,612,NA,5572,NA,NA,612,2,legacy,1024,2,48000,-16,experiment,1,odd,9976,NA,NA,NA,27229,26166,4394,NA,NA,27225,27332,NA,4360,NA,27332,27945,Flanker Task,11,6082,11,yes,1024
Incongruent,1500,HHSHH,100,100,550.3333333,550.3333333,black,legacy,legacy,legacy,0,uniform,1,undefined,1,s,0,0,0,0,11,11,0,0,0,11,11,11,0,11,11,11,Sun Sep 26 18:21:10 2021,The main experiment item,yes,FlankerTask.osexp,/Users/samonemarks/Downloads,no,mono,no,18,no,white,no,yes,768,legacy,11,11,/Users/samonemarks/Downloads/EW-subject-1.csv,legacy,Lentiform Loewenfeld,3.3.9,0,s,NA,s,NA,NA,s,522,NA,5572,NA,NA,522,2,legacy,1024,2,48000,-16,experiment,1,odd,9976,NA,NA,NA,29013,27950,4394,NA,NA,29010,29116,NA,4360,NA,29116,29639,Flanker Task,12,6604,12,yes,1024
Congruent,1500,HHHHH,100,100,569.6153846,569.6153846,black,legacy,legacy,legacy,0,uniform,1,undefined,1,h,0,0,0,0,12,12,0,0,0,12,12,12,0,12,12,12,Sun Sep 26 18:21:10 2021,The main experiment item,yes,FlankerTask.osexp,/Users/samonemarks/Downloads,no,mono,no,18,no,white,no,yes,768,legacy,12,12,/Users/samonemarks/Downloads/EW-subject-1.csv,legacy,Lentiform Loewenfeld,3.3.9,0,h,NA,s,NA,NA,h,801,NA,5572,NA,NA,801,2,legacy,1024,2,48000,-16,experiment,1,odd,9976,NA,NA,NA,30707,29644,4394,NA,NA,30704,30809,NA,4360,NA,30810,31612,Flanker Task,13,7405,13,yes,1024
Incongruent,1500,HHSHH,100,100,592.0714286,592.0714286,black,legacy,legacy,legacy,0,uniform,1,undefined,1,s,0,0,0,0,13,13,0,0,0,13,13,13,0,13,13,13,Sun Sep 26 18:21:10 2021,The main experiment item,yes,FlankerTask.osexp,/Users/samonemarks/Downloads,no,mono,no,18,no,white,no,yes,768,legacy,13,13,/Users/samonemarks/Downloads/EW-subject-1.csv,legacy,Lentiform Loewenfeld,3.3.9,0,s,NA,s,NA,NA,s,884,NA,5572,NA,NA,884,2,legacy,1024,2,48000,-16,experiment,1,odd,9976,NA,NA,NA,32681,31616,4394,NA,NA,32677,32784,NA,4360,NA,32784,33669,Flanker Task,14,8289,14,yes,1024
Incongruent,1500,SSHSS,100,100,591.4666667,591.4666667,black,legacy,legacy,legacy,0,uniform,1,undefined,1,h,0,0,0,0,14,14,0,0,0,14,14,14,0,14,14,14,Sun Sep 26 18:21:10 2021,The main experiment item,yes,FlankerTask.osexp,/Users/samonemarks/Downloads,no,mono,no,18,no,white,no,yes,768,legacy,14,14,/Users/samonemarks/Downloads/EW-subject-1.csv,legacy,Lentiform Loewenfeld,3.3.9,0,h,NA,s,NA,NA,h,583,NA,5572,NA,NA,583,2,legacy,1024,2,48000,-16,experiment,1,odd,9976,NA,NA,NA,34736,33673,4394,NA,NA,34733,34838,NA,4360,NA,34839,35423,Flanker Task,15,8872,15,yes,1024
Incongruent,1500,HHSHH,100,100,599.1875,599.1875,black,legacy,legacy,legacy,0,uniform,1,undefined,1,s,0,0,0,0,15,15,0,0,0,15,15,15,0,15,15,15,Sun Sep 26 18:21:10 2021,The main experiment item,yes,FlankerTask.osexp,/Users/samonemarks/Downloads,no,mono,no,18,no,white,no,yes,768,legacy,15,15,/Users/samonemarks/Downloads/EW-subject-1.csv,legacy,Lentiform Loewenfeld,3.3.9,0,s,NA,s,NA,NA,s,715,NA,5572,NA,NA,715,2,legacy,1024,2,48000,-16,experiment,1,odd,9976,NA,NA,NA,36491,35427,4394,NA,NA,36488,36594,NA,4360,NA,36594,37310,Flanker Task,16,9587,16,yes,1024
Incongruent,1500,HHSHH,100,100,598.1176471,598.1176471,black,legacy,legacy,legacy,0,uniform,1,undefined,1,s,0,0,0,0,16,16,0,0,0,16,16,16,0,16,16,16,Sun Sep 26 18:21:10 2021,The main experiment item,yes,FlankerTask.osexp,/Users/samonemarks/Downloads,no,mono,no,18,no,white,no,yes,768,legacy,16,16,/Users/samonemarks/Downloads/EW-subject-1.csv,legacy,Lentiform Loewenfeld,3.3.9,0,s,NA,s,NA,NA,s,581,NA,5572,NA,NA,581,2,legacy,1024,2,48000,-16,experiment,1,odd,9976,NA,NA,NA,38376,37314,4394,NA,NA,38374,38479,NA,4360,NA,38479,39061,Flanker Task,17,10168,17,yes,1024
Congruent,1500,HHHHH,100,100,601.3333333,601.3333333,black,legacy,legacy,legacy,0,uniform,1,undefined,1,h,0,0,0,0,17,17,0,0,0,17,17,17,0,17,17,17,Sun Sep 26 18:21:10 2021,The main experiment item,yes,FlankerTask.osexp,/Users/samonemarks/Downloads,no,mono,no,18,no,white,no,yes,768,legacy,17,17,/Users/samonemarks/Downloads/EW-subject-1.csv,legacy,Lentiform Loewenfeld,3.3.9,0,h,NA,s,NA,NA,h,656,NA,5572,NA,NA,656,2,legacy,1024,2,48000,-16,experiment,1,odd,9976,NA,NA,NA,40127,39066,4394,NA,NA,40125,40229,NA,4360,NA,40229,40886,Flanker Task,18,10824,18,yes,1024
Incongruent,1500,SSHSS,100,100,611.6842105,611.6842105,black,legacy,legacy,legacy,0,uniform,1,undefined,1,h,0,0,0,0,18,18,0,0,0,18,18,18,0,18,18,18,Sun Sep 26 18:21:10 2021,The main experiment item,yes,FlankerTask.osexp,/Users/samonemarks/Downloads,no,mono,no,18,no,white,no,yes,768,legacy,18,18,/Users/samonemarks/Downloads/EW-subject-1.csv,legacy,Lentiform Loewenfeld,3.3.9,0,h,NA,s,NA,NA,h,798,NA,5572,NA,NA,798,2,legacy,1024,2,48000,-16,experiment,1,odd,9976,NA,NA,NA,41952,40890,4394,NA,NA,41949,42054,NA,4360,NA,42054,42852,Flanker Task,19,11622,19,yes,1024
Congruent,1500,SSSSS,100,100,612.2,612.2,black,legacy,legacy,legacy,0,uniform,1,undefined,1,s,0,0,0,0,19,19,0,0,0,19,19,19,0,19,19,19,Sun Sep 26 18:21:10 2021,The main experiment item,yes,FlankerTask.osexp,/Users/samonemarks/Downloads,no,mono,no,18,no,white,no,yes,768,legacy,19,19,/Users/samonemarks/Downloads/EW-subject-1.csv,legacy,Lentiform Loewenfeld,3.3.9,0,s,NA,s,NA,NA,s,622,NA,5572,NA,NA,622,2,legacy,1024,2,48000,-16,experiment,1,odd,9976,NA,NA,NA,43919,42856,4394,NA,NA,43916,44024,NA,4360,NA,44024,44647,Flanker Task,20,12244,20,yes,1024
Incongruent,1500,HHSHH,100,100,630.1904762,630.1904762,black,legacy,legacy,legacy,0,uniform,1,undefined,1,s,0,0,0,0,20,20,0,0,0,20,20,20,0,20,20,20,Sun Sep 26 18:21:10 2021,The main experiment item,yes,FlankerTask.osexp,/Users/samonemarks/Downloads,no,mono,no,18,no,white,no,yes,768,legacy,20,20,/Users/samonemarks/Downloads/EW-subject-1.csv,legacy,Lentiform Loewenfeld,3.3.9,0,s,NA,s,NA,NA,s,990,NA,5572,NA,NA,990,2,legacy,1024,2,48000,-16,experiment,1,odd,9976,NA,NA,NA,45713,44651,4394,NA,NA,45710,45815,NA,4360,NA,45815,46805,Flanker Task,21,13234,21,yes,1024
Incongruent,1500,HHSHH,100,100,625.5909091,625.5909091,black,legacy,legacy,legacy,0,uniform,1,undefined,1,s,0,0,0,0,21,21,0,0,0,21,21,21,0,21,21,21,Sun Sep 26 18:21:10 2021,The main experiment item,yes,FlankerTask.osexp,/Users/samonemarks/Downloads,no,mono,no,18,no,white,no,yes,768,legacy,21,21,/Users/samonemarks/Downloads/EW-subject-1.csv,legacy,Lentiform Loewenfeld,3.3.9,0,s,NA,s,NA,NA,s,529,NA,5572,NA,NA,529,2,legacy,1024,2,48000,-16,experiment,1,odd,9976,NA,NA,NA,47873,46810,4394,NA,NA,47871,47976,NA,4360,NA,47976,48505,Flanker Task,22,13763,22,yes,1024
Congruent,1500,SSSSS,100,100,621.9565217,621.9565217,black,legacy,legacy,legacy,0,uniform,1,undefined,1,s,0,0,0,0,22,22,0,0,0,22,22,22,0,22,22,22,Sun Sep 26 18:21:10 2021,The main experiment item,yes,FlankerTask.osexp,/Users/samonemarks/Downloads,no,mono,no,18,no,white,no,yes,768,legacy,22,22,/Users/samonemarks/Downloads/EW-subject-1.csv,legacy,Lentiform Loewenfeld,3.3.9,0,s,NA,s,NA,NA,s,542,NA,5572,NA,NA,542,2,legacy,1024,2,48000,-16,experiment,1,odd,9976,NA,NA,NA,49573,48510,4394,NA,NA,49570,49675,NA,4360,NA,49675,50217,Flanker Task,23,14305,23,yes,1024
Congruent,1500,HHHHH,100,100,613.6666667,613.6666667,black,legacy,legacy,legacy,0,uniform,1,undefined,1,h,0,0,0,0,23,23,0,0,0,23,23,23,0,23,23,23,Sun Sep 26 18:21:10 2021,The main experiment item,yes,FlankerTask.osexp,/Users/samonemarks/Downloads,no,mono,no,18,no,white,no,yes,768,legacy,23,23,/Users/samonemarks/Downloads/EW-subject-1.csv,legacy,Lentiform Loewenfeld,3.3.9,0,h,NA,s,NA,NA,h,423,NA,5572,NA,NA,423,2,legacy,1024,2,48000,-16,experiment,1,odd,9976,NA,NA,NA,51284,50222,4394,NA,NA,51281,51386,NA,4360,NA,51387,51811,Flanker Task,24,14728,24,yes,1024
Incongruent,1500,HHSHH,100,100,611.24,611.24,black,legacy,legacy,legacy,0,uniform,1,undefined,1,s,0,0,0,0,24,24,0,0,0,24,24,24,0,24,24,24,Sun Sep 26 18:21:10 2021,The main experiment item,yes,FlankerTask.osexp,/Users/samonemarks/Downloads,no,mono,no,18,no,white,no,yes,768,legacy,24,24,/Users/samonemarks/Downloads/EW-subject-1.csv,legacy,Lentiform Loewenfeld,3.3.9,0,s,NA,s,NA,NA,s,553,NA,5572,NA,NA,553,2,legacy,1024,2,48000,-16,experiment,1,odd,9976,NA,NA,NA,52879,51816,4394,NA,NA,52875,52981,NA,4360,NA,52981,53535,Flanker Task,25,15281,25,yes,1024
Incongruent,1500,HHSHH,100,100,605.8846154,605.8846154,black,legacy,legacy,legacy,0,uniform,1,undefined,1,s,0,0,0,0,25,25,0,0,0,25,25,25,0,25,25,25,Sun Sep 26 18:21:10 2021,The main experiment item,yes,FlankerTask.osexp,/Users/samonemarks/Downloads,no,mono,no,18,no,white,no,yes,768,legacy,25,25,/Users/samonemarks/Downloads/EW-subject-1.csv,legacy,Lentiform Loewenfeld,3.3.9,0,s,NA,s,NA,NA,s,472,NA,5572,NA,NA,472,2,legacy,1024,2,48000,-16,experiment,1,odd,9976,NA,NA,NA,54602,53540,4394,NA,NA,54600,54705,NA,4360,NA,54705,55177,Flanker Task,26,15753,26,yes,1024
Congruent,1500,HHHHH,100,100,603.037037,603.037037,black,legacy,legacy,legacy,0,uniform,1,undefined,1,h,0,0,0,0,26,26,0,0,0,26,26,26,0,26,26,26,Sun Sep 26 18:21:10 2021,The main experiment item,yes,FlankerTask.osexp,/Users/samonemarks/Downloads,no,mono,no,18,no,white,no,yes,768,legacy,26,26,/Users/samonemarks/Downloads/EW-subject-1.csv,legacy,Lentiform Loewenfeld,3.3.9,0,h,NA,s,NA,NA,h,529,NA,5572,NA,NA,529,2,legacy,1024,2,48000,-16,experiment,1,odd,9976,NA,NA,NA,56243,55182,4394,NA,NA,56241,56345,NA,4360,NA,56346,56876,Flanker Task,27,16282,27,yes,1024
Incongruent,1500,SSHSS,100,100,599.7142857,599.7142857,black,legacy,legacy,legacy,0,uniform,1,undefined,1,h,0,0,0,0,27,27,0,0,0,27,27,27,0,27,27,27,Sun Sep 26 18:21:10 2021,The main experiment item,yes,FlankerTask.osexp,/Users/samonemarks/Downloads,no,mono,no,18,no,white,no,yes,768,legacy,27,27,/Users/samonemarks/Downloads/EW-subject-1.csv,legacy,Lentiform Loewenfeld,3.3.9,0,h,NA,s,NA,NA,h,510,NA,5572,NA,NA,510,2,legacy,1024,2,48000,-16,experiment,1,odd,9976,NA,NA,NA,57943,56880,4394,NA,NA,57940,58045,NA,4360,NA,58046,58556,Flanker Task,28,16792,28,yes,1024
Congruent,1500,HHHHH,100,100,596.4827586,596.4827586,black,legacy,legacy,legacy,0,uniform,1,undefined,1,h,0,0,0,0,28,28,0,0,0,28,28,28,0,28,28,28,Sun Sep 26 18:21:10 2021,The main experiment item,yes,FlankerTask.osexp,/Users/samonemarks/Downloads,no,mono,no,18,no,white,no,yes,768,legacy,28,28,/Users/samonemarks/Downloads/EW-subject-1.csv,legacy,Lentiform Loewenfeld,3.3.9,0,h,NA,s,NA,NA,h,506,NA,5572,NA,NA,506,2,legacy,1024,2,48000,-16,experiment,1,odd,9976,NA,NA,NA,59623,58561,4394,NA,NA,59620,59725,NA,4360,NA,59725,60232,Flanker Task,29,17298,29,yes,1024
Congruent,1500,SSSSS,100,100,594.3,594.3,black,legacy,legacy,legacy,0,uniform,1,undefined,1,s,0,0,0,0,29,29,0,0,0,29,29,29,0,29,29,29,Sun Sep 26 18:21:10 2021,The main experiment item,yes,FlankerTask.osexp,/Users/samonemarks/Downloads,no,mono,no,18,no,white,no,yes,768,legacy,29,29,/Users/samonemarks/Downloads/EW-subject-1.csv,legacy,Lentiform Loewenfeld,3.3.9,0,s,NA,s,NA,NA,s,531,NA,5572,NA,NA,531,2,legacy,1024,2,48000,-16,experiment,1,odd,9976,NA,NA,NA,61300,60237,4394,NA,NA,61296,61402,NA,4360,NA,61403,61935,Flanker Task,30,17829,30,yes,1024
Congruent,1500,SSSSS,100,100,591.7419355,591.7419355,black,legacy,legacy,legacy,0,uniform,1,undefined,1,s,0,0,0,0,30,30,0,0,0,30,30,30,0,30,30,30,Sun Sep 26 18:21:10 2021,The main experiment item,yes,FlankerTask.osexp,/Users/samonemarks/Downloads,no,mono,no,18,no,white,no,yes,768,legacy,30,30,/Users/samonemarks/Downloads/EW-subject-1.csv,legacy,Lentiform Loewenfeld,3.3.9,0,s,NA,s,NA,NA,s,515,NA,5572,NA,NA,515,2,legacy,1024,2,48000,-16,experiment,1,odd,9976,NA,NA,NA,63001,61940,4394,NA,NA,62999,63103,NA,4360,NA,63103,63619,Flanker Task,31,18344,31,yes,1024
Congruent,1500,HHHHH,100,100,588,588,black,legacy,legacy,legacy,0,uniform,1,undefined,1,h,0,0,0,0,31,31,0,0,0,31,31,31,0,31,31,31,Sun Sep 26 18:21:10 2021,The main experiment item,yes,FlankerTask.osexp,/Users/samonemarks/Downloads,no,mono,no,18,no,white,no,yes,768,legacy,31,31,/Users/samonemarks/Downloads/EW-subject-1.csv,legacy,Lentiform Loewenfeld,3.3.9,0,h,NA,s,NA,NA,h,472,NA,5572,NA,NA,472,2,legacy,1024,2,48000,-16,experiment,1,odd,9976,NA,NA,NA,64686,63623,4394,NA,NA,64683,64788,NA,4360,NA,64788,65261,Flanker Task,32,18816,32,yes,1024
Congruent,1500,SSSSS,100,100,587.8484848,587.8484848,black,legacy,legacy,legacy,0,uniform,1,undefined,1,s,0,0,0,0,32,32,0,0,0,32,32,32,0,32,32,32,Sun Sep 26 18:21:10 2021,The main experiment item,yes,FlankerTask.osexp,/Users/samonemarks/Downloads,no,mono,no,18,no,white,no,yes,768,legacy,32,32,/Users/samonemarks/Downloads/EW-subject-1.csv,legacy,Lentiform Loewenfeld,3.3.9,0,s,NA,s,NA,NA,s,583,NA,5572,NA,NA,583,2,legacy,1024,2,48000,-16,experiment,1,odd,9976,NA,NA,NA,66330,65266,4394,NA,NA,66325,66432,NA,4360,NA,66433,67017,Flanker Task,33,19399,33,yes,1024
Congruent,1500,SSSSS,100,100,584.4411765,584.4411765,black,legacy,legacy,legacy,0,uniform,1,undefined,1,s,0,0,0,0,33,33,0,0,0,33,33,33,0,33,33,33,Sun Sep 26 18:21:10 2021,The main experiment item,yes,FlankerTask.osexp,/Users/samonemarks/Downloads,no,mono,no,18,no,white,no,yes,768,legacy,33,33,/Users/samonemarks/Downloads/EW-subject-1.csv,legacy,Lentiform Loewenfeld,3.3.9,0,s,NA,s,NA,NA,s,472,NA,5572,NA,NA,472,2,legacy,1024,2,48000,-16,experiment,1,odd,9976,NA,NA,NA,68084,67022,4394,NA,NA,68081,68186,NA,4360,NA,68186,68659,Flanker Task,34,19871,34,yes,1024
Congruent,1500,SSSSS,100,100,581.4571429,581.4571429,black,legacy,legacy,legacy,0,uniform,1,undefined,1,s,0,0,0,0,34,34,0,0,0,34,34,34,0,34,34,34,Sun Sep 26 18:21:10 2021,The main experiment item,yes,FlankerTask.osexp,/Users/samonemarks/Downloads,no,mono,no,18,no,white,no,yes,768,legacy,34,34,/Users/samonemarks/Downloads/EW-subject-1.csv,legacy,Lentiform Loewenfeld,3.3.9,0,s,NA,s,NA,NA,s,480,NA,5572,NA,NA,480,2,legacy,1024,2,48000,-16,experiment,1,odd,9976,NA,NA,NA,69726,68663,4394,NA,NA,69723,69829,NA,4360,NA,69829,70310,Flanker Task,35,20351,35,yes,1024
Incongruent,1500,HHSHH,100,100,583.1666667,583.1666667,black,legacy,legacy,legacy,0,uniform,1,undefined,1,s,0,0,0,0,35,35,0,0,0,35,35,35,0,35,35,35,Sun Sep 26 18:21:10 2021,The main experiment item,yes,FlankerTask.osexp,/Users/samonemarks/Downloads,no,mono,no,18,no,white,no,yes,768,legacy,35,35,/Users/samonemarks/Downloads/EW-subject-1.csv,legacy,Lentiform Loewenfeld,3.3.9,0,s,NA,s,NA,NA,s,643,NA,5572,NA,NA,643,2,legacy,1024,2,48000,-16,experiment,1,odd,9976,NA,NA,NA,71377,70315,4394,NA,NA,71374,71479,NA,4360,NA,71480,72124,Flanker Task,36,20994,36,yes,1024
Congruent,1500,HHHHH,100,100,580.2972973,580.2972973,black,legacy,legacy,legacy,0,uniform,1,undefined,1,h,0,0,0,0,36,36,0,0,0,36,36,36,0,36,36,36,Sun Sep 26 18:21:10 2021,The main experiment item,yes,FlankerTask.osexp,/Users/samonemarks/Downloads,no,mono,no,18,no,white,no,yes,768,legacy,36,36,/Users/samonemarks/Downloads/EW-subject-1.csv,legacy,Lentiform Loewenfeld,3.3.9,0,h,NA,s,NA,NA,h,477,NA,5572,NA,NA,477,2,legacy,1024,2,48000,-16,experiment,1,odd,9976,NA,NA,NA,73191,72128,4394,NA,NA,73189,73293,NA,4360,NA,73293,73770,Flanker Task,37,21471,37,yes,1024
Incongruent,1500,HHSHH,100,100,581.6052632,581.6052632,black,legacy,legacy,legacy,0,uniform,1,undefined,1,s,0,0,0,0,37,37,0,0,0,37,37,37,0,37,37,37,Sun Sep 26 18:21:10 2021,The main experiment item,yes,FlankerTask.osexp,/Users/samonemarks/Downloads,no,mono,no,18,no,white,no,yes,768,legacy,37,37,/Users/samonemarks/Downloads/EW-subject-1.csv,legacy,Lentiform Loewenfeld,3.3.9,0,s,NA,s,NA,NA,s,630,NA,5572,NA,NA,630,2,legacy,1024,2,48000,-16,experiment,1,odd,9976,NA,NA,NA,74836,73774,4394,NA,NA,74833,74938,NA,4360,NA,74938,75569,Flanker Task,38,22101,38,yes,1024
Incongruent,1500,SSHSS,100,100,583.7948718,583.7948718,black,legacy,legacy,legacy,0,uniform,1,undefined,1,h,0,0,0,0,38,38,0,0,0,38,38,38,0,38,38,38,Sun Sep 26 18:21:10 2021,The main experiment item,yes,FlankerTask.osexp,/Users/samonemarks/Downloads,no,mono,no,18,no,white,no,yes,768,legacy,38,38,/Users/samonemarks/Downloads/EW-subject-1.csv,legacy,Lentiform Loewenfeld,3.3.9,0,h,NA,s,NA,NA,h,667,NA,5572,NA,NA,667,2,legacy,1024,2,48000,-16,experiment,1,odd,9976,NA,NA,NA,76635,75574,4394,NA,NA,76633,76737,NA,4360,NA,76738,77405,Flanker Task,39,22768,39,yes,1024
Incongruent,1500,HHSHH,100,100,584.675,584.675,black,legacy,legacy,legacy,0,uniform,1,undefined,1,s,0,0,0,0,39,39,0,0,0,39,39,39,0,39,39,39,Sun Sep 26 18:21:10 2021,The main experiment item,yes,FlankerTask.osexp,/Users/samonemarks/Downloads,no,mono,no,18,no,white,no,yes,768,legacy,39,39,/Users/samonemarks/Downloads/EW-subject-1.csv,legacy,Lentiform Loewenfeld,3.3.9,0,s,NA,s,NA,NA,s,619,NA,5572,NA,NA,619,2,legacy,1024,2,48000,-16,experiment,1,odd,9976,NA,NA,NA,78473,77410,4394,NA,NA,78470,78575,NA,4360,NA,78576,79195,Flanker Task,40,23387,40,yes,1024
Incongruent,1500,SSHSS,100,100,585.2682927,585.2682927,black,legacy,legacy,legacy,0,uniform,1,undefined,1,h,0,0,0,0,40,40,0,0,0,40,40,40,0,40,40,40,Sun Sep 26 18:21:10 2021,The main experiment item,yes,FlankerTask.osexp,/Users/samonemarks/Downloads,no,mono,no,18,no,white,no,yes,768,legacy,40,40,/Users/samonemarks/Downloads/EW-subject-1.csv,legacy,Lentiform Loewenfeld,3.3.9,0,h,NA,s,NA,NA,h,609,NA,5572,NA,NA,609,2,legacy,1024,2,48000,-16,experiment,1,odd,9976,NA,NA,NA,80261,79198,4394,NA,NA,80258,80363,NA,4360,NA,80363,80972,Flanker Task,41,23996,41,yes,1024
Incongruent,1500,SSHSS,100,100,581.8333333,581.8333333,black,legacy,legacy,legacy,0,uniform,1,undefined,1,h,0,0,0,0,41,41,0,0,0,41,41,41,0,41,41,41,Sun Sep 26 18:21:10 2021,The main experiment item,yes,FlankerTask.osexp,/Users/samonemarks/Downloads,no,mono,no,18,no,white,no,yes,768,legacy,41,41,/Users/samonemarks/Downloads/EW-subject-1.csv,legacy,Lentiform Loewenfeld,3.3.9,0,h,NA,s,NA,NA,h,441,NA,5572,NA,NA,441,2,legacy,1024,2,48000,-16,experiment,1,odd,9976,NA,NA,NA,82039,80976,4394,NA,NA,82036,82141,NA,4360,NA,82141,82583,Flanker Task,42,24437,42,yes,1024
Congruent,1500,SSSSS,100,100,579.5581395,579.5581395,black,legacy,legacy,legacy,0,uniform,1,undefined,1,s,0,0,0,0,42,42,0,0,0,42,42,42,0,42,42,42,Sun Sep 26 18:21:10 2021,The main experiment item,yes,FlankerTask.osexp,/Users/samonemarks/Downloads,no,mono,no,18,no,white,no,yes,768,legacy,42,42,/Users/samonemarks/Downloads/EW-subject-1.csv,legacy,Lentiform Loewenfeld,3.3.9,0,s,NA,s,NA,NA,s,484,NA,5572,NA,NA,484,2,legacy,1024,2,48000,-16,experiment,1,odd,9976,NA,NA,NA,83651,82588,4394,NA,NA,83648,83753,NA,4360,NA,83753,84238,Flanker Task,43,24921,43,yes,1024
Incongruent,1500,HHSHH,100,100,580.5454545,580.5454545,black,legacy,legacy,legacy,0,uniform,1,undefined,1,s,0,0,0,0,43,43,0,0,0,43,43,43,0,43,43,43,Sun Sep 26 18:21:10 2021,The main experiment item,yes,FlankerTask.osexp,/Users/samonemarks/Downloads,no,mono,no,18,no,white,no,yes,768,legacy,43,43,/Users/samonemarks/Downloads/EW-subject-1.csv,legacy,Lentiform Loewenfeld,3.3.9,0,s,NA,s,NA,NA,s,623,NA,5572,NA,NA,623,2,legacy,1024,2,48000,-16,experiment,1,odd,9976,NA,NA,NA,85305,84243,4394,NA,NA,85302,85407,NA,4360,NA,85408,86032,Flanker Task,44,25544,44,yes,1024
Congruent,1500,SSSSS,100,100,579.3333333,579.3333333,black,legacy,legacy,legacy,0,uniform,1,undefined,1,s,0,0,0,0,44,44,0,0,0,44,44,44,0,44,44,44,Sun Sep 26 18:21:10 2021,The main experiment item,yes,FlankerTask.osexp,/Users/samonemarks/Downloads,no,mono,no,18,no,white,no,yes,768,legacy,44,44,/Users/samonemarks/Downloads/EW-subject-1.csv,legacy,Lentiform Loewenfeld,3.3.9,0,s,NA,s,NA,NA,s,526,NA,5572,NA,NA,526,2,legacy,1024,2,48000,-16,experiment,1,odd,9976,NA,NA,NA,87099,86037,4394,NA,NA,87096,87201,NA,4360,NA,87201,87728,Flanker Task,45,26070,45,yes,1024
Congruent,1500,HHHHH,100,100,577.9565217,577.9565217,black,legacy,legacy,legacy,0,uniform,1,undefined,1,h,0,0,0,0,45,45,0,0,0,45,45,45,0,45,45,45,Sun Sep 26 18:21:10 2021,The main experiment item,yes,FlankerTask.osexp,/Users/samonemarks/Downloads,no,mono,no,18,no,white,no,yes,768,legacy,45,45,/Users/samonemarks/Downloads/EW-subject-1.csv,legacy,Lentiform Loewenfeld,3.3.9,0,h,NA,s,NA,NA,h,516,NA,5572,NA,NA,516,2,legacy,1024,2,48000,-16,experiment,1,odd,9976,NA,NA,NA,88795,87733,4394,NA,NA,88793,88897,NA,4360,NA,88897,89414,Flanker Task,46,26586,46,yes,1024
Congruent,1500,HHHHH,100,100,575.2765957,575.2765957,black,legacy,legacy,legacy,0,uniform,1,undefined,1,h,0,0,0,0,46,46,0,0,0,46,46,46,0,46,46,46,Sun Sep 26 18:21:10 2021,The main experiment item,yes,FlankerTask.osexp,/Users/samonemarks/Downloads,no,mono,no,18,no,white,no,yes,768,legacy,46,46,/Users/samonemarks/Downloads/EW-subject-1.csv,legacy,Lentiform Loewenfeld,3.3.9,0,h,NA,s,NA,NA,h,452,NA,5572,NA,NA,452,2,legacy,1024,2,48000,-16,experiment,1,odd,9976,NA,NA,NA,90481,89418,4394,NA,NA,90478,90583,NA,4360,NA,90584,91037,Flanker Task,47,27038,47,yes,1024
Congruent,1500,SSSSS,100,100,575.2916667,575.2916667,black,legacy,legacy,legacy,0,uniform,1,undefined,1,s,0,0,0,0,47,47,0,0,0,47,47,47,0,47,47,47,Sun Sep 26 18:21:10 2021,The main experiment item,yes,FlankerTask.osexp,/Users/samonemarks/Downloads,no,mono,no,18,no,white,no,yes,768,legacy,47,47,/Users/samonemarks/Downloads/EW-subject-1.csv,legacy,Lentiform Loewenfeld,3.3.9,0,s,NA,s,NA,NA,s,576,NA,5572,NA,NA,576,2,legacy,1024,2,48000,-16,experiment,1,odd,9976,NA,NA,NA,92105,91042,4394,NA,NA,92102,92208,NA,4360,NA,92208,92785,Flanker Task,48,27614,48,yes,1024
Congruent,1500,HHHHH,100,100,577.8571429,577.8571429,black,legacy,legacy,legacy,0,uniform,1,undefined,1,h,0,0,0,0,48,48,0,0,0,48,48,48,0,48,48,48,Sun Sep 26 18:21:10 2021,The main experiment item,yes,FlankerTask.osexp,/Users/samonemarks/Downloads,no,mono,no,18,no,white,no,yes,768,legacy,48,48,/Users/samonemarks/Downloads/EW-subject-1.csv,legacy,Lentiform Loewenfeld,3.3.9,0,h,NA,s,NA,NA,h,701,NA,5572,NA,NA,701,2,legacy,1024,2,48000,-16,experiment,1,odd,9976,NA,NA,NA,93851,92790,4394,NA,NA,93849,93953,NA,4360,NA,93953,94655,Flanker Task,49,28315,49,yes,1024
Incongruent,1500,HHSHH,100,100,580.12,580.12,black,legacy,legacy,legacy,0,uniform,1,undefined,1,s,0,0,0,0,49,49,0,0,0,49,49,49,0,49,49,49,Sun Sep 26 18:21:10 2021,The main experiment item,yes,FlankerTask.osexp,/Users/samonemarks/Downloads,no,mono,no,18,no,white,no,yes,768,legacy,49,49,/Users/samonemarks/Downloads/EW-subject-1.csv,legacy,Lentiform Loewenfeld,3.3.9,0,s,NA,s,NA,NA,s,691,NA,5572,NA,NA,691,2,legacy,1024,2,48000,-16,experiment,1,odd,9976,NA,NA,NA,95724,94660,4394,NA,NA,95719,95827,NA,4360,NA,95827,96519,Flanker Task,50,29006,50,yes,1024
Incongruent,1500,SSHSS,100,100,577.372549,577.372549,black,legacy,legacy,legacy,0,uniform,1,undefined,1,h,0,0,0,0,50,50,0,0,0,50,50,50,0,50,50,50,Sun Sep 26 18:21:10 2021,The main experiment item,yes,FlankerTask.osexp,/Users/samonemarks/Downloads,no,mono,no,18,no,white,no,yes,768,legacy,50,50,/Users/samonemarks/Downloads/EW-subject-1.csv,legacy,Lentiform Loewenfeld,3.3.9,0,h,NA,s,NA,NA,h,440,NA,5572,NA,NA,440,2,legacy,1024,2,48000,-16,experiment,1,odd,9976,NA,NA,NA,97586,96524,4394,NA,NA,97584,97689,NA,4360,NA,97689,98130,Flanker Task,51,29446,51,yes,1024
Incongruent,1500,SSHSS,100,100,579.6538462,579.6538462,black,legacy,legacy,legacy,0,uniform,1,undefined,1,h,0,0,0,0,51,51,0,0,0,51,51,51,0,51,51,51,Sun Sep 26 18:21:10 2021,The main experiment item,yes,FlankerTask.osexp,/Users/samonemarks/Downloads,no,mono,no,18,no,white,no,yes,768,legacy,51,51,/Users/samonemarks/Downloads/EW-subject-1.csv,legacy,Lentiform Loewenfeld,3.3.9,0,h,NA,s,NA,NA,h,696,NA,5572,NA,NA,696,2,legacy,1024,2,48000,-16,experiment,1,odd,9976,NA,NA,NA,99229,98135,4394,NA,NA,99220,99332,NA,4360,NA,99332,100029,Flanker Task,52,30142,52,yes,1024
Congruent,1500,HHHHH,100,100,575.6603774,575.6603774,black,legacy,legacy,legacy,0,uniform,1,undefined,1,h,0,0,0,0,52,52,0,0,0,52,52,52,0,52,52,52,Sun Sep 26 18:21:10 2021,The main experiment item,yes,FlankerTask.osexp,/Users/samonemarks/Downloads,no,mono,no,18,no,white,no,yes,768,legacy,52,52,/Users/samonemarks/Downloads/EW-subject-1.csv,legacy,Lentiform Loewenfeld,3.3.9,0,h,NA,s,NA,NA,h,368,NA,5572,NA,NA,368,2,legacy,1024,2,48000,-16,experiment,1,odd,9976,NA,NA,NA,101107,100037,4394,NA,NA,101103,101209,NA,4360,NA,101209,101578,Flanker Task,53,30510,53,yes,1024
Congruent,1500,SSSSS,100,100,574.2407407,574.2407407,black,legacy,legacy,legacy,0,uniform,1,undefined,1,s,0,0,0,0,53,53,0,0,0,53,53,53,0,53,53,53,Sun Sep 26 18:21:10 2021,The main experiment item,yes,FlankerTask.osexp,/Users/samonemarks/Downloads,no,mono,no,18,no,white,no,yes,768,legacy,53,53,/Users/samonemarks/Downloads/EW-subject-1.csv,legacy,Lentiform Loewenfeld,3.3.9,0,s,NA,s,NA,NA,s,499,NA,5572,NA,NA,499,2,legacy,1024,2,48000,-16,experiment,1,odd,9976,NA,NA,NA,102645,101582,4394,NA,NA,102642,102747,NA,4360,NA,102747,103247,Flanker Task,54,31009,54,yes,1024
Incongruent,1500,SSHSS,100,100,572.5636364,572.5636364,black,legacy,legacy,legacy,0,uniform,1,undefined,1,h,0,0,0,0,54,54,0,0,0,54,54,54,0,54,54,54,Sun Sep 26 18:21:10 2021,The main experiment item,yes,FlankerTask.osexp,/Users/samonemarks/Downloads,no,mono,no,18,no,white,no,yes,768,legacy,54,54,/Users/samonemarks/Downloads/EW-subject-1.csv,legacy,Lentiform Loewenfeld,3.3.9,0,h,NA,s,NA,NA,h,482,NA,5572,NA,NA,482,2,legacy,1024,2,48000,-16,experiment,1,odd,9976,NA,NA,NA,104314,103251,4394,NA,NA,104310,104417,NA,4360,NA,104417,104900,Flanker Task,55,31491,55,yes,1024
Congruent,1500,SSSSS,100,100,570.7857143,570.7857143,black,legacy,legacy,legacy,0,uniform,1,undefined,1,s,0,0,0,0,55,55,0,0,0,55,55,55,0,55,55,55,Sun Sep 26 18:21:10 2021,The main experiment item,yes,FlankerTask.osexp,/Users/samonemarks/Downloads,no,mono,no,18,no,white,no,yes,768,legacy,55,55,/Users/samonemarks/Downloads/EW-subject-1.csv,legacy,Lentiform Loewenfeld,3.3.9,0,s,NA,s,NA,NA,s,473,NA,5572,NA,NA,473,2,legacy,1024,2,48000,-16,experiment,1,odd,9976,NA,NA,NA,105969,104905,4394,NA,NA,105965,106071,NA,4360,NA,106071,106544,Flanker Task,56,31964,56,yes,1024
Incongruent,1500,SSHSS,100,100,569.7719298,569.7719298,black,legacy,legacy,legacy,0,uniform,1,undefined,1,h,0,0,0,0,56,56,0,0,0,56,56,56,0,56,56,56,Sun Sep 26 18:21:10 2021,The main experiment item,yes,FlankerTask.osexp,/Users/samonemarks/Downloads,no,mono,no,18,no,white,no,yes,768,legacy,56,56,/Users/samonemarks/Downloads/EW-subject-1.csv,legacy,Lentiform Loewenfeld,3.3.9,0,h,NA,s,NA,NA,h,513,NA,5572,NA,NA,513,2,legacy,1024,2,48000,-16,experiment,1,odd,9976,NA,NA,NA,107613,106549,4394,NA,NA,107610,107715,NA,4360,NA,107715,108228,Flanker Task,57,32477,57,yes,1024
Congruent,1500,HHHHH,100,100,567.7586207,567.7586207,black,legacy,legacy,legacy,0,uniform,1,undefined,1,h,0,0,0,0,57,57,0,0,0,57,57,57,0,57,57,57,Sun Sep 26 18:21:10 2021,The main experiment item,yes,FlankerTask.osexp,/Users/samonemarks/Downloads,no,mono,no,18,no,white,no,yes,768,legacy,57,57,/Users/samonemarks/Downloads/EW-subject-1.csv,legacy,Lentiform Loewenfeld,3.3.9,0,h,NA,s,NA,NA,h,453,NA,5572,NA,NA,453,2,legacy,1024,2,48000,-16,experiment,1,odd,9976,NA,NA,NA,109296,108232,4394,NA,NA,109292,109398,NA,4360,NA,109399,109852,Flanker Task,58,32930,58,yes,1024
Congruent,1500,HHHHH,100,100,564.9830508,564.9830508,black,legacy,legacy,legacy,0,uniform,1,undefined,1,h,0,0,0,0,58,58,0,0,0,58,58,58,0,58,58,58,Sun Sep 26 18:21:10 2021,The main experiment item,yes,FlankerTask.osexp,/Users/samonemarks/Downloads,no,mono,no,18,no,white,no,yes,768,legacy,58,58,/Users/samonemarks/Downloads/EW-subject-1.csv,legacy,Lentiform Loewenfeld,3.3.9,0,h,NA,s,NA,NA,h,404,NA,5572,NA,NA,404,2,legacy,1024,2,48000,-16,experiment,1,odd,9976,NA,NA,NA,110923,109858,4394,NA,NA,110918,111025,NA,4360,NA,111026,111430,Flanker Task,59,33334,59,yes,1024
Incongruent,1500,SSHSS,100,100,564.9,564.9,black,legacy,legacy,legacy,0,uniform,1,undefined,1,h,0,0,0,0,59,59,0,0,0,59,59,59,0,59,59,59,Sun Sep 26 18:21:10 2021,The main experiment item,yes,FlankerTask.osexp,/Users/samonemarks/Downloads,no,mono,no,18,no,white,no,yes,768,legacy,59,59,/Users/samonemarks/Downloads/EW-subject-1.csv,legacy,Lentiform Loewenfeld,3.3.9,0,h,NA,s,NA,NA,h,560,NA,5572,NA,NA,560,2,legacy,1024,2,48000,-16,experiment,1,odd,9976,NA,NA,NA,112498,111435,4394,NA,NA,112495,112600,NA,4360,NA,112600,113161,Flanker Task,60,33894,60,yes,1024
Incongruent,1500,SSHSS,100,100,563.1967213,563.1967213,black,legacy,legacy,legacy,0,uniform,1,undefined,1,h,0,0,0,0,60,60,0,0,0,60,60,60,0,60,60,60,Sun Sep 26 18:21:10 2021,The main experiment item,yes,FlankerTask.osexp,/Users/samonemarks/Downloads,no,mono,no,18,no,white,no,yes,768,legacy,60,60,/Users/samonemarks/Downloads/EW-subject-1.csv,legacy,Lentiform Loewenfeld,3.3.9,0,h,NA,s,NA,NA,h,461,NA,5572,NA,NA,461,2,legacy,1024,2,48000,-16,experiment,1,odd,9976,NA,NA,NA,114230,113166,4394,NA,NA,114226,114333,NA,4360,NA,114333,114795,Flanker Task,61,34355,61,yes,1024
Incongruent,1500,HHSHH,100,100,564.2419355,564.2419355,black,legacy,legacy,legacy,0,uniform,1,undefined,1,s,0,0,0,0,61,61,0,0,0,61,61,61,0,61,61,61,Sun Sep 26 18:21:10 2021,The main experiment item,yes,FlankerTask.osexp,/Users/samonemarks/Downloads,no,mono,no,18,no,white,no,yes,768,legacy,61,61,/Users/samonemarks/Downloads/EW-subject-1.csv,legacy,Lentiform Loewenfeld,3.3.9,0,s,NA,s,NA,NA,s,628,NA,5572,NA,NA,628,2,legacy,1024,2,48000,-16,experiment,1,odd,9976,NA,NA,NA,115864,114800,4394,NA,NA,115860,115966,NA,4360,NA,115966,116595,Flanker Task,62,34983,62,yes,1024
Congruent,1500,HHHHH,100,100,562.6666667,562.6666667,black,legacy,legacy,legacy,0,uniform,1,undefined,1,h,0,0,0,0,62,62,0,0,0,62,62,62,0,62,62,62,Sun Sep 26 18:21:10 2021,The main experiment item,yes,FlankerTask.osexp,/Users/samonemarks/Downloads,no,mono,no,18,no,white,no,yes,768,legacy,62,62,/Users/samonemarks/Downloads/EW-subject-1.csv,legacy,Lentiform Loewenfeld,3.3.9,0,h,NA,s,NA,NA,h,465,NA,5572,NA,NA,465,2,legacy,1024,2,48000,-16,experiment,1,odd,9976,NA,NA,NA,117664,116600,4394,NA,NA,117661,117768,NA,4360,NA,117769,118234,Flanker Task,63,35448,63,yes,1024
Congruent,1500,SSSSS,100,100,565.015625,565.015625,black,legacy,legacy,legacy,0,uniform,1,undefined,1,s,0,0,0,0,63,63,0,0,0,63,63,63,0,63,63,63,Sun Sep 26 18:21:10 2021,The main experiment item,yes,FlankerTask.osexp,/Users/samonemarks/Downloads,no,mono,no,18,no,white,no,yes,768,legacy,63,63,/Users/samonemarks/Downloads/EW-subject-1.csv,legacy,Lentiform Loewenfeld,3.3.9,0,s,NA,s,NA,NA,s,713,NA,5572,NA,NA,713,2,legacy,1024,2,48000,-16,experiment,1,odd,9976,NA,NA,NA,119304,118240,4394,NA,NA,119301,119406,NA,4360,NA,119406,120120,Flanker Task,64,36161,64,yes,1024
Congruent,1500,HHHHH,100,100,563.7846154,563.7846154,black,legacy,legacy,legacy,0,uniform,1,undefined,1,h,0,0,0,0,64,64,0,0,0,64,64,64,0,64,64,64,Sun Sep 26 18:21:10 2021,The main experiment item,yes,FlankerTask.osexp,/Users/samonemarks/Downloads,no,mono,no,18,no,white,no,yes,768,legacy,64,64,/Users/samonemarks/Downloads/EW-subject-1.csv,legacy,Lentiform Loewenfeld,3.3.9,0,h,NA,s,NA,NA,h,485,NA,5572,NA,NA,485,2,legacy,1024,2,48000,-16,experiment,1,odd,9976,NA,NA,NA,121187,120124,4394,NA,NA,121184,121289,NA,4360,NA,121289,121775,Flanker Task,65,36646,65,yes,1024
Congruent,1500,HHHHH,100,100,564.5,564.5,black,legacy,legacy,legacy,0,uniform,1,undefined,1,h,0,0,0,0,65,65,0,0,0,65,65,65,0,65,65,65,Sun Sep 26 18:21:10 2021,The main experiment item,yes,FlankerTask.osexp,/Users/samonemarks/Downloads,no,mono,no,18,no,white,no,yes,768,legacy,65,65,/Users/samonemarks/Downloads/EW-subject-1.csv,legacy,Lentiform Loewenfeld,3.3.9,0,h,NA,s,NA,NA,h,611,NA,5572,NA,NA,611,2,legacy,1024,2,48000,-16,experiment,1,odd,9976,NA,NA,NA,122842,121780,4394,NA,NA,122839,122945,NA,4360,NA,122945,123557,Flanker Task,66,37257,66,yes,1024
Incongruent,1500,SSHSS,100,100,563.7313433,563.7313433,black,legacy,legacy,legacy,0,uniform,1,undefined,1,h,0,0,0,0,66,66,0,0,0,66,66,66,0,66,66,66,Sun Sep 26 18:21:10 2021,The main experiment item,yes,FlankerTask.osexp,/Users/samonemarks/Downloads,no,mono,no,18,no,white,no,yes,768,legacy,66,66,/Users/samonemarks/Downloads/EW-subject-1.csv,legacy,Lentiform Loewenfeld,3.3.9,0,h,NA,s,NA,NA,h,513,NA,5572,NA,NA,513,2,legacy,1024,2,48000,-16,experiment,1,odd,9976,NA,NA,NA,124626,123562,4394,NA,NA,124622,124728,NA,4360,NA,124728,125242,Flanker Task,67,37770,67,yes,1024
Congruent,1500,HHHHH,100,100,561.4705882,561.4705882,black,legacy,legacy,legacy,0,uniform,1,undefined,1,h,0,0,0,0,67,67,0,0,0,67,67,67,0,67,67,67,Sun Sep 26 18:21:10 2021,The main experiment item,yes,FlankerTask.osexp,/Users/samonemarks/Downloads,no,mono,no,18,no,white,no,yes,768,legacy,67,67,/Users/samonemarks/Downloads/EW-subject-1.csv,legacy,Lentiform Loewenfeld,3.3.9,0,h,NA,s,NA,NA,h,410,NA,5572,NA,NA,410,2,legacy,1024,2,48000,-16,experiment,1,odd,9976,NA,NA,NA,126309,125246,4394,NA,NA,126305,126412,NA,4360,NA,126412,126823,Flanker Task,68,38180,68,yes,1024
Incongruent,1500,SSHSS,100,100,560.6811594,560.6811594,black,legacy,legacy,legacy,0,uniform,1,undefined,1,h,0,0,0,0,68,68,0,0,0,68,68,68,0,68,68,68,Sun Sep 26 18:21:10 2021,The main experiment item,yes,FlankerTask.osexp,/Users/samonemarks/Downloads,no,mono,no,18,no,white,no,yes,768,legacy,68,68,/Users/samonemarks/Downloads/EW-subject-1.csv,legacy,Lentiform Loewenfeld,3.3.9,0,h,NA,s,NA,NA,h,507,NA,5572,NA,NA,507,2,legacy,1024,2,48000,-16,experiment,1,odd,9976,NA,NA,NA,127889,126827,4394,NA,NA,127886,127992,NA,4360,NA,127992,128500,Flanker Task,69,38687,69,yes,1024
Incongruent,1500,SSHSS,100,100,560.0571429,560.0571429,black,legacy,legacy,legacy,0,uniform,1,undefined,1,h,0,0,0,0,69,69,0,0,0,69,69,69,0,69,69,69,Sun Sep 26 18:21:10 2021,The main experiment item,yes,FlankerTask.osexp,/Users/samonemarks/Downloads,no,mono,no,18,no,white,no,yes,768,legacy,69,69,/Users/samonemarks/Downloads/EW-subject-1.csv,legacy,Lentiform Loewenfeld,3.3.9,0,h,NA,s,NA,NA,h,517,NA,5572,NA,NA,517,2,legacy,1024,2,48000,-16,experiment,1,odd,9976,NA,NA,NA,129568,128505,4394,NA,NA,129565,129671,NA,4360,NA,129671,130189,Flanker Task,70,39204,70,yes,1024
Congruent,1500,SSSSS,100,100,558.4507042,558.4507042,black,legacy,legacy,legacy,0,uniform,1,undefined,1,s,0,0,0,0,70,70,0,0,0,70,70,70,0,70,70,70,Sun Sep 26 18:21:10 2021,The main experiment item,yes,FlankerTask.osexp,/Users/samonemarks/Downloads,no,mono,no,18,no,white,no,yes,768,legacy,70,70,/Users/samonemarks/Downloads/EW-subject-1.csv,legacy,Lentiform Loewenfeld,3.3.9,0,s,NA,s,NA,NA,s,446,NA,5572,NA,NA,446,2,legacy,1024,2,48000,-16,experiment,1,odd,9976,NA,NA,NA,131257,130194,4394,NA,NA,131254,131359,NA,4360,NA,131359,131806,Flanker Task,71,39650,71,yes,1024
Congruent,1500,SSSSS,100,100,556.1388889,556.1388889,black,legacy,legacy,legacy,0,uniform,1,undefined,1,s,0,0,0,0,71,71,0,0,0,71,71,71,0,71,71,71,Sun Sep 26 18:21:10 2021,The main experiment item,yes,FlankerTask.osexp,/Users/samonemarks/Downloads,no,mono,no,18,no,white,no,yes,768,legacy,71,71,/Users/samonemarks/Downloads/EW-subject-1.csv,legacy,Lentiform Loewenfeld,3.3.9,0,s,NA,s,NA,NA,s,392,NA,5572,NA,NA,392,2,legacy,1024,2,48000,-16,experiment,1,odd,9976,NA,NA,NA,132876,131810,4394,NA,NA,132874,132978,NA,4360,NA,132978,133370,Flanker Task,72,40042,72,yes,1024
Incongruent,1500,HHSHH,100,100,560.7534247,560.7534247,black,legacy,legacy,legacy,0,uniform,1,undefined,1,s,0,0,0,0,72,72,0,0,0,72,72,72,0,72,72,72,Sun Sep 26 18:21:10 2021,The main experiment item,yes,FlankerTask.osexp,/Users/samonemarks/Downloads,no,mono,no,18,no,white,no,yes,768,legacy,72,72,/Users/samonemarks/Downloads/EW-subject-1.csv,legacy,Lentiform Loewenfeld,3.3.9,0,s,NA,s,NA,NA,s,893,NA,5572,NA,NA,893,2,legacy,1024,2,48000,-16,experiment,1,odd,9976,NA,NA,NA,134438,133376,4394,NA,NA,134436,134540,NA,4360,NA,134540,135434,Flanker Task,73,40935,73,yes,1024
Incongruent,1500,SSHSS,100,100,560.6756757,560.6756757,black,legacy,legacy,legacy,0,uniform,1,undefined,1,h,0,0,0,0,73,73,0,0,0,73,73,73,0,73,73,73,Sun Sep 26 18:21:10 2021,The main experiment item,yes,FlankerTask.osexp,/Users/samonemarks/Downloads,no,mono,no,18,no,white,no,yes,768,legacy,73,73,/Users/samonemarks/Downloads/EW-subject-1.csv,legacy,Lentiform Loewenfeld,3.3.9,0,h,NA,s,NA,NA,h,555,NA,5572,NA,NA,555,2,legacy,1024,2,48000,-16,experiment,1,odd,9976,NA,NA,NA,136502,135439,4394,NA,NA,136499,136605,NA,4360,NA,136605,137160,Flanker Task,74,41490,74,yes,1024
Incongruent,1500,HHSHH,100,100,560.7733333,560.7733333,black,legacy,legacy,legacy,0,uniform,1,undefined,1,s,0,0,0,0,74,74,0,0,0,74,74,74,0,74,74,74,Sun Sep 26 18:21:10 2021,The main experiment item,yes,FlankerTask.osexp,/Users/samonemarks/Downloads,no,mono,no,18,no,white,no,yes,768,legacy,74,74,/Users/samonemarks/Downloads/EW-subject-1.csv,legacy,Lentiform Loewenfeld,3.3.9,0,s,NA,s,NA,NA,s,568,NA,5572,NA,NA,568,2,legacy,1024,2,48000,-16,experiment,1,odd,9976,NA,NA,NA,138228,137165,4394,NA,NA,138225,138330,NA,4360,NA,138331,138899,Flanker Task,75,42058,75,yes,1024
Congruent,1500,SSSSS,100,100,559.7763158,559.7763158,black,legacy,legacy,legacy,0,uniform,1,undefined,1,s,0,0,0,0,75,75,0,0,0,75,75,75,0,75,75,75,Sun Sep 26 18:21:10 2021,The main experiment item,yes,FlankerTask.osexp,/Users/samonemarks/Downloads,no,mono,no,18,no,white,no,yes,768,legacy,75,75,/Users/samonemarks/Downloads/EW-subject-1.csv,legacy,Lentiform Loewenfeld,3.3.9,0,s,NA,s,NA,NA,s,485,NA,5572,NA,NA,485,2,legacy,1024,2,48000,-16,experiment,1,odd,9976,NA,NA,NA,139966,138904,4394,NA,NA,139964,140068,NA,4360,NA,140068,140554,Flanker Task,76,42543,76,yes,1024
Incongruent,1500,SSHSS,100,100,560.9220779,560.9220779,black,legacy,legacy,legacy,0,uniform,1,undefined,1,h,0,0,0,0,76,76,0,0,0,76,76,76,0,76,76,76,Sun Sep 26 18:21:10 2021,The main experiment item,yes,FlankerTask.osexp,/Users/samonemarks/Downloads,no,mono,no,18,no,white,no,yes,768,legacy,76,76,/Users/samonemarks/Downloads/EW-subject-1.csv,legacy,Lentiform Loewenfeld,3.3.9,0,h,NA,s,NA,NA,h,648,NA,5572,NA,NA,648,2,legacy,1024,2,48000,-16,experiment,1,odd,9976,NA,NA,NA,141621,140559,4394,NA,NA,141618,141724,NA,4360,NA,141724,142373,Flanker Task,77,43191,77,yes,1024
Congruent,1500,HHHHH,100,100,559.4871795,559.4871795,black,legacy,legacy,legacy,0,uniform,1,undefined,1,h,0,0,0,0,77,77,0,0,0,77,77,77,0,77,77,77,Sun Sep 26 18:21:10 2021,The main experiment item,yes,FlankerTask.osexp,/Users/samonemarks/Downloads,no,mono,no,18,no,white,no,yes,768,legacy,77,77,/Users/samonemarks/Downloads/EW-subject-1.csv,legacy,Lentiform Loewenfeld,3.3.9,0,h,NA,s,NA,NA,h,449,NA,5572,NA,NA,449,2,legacy,1024,2,48000,-16,experiment,1,odd,9976,NA,NA,NA,143441,142378,4394,NA,NA,143438,143543,NA,4360,NA,143544,143994,Flanker Task,78,43640,78,yes,1024
Incongruent,1500,HHSHH,100,100,560.7341772,560.7341772,black,legacy,legacy,legacy,0,uniform,1,undefined,1,s,0,0,0,0,78,78,0,0,0,78,78,78,0,78,78,78,Sun Sep 26 18:21:10 2021,The main experiment item,yes,FlankerTask.osexp,/Users/samonemarks/Downloads,no,mono,no,18,no,white,no,yes,768,legacy,78,78,/Users/samonemarks/Downloads/EW-subject-1.csv,legacy,Lentiform Loewenfeld,3.3.9,0,s,NA,s,NA,NA,s,658,NA,5572,NA,NA,658,2,legacy,1024,2,48000,-16,experiment,1,odd,9976,NA,NA,NA,145061,143999,4394,NA,NA,145058,145163,NA,4360,NA,145163,145822,Flanker Task,79,44298,79,yes,1024
Congruent,1500,SSSSS,100,100,558.7125,558.7125,black,legacy,legacy,legacy,0,uniform,1,undefined,1,s,0,0,0,0,79,79,0,0,0,79,79,79,0,79,79,79,Sun Sep 26 18:21:10 2021,The main experiment item,yes,FlankerTask.osexp,/Users/samonemarks/Downloads,no,mono,no,18,no,white,no,yes,768,legacy,79,79,/Users/samonemarks/Downloads/EW-subject-1.csv,legacy,Lentiform Loewenfeld,3.3.9,0,s,NA,s,NA,NA,s,399,NA,5572,NA,NA,399,2,legacy,1024,2,48000,-16,experiment,1,odd,9976,NA,NA,NA,146890,145827,4394,NA,NA,146886,146992,NA,4360,NA,146993,147393,Flanker Task,80,44697,80,yes,1024
Incongruent,600,HHSHH,100,100,560.6419753,560.6419753,black,legacy,legacy,legacy,0,uniform,1,undefined,1,s,0,0,0,0,80,80,0,0,0,80,80,80,0,80,80,80,Sun Sep 26 18:21:10 2021,The main experiment item,yes,FlankerTask.osexp,/Users/samonemarks/Downloads,no,mono,no,18,no,white,no,yes,768,legacy,0,79,/Users/samonemarks/Downloads/EW-subject-1.csv,legacy,Lentiform Loewenfeld,3.3.9,0,s,NA,s,s,NA,s,715,NA,5572,16863,NA,715,2,legacy,1024,2,48000,-16,experiment,1,odd,9976,165288,NA,NA,165336,147398,4394,148424,NA,165333,165440,NA,4360,NA,165440,166156,Flanker Task,81,45412,81,yes,1024
Congruent,600,SSSSS,100,100,560.7439024,560.7439024,black,legacy,legacy,legacy,0,uniform,1,undefined,1,s,0,0,0,0,81,81,0,0,0,81,81,81,0,81,81,81,Sun Sep 26 18:21:10 2021,The main experiment item,yes,FlankerTask.osexp,/Users/samonemarks/Downloads,no,mono,no,18,no,white,no,yes,768,legacy,1,79,/Users/samonemarks/Downloads/EW-subject-1.csv,legacy,Lentiform Loewenfeld,3.3.9,0,s,NA,s,s,NA,s,569,NA,5572,16863,NA,569,2,legacy,1024,2,48000,-16,experiment,1,odd,9976,165288,NA,NA,167733,166666,4394,148424,NA,167727,167835,NA,4360,166160,167836,168406,Flanker Task,82,45981,82,yes,1024
Congruent,600,SSSSS,100,100,558.8072289,558.8072289,black,legacy,legacy,legacy,0,uniform,1,undefined,1,s,0,0,0,0,82,82,0,0,0,82,82,82,0,82,82,82,Sun Sep 26 18:21:10 2021,The main experiment item,yes,FlankerTask.osexp,/Users/samonemarks/Downloads,no,mono,no,18,no,white,no,yes,768,legacy,2,79,/Users/samonemarks/Downloads/EW-subject-1.csv,legacy,Lentiform Loewenfeld,3.3.9,0,s,NA,s,s,NA,s,400,NA,5572,16863,NA,400,2,legacy,1024,2,48000,-16,experiment,1,odd,9976,165288,NA,NA,169474,168410,4394,148424,NA,169470,169577,NA,4360,166160,169578,169979,Flanker Task,83,46381,83,yes,1024
Incongruent,600,SSHSS,98.80952381,98.80952381,557.297619,557.297619,black,legacy,legacy,legacy,0,uniform,0,undefined,0,h,0,0,0,0,83,83,0,0,0,83,83,83,0,83,83,83,Sun Sep 26 18:21:10 2021,The main experiment item,yes,FlankerTask.osexp,/Users/samonemarks/Downloads,no,mono,no,18,no,white,no,yes,768,legacy,3,79,/Users/samonemarks/Downloads/EW-subject-1.csv,legacy,Lentiform Loewenfeld,3.3.9,0,s,NA,s,s,NA,s,432,NA,5572,16863,NA,432,2,legacy,1024,2,48000,-16,experiment,1,odd,9976,165288,NA,NA,171047,169983,4394,148424,NA,171043,171150,NA,4360,166160,171150,171583,Flanker Task,83,46813,84,yes,1024
Congruent,600,SSSSS,98.82352941,98.82352941,555.8470588,555.8470588,black,legacy,legacy,legacy,0,uniform,1,undefined,1,s,0,0,0,0,84,84,0,0,0,84,84,84,0,84,84,84,Sun Sep 26 18:21:10 2021,The main experiment item,yes,FlankerTask.osexp,/Users/samonemarks/Downloads,no,mono,no,18,no,white,no,yes,768,legacy,4,79,/Users/samonemarks/Downloads/EW-subject-1.csv,legacy,Lentiform Loewenfeld,3.3.9,0,s,NA,s,s,NA,s,434,NA,5572,16863,NA,434,2,legacy,1024,2,48000,-16,experiment,1,odd,9976,165288,NA,NA,173154,172090,4394,148424,NA,173150,173257,171587,4360,166160,173257,173692,Flanker Task,84,47247,85,yes,1024
Congruent,600,SSSSS,98.8372093,98.8372093,554.3023256,554.3023256,black,legacy,legacy,legacy,0,uniform,1,undefined,1,s,0,0,0,0,85,85,0,0,0,85,85,85,0,85,85,85,Sun Sep 26 18:21:10 2021,The main experiment item,yes,FlankerTask.osexp,/Users/samonemarks/Downloads,no,mono,no,18,no,white,no,yes,768,legacy,5,79,/Users/samonemarks/Downloads/EW-subject-1.csv,legacy,Lentiform Loewenfeld,3.3.9,0,s,NA,s,s,NA,s,423,NA,5572,16863,NA,423,2,legacy,1024,2,48000,-16,experiment,1,odd,9976,165288,NA,NA,174761,173696,4394,148424,NA,174757,174865,171587,4360,166160,174865,175289,Flanker Task,85,47670,86,yes,1024
Congruent,600,SSSSS,98.85057471,98.85057471,552.2873563,552.2873563,black,legacy,legacy,legacy,0,uniform,1,undefined,1,s,0,0,0,0,86,86,0,0,0,86,86,86,0,86,86,86,Sun Sep 26 18:21:10 2021,The main experiment item,yes,FlankerTask.osexp,/Users/samonemarks/Downloads,no,mono,no,18,no,white,no,yes,768,legacy,6,79,/Users/samonemarks/Downloads/EW-subject-1.csv,legacy,Lentiform Loewenfeld,3.3.9,0,s,NA,s,s,NA,s,379,NA,5572,16863,NA,379,2,legacy,1024,2,48000,-16,experiment,1,odd,9976,165288,NA,NA,176358,175294,4394,148424,NA,176353,176461,171587,4360,166160,176461,176841,Flanker Task,86,48049,87,yes,1024
Incongruent,600,HHSHH,97.72727273,97.72727273,549.5340909,549.5340909,black,legacy,legacy,legacy,0,uniform,0,undefined,0,s,0,0,0,0,87,87,0,0,0,87,87,87,0,87,87,87,Sun Sep 26 18:21:10 2021,The main experiment item,yes,FlankerTask.osexp,/Users/samonemarks/Downloads,no,mono,no,18,no,white,no,yes,768,legacy,7,79,/Users/samonemarks/Downloads/EW-subject-1.csv,legacy,Lentiform Loewenfeld,3.3.9,0,h,NA,s,s,NA,h,310,NA,5572,16863,NA,310,2,legacy,1024,2,48000,-16,experiment,1,odd,9976,165288,NA,NA,177910,176845,4394,148424,NA,177906,178014,171587,4360,166160,178014,178325,Flanker Task,86,48359,88,yes,1024
Incongruent,600,SSHSS,97.75280899,97.75280899,548.3146067,548.3146067,black,legacy,legacy,legacy,0,uniform,1,undefined,1,h,0,0,0,0,88,88,0,0,0,88,88,88,0,88,88,88,Sun Sep 26 18:21:10 2021,The main experiment item,yes,FlankerTask.osexp,/Users/samonemarks/Downloads,no,mono,no,18,no,white,no,yes,768,legacy,8,79,/Users/samonemarks/Downloads/EW-subject-1.csv,legacy,Lentiform Loewenfeld,3.3.9,0,h,NA,s,s,NA,h,441,NA,5572,16863,NA,441,2,legacy,1024,2,48000,-16,experiment,1,odd,9976,165288,NA,NA,179903,178839,4394,148424,NA,179899,180007,178329,4360,166160,180007,180449,Flanker Task,87,48800,89,yes,1024
Incongruent,600,HHSHH,97.77777778,97.77777778,548.0888889,548.0888889,black,legacy,legacy,legacy,0,uniform,1,undefined,1,s,0,0,0,0,89,89,0,0,0,89,89,89,0,89,89,89,Sun Sep 26 18:21:10 2021,The main experiment item,yes,FlankerTask.osexp,/Users/samonemarks/Downloads,no,mono,no,18,no,white,no,yes,768,legacy,9,79,/Users/samonemarks/Downloads/EW-subject-1.csv,legacy,Lentiform Loewenfeld,3.3.9,0,s,NA,s,s,NA,s,528,NA,5572,16863,NA,528,2,legacy,1024,2,48000,-16,experiment,1,odd,9976,165288,NA,NA,181521,180454,4394,148424,NA,181514,181626,178329,4360,166160,181626,182155,Flanker Task,88,49328,90,yes,1024
Congruent,600,SSSSS,97.8021978,97.8021978,546.7362637,546.7362637,black,legacy,legacy,legacy,0,uniform,1,undefined,1,s,0,0,0,0,90,90,0,0,0,90,90,90,0,90,90,90,Sun Sep 26 18:21:10 2021,The main experiment item,yes,FlankerTask.osexp,/Users/samonemarks/Downloads,no,mono,no,18,no,white,no,yes,768,legacy,10,79,/Users/samonemarks/Downloads/EW-subject-1.csv,legacy,Lentiform Loewenfeld,3.3.9,0,s,NA,s,s,NA,s,425,NA,5572,16863,NA,425,2,legacy,1024,2,48000,-16,experiment,1,odd,9976,165288,NA,NA,183224,182160,4394,148424,NA,183220,183327,178329,4360,166160,183327,183753,Flanker Task,89,49753,91,yes,1024
Congruent,600,HHHHH,97.82608696,97.82608696,546.4130435,546.4130435,black,legacy,legacy,legacy,0,uniform,1,undefined,1,h,0,0,0,0,91,91,0,0,0,91,91,91,0,91,91,91,Sun Sep 26 18:21:10 2021,The main experiment item,yes,FlankerTask.osexp,/Users/samonemarks/Downloads,no,mono,no,18,no,white,no,yes,768,legacy,11,79,/Users/samonemarks/Downloads/EW-subject-1.csv,legacy,Lentiform Loewenfeld,3.3.9,0,h,NA,s,s,NA,h,517,NA,5572,16863,NA,517,2,legacy,1024,2,48000,-16,experiment,1,odd,9976,165288,NA,NA,184824,183758,4394,148424,NA,184818,184927,178329,4360,166160,184927,185445,Flanker Task,90,50270,92,yes,1024
Congruent,600,HHHHH,97.84946237,97.84946237,544.8494624,544.8494624,black,legacy,legacy,legacy,0,uniform,1,undefined,1,h,0,0,0,0,92,92,0,0,0,92,92,92,0,92,92,92,Sun Sep 26 18:21:10 2021,The main experiment item,yes,FlankerTask.osexp,/Users/samonemarks/Downloads,no,mono,no,18,no,white,no,yes,768,legacy,12,79,/Users/samonemarks/Downloads/EW-subject-1.csv,legacy,Lentiform Loewenfeld,3.3.9,0,h,NA,s,s,NA,h,401,NA,5572,16863,NA,401,2,legacy,1024,2,48000,-16,experiment,1,odd,9976,165288,NA,NA,186520,185450,4394,148424,NA,186510,186623,178329,4360,166160,186623,187025,Flanker Task,91,50671,93,yes,1024
Congruent,600,HHHHH,97.87234043,97.87234043,542.6276596,542.6276596,black,legacy,legacy,legacy,0,uniform,1,undefined,1,h,0,0,0,0,93,93,0,0,0,93,93,93,0,93,93,93,Sun Sep 26 18:21:10 2021,The main experiment item,yes,FlankerTask.osexp,/Users/samonemarks/Downloads,no,mono,no,18,no,white,no,yes,768,legacy,13,79,/Users/samonemarks/Downloads/EW-subject-1.csv,legacy,Lentiform Loewenfeld,3.3.9,0,h,NA,s,s,NA,h,336,NA,5572,16863,NA,336,2,legacy,1024,2,48000,-16,experiment,1,odd,9976,165288,NA,NA,188098,187030,4394,148424,NA,188089,188201,178329,4360,166160,188201,188538,Flanker Task,92,51007,94,yes,1024
Incongruent,600,HHSHH,97.89473684,97.89473684,541.0105263,541.0105263,black,legacy,legacy,legacy,0,uniform,1,undefined,1,s,0,0,0,0,94,94,0,0,0,94,94,94,0,94,94,94,Sun Sep 26 18:21:10 2021,The main experiment item,yes,FlankerTask.osexp,/Users/samonemarks/Downloads,no,mono,no,18,no,white,no,yes,768,legacy,14,79,/Users/samonemarks/Downloads/EW-subject-1.csv,legacy,Lentiform Loewenfeld,3.3.9,0,s,NA,s,s,NA,s,389,NA,5572,16863,NA,389,2,legacy,1024,2,48000,-16,experiment,1,odd,9976,165288,NA,NA,189611,188544,4394,148424,NA,189604,189714,178329,4360,166160,189715,190105,Flanker Task,93,51396,95,yes,1024
Incongruent,600,HHSHH,97.91666667,97.91666667,539.1770833,539.1770833,black,legacy,legacy,legacy,0,uniform,1,undefined,1,s,0,0,0,0,95,95,0,0,0,95,95,95,0,95,95,95,Sun Sep 26 18:21:10 2021,The main experiment item,yes,FlankerTask.osexp,/Users/samonemarks/Downloads,no,mono,no,18,no,white,no,yes,768,legacy,15,79,/Users/samonemarks/Downloads/EW-subject-1.csv,legacy,Lentiform Loewenfeld,3.3.9,0,s,NA,s,s,NA,s,365,NA,5572,16863,NA,365,2,legacy,1024,2,48000,-16,experiment,1,odd,9976,165288,NA,NA,191174,190110,4394,148424,NA,191170,191277,178329,4360,166160,191277,191643,Flanker Task,94,51761,96,yes,1024
Incongruent,600,SSHSS,97.93814433,97.93814433,538.7731959,538.7731959,black,legacy,legacy,legacy,0,uniform,1,undefined,1,h,0,0,0,0,96,96,0,0,0,96,96,96,0,96,96,96,Sun Sep 26 18:21:10 2021,The main experiment item,yes,FlankerTask.osexp,/Users/samonemarks/Downloads,no,mono,no,18,no,white,no,yes,768,legacy,16,79,/Users/samonemarks/Downloads/EW-subject-1.csv,legacy,Lentiform Loewenfeld,3.3.9,0,h,NA,s,s,NA,h,500,NA,5572,16863,NA,500,2,legacy,1024,2,48000,-16,experiment,1,odd,9976,165288,NA,NA,192713,191648,4394,148424,NA,192708,192815,178329,4360,166160,192816,193317,Flanker Task,95,52261,97,yes,1024
Congruent,600,SSSSS,97.95918367,97.95918367,537.9285714,537.9285714,black,legacy,legacy,legacy,0,uniform,1,undefined,1,s,0,0,0,0,97,97,0,0,0,97,97,97,0,97,97,97,Sun Sep 26 18:21:10 2021,The main experiment item,yes,FlankerTask.osexp,/Users/samonemarks/Downloads,no,mono,no,18,no,white,no,yes,768,legacy,17,79,/Users/samonemarks/Downloads/EW-subject-1.csv,legacy,Lentiform Loewenfeld,3.3.9,0,s,NA,s,s,NA,s,456,NA,5572,16863,NA,456,2,legacy,1024,2,48000,-16,experiment,1,odd,9976,165288,NA,NA,194387,193322,4394,148424,NA,194381,194490,178329,4360,166160,194490,194947,Flanker Task,96,52717,98,yes,1024
Incongruent,600,SSHSS,97.97979798,97.97979798,536.5858586,536.5858586,black,legacy,legacy,legacy,0,uniform,1,undefined,1,h,0,0,0,0,98,98,0,0,0,98,98,98,0,98,98,98,Sun Sep 26 18:21:10 2021,The main experiment item,yes,FlankerTask.osexp,/Users/samonemarks/Downloads,no,mono,no,18,no,white,no,yes,768,legacy,18,79,/Users/samonemarks/Downloads/EW-subject-1.csv,legacy,Lentiform Loewenfeld,3.3.9,0,h,NA,s,s,NA,h,405,NA,5572,16863,NA,405,2,legacy,1024,2,48000,-16,experiment,1,odd,9976,165288,NA,NA,196015,194951,4394,148424,NA,196011,196117,178329,4360,166160,196117,196523,Flanker Task,97,53122,99,yes,1024
Incongruent,600,HHSHH,98,98,536.63,536.63,black,legacy,legacy,legacy,0,uniform,1,undefined,1,s,0,0,0,0,99,99,0,0,0,99,99,99,0,99,99,99,Sun Sep 26 18:21:10 2021,The main experiment item,yes,FlankerTask.osexp,/Users/samonemarks/Downloads,no,mono,no,18,no,white,no,yes,768,legacy,19,79,/Users/samonemarks/Downloads/EW-subject-1.csv,legacy,Lentiform Loewenfeld,3.3.9,0,s,NA,s,s,NA,s,541,NA,5572,16863,NA,541,2,legacy,1024,2,48000,-16,experiment,1,odd,9976,165288,NA,NA,197593,196528,4394,148424,NA,197588,197696,178329,4360,166160,197696,198238,Flanker Task,98,53663,100,yes,1024
Incongruent,600,HHSHH,98.01980198,98.01980198,536.6732673,536.6732673,black,legacy,legacy,legacy,0,uniform,1,undefined,1,s,0,0,0,0,100,100,0,0,0,100,100,100,0,100,100,100,Sun Sep 26 18:21:10 2021,The main experiment item,yes,FlankerTask.osexp,/Users/samonemarks/Downloads,no,mono,no,18,no,white,no,yes,768,legacy,20,79,/Users/samonemarks/Downloads/EW-subject-1.csv,legacy,Lentiform Loewenfeld,3.3.9,0,s,NA,s,s,NA,s,541,NA,5572,16863,NA,541,2,legacy,1024,2,48000,-16,experiment,1,odd,9976,165288,NA,NA,199309,198243,4394,148424,NA,199303,199412,178329,4360,166160,199412,199954,Flanker Task,99,54204,101,yes,1024
Congruent,600,HHHHH,98.03921569,98.03921569,535.6862745,535.6862745,black,legacy,legacy,legacy,0,uniform,1,undefined,1,h,0,0,0,0,101,101,0,0,0,101,101,101,0,101,101,101,Sun Sep 26 18:21:10 2021,The main experiment item,yes,FlankerTask.osexp,/Users/samonemarks/Downloads,no,mono,no,18,no,white,no,yes,768,legacy,21,79,/Users/samonemarks/Downloads/EW-subject-1.csv,legacy,Lentiform Loewenfeld,3.3.9,0,h,NA,s,s,NA,h,436,NA,5572,16863,NA,436,2,legacy,1024,2,48000,-16,experiment,1,odd,9976,165288,NA,NA,201022,199959,4394,148424,NA,201019,201124,178329,4360,166160,201125,201562,Flanker Task,100,54640,102,yes,1024
Congruent,600,HHHHH,98.05825243,98.05825243,535.961165,535.961165,black,legacy,legacy,legacy,0,uniform,1,undefined,1,h,0,0,0,0,102,102,0,0,0,102,102,102,0,102,102,102,Sun Sep 26 18:21:10 2021,The main experiment item,yes,FlankerTask.osexp,/Users/samonemarks/Downloads,no,mono,no,18,no,white,no,yes,768,legacy,22,79,/Users/samonemarks/Downloads/EW-subject-1.csv,legacy,Lentiform Loewenfeld,3.3.9,0,h,NA,s,s,NA,h,564,NA,5572,16863,NA,564,2,legacy,1024,2,48000,-16,experiment,1,odd,9976,165288,NA,NA,202633,201566,4394,148424,NA,202627,202736,178329,4360,166160,202736,203301,Flanker Task,101,55204,103,yes,1024
Congruent,600,SSSSS,98.07692308,98.07692308,535.5480769,535.5480769,black,legacy,legacy,legacy,0,uniform,1,undefined,1,s,0,0,0,0,103,103,0,0,0,103,103,103,0,103,103,103,Sun Sep 26 18:21:10 2021,The main experiment item,yes,FlankerTask.osexp,/Users/samonemarks/Downloads,no,mono,no,18,no,white,no,yes,768,legacy,23,79,/Users/samonemarks/Downloads/EW-subject-1.csv,legacy,Lentiform Loewenfeld,3.3.9,0,s,NA,s,s,NA,s,493,NA,5572,16863,NA,493,2,legacy,1024,2,48000,-16,experiment,1,odd,9976,165288,NA,NA,204375,203306,4394,148424,NA,204368,204478,178329,4360,166160,204478,204972,Flanker Task,102,55697,104,yes,1024
Congruent,600,HHHHH,98.0952381,98.0952381,534.8571429,534.8571429,black,legacy,legacy,legacy,0,uniform,1,undefined,1,h,0,0,0,0,104,104,0,0,0,104,104,104,0,104,104,104,Sun Sep 26 18:21:10 2021,The main experiment item,yes,FlankerTask.osexp,/Users/samonemarks/Downloads,no,mono,no,18,no,white,no,yes,768,legacy,24,79,/Users/samonemarks/Downloads/EW-subject-1.csv,legacy,Lentiform Loewenfeld,3.3.9,0,h,NA,s,s,NA,h,463,NA,5572,16863,NA,463,2,legacy,1024,2,48000,-16,experiment,1,odd,9976,165288,NA,NA,206044,204976,4394,148424,NA,206037,206147,178329,4360,166160,206148,206612,Flanker Task,103,56160,105,yes,1024
Incongruent,600,HHSHH,98.11320755,98.11320755,534.3773585,534.3773585,black,legacy,legacy,legacy,0,uniform,1,undefined,1,s,0,0,0,0,105,105,0,0,0,105,105,105,0,105,105,105,Sun Sep 26 18:21:10 2021,The main experiment item,yes,FlankerTask.osexp,/Users/samonemarks/Downloads,no,mono,no,18,no,white,no,yes,768,legacy,25,79,/Users/samonemarks/Downloads/EW-subject-1.csv,legacy,Lentiform Loewenfeld,3.3.9,0,s,NA,s,s,NA,s,484,NA,5572,16863,NA,484,2,legacy,1024,2,48000,-16,experiment,1,odd,9976,165288,NA,NA,207680,206616,4394,148424,NA,207675,207783,178329,4360,166160,207783,208268,Flanker Task,104,56644,106,yes,1024
Congruent,600,HHHHH,98.13084112,98.13084112,533.1495327,533.1495327,black,legacy,legacy,legacy,0,uniform,1,undefined,1,h,0,0,0,0,106,106,0,0,0,106,106,106,0,106,106,106,Sun Sep 26 18:21:10 2021,The main experiment item,yes,FlankerTask.osexp,/Users/samonemarks/Downloads,no,mono,no,18,no,white,no,yes,768,legacy,26,79,/Users/samonemarks/Downloads/EW-subject-1.csv,legacy,Lentiform Loewenfeld,3.3.9,0,h,NA,s,s,NA,h,403,NA,5572,16863,NA,403,2,legacy,1024,2,48000,-16,experiment,1,odd,9976,165288,NA,NA,209334,208271,4394,148424,NA,209331,209436,178329,4360,166160,209436,209840,Flanker Task,105,57047,107,yes,1024
Incongruent,600,HHSHH,98.14814815,98.14814815,532.8333333,532.8333333,black,legacy,legacy,legacy,0,uniform,1,undefined,1,s,0,0,0,0,107,107,0,0,0,107,107,107,0,107,107,107,Sun Sep 26 18:21:10 2021,The main experiment item,yes,FlankerTask.osexp,/Users/samonemarks/Downloads,no,mono,no,18,no,white,no,yes,768,legacy,27,79,/Users/samonemarks/Downloads/EW-subject-1.csv,legacy,Lentiform Loewenfeld,3.3.9,0,s,NA,s,s,NA,s,499,NA,5572,16863,NA,499,2,legacy,1024,2,48000,-16,experiment,1,odd,9976,165288,NA,NA,210909,209844,4394,148424,NA,210905,211012,178329,4360,166160,211012,211512,Flanker Task,106,57546,108,yes,1024
Congruent,600,HHHHH,98.16513761,98.16513761,532.8348624,532.8348624,black,legacy,legacy,legacy,0,uniform,1,undefined,1,h,0,0,0,0,108,108,0,0,0,108,108,108,0,108,108,108,Sun Sep 26 18:21:10 2021,The main experiment item,yes,FlankerTask.osexp,/Users/samonemarks/Downloads,no,mono,no,18,no,white,no,yes,768,legacy,28,79,/Users/samonemarks/Downloads/EW-subject-1.csv,legacy,Lentiform Loewenfeld,3.3.9,0,h,NA,s,s,NA,h,533,NA,5572,16863,NA,533,2,legacy,1024,2,48000,-16,experiment,1,odd,9976,165288,NA,NA,212581,211517,4394,148424,NA,212577,212686,178329,4360,166160,212686,213220,Flanker Task,107,58079,109,yes,1024
Congruent,600,HHHHH,98.18181818,98.18181818,531.5909091,531.5909091,black,legacy,legacy,legacy,0,uniform,1,undefined,1,h,0,0,0,0,109,109,0,0,0,109,109,109,0,109,109,109,Sun Sep 26 18:21:10 2021,The main experiment item,yes,FlankerTask.osexp,/Users/samonemarks/Downloads,no,mono,no,18,no,white,no,yes,768,legacy,29,79,/Users/samonemarks/Downloads/EW-subject-1.csv,legacy,Lentiform Loewenfeld,3.3.9,0,h,NA,s,s,NA,h,396,NA,5572,16863,NA,396,2,legacy,1024,2,48000,-16,experiment,1,odd,9976,165288,NA,NA,214289,213224,4394,148424,NA,214284,214392,178329,4360,166160,214392,214789,Flanker Task,108,58475,110,yes,1024
Incongruent,600,HHSHH,98.1981982,98.1981982,532.1981982,532.1981982,black,legacy,legacy,legacy,0,uniform,1,undefined,1,s,0,0,0,0,110,110,0,0,0,110,110,110,0,110,110,110,Sun Sep 26 18:21:10 2021,The main experiment item,yes,FlankerTask.osexp,/Users/samonemarks/Downloads,no,mono,no,18,no,white,no,yes,768,legacy,30,79,/Users/samonemarks/Downloads/EW-subject-1.csv,legacy,Lentiform Loewenfeld,3.3.9,0,s,NA,s,s,NA,s,599,NA,5572,16863,NA,599,2,legacy,1024,2,48000,-16,experiment,1,odd,9976,165288,NA,NA,215860,214794,4394,148424,NA,215855,215962,178329,4360,166160,215962,216563,Flanker Task,109,59074,111,yes,1024
Incongruent,600,SSHSS,98.21428571,98.21428571,531.8928571,531.8928571,black,legacy,legacy,legacy,0,uniform,1,undefined,1,h,0,0,0,0,111,111,0,0,0,111,111,111,0,111,111,111,Sun Sep 26 18:21:10 2021,The main experiment item,yes,FlankerTask.osexp,/Users/samonemarks/Downloads,no,mono,no,18,no,white,no,yes,768,legacy,31,79,/Users/samonemarks/Downloads/EW-subject-1.csv,legacy,Lentiform Loewenfeld,3.3.9,0,h,NA,s,s,NA,h,498,NA,5572,16863,NA,498,2,legacy,1024,2,48000,-16,experiment,1,odd,9976,165288,NA,NA,217631,216566,4394,148424,NA,217627,217733,178329,4360,166160,217733,218232,Flanker Task,110,59572,112,yes,1024
Incongruent,600,HHSHH,98.2300885,98.2300885,532.300885,532.300885,black,legacy,legacy,legacy,0,uniform,1,undefined,1,s,0,0,0,0,112,112,0,0,0,112,112,112,0,112,112,112,Sun Sep 26 18:21:10 2021,The main experiment item,yes,FlankerTask.osexp,/Users/samonemarks/Downloads,no,mono,no,18,no,white,no,yes,768,legacy,32,79,/Users/samonemarks/Downloads/EW-subject-1.csv,legacy,Lentiform Loewenfeld,3.3.9,0,s,NA,s,s,NA,s,578,NA,5572,16863,NA,578,2,legacy,1024,2,48000,-16,experiment,1,odd,9976,165288,NA,NA,219301,218236,4394,148424,NA,219296,219404,178329,4360,166160,219404,219983,Flanker Task,111,60150,113,yes,1024
Congruent,600,HHHHH,98.24561404,98.24561404,531.877193,531.877193,black,legacy,legacy,legacy,0,uniform,1,undefined,1,h,0,0,0,0,113,113,0,0,0,113,113,113,0,113,113,113,Sun Sep 26 18:21:10 2021,The main experiment item,yes,FlankerTask.osexp,/Users/samonemarks/Downloads,no,mono,no,18,no,white,no,yes,768,legacy,33,79,/Users/samonemarks/Downloads/EW-subject-1.csv,legacy,Lentiform Loewenfeld,3.3.9,0,h,NA,s,s,NA,h,484,NA,5572,16863,NA,484,2,legacy,1024,2,48000,-16,experiment,1,odd,9976,165288,NA,NA,221053,219987,4394,148424,NA,221047,221157,178329,4360,166160,221157,221642,Flanker Task,112,60634,114,yes,1024
Incongruent,600,SSHSS,98.26086957,98.26086957,533.7826087,533.7826087,black,legacy,legacy,legacy,0,uniform,1,undefined,1,h,0,0,0,0,114,114,0,0,0,114,114,114,0,114,114,114,Sun Sep 26 18:21:10 2021,The main experiment item,yes,FlankerTask.osexp,/Users/samonemarks/Downloads,no,mono,no,18,no,white,no,yes,768,legacy,34,79,/Users/samonemarks/Downloads/EW-subject-1.csv,legacy,Lentiform Loewenfeld,3.3.9,0,h,NA,s,s,NA,h,751,NA,5572,16863,NA,751,2,legacy,1024,2,48000,-16,experiment,1,odd,9976,165288,NA,NA,222715,221645,4394,148424,NA,222707,222818,178329,4360,166160,222818,223570,Flanker Task,113,61385,115,yes,1024
Incongruent,600,SSHSS,98.27586207,98.27586207,532.7844828,532.7844828,black,legacy,legacy,legacy,0,uniform,1,undefined,1,h,0,0,0,0,115,115,0,0,0,115,115,115,0,115,115,115,Sun Sep 26 18:21:10 2021,The main experiment item,yes,FlankerTask.osexp,/Users/samonemarks/Downloads,no,mono,no,18,no,white,no,yes,768,legacy,35,79,/Users/samonemarks/Downloads/EW-subject-1.csv,legacy,Lentiform Loewenfeld,3.3.9,0,h,NA,s,s,NA,h,418,NA,5572,16863,NA,418,2,legacy,1024,2,48000,-16,experiment,1,odd,9976,165288,NA,NA,225144,224080,4394,148424,NA,225140,225246,178329,4360,223574,225246,225665,Flanker Task,114,61803,116,yes,1024
Incongruent,600,HHSHH,98.29059829,98.29059829,533.042735,533.042735,black,legacy,legacy,legacy,0,uniform,1,undefined,1,s,0,0,0,0,116,116,0,0,0,116,116,116,0,116,116,116,Sun Sep 26 18:21:10 2021,The main experiment item,yes,FlankerTask.osexp,/Users/samonemarks/Downloads,no,mono,no,18,no,white,no,yes,768,legacy,36,79,/Users/samonemarks/Downloads/EW-subject-1.csv,legacy,Lentiform Loewenfeld,3.3.9,0,s,NA,s,s,NA,s,563,NA,5572,16863,NA,563,2,legacy,1024,2,48000,-16,experiment,1,odd,9976,165288,NA,NA,226738,225669,4394,148424,NA,226730,226841,178329,4360,223574,226841,227405,Flanker Task,115,62366,117,yes,1024
Congruent,600,HHHHH,98.30508475,98.30508475,532.1779661,532.1779661,black,legacy,legacy,legacy,0,uniform,1,undefined,1,h,0,0,0,0,117,117,0,0,0,117,117,117,0,117,117,117,Sun Sep 26 18:21:10 2021,The main experiment item,yes,FlankerTask.osexp,/Users/samonemarks/Downloads,no,mono,no,18,no,white,no,yes,768,legacy,37,79,/Users/samonemarks/Downloads/EW-subject-1.csv,legacy,Lentiform Loewenfeld,3.3.9,0,h,NA,s,s,NA,h,431,NA,5572,16863,NA,431,2,legacy,1024,2,48000,-16,experiment,1,odd,9976,165288,NA,NA,228475,227410,4394,148424,NA,228471,228579,178329,4360,223574,228579,229011,Flanker Task,116,62797,118,yes,1024
Incongruent,600,SSHSS,98.31932773,98.31932773,531.512605,531.512605,black,legacy,legacy,legacy,0,uniform,1,undefined,1,h,0,0,0,0,118,118,0,0,0,118,118,118,0,118,118,118,Sun Sep 26 18:21:10 2021,The main experiment item,yes,FlankerTask.osexp,/Users/samonemarks/Downloads,no,mono,no,18,no,white,no,yes,768,legacy,38,79,/Users/samonemarks/Downloads/EW-subject-1.csv,legacy,Lentiform Loewenfeld,3.3.9,0,h,NA,s,s,NA,h,453,NA,5572,16863,NA,453,2,legacy,1024,2,48000,-16,experiment,1,odd,9976,165288,NA,NA,230081,229016,4394,148424,NA,230076,230184,178329,4360,223574,230184,230638,Flanker Task,117,63250,119,yes,1024
Congruent,600,SSSSS,98.33333333,98.33333333,530.7833333,530.7833333,black,legacy,legacy,legacy,0,uniform,1,undefined,1,s,0,0,0,0,119,119,0,0,0,119,119,119,0,119,119,119,Sun Sep 26 18:21:10 2021,The main experiment item,yes,FlankerTask.osexp,/Users/samonemarks/Downloads,no,mono,no,18,no,white,no,yes,768,legacy,39,79,/Users/samonemarks/Downloads/EW-subject-1.csv,legacy,Lentiform Loewenfeld,3.3.9,0,s,NA,s,s,NA,s,444,NA,5572,16863,NA,444,2,legacy,1024,2,48000,-16,experiment,1,odd,9976,165288,NA,NA,231709,230643,4394,148424,NA,231703,231811,178329,4360,223574,231811,232256,Flanker Task,118,63694,120,yes,1024
Incongruent,600,HHSHH,98.34710744,98.34710744,533,533,black,legacy,legacy,legacy,0,uniform,1,undefined,1,s,0,0,0,0,120,120,0,0,0,120,120,120,0,120,120,120,Sun Sep 26 18:21:10 2021,The main experiment item,yes,FlankerTask.osexp,/Users/samonemarks/Downloads,no,mono,no,18,no,white,no,yes,768,legacy,40,79,/Users/samonemarks/Downloads/EW-subject-1.csv,legacy,Lentiform Loewenfeld,3.3.9,0,s,NA,s,s,NA,s,799,NA,5572,16863,NA,799,2,legacy,1024,2,48000,-16,experiment,1,odd,9976,165288,NA,NA,233322,232259,4394,148424,NA,233319,233425,178329,4360,223574,233425,234225,Flanker Task,119,64493,121,yes,1024
Congruent,600,SSSSS,98.36065574,98.36065574,532.147541,532.147541,black,legacy,legacy,legacy,0,uniform,1,undefined,1,s,0,0,0,0,121,121,0,0,0,121,121,121,0,121,121,121,Sun Sep 26 18:21:10 2021,The main experiment item,yes,FlankerTask.osexp,/Users/samonemarks/Downloads,no,mono,no,18,no,white,no,yes,768,legacy,41,79,/Users/samonemarks/Downloads/EW-subject-1.csv,legacy,Lentiform Loewenfeld,3.3.9,0,s,NA,s,s,NA,s,429,NA,5572,16863,NA,429,2,legacy,1024,2,48000,-16,experiment,1,odd,9976,165288,NA,NA,235794,234732,4394,148424,NA,235792,235896,178329,4360,234229,235896,236326,Flanker Task,120,64922,122,yes,1024
Incongruent,600,HHSHH,98.37398374,98.37398374,531.9186992,531.9186992,black,legacy,legacy,legacy,0,uniform,1,undefined,1,s,0,0,0,0,122,122,0,0,0,122,122,122,0,122,122,122,Sun Sep 26 18:21:10 2021,The main experiment item,yes,FlankerTask.osexp,/Users/samonemarks/Downloads,no,mono,no,18,no,white,no,yes,768,legacy,42,79,/Users/samonemarks/Downloads/EW-subject-1.csv,legacy,Lentiform Loewenfeld,3.3.9,0,s,NA,s,s,NA,s,504,NA,5572,16863,NA,504,2,legacy,1024,2,48000,-16,experiment,1,odd,9976,165288,NA,NA,237392,236330,4394,148424,NA,237389,237495,178329,4360,234229,237495,238000,Flanker Task,121,65426,123,yes,1024
Congruent,600,HHHHH,98.38709677,98.38709677,531.5483871,531.5483871,black,legacy,legacy,legacy,0,uniform,1,undefined,1,h,0,0,0,0,123,123,0,0,0,123,123,123,0,123,123,123,Sun Sep 26 18:21:10 2021,The main experiment item,yes,FlankerTask.osexp,/Users/samonemarks/Downloads,no,mono,no,18,no,white,no,yes,768,legacy,43,79,/Users/samonemarks/Downloads/EW-subject-1.csv,legacy,Lentiform Loewenfeld,3.3.9,0,h,NA,s,s,NA,h,486,NA,5572,16863,NA,486,2,legacy,1024,2,48000,-16,experiment,1,odd,9976,165288,NA,NA,239067,238005,4394,148424,NA,239065,239170,178329,4360,234229,239171,239658,Flanker Task,122,65912,124,yes,1024
Congruent,600,SSSSS,98.4,98.4,530.632,530.632,black,legacy,legacy,legacy,0,uniform,1,undefined,1,s,0,0,0,0,124,124,0,0,0,124,124,124,0,124,124,124,Sun Sep 26 18:21:10 2021,The main experiment item,yes,FlankerTask.osexp,/Users/samonemarks/Downloads,no,mono,no,18,no,white,no,yes,768,legacy,44,79,/Users/samonemarks/Downloads/EW-subject-1.csv,legacy,Lentiform Loewenfeld,3.3.9,0,s,NA,s,s,NA,s,417,NA,5572,16863,NA,417,2,legacy,1024,2,48000,-16,experiment,1,odd,9976,165288,NA,NA,240728,239663,4394,148424,NA,240722,240830,178329,4360,234229,240831,241248,Flanker Task,123,66329,125,yes,1024
Congruent,600,HHHHH,98.41269841,98.41269841,529.8333333,529.8333333,black,legacy,legacy,legacy,0,uniform,1,undefined,1,h,0,0,0,0,125,125,0,0,0,125,125,125,0,125,125,125,Sun Sep 26 18:21:10 2021,The main experiment item,yes,FlankerTask.osexp,/Users/samonemarks/Downloads,no,mono,no,18,no,white,no,yes,768,legacy,45,79,/Users/samonemarks/Downloads/EW-subject-1.csv,legacy,Lentiform Loewenfeld,3.3.9,0,h,NA,s,s,NA,h,430,NA,5572,16863,NA,430,2,legacy,1024,2,48000,-16,experiment,1,odd,9976,165288,NA,NA,242317,241253,4394,148424,NA,242314,242420,178329,4360,234229,242420,242851,Flanker Task,124,66759,126,yes,1024
Congruent,600,SSSSS,98.42519685,98.42519685,529.1811024,529.1811024,black,legacy,legacy,legacy,0,uniform,1,undefined,1,s,0,0,0,0,126,126,0,0,0,126,126,126,0,126,126,126,Sun Sep 26 18:21:10 2021,The main experiment item,yes,FlankerTask.osexp,/Users/samonemarks/Downloads,no,mono,no,18,no,white,no,yes,768,legacy,46,79,/Users/samonemarks/Downloads/EW-subject-1.csv,legacy,Lentiform Loewenfeld,3.3.9,0,s,NA,s,s,NA,s,447,NA,5572,16863,NA,447,2,legacy,1024,2,48000,-16,experiment,1,odd,9976,165288,NA,NA,243921,242856,4394,148424,NA,243916,244024,178329,4360,234229,244024,244472,Flanker Task,125,67206,127,yes,1024
Congruent,600,HHHHH,98.4375,98.4375,528.25,528.25,black,legacy,legacy,legacy,0,uniform,1,undefined,1,h,0,0,0,0,127,127,0,0,0,127,127,127,0,127,127,127,Sun Sep 26 18:21:10 2021,The main experiment item,yes,FlankerTask.osexp,/Users/samonemarks/Downloads,no,mono,no,18,no,white,no,yes,768,legacy,47,79,/Users/samonemarks/Downloads/EW-subject-1.csv,legacy,Lentiform Loewenfeld,3.3.9,0,h,NA,s,s,NA,h,410,NA,5572,16863,NA,410,2,legacy,1024,2,48000,-16,experiment,1,odd,9976,165288,NA,NA,245542,244477,4394,148424,NA,245539,245644,178329,4360,234229,245644,246055,Flanker Task,126,67616,128,yes,1024
Congruent,600,SSSSS,98.4496124,98.4496124,527.5271318,527.5271318,black,legacy,legacy,legacy,0,uniform,1,undefined,1,s,0,0,0,0,128,128,0,0,0,128,128,128,0,128,128,128,Sun Sep 26 18:21:10 2021,The main experiment item,yes,FlankerTask.osexp,/Users/samonemarks/Downloads,no,mono,no,18,no,white,no,yes,768,legacy,48,79,/Users/samonemarks/Downloads/EW-subject-1.csv,legacy,Lentiform Loewenfeld,3.3.9,0,s,NA,s,s,NA,s,435,NA,5572,16863,NA,435,2,legacy,1024,2,48000,-16,experiment,1,odd,9976,165288,NA,NA,247125,246060,4394,148424,NA,247120,247227,178329,4360,234229,247227,247663,Flanker Task,127,68051,129,yes,1024
Congruent,600,SSSSS,98.46153846,98.46153846,526.4615385,526.4615385,black,legacy,legacy,legacy,0,uniform,1,undefined,1,s,0,0,0,0,129,129,0,0,0,129,129,129,0,129,129,129,Sun Sep 26 18:21:10 2021,The main experiment item,yes,FlankerTask.osexp,/Users/samonemarks/Downloads,no,mono,no,18,no,white,no,yes,768,legacy,49,79,/Users/samonemarks/Downloads/EW-subject-1.csv,legacy,Lentiform Loewenfeld,3.3.9,0,s,NA,s,s,NA,s,389,NA,5572,16863,NA,389,2,legacy,1024,2,48000,-16,experiment,1,odd,9976,165288,NA,NA,248731,247668,4394,148424,NA,248728,248833,178329,4360,234229,248833,249223,Flanker Task,128,68440,130,yes,1024
Congruent,600,HHHHH,98.47328244,98.47328244,525.7709924,525.7709924,black,legacy,legacy,legacy,0,uniform,1,undefined,1,h,0,0,0,0,130,130,0,0,0,130,130,130,0,130,130,130,Sun Sep 26 18:21:10 2021,The main experiment item,yes,FlankerTask.osexp,/Users/samonemarks/Downloads,no,mono,no,18,no,white,no,yes,768,legacy,50,79,/Users/samonemarks/Downloads/EW-subject-1.csv,legacy,Lentiform Loewenfeld,3.3.9,0,h,NA,s,s,NA,h,436,NA,5572,16863,NA,436,2,legacy,1024,2,48000,-16,experiment,1,odd,9976,165288,NA,NA,250291,249228,4394,148424,NA,250289,250393,178329,4360,234229,250394,250831,Flanker Task,129,68876,131,yes,1024
Incongruent,600,HHSHH,97.72727273,97.72727273,524.9090909,524.9090909,black,legacy,legacy,legacy,0,uniform,0,undefined,0,s,0,0,0,0,131,131,0,0,0,131,131,131,0,131,131,131,Sun Sep 26 18:21:10 2021,The main experiment item,yes,FlankerTask.osexp,/Users/samonemarks/Downloads,no,mono,no,18,no,white,no,yes,768,legacy,51,79,/Users/samonemarks/Downloads/EW-subject-1.csv,legacy,Lentiform Loewenfeld,3.3.9,0,h,NA,s,s,NA,h,412,NA,5572,16863,NA,412,2,legacy,1024,2,48000,-16,experiment,1,odd,9976,165288,NA,NA,251902,250836,4394,148424,NA,251897,252004,178329,4360,234229,252004,252417,Flanker Task,129,69288,132,yes,1024
Incongruent,600,SSHSS,97.7443609,97.7443609,525.075188,525.075188,black,legacy,legacy,legacy,0,uniform,1,undefined,1,h,0,0,0,0,132,132,0,0,0,132,132,132,0,132,132,132,Sun Sep 26 18:21:10 2021,The main experiment item,yes,FlankerTask.osexp,/Users/samonemarks/Downloads,no,mono,no,18,no,white,no,yes,768,legacy,52,79,/Users/samonemarks/Downloads/EW-subject-1.csv,legacy,Lentiform Loewenfeld,3.3.9,0,h,NA,s,s,NA,h,547,NA,5572,16863,NA,547,2,legacy,1024,2,48000,-16,experiment,1,odd,9976,165288,NA,NA,253987,252925,4394,148424,NA,253985,254090,252422,4360,234229,254090,254638,Flanker Task,130,69835,133,yes,1024
Incongruent,600,SSHSS,97.76119403,97.76119403,524.3955224,524.3955224,black,legacy,legacy,legacy,0,uniform,1,undefined,1,h,0,0,0,0,133,133,0,0,0,133,133,133,0,133,133,133,Sun Sep 26 18:21:10 2021,The main experiment item,yes,FlankerTask.osexp,/Users/samonemarks/Downloads,no,mono,no,18,no,white,no,yes,768,legacy,53,79,/Users/samonemarks/Downloads/EW-subject-1.csv,legacy,Lentiform Loewenfeld,3.3.9,0,h,NA,s,s,NA,h,434,NA,5572,16863,NA,434,2,legacy,1024,2,48000,-16,experiment,1,odd,9976,165288,NA,NA,255705,254642,4394,148424,NA,255701,255807,252422,4360,234229,255807,256242,Flanker Task,131,70269,134,yes,1024
Congruent,600,HHHHH,97.77777778,97.77777778,523.8,523.8,black,legacy,legacy,legacy,0,uniform,1,undefined,1,h,0,0,0,0,134,134,0,0,0,134,134,134,0,134,134,134,Sun Sep 26 18:21:10 2021,The main experiment item,yes,FlankerTask.osexp,/Users/samonemarks/Downloads,no,mono,no,18,no,white,no,yes,768,legacy,54,79,/Users/samonemarks/Downloads/EW-subject-1.csv,legacy,Lentiform Loewenfeld,3.3.9,0,h,NA,s,s,NA,h,444,NA,5572,16863,NA,444,2,legacy,1024,2,48000,-16,experiment,1,odd,9976,165288,NA,NA,257311,256247,4394,148424,NA,257309,257413,252422,4360,234229,257414,257859,Flanker Task,132,70713,135,yes,1024
Congruent,600,SSSSS,97.79411765,97.79411765,522.5882353,522.5882353,black,legacy,legacy,legacy,0,uniform,1,undefined,1,s,0,0,0,0,135,135,0,0,0,135,135,135,0,135,135,135,Sun Sep 26 18:21:10 2021,The main experiment item,yes,FlankerTask.osexp,/Users/samonemarks/Downloads,no,mono,no,18,no,white,no,yes,768,legacy,55,79,/Users/samonemarks/Downloads/EW-subject-1.csv,legacy,Lentiform Loewenfeld,3.3.9,0,s,NA,s,s,NA,s,359,NA,5572,16863,NA,359,2,legacy,1024,2,48000,-16,experiment,1,odd,9976,165288,NA,NA,258927,257864,4394,148424,NA,258924,259031,252422,4360,234229,259031,259391,Flanker Task,133,71072,136,yes,1024
Congruent,600,HHHHH,97.81021898,97.81021898,521.6131387,521.6131387,black,legacy,legacy,legacy,0,uniform,1,undefined,1,h,0,0,0,0,136,136,0,0,0,136,136,136,0,136,136,136,Sun Sep 26 18:21:10 2021,The main experiment item,yes,FlankerTask.osexp,/Users/samonemarks/Downloads,no,mono,no,18,no,white,no,yes,768,legacy,56,79,/Users/samonemarks/Downloads/EW-subject-1.csv,legacy,Lentiform Loewenfeld,3.3.9,0,h,NA,s,s,NA,h,389,NA,5572,16863,NA,389,2,legacy,1024,2,48000,-16,experiment,1,odd,9976,165288,NA,NA,260457,259396,4394,148424,NA,260455,260561,252422,4360,234229,260561,260951,Flanker Task,134,71461,137,yes,1024
Incongruent,600,SSHSS,97.10144928,97.10144928,521.4492754,521.4492754,black,legacy,legacy,legacy,0,uniform,0,undefined,0,h,0,0,0,0,137,137,0,0,0,137,137,137,0,137,137,137,Sun Sep 26 18:21:10 2021,The main experiment item,yes,FlankerTask.osexp,/Users/samonemarks/Downloads,no,mono,no,18,no,white,no,yes,768,legacy,57,79,/Users/samonemarks/Downloads/EW-subject-1.csv,legacy,Lentiform Loewenfeld,3.3.9,0,s,NA,s,s,NA,s,499,NA,5572,16863,NA,499,2,legacy,1024,2,48000,-16,experiment,1,odd,9976,165288,NA,NA,262020,260955,4394,148424,NA,262016,262122,252422,4360,234229,262122,262622,Flanker Task,134,71960,138,yes,1024
Congruent,600,SSSSS,97.12230216,97.12230216,520.7410072,520.7410072,black,legacy,legacy,legacy,0,uniform,1,undefined,1,s,0,0,0,0,138,138,0,0,0,138,138,138,0,138,138,138,Sun Sep 26 18:21:10 2021,The main experiment item,yes,FlankerTask.osexp,/Users/samonemarks/Downloads,no,mono,no,18,no,white,no,yes,768,legacy,58,79,/Users/samonemarks/Downloads/EW-subject-1.csv,legacy,Lentiform Loewenfeld,3.3.9,0,s,NA,s,s,NA,s,423,NA,5572,16863,NA,423,2,legacy,1024,2,48000,-16,experiment,1,odd,9976,165288,NA,NA,264195,263130,4394,148424,NA,264190,264298,262626,4360,234229,264298,264722,Flanker Task,135,72383,139,yes,1024
Congruent,600,SSSSS,97.14285714,97.14285714,521.2,521.2,black,legacy,legacy,legacy,0,uniform,1,undefined,1,s,0,0,0,0,139,139,0,0,0,139,139,139,0,139,139,139,Sun Sep 26 18:21:10 2021,The main experiment item,yes,FlankerTask.osexp,/Users/samonemarks/Downloads,no,mono,no,18,no,white,no,yes,768,legacy,59,79,/Users/samonemarks/Downloads/EW-subject-1.csv,legacy,Lentiform Loewenfeld,3.3.9,0,s,NA,s,s,NA,s,585,NA,5572,16863,NA,585,2,legacy,1024,2,48000,-16,experiment,1,odd,9976,165288,NA,NA,265797,264727,4394,148424,NA,265787,265900,262626,4360,234229,265901,266487,Flanker Task,136,72968,140,yes,1024
Congruent,600,HHHHH,97.16312057,97.16312057,520.822695,520.822695,black,legacy,legacy,legacy,0,uniform,1,undefined,1,h,0,0,0,0,140,140,0,0,0,140,140,140,0,140,140,140,Sun Sep 26 18:21:10 2021,The main experiment item,yes,FlankerTask.osexp,/Users/samonemarks/Downloads,no,mono,no,18,no,white,no,yes,768,legacy,60,79,/Users/samonemarks/Downloads/EW-subject-1.csv,legacy,Lentiform Loewenfeld,3.3.9,0,h,NA,s,s,NA,h,468,NA,5572,16863,NA,468,2,legacy,1024,2,48000,-16,experiment,1,odd,9976,165288,NA,NA,267561,266491,4394,148424,NA,267551,267664,262626,4360,234229,267664,268133,Flanker Task,137,73436,141,yes,1024
Incongruent,600,HHSHH,97.18309859,97.18309859,520.5704225,520.5704225,black,legacy,legacy,legacy,0,uniform,1,undefined,1,s,0,0,0,0,141,141,0,0,0,141,141,141,0,141,141,141,Sun Sep 26 18:21:10 2021,The main experiment item,yes,FlankerTask.osexp,/Users/samonemarks/Downloads,no,mono,no,18,no,white,no,yes,768,legacy,61,79,/Users/samonemarks/Downloads/EW-subject-1.csv,legacy,Lentiform Loewenfeld,3.3.9,0,s,NA,s,s,NA,s,485,NA,5572,16863,NA,485,2,legacy,1024,2,48000,-16,experiment,1,odd,9976,165288,NA,NA,269204,268138,4394,148424,NA,269197,269308,262626,4360,234229,269308,269794,Flanker Task,138,73921,142,yes,1024
Congruent,600,SSSSS,97.2027972,97.2027972,521.5314685,521.5314685,black,legacy,legacy,legacy,0,uniform,1,undefined,1,s,0,0,0,0,142,142,0,0,0,142,142,142,0,142,142,142,Sun Sep 26 18:21:10 2021,The main experiment item,yes,FlankerTask.osexp,/Users/samonemarks/Downloads,no,mono,no,18,no,white,no,yes,768,legacy,62,79,/Users/samonemarks/Downloads/EW-subject-1.csv,legacy,Lentiform Loewenfeld,3.3.9,0,s,NA,s,s,NA,s,658,NA,5572,16863,NA,658,2,legacy,1024,2,48000,-16,experiment,1,odd,9976,165288,NA,NA,270863,269798,4394,148424,NA,270857,270966,262626,4360,234229,270967,271627,Flanker Task,139,74579,143,yes,1024
Incongruent,600,HHSHH,97.22222222,97.22222222,522.5208333,522.5208333,black,legacy,legacy,legacy,0,uniform,1,undefined,1,s,0,0,0,0,143,143,0,0,0,143,143,143,0,143,143,143,Sun Sep 26 18:21:10 2021,The main experiment item,yes,FlankerTask.osexp,/Users/samonemarks/Downloads,no,mono,no,18,no,white,no,yes,768,legacy,63,79,/Users/samonemarks/Downloads/EW-subject-1.csv,legacy,Lentiform Loewenfeld,3.3.9,0,s,NA,s,s,NA,s,664,NA,5572,16863,NA,664,2,legacy,1024,2,48000,-16,experiment,1,odd,9976,165288,NA,NA,273204,272139,4394,148424,NA,273200,273307,262626,4360,271631,273307,273972,Flanker Task,140,75243,144,yes,1024
Incongruent,600,HHSHH,97.24137931,97.24137931,522.0275862,522.0275862,black,legacy,legacy,legacy,0,uniform,1,undefined,1,s,0,0,0,0,144,144,0,0,0,144,144,144,0,144,144,144,Sun Sep 26 18:21:10 2021,The main experiment item,yes,FlankerTask.osexp,/Users/samonemarks/Downloads,no,mono,no,18,no,white,no,yes,768,legacy,64,79,/Users/samonemarks/Downloads/EW-subject-1.csv,legacy,Lentiform Loewenfeld,3.3.9,0,s,NA,s,s,NA,s,451,NA,5572,16863,NA,451,2,legacy,1024,2,48000,-16,experiment,1,odd,9976,165288,NA,NA,275543,274480,4394,148424,NA,275540,275646,262626,4360,273977,275646,276098,Flanker Task,141,75694,145,yes,1024
Incongruent,600,SSHSS,97.26027397,97.26027397,522.2123288,522.2123288,black,legacy,legacy,legacy,0,uniform,1,undefined,1,h,0,0,0,0,145,145,0,0,0,145,145,145,0,145,145,145,Sun Sep 26 18:21:10 2021,The main experiment item,yes,FlankerTask.osexp,/Users/samonemarks/Downloads,no,mono,no,18,no,white,no,yes,768,legacy,65,79,/Users/samonemarks/Downloads/EW-subject-1.csv,legacy,Lentiform Loewenfeld,3.3.9,0,h,NA,s,s,NA,h,549,NA,5572,16863,NA,549,2,legacy,1024,2,48000,-16,experiment,1,odd,9976,165288,NA,NA,277167,276103,4394,148424,NA,277162,277269,262626,4360,273977,277270,277820,Flanker Task,142,76243,146,yes,1024
Incongruent,600,HHSHH,96.59863946,96.59863946,521.2312925,521.2312925,black,legacy,legacy,legacy,0,uniform,0,undefined,0,s,0,0,0,0,146,146,0,0,0,146,146,146,0,146,146,146,Sun Sep 26 18:21:10 2021,The main experiment item,yes,FlankerTask.osexp,/Users/samonemarks/Downloads,no,mono,no,18,no,white,no,yes,768,legacy,66,79,/Users/samonemarks/Downloads/EW-subject-1.csv,legacy,Lentiform Loewenfeld,3.3.9,0,h,NA,s,s,NA,h,378,NA,5572,16863,NA,378,2,legacy,1024,2,48000,-16,experiment,1,odd,9976,165288,NA,NA,278891,277825,4394,148424,NA,278886,278993,262626,4360,273977,278993,279372,Flanker Task,142,76621,147,yes,1024
Incongruent,600,SSHSS,96.62162162,96.62162162,521.4391892,521.4391892,black,legacy,legacy,legacy,0,uniform,1,undefined,1,h,0,0,0,0,147,147,0,0,0,147,147,147,0,147,147,147,Sun Sep 26 18:21:10 2021,The main experiment item,yes,FlankerTask.osexp,/Users/samonemarks/Downloads,no,mono,no,18,no,white,no,yes,768,legacy,67,79,/Users/samonemarks/Downloads/EW-subject-1.csv,legacy,Lentiform Loewenfeld,3.3.9,0,h,NA,s,s,NA,h,552,NA,5572,16863,NA,552,2,legacy,1024,2,48000,-16,experiment,1,odd,9976,165288,NA,NA,280947,279881,4394,148424,NA,280942,281052,279377,4360,273977,281052,281606,Flanker Task,143,77173,148,yes,1024
Incongruent,600,HHSHH,96.6442953,96.6442953,521.9194631,521.9194631,black,legacy,legacy,legacy,0,uniform,1,undefined,1,s,0,0,0,0,148,148,0,0,0,148,148,148,0,148,148,148,Sun Sep 26 18:21:10 2021,The main experiment item,yes,FlankerTask.osexp,/Users/samonemarks/Downloads,no,mono,no,18,no,white,no,yes,768,legacy,68,79,/Users/samonemarks/Downloads/EW-subject-1.csv,legacy,Lentiform Loewenfeld,3.3.9,0,s,NA,s,s,NA,s,593,NA,5572,16863,NA,593,2,legacy,1024,2,48000,-16,experiment,1,odd,9976,165288,NA,NA,282676,281610,4394,148424,NA,282670,282781,279377,4360,273977,282781,283375,Flanker Task,144,77766,149,yes,1024
Congruent,600,HHHHH,96.66666667,96.66666667,521.7733333,521.7733333,black,legacy,legacy,legacy,0,uniform,1,undefined,1,h,0,0,0,0,149,149,0,0,0,149,149,149,0,149,149,149,Sun Sep 26 18:21:10 2021,The main experiment item,yes,FlankerTask.osexp,/Users/samonemarks/Downloads,no,mono,no,18,no,white,no,yes,768,legacy,69,79,/Users/samonemarks/Downloads/EW-subject-1.csv,legacy,Lentiform Loewenfeld,3.3.9,0,h,NA,s,s,NA,h,500,NA,5572,16863,NA,500,2,legacy,1024,2,48000,-16,experiment,1,odd,9976,165288,NA,NA,284446,283381,4394,148424,NA,284440,284548,279377,4360,273977,284549,285050,Flanker Task,145,78266,150,yes,1024
Congruent,600,HHHHH,96.68874172,96.68874172,520.6688742,520.6688742,black,legacy,legacy,legacy,0,uniform,1,undefined,1,h,0,0,0,0,150,150,0,0,0,150,150,150,0,150,150,150,Sun Sep 26 18:21:10 2021,The main experiment item,yes,FlankerTask.osexp,/Users/samonemarks/Downloads,no,mono,no,18,no,white,no,yes,768,legacy,70,79,/Users/samonemarks/Downloads/EW-subject-1.csv,legacy,Lentiform Loewenfeld,3.3.9,0,h,NA,s,s,NA,h,355,NA,5572,16863,NA,355,2,legacy,1024,2,48000,-16,experiment,1,odd,9976,165288,NA,NA,286120,285055,4394,148424,NA,286114,286223,279377,4360,273977,286223,286579,Flanker Task,146,78621,151,yes,1024
Incongruent,600,SSHSS,96.71052632,96.71052632,519.0197368,519.0197368,black,legacy,legacy,legacy,0,uniform,1,undefined,1,h,0,0,0,0,151,151,0,0,0,151,151,151,0,151,151,151,Sun Sep 26 18:21:10 2021,The main experiment item,yes,FlankerTask.osexp,/Users/samonemarks/Downloads,no,mono,no,18,no,white,no,yes,768,legacy,71,79,/Users/samonemarks/Downloads/EW-subject-1.csv,legacy,Lentiform Loewenfeld,3.3.9,0,h,NA,s,s,NA,h,270,NA,5572,16863,NA,270,2,legacy,1024,2,48000,-16,experiment,1,odd,9976,165288,NA,NA,287649,286584,4394,148424,NA,287645,287751,279377,4360,273977,287751,288022,Flanker Task,147,78891,152,yes,1024
Incongruent,600,SSHSS,96.73202614,96.73202614,518.6470588,518.6470588,black,legacy,legacy,legacy,0,uniform,1,undefined,1,h,0,0,0,0,152,152,0,0,0,152,152,152,0,152,152,152,Sun Sep 26 18:21:10 2021,The main experiment item,yes,FlankerTask.osexp,/Users/samonemarks/Downloads,no,mono,no,18,no,white,no,yes,768,legacy,72,79,/Users/samonemarks/Downloads/EW-subject-1.csv,legacy,Lentiform Loewenfeld,3.3.9,0,h,NA,s,s,NA,h,462,NA,5572,16863,NA,462,2,legacy,1024,2,48000,-16,experiment,1,odd,9976,165288,NA,NA,289091,288027,4394,148424,NA,289087,289194,279377,4360,273977,289194,289657,Flanker Task,148,79353,153,yes,1024
Congruent,600,SSSSS,96.75324675,96.75324675,517.6363636,517.6363636,black,legacy,legacy,legacy,0,uniform,1,undefined,1,s,0,0,0,0,153,153,0,0,0,153,153,153,0,153,153,153,Sun Sep 26 18:21:10 2021,The main experiment item,yes,FlankerTask.osexp,/Users/samonemarks/Downloads,no,mono,no,18,no,white,no,yes,768,legacy,73,79,/Users/samonemarks/Downloads/EW-subject-1.csv,legacy,Lentiform Loewenfeld,3.3.9,0,s,NA,s,s,NA,s,363,NA,5572,16863,NA,363,2,legacy,1024,2,48000,-16,experiment,1,odd,9976,165288,NA,NA,290726,289662,4394,148424,NA,290721,290829,279377,4360,273977,290829,291193,Flanker Task,149,79716,154,yes,1024
Incongruent,600,SSHSS,96.77419355,96.77419355,517.3548387,517.3548387,black,legacy,legacy,legacy,0,uniform,1,undefined,1,h,0,0,0,0,154,154,0,0,0,154,154,154,0,154,154,154,Sun Sep 26 18:21:10 2021,The main experiment item,yes,FlankerTask.osexp,/Users/samonemarks/Downloads,no,mono,no,18,no,white,no,yes,768,legacy,74,79,/Users/samonemarks/Downloads/EW-subject-1.csv,legacy,Lentiform Loewenfeld,3.3.9,0,h,NA,s,s,NA,h,474,NA,5572,16863,NA,474,2,legacy,1024,2,48000,-16,experiment,1,odd,9976,165288,NA,NA,292263,291198,4394,148424,NA,292258,292365,279377,4360,273977,292366,292841,Flanker Task,150,80190,155,yes,1024
Incongruent,600,SSHSS,96.79487179,96.79487179,517.8141026,517.8141026,black,legacy,legacy,legacy,0,uniform,1,undefined,1,h,0,0,0,0,155,155,0,0,0,155,155,155,0,155,155,155,Sun Sep 26 18:21:10 2021,The main experiment item,yes,FlankerTask.osexp,/Users/samonemarks/Downloads,no,mono,no,18,no,white,no,yes,768,legacy,75,79,/Users/samonemarks/Downloads/EW-subject-1.csv,legacy,Lentiform Loewenfeld,3.3.9,0,h,NA,s,s,NA,h,589,NA,5572,16863,NA,589,2,legacy,1024,2,48000,-16,experiment,1,odd,9976,165288,NA,NA,293913,292846,4394,148424,NA,293906,294015,279377,4360,273977,294015,294605,Flanker Task,151,80779,156,yes,1024
Incongruent,600,SSHSS,96.81528662,96.81528662,517.2484076,517.2484076,black,legacy,legacy,legacy,0,uniform,1,undefined,1,h,0,0,0,0,156,156,0,0,0,156,156,156,0,156,156,156,Sun Sep 26 18:21:10 2021,The main experiment item,yes,FlankerTask.osexp,/Users/samonemarks/Downloads,no,mono,no,18,no,white,no,yes,768,legacy,76,79,/Users/samonemarks/Downloads/EW-subject-1.csv,legacy,Lentiform Loewenfeld,3.3.9,0,h,NA,s,s,NA,h,429,NA,5572,16863,NA,429,2,legacy,1024,2,48000,-16,experiment,1,odd,9976,165288,NA,NA,295677,294609,4394,148424,NA,295670,295779,279377,4360,273977,295779,296209,Flanker Task,152,81208,157,yes,1024
Incongruent,600,SSHSS,96.83544304,96.83544304,516.7911392,516.7911392,black,legacy,legacy,legacy,0,uniform,1,undefined,1,h,0,0,0,0,157,157,0,0,0,157,157,157,0,157,157,157,Sun Sep 26 18:21:10 2021,The main experiment item,yes,FlankerTask.osexp,/Users/samonemarks/Downloads,no,mono,no,18,no,white,no,yes,768,legacy,77,79,/Users/samonemarks/Downloads/EW-subject-1.csv,legacy,Lentiform Loewenfeld,3.3.9,0,h,NA,s,s,NA,h,445,NA,5572,16863,NA,445,2,legacy,1024,2,48000,-16,experiment,1,odd,9976,165288,NA,NA,297280,296214,4394,148424,NA,297276,297382,279377,4360,273977,297382,297828,Flanker Task,153,81653,158,yes,1024
Incongruent,600,SSHSS,96.85534591,96.85534591,515.6415094,515.6415094,black,legacy,legacy,legacy,0,uniform,1,undefined,1,h,0,0,0,0,158,158,0,0,0,158,158,158,0,158,158,158,Sun Sep 26 18:21:10 2021,The main experiment item,yes,FlankerTask.osexp,/Users/samonemarks/Downloads,no,mono,no,18,no,white,no,yes,768,legacy,78,79,/Users/samonemarks/Downloads/EW-subject-1.csv,legacy,Lentiform Loewenfeld,3.3.9,0,h,NA,s,s,NA,h,334,NA,5572,16863,NA,334,2,legacy,1024,2,48000,-16,experiment,1,odd,9976,165288,NA,NA,298899,297832,4394,148424,NA,298892,299002,279377,4360,273977,299002,299337,Flanker Task,154,81987,159,yes,1024
Congruent,600,SSSSS,96.25,96.25,514.45,514.45,black,legacy,legacy,legacy,0,uniform,0,undefined,0,s,0,0,0,0,159,159,0,0,0,159,159,159,0,159,159,159,Sun Sep 26 18:21:10 2021,The main experiment item,yes,FlankerTask.osexp,/Users/samonemarks/Downloads,no,mono,no,18,no,white,no,yes,768,legacy,79,79,/Users/samonemarks/Downloads/EW-subject-1.csv,legacy,Lentiform Loewenfeld,3.3.9,0,h,NA,s,s,NA,h,325,NA,5572,16863,NA,325,2,legacy,1024,2,48000,-16,experiment,1,odd,9976,165288,NA,NA,300405,299341,4394,148424,NA,300401,300507,279377,4360,273977,300507,300833,Flanker Task,154,82312,160,yes,1024
Incongruent,300,SSHSS,96.27329193,96.27329193,515.3602484,515.3602484,black,legacy,legacy,legacy,0,uniform,1,undefined,1,h,0,0,0,0,160,160,0,0,0,160,160,160,0,160,160,160,Sun Sep 26 18:21:10 2021,The main experiment item,yes,FlankerTask.osexp,/Users/samonemarks/Downloads,no,mono,no,18,no,white,no,yes,768,legacy,0,79,/Users/samonemarks/Downloads/EW-subject-1.csv,legacy,Lentiform Loewenfeld,3.3.9,0,h,NA,s,s,h,h,661,NA,5572,16863,13015,661,2,legacy,1024,2,48000,-16,experiment,1,odd,9976,165288,315385,NA,315430,301341,4394,148424,302369,315427,315534,300837,4360,273977,315535,316197,Flanker Task,155,82973,161,yes,1024
Congruent,300,SSSSS,96.2962963,96.2962963,515.5802469,515.5802469,black,legacy,legacy,legacy,0,uniform,1,undefined,1,s,0,0,0,0,161,161,0,0,0,161,161,161,0,161,161,161,Sun Sep 26 18:21:10 2021,The main experiment item,yes,FlankerTask.osexp,/Users/samonemarks/Downloads,no,mono,no,18,no,white,no,yes,768,legacy,1,79,/Users/samonemarks/Downloads/EW-subject-1.csv,legacy,Lentiform Loewenfeld,3.3.9,0,s,NA,s,s,h,s,551,NA,5572,16863,13015,551,2,legacy,1024,2,48000,-16,experiment,1,odd,9976,165288,315385,NA,317780,316713,4394,148424,302369,317772,317883,300837,4360,316203,317883,318435,Flanker Task,156,83524,162,yes,1024
Congruent,300,HHHHH,96.3190184,96.3190184,515.5889571,515.5889571,black,legacy,legacy,legacy,0,uniform,1,undefined,1,h,0,0,0,0,162,162,0,0,0,162,162,162,0,162,162,162,Sun Sep 26 18:21:10 2021,The main experiment item,yes,FlankerTask.osexp,/Users/samonemarks/Downloads,no,mono,no,18,no,white,no,yes,768,legacy,2,79,/Users/samonemarks/Downloads/EW-subject-1.csv,legacy,Lentiform Loewenfeld,3.3.9,0,h,NA,s,s,h,h,517,NA,5572,16863,13015,517,2,legacy,1024,2,48000,-16,experiment,1,odd,9976,165288,315385,NA,320011,318946,4394,148424,302369,320007,320114,300837,4360,318440,320115,320633,Flanker Task,157,84041,163,yes,1024
Incongruent,300,SSHSS,96.34146341,96.34146341,514.7926829,514.7926829,black,legacy,legacy,legacy,0,uniform,1,undefined,1,h,0,0,0,0,163,163,0,0,0,163,163,163,0,163,163,163,Sun Sep 26 18:21:10 2021,The main experiment item,yes,FlankerTask.osexp,/Users/samonemarks/Downloads,no,mono,no,18,no,white,no,yes,768,legacy,3,79,/Users/samonemarks/Downloads/EW-subject-1.csv,legacy,Lentiform Loewenfeld,3.3.9,0,h,NA,s,s,h,h,385,NA,5572,16863,13015,385,2,legacy,1024,2,48000,-16,experiment,1,odd,9976,165288,315385,NA,322206,321143,4394,148424,302369,322202,322309,300837,4360,320638,322309,322695,Flanker Task,158,84426,164,yes,1024
Congruent,300,HHHHH,96.36363636,96.36363636,514.2969697,514.2969697,black,legacy,legacy,legacy,0,uniform,1,undefined,1,h,0,0,0,0,164,164,0,0,0,164,164,164,0,164,164,164,Sun Sep 26 18:21:10 2021,The main experiment item,yes,FlankerTask.osexp,/Users/samonemarks/Downloads,no,mono,no,18,no,white,no,yes,768,legacy,4,79,/Users/samonemarks/Downloads/EW-subject-1.csv,legacy,Lentiform Loewenfeld,3.3.9,0,h,NA,s,s,h,h,433,NA,5572,16863,13015,433,2,legacy,1024,2,48000,-16,experiment,1,odd,9976,165288,315385,NA,324268,323204,4394,148424,302369,324265,324372,300837,4360,322699,324372,324806,Flanker Task,159,84859,165,yes,1024
Congruent,300,SSSSS,96.38554217,96.38554217,513.1204819,513.1204819,black,legacy,legacy,legacy,0,uniform,1,undefined,1,s,0,0,0,0,165,165,0,0,0,165,165,165,0,165,165,165,Sun Sep 26 18:21:10 2021,The main experiment item,yes,FlankerTask.osexp,/Users/samonemarks/Downloads,no,mono,no,18,no,white,no,yes,768,legacy,5,79,/Users/samonemarks/Downloads/EW-subject-1.csv,legacy,Lentiform Loewenfeld,3.3.9,0,s,NA,s,s,h,s,319,NA,5572,16863,13015,319,2,legacy,1024,2,48000,-16,experiment,1,odd,9976,165288,315385,NA,326379,325316,4394,148424,302369,326376,326482,300837,4360,324810,326483,326804,Flanker Task,160,85178,166,yes,1024
Congruent,300,SSSSS,96.40718563,96.40718563,512.1856287,512.1856287,black,legacy,legacy,legacy,0,uniform,1,undefined,1,s,0,0,0,0,166,166,0,0,0,166,166,166,0,166,166,166,Sun Sep 26 18:21:10 2021,The main experiment item,yes,FlankerTask.osexp,/Users/samonemarks/Downloads,no,mono,no,18,no,white,no,yes,768,legacy,6,79,/Users/samonemarks/Downloads/EW-subject-1.csv,legacy,Lentiform Loewenfeld,3.3.9,0,s,NA,s,s,h,s,357,NA,5572,16863,13015,357,2,legacy,1024,2,48000,-16,experiment,1,odd,9976,165288,315385,NA,328375,327313,4394,148424,302369,328372,328477,300837,4360,326809,328478,328836,Flanker Task,161,85535,167,yes,1024
Congruent,300,HHHHH,96.42857143,96.42857143,510.5119048,510.5119048,black,legacy,legacy,legacy,0,uniform,1,undefined,1,h,0,0,0,0,167,167,0,0,0,167,167,167,0,167,167,167,Sun Sep 26 18:21:10 2021,The main experiment item,yes,FlankerTask.osexp,/Users/samonemarks/Downloads,no,mono,no,18,no,white,no,yes,768,legacy,7,79,/Users/samonemarks/Downloads/EW-subject-1.csv,legacy,Lentiform Loewenfeld,3.3.9,0,h,NA,s,s,h,h,231,NA,5572,16863,13015,231,2,legacy,1024,2,48000,-16,experiment,1,odd,9976,165288,315385,NA,330409,329343,4394,148424,302369,330405,330513,300837,4360,328840,330513,330745,Flanker Task,162,85766,168,yes,1024
