"acc","accuracy","average_response_time","avg_rt","background","canvas_backend","clock_backend","color_backend","compensation","condition","coordinates","correct","correct_instructions1","correct_keyboard_response","correct_response","count_Block1","count_Block2","count_Block3","count_Finish","count_ISI","count_Instructions2","count_errorFeedback","count_experiment","count_faster","count_fixation","count_instructions1","count_instructions3","count_keyboard_response","count_logger","count_sequence","count_stimulus","datetime","deadline","description","disable_garbage_collection","experiment_file","experiment_path","font_bold","font_family","font_italic","font_size","font_underline","foreground","form_clicks","fullscreen","height","keyboard_backend","live_row","live_row_Block1","logfile","mouse_backend","opensesame_codename","opensesame_version","repeat_cycle","response","response_Finish","response_Instructions2","response_errorFeedback","response_faster","response_instructions1","response_instructions3","response_keyboard_response","response_time","response_time_Finish","response_time_Instructions2","response_time_errorFeedback","response_time_faster","response_time_instructions1","response_time_instructions3","response_time_keyboard_response","round_decimals","sampler_backend","sound_buf_size","sound_channels","sound_freq","sound_sample_size","start","stimulus","subject_nr","subject_parity","time_Block1","time_Block2","time_Block3","time_Finish","time_ISI","time_Instructions2","time_errorFeedback","time_experiment","time_faster","time_fixation","time_instructions1","time_instructions3","time_keyboard_response","time_logger","time_sequence","time_stimulus","title","total_correct","total_response_time","total_responses","uniform_coordinates","width"
"0","0","1500","1500","black","legacy","legacy","legacy","0","incongruent","uniform","0","undefined","0","h","0","0","0","0","0","0","0","0","0","0","0","0","0","0","0","0","Sun Sep 27 11:38:09 2020","1500","The main experiment item","yes","FlankerTask.osexp","/Users/shelia/Desktop","no","mono","no","18","no","white","no","yes","768","legacy","0","0","/Users/shelia/Desktop/ST-subject-3.csv","legacy","Lentiform Loewenfeld","3.3.3","0","None","NA","NA","NA","NA","return","NA","None","1500","NA","NA","NA","NA","15881","NA","1500","2","legacy","1024","2","48000","-16","experiment","SSHSS","3","odd","18137","NA","NA","NA","NA","NA","NA","2227","NA","18194","2243","NA","18310","19810","18181","18309","Flanker Task","0","1500","1","yes","1024"
"0","0","1500","1500","black","legacy","legacy","legacy","0","congruent","uniform","0","undefined","0","h","0","0","0","0","1","0","1","0","1","1","0","0","1","1","1","1","Sun Sep 27 11:38:09 2020","1500","The main experiment item","yes","FlankerTask.osexp","/Users/shelia/Desktop","no","mono","no","18","no","white","no","yes","768","legacy","1","1","/Users/shelia/Desktop/ST-subject-3.csv","legacy","Lentiform Loewenfeld","3.3.3","0","None","NA","NA","return","return","return","NA","None","1500","NA","NA","30129","4032","15881","NA","1500","2","legacy","1024","2","48000","-16","experiment","HHHHH","3","odd","18137","NA","NA","NA","54013","NA","19826","2227","49968","55094","2243","NA","55213","56713","55080","55213","Flanker Task","0","3000","2","yes","1024"
"33.333333333333336","33.333333333333336","1427","1427","black","legacy","legacy","legacy","0","congruent","uniform","1","undefined","1","s","0","0","0","0","2","0","2","0","2","2","0","0","2","2","2","2","Sun Sep 27 11:38:09 2020","1500","The main experiment item","yes","FlankerTask.osexp","/Users/shelia/Desktop","no","mono","no","18","no","white","no","yes","768","legacy","2","2","/Users/shelia/Desktop/ST-subject-3.csv","legacy","Lentiform Loewenfeld","3.3.3","0","s","NA","NA","return","return","return","NA","s","1281","NA","NA","2380","7408","15881","NA","1281","2","legacy","1024","2","48000","-16","experiment","SSSSS","3","odd","18137","NA","NA","NA","66544","NA","56727","2227","59122","67610","2243","NA","67729","69014","67596","67729","Flanker Task","1","4281","3","yes","1024"
"50","50","1360.75","1360.75","black","legacy","legacy","legacy","0","congruent","uniform","1","undefined","1","h","0","0","0","0","3","0","3","0","3","3","0","0","3","3","3","3","Sun Sep 27 11:38:09 2020","1500","The main experiment item","yes","FlankerTask.osexp","/Users/shelia/Desktop","no","mono","no","18","no","white","no","yes","768","legacy","3","3","/Users/shelia/Desktop/ST-subject-3.csv","legacy","Lentiform Loewenfeld","3.3.3","0","h","NA","NA","return","return","return","NA","h","1162","NA","NA","2380","7408","15881","NA","1162","2","legacy","1024","2","48000","-16","experiment","HHHHH","3","odd","18137","NA","NA","NA","69029","NA","56727","2227","59122","70108","2243","NA","70225","71387","70093","70225","Flanker Task","2","5443","4","yes","1024"
"60","60","1287","1287","black","legacy","legacy","legacy","0","incongruent","uniform","1","undefined","1","h","0","0","0","0","4","0","4","0","4","4","0","0","4","4","4","4","Sun Sep 27 11:38:09 2020","1500","The main experiment item","yes","FlankerTask.osexp","/Users/shelia/Desktop","no","mono","no","18","no","white","no","yes","768","legacy","4","4","/Users/shelia/Desktop/ST-subject-3.csv","legacy","Lentiform Loewenfeld","3.3.3","0","h","NA","NA","return","return","return","NA","h","992","NA","NA","2380","7408","15881","NA","992","2","legacy","1024","2","48000","-16","experiment","SSHSS","3","odd","18137","NA","NA","NA","71403","NA","56727","2227","59122","72469","2243","NA","72586","73579","72456","72586","Flanker Task","3","6435","5","yes","1024"
"66.66666666666667","66.66666666666667","1193.3333333333333","1193.3333333333333","black","legacy","legacy","legacy","0","incongruent","uniform","1","undefined","1","h","0","0","0","0","5","0","5","0","5","5","0","0","5","5","5","5","Sun Sep 27 11:38:09 2020","1500","The main experiment item","yes","FlankerTask.osexp","/Users/shelia/Desktop","no","mono","no","18","no","white","no","yes","768","legacy","5","5","/Users/shelia/Desktop/ST-subject-3.csv","legacy","Lentiform Loewenfeld","3.3.3","0","h","NA","NA","return","return","return","NA","h","725","NA","NA","2380","7408","15881","NA","725","2","legacy","1024","2","48000","-16","experiment","SSHSS","3","odd","18137","NA","NA","NA","73594","NA","56727","2227","59122","74663","2243","NA","74779","75505","74650","74779","Flanker Task","4","7160","6","yes","1024"
"71.42857142857143","71.42857142857143","1179.5714285714287","1179.5714285714287","black","legacy","legacy","legacy","0","incogruent","uniform","1","undefined","1","s","0","0","0","0","6","0","6","0","6","6","0","0","6","6","6","6","Sun Sep 27 11:38:09 2020","1500","The main experiment item","yes","FlankerTask.osexp","/Users/shelia/Desktop","no","mono","no","18","no","white","no","yes","768","legacy","6","6","/Users/shelia/Desktop/ST-subject-3.csv","legacy","Lentiform Loewenfeld","3.3.3","0","s","NA","NA","return","return","return","NA","s","1097","NA","NA","2380","7408","15881","NA","1097","2","legacy","1024","2","48000","-16","experiment","HHSHH","3","odd","18137","NA","NA","NA","75519","NA","56727","2227","59122","76588","2243","NA","76706","77803","76575","76706","Flanker Task","5","8257","7","yes","1024"
"75","75","1129.25","1129.25","black","legacy","legacy","legacy","0","incongruent","uniform","1","undefined","1","h","0","0","0","0","7","0","7","0","7","7","0","0","7","7","7","7","Sun Sep 27 11:38:09 2020","1500","The main experiment item","yes","FlankerTask.osexp","/Users/shelia/Desktop","no","mono","no","18","no","white","no","yes","768","legacy","7","7","/Users/shelia/Desktop/ST-subject-3.csv","legacy","Lentiform Loewenfeld","3.3.3","0","h","NA","NA","return","return","return","NA","h","777","NA","NA","2380","7408","15881","NA","777","2","legacy","1024","2","48000","-16","experiment","SSHSS","3","odd","18137","NA","NA","NA","77818","NA","56727","2227","59122","78885","2243","NA","79000","79778","78872","78999","Flanker Task","6","9034","8","yes","1024"
"77.77777777777777","77.77777777777777","1081.888888888889","1081.888888888889","black","legacy","legacy","legacy","0","congruent","uniform","1","undefined","1","s","0","0","0","0","8","0","8","0","8","8","0","0","8","8","8","8","Sun Sep 27 11:38:09 2020","1500","The main experiment item","yes","FlankerTask.osexp","/Users/shelia/Desktop","no","mono","no","18","no","white","no","yes","768","legacy","8","8","/Users/shelia/Desktop/ST-subject-3.csv","legacy","Lentiform Loewenfeld","3.3.3","0","s","NA","NA","return","return","return","NA","s","703","NA","NA","2380","7408","15881","NA","703","2","legacy","1024","2","48000","-16","experiment","SSSSS","3","odd","18137","NA","NA","NA","79793","NA","56727","2227","59122","80861","2243","NA","80981","81685","80849","80981","Flanker Task","7","9737","9","yes","1024"
"70","70","1123.7","1123.7","black","legacy","legacy","legacy","0","incogruent","uniform","0","undefined","0","s","0","0","0","0","9","0","9","0","9","9","0","0","9","9","9","9","Sun Sep 27 11:38:09 2020","1500","The main experiment item","yes","FlankerTask.osexp","/Users/shelia/Desktop","no","mono","no","18","no","white","no","yes","768","legacy","9","9","/Users/shelia/Desktop/ST-subject-3.csv","legacy","Lentiform Loewenfeld","3.3.3","0","None","NA","NA","return","return","return","NA","None","1500","NA","NA","2380","7408","15881","NA","1500","2","legacy","1024","2","48000","-16","experiment","HHSHH","3","odd","18137","NA","NA","NA","81699","NA","56727","2227","59122","82769","2243","NA","82888","84388","82755","82888","Flanker Task","7","11237","10","yes","1024"
"63.63636363636363","63.63636363636363","1157.909090909091","1157.909090909091","black","legacy","legacy","legacy","0","incongruent","uniform","0","undefined","0","h","0","0","0","0","10","0","10","0","10","10","0","0","10","10","10","10","Sun Sep 27 11:38:09 2020","1500","The main experiment item","yes","FlankerTask.osexp","/Users/shelia/Desktop","no","mono","no","18","no","white","no","yes","768","legacy","10","10","/Users/shelia/Desktop/ST-subject-3.csv","legacy","Lentiform Loewenfeld","3.3.3","0","None","NA","NA","h","return","return","NA","None","1500","NA","NA","564","7408","15881","NA","1500","2","legacy","1024","2","48000","-16","experiment","SSHSS","3","odd","18137","NA","NA","NA","84983","NA","84403","2227","59122","86050","2243","NA","86166","87666","86036","86166","Flanker Task","7","12737","11","yes","1024"
"66.66666666666667","66.66666666666667","1176.0833333333333","1176.0833333333333","black","legacy","legacy","legacy","0","congruent","uniform","1","undefined","1","h","0","0","0","0","11","0","11","0","11","11","0","0","11","11","11","11","Sun Sep 27 11:38:09 2020","1500","The main experiment item","yes","FlankerTask.osexp","/Users/shelia/Desktop","no","mono","no","18","no","white","no","yes","768","legacy","11","11","/Users/shelia/Desktop/ST-subject-3.csv","legacy","Lentiform Loewenfeld","3.3.3","0","h","NA","NA","s","return","return","NA","h","1376","NA","NA","4279","1984","15881","NA","1376","2","legacy","1024","2","48000","-16","experiment","HHHHH","3","odd","18137","NA","NA","NA","93975","NA","87681","2227","91976","95041","2243","NA","95156","96533","95028","95156","Flanker Task","8","14113","12","yes","1024"
"69.23076923076923","69.23076923076923","1181.6153846153845","1181.6153846153845","black","legacy","legacy","legacy","0","congruent","uniform","1","undefined","1","h","0","0","0","0","12","0","12","0","12","12","0","0","12","12","12","12","Sun Sep 27 11:38:09 2020","1500","The main experiment item","yes","FlankerTask.osexp","/Users/shelia/Desktop","no","mono","no","18","no","white","no","yes","768","legacy","12","12","/Users/shelia/Desktop/ST-subject-3.csv","legacy","Lentiform Loewenfeld","3.3.3","0","h","NA","NA","s","return","return","NA","h","1248","NA","NA","4279","1984","15881","NA","1248","2","legacy","1024","2","48000","-16","experiment","HHHHH","3","odd","18137","NA","NA","NA","96554","NA","87681","2227","91976","97619","2243","NA","97732","98981","97606","97732","Flanker Task","9","15361","13","yes","1024"
"71.42857142857143","71.42857142857143","1193.7857142857142","1193.7857142857142","black","legacy","legacy","legacy","0","incongruent","uniform","1","undefined","1","h","0","0","0","0","13","0","13","0","13","13","0","0","13","13","13","13","Sun Sep 27 11:38:09 2020","1500","The main experiment item","yes","FlankerTask.osexp","/Users/shelia/Desktop","no","mono","no","18","no","white","no","yes","768","legacy","13","13","/Users/shelia/Desktop/ST-subject-3.csv","legacy","Lentiform Loewenfeld","3.3.3","0","h","NA","NA","s","return","return","NA","h","1352","NA","NA","4279","1984","15881","NA","1352","2","legacy","1024","2","48000","-16","experiment","SSHSS","3","odd","18137","NA","NA","NA","98996","NA","87681","2227","91976","100065","2243","NA","100179","101532","100051","100179","Flanker Task","10","16713","14","yes","1024"
"66.66666666666667","66.66666666666667","1214.2","1214.2","black","legacy","legacy","legacy","0","incogruent","uniform","0","undefined","0","s","0","0","0","0","14","0","14","0","14","14","0","0","14","14","14","14","Sun Sep 27 11:38:09 2020","1500","The main experiment item","yes","FlankerTask.osexp","/Users/shelia/Desktop","no","mono","no","18","no","white","no","yes","768","legacy","14","14","/Users/shelia/Desktop/ST-subject-3.csv","legacy","Lentiform Loewenfeld","3.3.3","0","None","NA","NA","s","return","return","NA","None","1500","NA","NA","4279","1984","15881","NA","1500","2","legacy","1024","2","48000","-16","experiment","HHSHH","3","odd","18137","NA","NA","NA","101546","NA","87681","2227","91976","102616","2243","NA","102732","104232","102603","102732","Flanker Task","10","18213","15","yes","1024"
"62.5","62.5","1232.0625","1232.0625","black","legacy","legacy","legacy","0","incogruent","uniform","0","undefined","0","s","0","0","0","0","15","0","15","0","15","15","0","0","15","15","15","15","Sun Sep 27 11:38:09 2020","1500","The main experiment item","yes","FlankerTask.osexp","/Users/shelia/Desktop","no","mono","no","18","no","white","no","yes","768","legacy","15","15","/Users/shelia/Desktop/ST-subject-3.csv","legacy","Lentiform Loewenfeld","3.3.3","0","None","NA","NA","h","return","return","NA","None","1500","NA","NA","168","1984","15881","NA","1500","2","legacy","1024","2","48000","-16","experiment","HHSHH","3","odd","18137","NA","NA","NA","104430","NA","104247","2227","91976","105495","2243","NA","105613","107113","105482","105612","Flanker Task","10","19713","16","yes","1024"
"58.8235294117647","58.8235294117647","1247.8235294117646","1247.8235294117646","black","legacy","legacy","legacy","0","congruent","uniform","0","undefined","0","s","0","0","0","0","16","0","16","0","16","16","0","0","16","16","16","16","Sun Sep 27 11:38:09 2020","1500","The main experiment item","yes","FlankerTask.osexp","/Users/shelia/Desktop","no","mono","no","18","no","white","no","yes","768","legacy","16","16","/Users/shelia/Desktop/ST-subject-3.csv","legacy","Lentiform Loewenfeld","3.3.3","0","None","NA","NA","h","h","return","NA","None","1500","NA","NA","4149","2180","15881","NA","1500","2","legacy","1024","2","48000","-16","experiment","SSSSS","3","odd","18137","NA","NA","NA","113485","NA","107127","2227","111290","114554","2243","NA","114671","116171","114541","114671","Flanker Task","10","21213","17","yes","1024"
"61.111111111111114","61.111111111111114","1226.2222222222222","1226.2222222222222","black","legacy","legacy","legacy","0","incongruent","uniform","1","undefined","1","h","0","0","0","0","17","0","17","0","17","17","0","0","17","17","17","17","Sun Sep 27 11:38:09 2020","1500","The main experiment item","yes","FlankerTask.osexp","/Users/shelia/Desktop","no","mono","no","18","no","white","no","yes","768","legacy","17","17","/Users/shelia/Desktop/ST-subject-3.csv","legacy","Lentiform Loewenfeld","3.3.3","0","h","NA","NA","s","h","return","NA","h","859","NA","NA","989","2180","15881","NA","859","2","legacy","1024","2","48000","-16","experiment","SSHSS","3","odd","18137","NA","NA","NA","117190","NA","116185","2227","111290","118255","2243","NA","118372","119232","118241","118372","Flanker Task","11","22072","18","yes","1024"
"57.89473684210526","57.89473684210526","1240.6315789473683","1240.6315789473683","black","legacy","legacy","legacy","0","incogruent","uniform","0","undefined","0","s","0","0","0","0","18","0","18","0","18","18","0","0","18","18","18","18","Sun Sep 27 11:38:09 2020","1500","The main experiment item","yes","FlankerTask.osexp","/Users/shelia/Desktop","no","mono","no","18","no","white","no","yes","768","legacy","18","18","/Users/shelia/Desktop/ST-subject-3.csv","legacy","Lentiform Loewenfeld","3.3.3","0","None","NA","NA","s","h","return","NA","None","1500","NA","NA","989","2180","15881","NA","1500","2","legacy","1024","2","48000","-16","experiment","HHSHH","3","odd","18137","NA","NA","NA","119247","NA","116185","2227","111290","120316","2243","NA","120433","121933","120303","120433","Flanker Task","11","23572","19","yes","1024"
"60","60","1209.05","1209.05","black","legacy","legacy","legacy","0","congruent","uniform","1","undefined","1","h","0","0","0","0","19","0","19","0","19","19","0","0","19","19","19","19","Sun Sep 27 11:38:09 2020","1500","The main experiment item","yes","FlankerTask.osexp","/Users/shelia/Desktop","no","mono","no","18","no","white","no","yes","768","legacy","19","19","/Users/shelia/Desktop/ST-subject-3.csv","legacy","Lentiform Loewenfeld","3.3.3","0","h","NA","NA","h","h","return","NA","h","609","NA","NA","1359","2180","15881","NA","609","2","legacy","1024","2","48000","-16","experiment","HHHHH","3","odd","18137","NA","NA","NA","123322","NA","121948","2227","111290","124389","2243","NA","124503","125113","124375","124503","Flanker Task","12","24181","20","yes","1024"
"61.904761904761905","61.904761904761905","1214.7619047619048","1214.7619047619048","black","legacy","legacy","legacy","0","congruent","uniform","1","undefined","1","s","0","0","0","0","20","0","20","0","20","20","0","0","20","20","20","20","Sun Sep 27 11:38:09 2020","1500","The main experiment item","yes","FlankerTask.osexp","/Users/shelia/Desktop","no","mono","no","18","no","white","no","yes","768","legacy","20","20","/Users/shelia/Desktop/ST-subject-3.csv","legacy","Lentiform Loewenfeld","3.3.3","0","s","NA","NA","h","h","return","NA","s","1329","NA","NA","1359","2180","15881","NA","1329","2","legacy","1024","2","48000","-16","experiment","SSSSS","3","odd","18137","NA","NA","NA","125129","NA","121948","2227","111290","126200","2243","NA","126318","127648","126186","126318","Flanker Task","13","25510","21","yes","1024"
"59.09090909090909","59.09090909090909","1227.7272727272727","1227.7272727272727","black","legacy","legacy","legacy","0","incogruent","uniform","0","undefined","0","s","0","0","0","0","21","0","21","0","21","21","0","0","21","21","21","21","Sun Sep 27 11:38:09 2020","1500","The main experiment item","yes","FlankerTask.osexp","/Users/shelia/Desktop","no","mono","no","18","no","white","no","yes","768","legacy","21","21","/Users/shelia/Desktop/ST-subject-3.csv","legacy","Lentiform Loewenfeld","3.3.3","0","None","NA","NA","h","h","return","NA","None","1500","NA","NA","1359","2180","15881","NA","1500","2","legacy","1024","2","48000","-16","experiment","HHSHH","3","odd","18137","NA","NA","NA","127663","NA","121948","2227","111290","128730","2243","NA","128848","130348","128717","128848","Flanker Task","13","27010","22","yes","1024"
"60.869565217391305","60.869565217391305","1221.2608695652175","1221.2608695652175","black","legacy","legacy","legacy","0","incongruent","uniform","1","undefined","1","h","0","0","0","0","22","0","22","0","22","22","0","0","22","22","22","22","Sun Sep 27 11:38:09 2020","1500","The main experiment item","yes","FlankerTask.osexp","/Users/shelia/Desktop","no","mono","no","18","no","white","no","yes","768","legacy","22","22","/Users/shelia/Desktop/ST-subject-3.csv","legacy","Lentiform Loewenfeld","3.3.3","0","h","NA","NA","s","h","return","NA","h","1079","NA","NA","136","2180","15881","NA","1079","2","legacy","1024","2","48000","-16","experiment","SSHSS","3","odd","18137","NA","NA","NA","130513","NA","130362","2227","111290","131581","2243","NA","131698","132778","131568","131698","Flanker Task","14","28089","23","yes","1024"
"58.333333333333336","58.333333333333336","1232.875","1232.875","black","legacy","legacy","legacy","0","congruent","uniform","0","undefined","0","h","0","0","0","0","23","0","23","0","23","23","0","0","23","23","23","23","Sun Sep 27 11:38:09 2020","1500","The main experiment item","yes","FlankerTask.osexp","/Users/shelia/Desktop","no","mono","no","18","no","white","no","yes","768","legacy","23","23","/Users/shelia/Desktop/ST-subject-3.csv","legacy","Lentiform Loewenfeld","3.3.3","0","None","NA","NA","s","h","return","NA","None","1500","NA","NA","136","2180","15881","NA","1500","2","legacy","1024","2","48000","-16","experiment","HHHHH","3","odd","18137","NA","NA","NA","132793","NA","130362","2227","111290","133861","2243","NA","133976","135476","133848","133976","Flanker Task","14","29589","24","yes","1024"
"56","56","1221.88","1221.88","black","legacy","legacy","legacy","0","incogruent","uniform","0","undefined","0","s","0","0","0","0","24","0","24","0","24","24","0","0","24","24","24","24","Sun Sep 27 11:38:09 2020","1500","The main experiment item","yes","FlankerTask.osexp","/Users/shelia/Desktop","no","mono","no","18","no","white","no","yes","768","legacy","24","24","/Users/shelia/Desktop/ST-subject-3.csv","legacy","Lentiform Loewenfeld","3.3.3","0","h","NA","NA","h","h","return","NA","h","958","NA","NA","1101","2180","15881","NA","958","2","legacy","1024","2","48000","-16","experiment","HHSHH","3","odd","18137","NA","NA","NA","136605","NA","135490","2227","111290","137672","2243","NA","137791","138750","137659","137791","Flanker Task","14","30547","25","yes","1024"
"53.84615384615385","53.84615384615385","1183","1183","black","legacy","legacy","legacy","0","congruent","uniform","0","undefined","0","s","0","0","0","0","25","0","25","0","25","25","0","0","25","25","25","25","Sun Sep 27 11:38:09 2020","1500","The main experiment item","yes","FlankerTask.osexp","/Users/shelia/Desktop","no","mono","no","18","no","white","no","yes","768","legacy","25","25","/Users/shelia/Desktop/ST-subject-3.csv","legacy","Lentiform Loewenfeld","3.3.3","0","h","NA","NA","h","h","return","NA","h","211","NA","NA","4140","774","15881","NA","211","2","legacy","1024","2","48000","-16","experiment","SSSSS","3","odd","18137","NA","NA","NA","143708","NA","138765","2227","142920","144777","2243","NA","144893","145105","144764","144893","Flanker Task","14","30758","26","yes","1024"
"51.851851851851855","51.851851851851855","1175.7037037037037","1175.7037037037037","black","legacy","legacy","legacy","0","congruent","uniform","0","undefined","0","s","0","0","0","0","26","0","26","0","26","26","0","0","26","26","26","26","Sun Sep 27 11:38:09 2020","1500","The main experiment item","yes","FlankerTask.osexp","/Users/shelia/Desktop","no","mono","no","18","no","white","no","yes","768","legacy","26","26","/Users/shelia/Desktop/ST-subject-3.csv","legacy","Lentiform Loewenfeld","3.3.3","0","h","NA","NA","h","h","return","NA","h","986","NA","NA","985","774","15881","NA","986","2","legacy","1024","2","48000","-16","experiment","SSSSS","3","odd","18137","NA","NA","NA","146119","NA","145120","2227","142920","147188","2243","NA","147303","148290","147174","147303","Flanker Task","14","31744","27","yes","1024"
"50","50","1187.2857142857142","1187.2857142857142","black","legacy","legacy","legacy","0","incogruent","uniform","0","undefined","0","s","0","0","0","0","27","0","27","0","27","27","0","0","27","27","27","27","Sun Sep 27 11:38:09 2020","1500","The main experiment item","yes","FlankerTask.osexp","/Users/shelia/Desktop","no","mono","no","18","no","white","no","yes","768","legacy","27","27","/Users/shelia/Desktop/ST-subject-3.csv","legacy","Lentiform Loewenfeld","3.3.3","0","None","NA","NA","h","h","return","NA","None","1500","NA","NA","445","774","15881","NA","1500","2","legacy","1024","2","48000","-16","experiment","HHSHH","3","odd","18137","NA","NA","NA","148764","NA","148305","2227","142920","149833","2243","NA","149953","151453","149820","149952","Flanker Task","14","33244","28","yes","1024"
"51.724137931034484","51.724137931034484","1180.6896551724137","1180.6896551724137","black","legacy","legacy","legacy","0","congruent","uniform","1","undefined","1","h","0","0","0","0","28","0","28","0","28","28","0","0","28","28","28","28","Sun Sep 27 11:38:09 2020","1500","The main experiment item","yes","FlankerTask.osexp","/Users/shelia/Desktop","no","mono","no","18","no","white","no","yes","768","legacy","28","28","/Users/shelia/Desktop/ST-subject-3.csv","legacy","Lentiform Loewenfeld","3.3.3","0","h","NA","NA","h","h","return","NA","h","996","NA","NA","2786","2952","15881","NA","996","2","legacy","1024","2","48000","-16","experiment","HHHHH","3","odd","18137","NA","NA","NA","157234","NA","151467","2227","154268","158302","2243","NA","158418","159415","158289","158418","Flanker Task","15","34240","29","yes","1024"
"50","50","1191.3333333333333","1191.3333333333333","black","legacy","legacy","legacy","0","incogruent","uniform","0","undefined","0","s","0","0","0","0","29","0","29","0","29","29","0","0","29","29","29","29","Sun Sep 27 11:38:09 2020","1500","The main experiment item","yes","FlankerTask.osexp","/Users/shelia/Desktop","no","mono","no","18","no","white","no","yes","768","legacy","29","29","/Users/shelia/Desktop/ST-subject-3.csv","legacy","Lentiform Loewenfeld","3.3.3","0","None","NA","NA","h","h","return","NA","None","1500","NA","NA","2786","2952","15881","NA","1500","2","legacy","1024","2","48000","-16","experiment","HHSHH","3","odd","18137","NA","NA","NA","159430","NA","151467","2227","154268","160499","2243","NA","160615","162115","160485","160615","Flanker Task","15","35740","30","yes","1024"
"48.38709677419355","48.38709677419355","1201.2903225806451","1201.2903225806451","black","legacy","legacy","legacy","0","incongruent","uniform","0","undefined","0","h","0","0","0","0","30","0","30","0","30","30","0","0","30","30","30","30","Sun Sep 27 11:38:09 2020","1500","The main experiment item","yes","FlankerTask.osexp","/Users/shelia/Desktop","no","mono","no","18","no","white","no","yes","768","legacy","30","30","/Users/shelia/Desktop/ST-subject-3.csv","legacy","Lentiform Loewenfeld","3.3.3","0","None","NA","NA","h","h","return","NA","None","1500","NA","NA","2669","2935","15881","NA","1500","2","legacy","1024","2","48000","-16","experiment","SSHSS","3","odd","18137","NA","NA","NA","167761","NA","162129","2227","164812","168830","2243","NA","168949","170449","168816","168949","Flanker Task","15","37240","31","yes","1024"
"46.875","46.875","1210.625","1210.625","black","legacy","legacy","legacy","0","incogruent","uniform","0","undefined","0","s","0","0","0","0","31","0","31","0","31","31","0","0","31","31","31","31","Sun Sep 27 11:38:09 2020","1500","The main experiment item","yes","FlankerTask.osexp","/Users/shelia/Desktop","no","mono","no","18","no","white","no","yes","768","legacy","31","31","/Users/shelia/Desktop/ST-subject-3.csv","legacy","Lentiform Loewenfeld","3.3.3","0","None","NA","NA","h","h","return","NA","None","1500","NA","NA","1838","2321","15881","NA","1500","2","legacy","1024","2","48000","-16","experiment","HHSHH","3","odd","18137","NA","NA","NA","174651","NA","170464","2227","172316","175718","2243","NA","175838","177338","175705","175838","Flanker Task","15","38740","32","yes","1024"
"45.45454545454545","45.45454545454545","1197.7878787878788","1197.7878787878788","black","legacy","legacy","legacy","0","congruent","uniform","0","undefined","0","s","0","0","0","0","32","0","32","0","32","32","0","0","32","32","32","32","Sun Sep 27 11:38:09 2020","1500","The main experiment item","yes","FlankerTask.osexp","/Users/shelia/Desktop","no","mono","no","18","no","white","no","yes","768","legacy","32","32","/Users/shelia/Desktop/ST-subject-3.csv","legacy","Lentiform Loewenfeld","3.3.3","0","h","NA","NA","s","h","return","NA","h","787","NA","NA","615","2321","15881","NA","787","2","legacy","1024","2","48000","-16","experiment","SSSSS","3","odd","18137","NA","NA","NA","177981","NA","177352","2227","172316","179051","2243","NA","179166","179954","179038","179166","Flanker Task","15","39527","33","yes","1024"
"47.05882352941177","47.05882352941177","1195.7058823529412","1195.7058823529412","black","legacy","legacy","legacy","0","congruent","uniform","1","undefined","1","h","0","0","0","0","33","0","33","0","33","33","0","0","33","33","33","33","Sun Sep 27 11:38:09 2020","1500","The main experiment item","yes","FlankerTask.osexp","/Users/shelia/Desktop","no","mono","no","18","no","white","no","yes","768","legacy","33","33","/Users/shelia/Desktop/ST-subject-3.csv","legacy","Lentiform Loewenfeld","3.3.3","0","h","NA","NA","h","h","return","NA","h","1127","NA","NA","3572","1248","15881","NA","1127","2","legacy","1024","2","48000","-16","experiment","HHHHH","3","odd","18137","NA","NA","NA","184816","NA","179968","2227","183554","185882","2243","NA","186002","187130","185868","186002","Flanker Task","16","40654","34","yes","1024"
"48.57142857142857","48.57142857142857","1191.5142857142857","1191.5142857142857","black","legacy","legacy","legacy","0","congruent","uniform","1","undefined","1","s","0","0","0","0","34","0","34","0","34","34","0","0","34","34","34","34","Sun Sep 27 11:38:09 2020","1500","The main experiment item","yes","FlankerTask.osexp","/Users/shelia/Desktop","no","mono","no","18","no","white","no","yes","768","legacy","34","34","/Users/shelia/Desktop/ST-subject-3.csv","legacy","Lentiform Loewenfeld","3.3.3","0","s","NA","NA","h","h","return","NA","s","1049","NA","NA","3572","1248","15881","NA","1049","2","legacy","1024","2","48000","-16","experiment","SSSSS","3","odd","18137","NA","NA","NA","187145","NA","179968","2227","183554","188214","2243","NA","188331","189381","188200","188331","Flanker Task","17","41703","35","yes","1024"
"50","50","1191.6944444444443","1191.6944444444443","black","legacy","legacy","legacy","0","incongruent","uniform","1","undefined","1","h","0","0","0","0","35","0","35","0","35","35","0","0","35","35","35","35","Sun Sep 27 11:38:09 2020","1500","The main experiment item","yes","FlankerTask.osexp","/Users/shelia/Desktop","no","mono","no","18","no","white","no","yes","768","legacy","35","35","/Users/shelia/Desktop/ST-subject-3.csv","legacy","Lentiform Loewenfeld","3.3.3","0","h","NA","NA","h","h","return","NA","h","1198","NA","NA","3572","1248","15881","NA","1198","2","legacy","1024","2","48000","-16","experiment","SSHSS","3","odd","18137","NA","NA","NA","189396","NA","179968","2227","183554","190464","2243","NA","190579","191778","190449","190579","Flanker Task","18","42901","36","yes","1024"
"51.351351351351354","51.351351351351354","1195.2972972972973","1195.2972972972973","black","legacy","legacy","legacy","0","congruent","uniform","1","undefined","1","s","0","0","0","0","36","0","36","0","36","36","0","0","36","36","36","36","Sun Sep 27 11:38:09 2020","1500","The main experiment item","yes","FlankerTask.osexp","/Users/shelia/Desktop","no","mono","no","18","no","white","no","yes","768","legacy","36","36","/Users/shelia/Desktop/ST-subject-3.csv","legacy","Lentiform Loewenfeld","3.3.3","0","s","NA","NA","h","h","return","NA","s","1325","NA","NA","3572","1248","15881","NA","1325","2","legacy","1024","2","48000","-16","experiment","SSSSS","3","odd","18137","NA","NA","NA","191792","NA","179968","2227","183554","192861","2243","NA","192975","194301","192848","192975","Flanker Task","19","44226","37","yes","1024"
"52.63157894736842","52.63157894736842","1195.7631578947369","1195.7631578947369","black","legacy","legacy","legacy","0","congruent","uniform","1","undefined","1","s","0","0","0","0","37","0","37","0","37","37","0","0","37","37","37","37","Sun Sep 27 11:38:09 2020","1500","The main experiment item","yes","FlankerTask.osexp","/Users/shelia/Desktop","no","mono","no","18","no","white","no","yes","768","legacy","37","37","/Users/shelia/Desktop/ST-subject-3.csv","legacy","Lentiform Loewenfeld","3.3.3","0","s","NA","NA","h","h","return","NA","s","1213","NA","NA","3572","1248","15881","NA","1213","2","legacy","1024","2","48000","-16","experiment","SSSSS","3","odd","18137","NA","NA","NA","194316","NA","179968","2227","183554","195383","2243","NA","195501","196715","195370","195501","Flanker Task","20","45439","38","yes","1024"
"51.282051282051285","51.282051282051285","1177.051282051282","1177.051282051282","black","legacy","legacy","legacy","0","congruent","uniform","0","undefined","0","h","0","0","0","0","38","0","38","0","38","38","0","0","38","38","38","38","Sun Sep 27 11:38:09 2020","1500","The main experiment item","yes","FlankerTask.osexp","/Users/shelia/Desktop","no","mono","no","18","no","white","no","yes","768","legacy","38","38","/Users/shelia/Desktop/ST-subject-3.csv","legacy","Lentiform Loewenfeld","3.3.3","0","s","NA","NA","h","h","return","NA","s","466","NA","NA","3572","1248","15881","NA","466","2","legacy","1024","2","48000","-16","experiment","HHHHH","3","odd","18137","NA","NA","NA","196729","NA","179968","2227","183554","197797","2243","NA","197912","198379","197782","197912","Flanker Task","20","45905","39","yes","1024"
"52.5","52.5","1179.475","1179.475","black","legacy","legacy","legacy","0","congruent","uniform","1","undefined","1","h","0","0","0","0","39","0","39","0","39","39","0","0","39","39","39","39","Sun Sep 27 11:38:09 2020","1500","The main experiment item","yes","FlankerTask.osexp","/Users/shelia/Desktop","no","mono","no","18","no","white","no","yes","768","legacy","39","39","/Users/shelia/Desktop/ST-subject-3.csv","legacy","Lentiform Loewenfeld","3.3.3","0","h","NA","NA","h","h","return","NA","h","1274","NA","NA","4446","650","15881","NA","1274","2","legacy","1024","2","48000","-16","experiment","HHHHH","3","odd","18137","NA","NA","NA","203520","NA","198395","2227","202856","204592","2243","NA","204707","205982","204577","204707","Flanker Task","21","47179","40","yes","1024"
"53.65853658536585","53.65853658536585","1177.6097560975609","1177.6097560975609","black","legacy","legacy","legacy","0","incogruent","uniform","1","undefined","1","s","0","0","0","0","40","0","40","0","40","40","0","0","40","40","40","40","Sun Sep 27 11:38:09 2020","1500","The main experiment item","yes","FlankerTask.osexp","/Users/shelia/Desktop","no","mono","no","18","no","white","no","yes","768","legacy","40","40","/Users/shelia/Desktop/ST-subject-3.csv","legacy","Lentiform Loewenfeld","3.3.3","0","s","NA","NA","h","h","return","NA","s","1103","NA","NA","4446","650","15881","NA","1103","2","legacy","1024","2","48000","-16","experiment","HHSHH","3","odd","18137","NA","NA","NA","205996","NA","198395","2227","202856","207063","2243","NA","207176","208280","207050","207176","Flanker Task","22","48282","41","yes","1024"
"54.76190476190476","54.76190476190476","1175.952380952381","1175.952380952381","black","legacy","legacy","legacy","0","congruent","uniform","1","undefined","1","s","0","0","0","0","41","0","41","0","41","41","0","0","41","41","41","41","Sun Sep 27 11:38:09 2020","1500","The main experiment item","yes","FlankerTask.osexp","/Users/shelia/Desktop","no","mono","no","18","no","white","no","yes","768","legacy","41","41","/Users/shelia/Desktop/ST-subject-3.csv","legacy","Lentiform Loewenfeld","3.3.3","0","s","NA","NA","h","h","return","NA","s","1108","NA","NA","4446","650","15881","NA","1108","2","legacy","1024","2","48000","-16","experiment","SSSSS","3","odd","18137","NA","NA","NA","208295","NA","198395","2227","202856","209363","2243","NA","209479","210588","209350","209479","Flanker Task","23","49390","42","yes","1024"
"55.81395348837209","55.81395348837209","1174.7906976744187","1174.7906976744187","black","legacy","legacy","legacy","0","incogruent","uniform","1","undefined","1","s","0","0","0","0","42","0","42","0","42","42","0","0","42","42","42","42","Sun Sep 27 11:38:09 2020","1500","The main experiment item","yes","FlankerTask.osexp","/Users/shelia/Desktop","no","mono","no","18","no","white","no","yes","768","legacy","42","42","/Users/shelia/Desktop/ST-subject-3.csv","legacy","Lentiform Loewenfeld","3.3.3","0","s","NA","NA","h","h","return","NA","s","1126","NA","NA","4446","650","15881","NA","1126","2","legacy","1024","2","48000","-16","experiment","HHSHH","3","odd","18137","NA","NA","NA","210603","NA","198395","2227","202856","211673","2243","NA","211791","212918","211659","211791","Flanker Task","24","50516","43","yes","1024"
"56.81818181818182","56.81818181818182","1169.659090909091","1169.659090909091","black","legacy","legacy","legacy","0","incogruent","uniform","1","undefined","1","s","0","0","0","0","43","0","43","0","43","43","0","0","43","43","43","43","Sun Sep 27 11:38:09 2020","1500","The main experiment item","yes","FlankerTask.osexp","/Users/shelia/Desktop","no","mono","no","18","no","white","no","yes","768","legacy","43","43","/Users/shelia/Desktop/ST-subject-3.csv","legacy","Lentiform Loewenfeld","3.3.3","0","s","NA","NA","h","h","return","NA","s","949","NA","NA","4446","650","15881","NA","949","2","legacy","1024","2","48000","-16","experiment","HHSHH","3","odd","18137","NA","NA","NA","212932","NA","198395","2227","202856","214001","2243","NA","214117","215067","213989","214117","Flanker Task","25","51465","44","yes","1024"
"57.77777777777778","57.77777777777778","1172.7111111111112","1172.7111111111112","black","legacy","legacy","legacy","0","incongruent","uniform","1","undefined","1","h","0","0","0","0","44","0","44","0","44","44","0","0","44","44","44","44","Sun Sep 27 11:38:09 2020","1500","The main experiment item","yes","FlankerTask.osexp","/Users/shelia/Desktop","no","mono","no","18","no","white","no","yes","768","legacy","44","44","/Users/shelia/Desktop/ST-subject-3.csv","legacy","Lentiform Loewenfeld","3.3.3","0","h","NA","NA","h","h","return","NA","h","1307","NA","NA","4446","650","15881","NA","1307","2","legacy","1024","2","48000","-16","experiment","SSHSS","3","odd","18137","NA","NA","NA","215082","NA","198395","2227","202856","216150","2243","NA","216265","217573","216136","216265","Flanker Task","26","52772","45","yes","1024"
"58.69565217391305","58.69565217391305","1174.5869565217392","1174.5869565217392","black","legacy","legacy","legacy","0","incongruent","uniform","1","undefined","1","h","0","0","0","0","45","0","45","0","45","45","0","0","45","45","45","45","Sun Sep 27 11:38:09 2020","1500","The main experiment item","yes","FlankerTask.osexp","/Users/shelia/Desktop","no","mono","no","18","no","white","no","yes","768","legacy","45","45","/Users/shelia/Desktop/ST-subject-3.csv","legacy","Lentiform Loewenfeld","3.3.3","0","h","NA","NA","h","h","return","NA","h","1259","NA","NA","4446","650","15881","NA","1259","2","legacy","1024","2","48000","-16","experiment","SSHSS","3","odd","18137","NA","NA","NA","217588","NA","198395","2227","202856","218657","2243","NA","218775","220035","218644","218775","Flanker Task","27","54031","46","yes","1024"
"59.57446808510638","59.57446808510638","1177.276595744681","1177.276595744681","black","legacy","legacy","legacy","0","incogruent","uniform","1","undefined","1","s","0","0","0","0","46","0","46","0","46","46","0","0","46","46","46","46","Sun Sep 27 11:38:09 2020","1500","The main experiment item","yes","FlankerTask.osexp","/Users/shelia/Desktop","no","mono","no","18","no","white","no","yes","768","legacy","46","46","/Users/shelia/Desktop/ST-subject-3.csv","legacy","Lentiform Loewenfeld","3.3.3","0","s","NA","NA","h","h","return","NA","s","1301","NA","NA","4446","650","15881","NA","1301","2","legacy","1024","2","48000","-16","experiment","HHSHH","3","odd","18137","NA","NA","NA","220050","NA","198395","2227","202856","221119","2243","NA","221235","222537","221105","221235","Flanker Task","28","55332","47","yes","1024"
"60.416666666666664","60.416666666666664","1179.6666666666667","1179.6666666666667","black","legacy","legacy","legacy","0","congruent","uniform","1","undefined","1","h","0","0","0","0","47","0","47","0","47","47","0","0","47","47","47","47","Sun Sep 27 11:38:09 2020","1500","The main experiment item","yes","FlankerTask.osexp","/Users/shelia/Desktop","no","mono","no","18","no","white","no","yes","768","legacy","47","47","/Users/shelia/Desktop/ST-subject-3.csv","legacy","Lentiform Loewenfeld","3.3.3","0","h","NA","NA","h","h","return","NA","h","1292","NA","NA","4446","650","15881","NA","1292","2","legacy","1024","2","48000","-16","experiment","HHHHH","3","odd","18137","NA","NA","NA","222552","NA","198395","2227","202856","223620","2243","NA","223738","225031","223607","223737","Flanker Task","29","56624","48","yes","1024"
"61.224489795918366","61.224489795918366","1181.6326530612246","1181.6326530612246","black","legacy","legacy","legacy","0","congruent","uniform","1","undefined","1","h","0","0","0","0","48","0","48","0","48","48","0","0","48","48","48","48","Sun Sep 27 11:38:09 2020","1500","The main experiment item","yes","FlankerTask.osexp","/Users/shelia/Desktop","no","mono","no","18","no","white","no","yes","768","legacy","48","48","/Users/shelia/Desktop/ST-subject-3.csv","legacy","Lentiform Loewenfeld","3.3.3","0","h","NA","NA","h","h","return","NA","h","1276","NA","NA","4446","650","15881","NA","1276","2","legacy","1024","2","48000","-16","experiment","HHHHH","3","odd","18137","NA","NA","NA","225046","NA","198395","2227","202856","226112","2243","NA","226227","227504","226099","226227","Flanker Task","30","57900","49","yes","1024"
"62","62","1185.8","1185.8","black","legacy","legacy","legacy","0","incongruent","uniform","1","undefined","1","h","0","0","0","0","49","0","49","0","49","49","0","0","49","49","49","49","Sun Sep 27 11:38:09 2020","1500","The main experiment item","yes","FlankerTask.osexp","/Users/shelia/Desktop","no","mono","no","18","no","white","no","yes","768","legacy","49","49","/Users/shelia/Desktop/ST-subject-3.csv","legacy","Lentiform Loewenfeld","3.3.3","0","h","NA","NA","h","h","return","NA","h","1390","NA","NA","4446","650","15881","NA","1390","2","legacy","1024","2","48000","-16","experiment","SSHSS","3","odd","18137","NA","NA","NA","227520","NA","198395","2227","202856","228587","2243","NA","228707","230098","228573","228707","Flanker Task","31","59290","50","yes","1024"
"60.78431372549019","60.78431372549019","1191.9607843137255","1191.9607843137255","black","legacy","legacy","legacy","0","incogruent","uniform","0","undefined","0","s","0","0","0","0","50","0","50","0","50","50","0","0","50","50","50","50","Sun Sep 27 11:38:09 2020","1500","The main experiment item","yes","FlankerTask.osexp","/Users/shelia/Desktop","no","mono","no","18","no","white","no","yes","768","legacy","50","50","/Users/shelia/Desktop/ST-subject-3.csv","legacy","Lentiform Loewenfeld","3.3.3","0","None","NA","NA","h","h","return","NA","None","1500","NA","NA","4446","650","15881","NA","1500","2","legacy","1024","2","48000","-16","experiment","HHSHH","3","odd","18137","NA","NA","NA","230112","NA","198395","2227","202856","231180","2243","NA","231295","232795","231166","231295","Flanker Task","31","60790","51","yes","1024"
"59.61538461538461","59.61538461538461","1197.8846153846155","1197.8846153846155","black","legacy","legacy","legacy","0","incogruent","uniform","0","undefined","0","s","0","0","0","0","51","0","51","0","51","51","0","0","51","51","51","51","Sun Sep 27 11:38:09 2020","1500","The main experiment item","yes","FlankerTask.osexp","/Users/shelia/Desktop","no","mono","no","18","no","white","no","yes","768","legacy","51","51","/Users/shelia/Desktop/ST-subject-3.csv","legacy","Lentiform Loewenfeld","3.3.3","0","None","NA","NA","s","h","return","NA","None","1500","NA","NA","23","650","15881","NA","1500","2","legacy","1024","2","48000","-16","experiment","HHSHH","3","odd","18137","NA","NA","NA","232846","NA","232810","2227","202856","233913","2243","NA","234028","235528","233899","234028","Flanker Task","31","62290","52","yes","1024"
"60.37735849056604","60.37735849056604","1200.433962264151","1200.433962264151","black","legacy","legacy","legacy","0","congruent","uniform","1","undefined","1","s","0","0","0","0","52","0","52","0","52","52","0","0","52","52","52","52","Sun Sep 27 11:38:09 2020","1500","The main experiment item","yes","FlankerTask.osexp","/Users/shelia/Desktop","no","mono","no","18","no","white","no","yes","768","legacy","52","52","/Users/shelia/Desktop/ST-subject-3.csv","legacy","Lentiform Loewenfeld","3.3.3","0","s","NA","NA","s","h","return","NA","s","1333","NA","NA","149","650","15881","NA","1333","2","legacy","1024","2","48000","-16","experiment","SSSSS","3","odd","18137","NA","NA","NA","235706","NA","235543","2227","202856","236774","2243","NA","236889","238223","236761","236889","Flanker Task","32","63623","53","yes","1024"
"59.25925925925926","59.25925925925926","1205.9814814814815","1205.9814814814815","black","legacy","legacy","legacy","0","congruent","uniform","0","undefined","0","h","0","0","0","0","53","0","53","0","53","53","0","0","53","53","53","53","Sun Sep 27 11:38:09 2020","1500","The main experiment item","yes","FlankerTask.osexp","/Users/shelia/Desktop","no","mono","no","18","no","white","no","yes","768","legacy","53","53","/Users/shelia/Desktop/ST-subject-3.csv","legacy","Lentiform Loewenfeld","3.3.3","0","None","NA","NA","s","h","return","NA","None","1500","NA","NA","149","650","15881","NA","1500","2","legacy","1024","2","48000","-16","experiment","HHHHH","3","odd","18137","NA","NA","NA","238238","NA","235543","2227","202856","239307","2243","NA","239423","240923","239293","239423","Flanker Task","32","65123","54","yes","1024"
"58.18181818181818","58.18181818181818","1211.3272727272727","1211.3272727272727","black","legacy","legacy","legacy","0","incongruent","uniform","0","undefined","0","h","0","0","0","0","54","0","54","0","54","54","0","0","54","54","54","54","Sun Sep 27 11:38:09 2020","1500","The main experiment item","yes","FlankerTask.osexp","/Users/shelia/Desktop","no","mono","no","18","no","white","no","yes","768","legacy","54","54","/Users/shelia/Desktop/ST-subject-3.csv","legacy","Lentiform Loewenfeld","3.3.3","0","None","NA","NA","h","h","return","NA","None","1500","NA","NA","96","650","15881","NA","1500","2","legacy","1024","2","48000","-16","experiment","SSHSS","3","odd","18137","NA","NA","NA","241048","NA","240937","2227","202856","242115","2243","NA","242232","243732","242101","242232","Flanker Task","32","66623","55","yes","1024"
"58.92857142857143","58.92857142857143","1213.1964285714287","1213.1964285714287","black","legacy","legacy","legacy","0","incongruent","uniform","1","undefined","1","h","0","0","0","0","55","0","55","0","55","55","0","0","55","55","55","55","Sun Sep 27 11:38:09 2020","1500","The main experiment item","yes","FlankerTask.osexp","/Users/shelia/Desktop","no","mono","no","18","no","white","no","yes","768","legacy","55","55","/Users/shelia/Desktop/ST-subject-3.csv","legacy","Lentiform Loewenfeld","3.3.3","0","h","NA","NA","h","h","return","NA","h","1316","NA","NA","35","650","15881","NA","1316","2","legacy","1024","2","48000","-16","experiment","SSHSS","3","odd","18137","NA","NA","NA","243797","NA","243747","2227","202856","244866","2243","NA","244985","246302","244853","244984","Flanker Task","33","67939","56","yes","1024"
"59.64912280701754","59.64912280701754","1216.2280701754387","1216.2280701754387","black","legacy","legacy","legacy","0","incogruent","uniform","1","undefined","1","s","0","0","0","0","56","0","56","0","56","56","0","0","56","56","56","56","Sun Sep 27 11:38:09 2020","1500","The main experiment item","yes","FlankerTask.osexp","/Users/shelia/Desktop","no","mono","no","18","no","white","no","yes","768","legacy","56","56","/Users/shelia/Desktop/ST-subject-3.csv","legacy","Lentiform Loewenfeld","3.3.3","0","s","NA","NA","h","h","return","NA","s","1386","NA","NA","35","650","15881","NA","1386","2","legacy","1024","2","48000","-16","experiment","HHSHH","3","odd","18137","NA","NA","NA","246316","NA","243747","2227","202856","247386","2243","NA","247504","248891","247373","247504","Flanker Task","34","69325","57","yes","1024"
"60.3448275862069","60.3448275862069","1218.844827586207","1218.844827586207","black","legacy","legacy","legacy","0","congruent","uniform","1","undefined","1","h","0","0","0","0","57","0","57","0","57","57","0","0","57","57","57","57","Sun Sep 27 11:38:09 2020","1500","The main experiment item","yes","FlankerTask.osexp","/Users/shelia/Desktop","no","mono","no","18","no","white","no","yes","768","legacy","57","57","/Users/shelia/Desktop/ST-subject-3.csv","legacy","Lentiform Loewenfeld","3.3.3","0","h","NA","NA","h","h","return","NA","h","1368","NA","NA","35","650","15881","NA","1368","2","legacy","1024","2","48000","-16","experiment","HHHHH","3","odd","18137","NA","NA","NA","248907","NA","243747","2227","202856","249978","2243","NA","250093","251462","249964","250093","Flanker Task","35","70693","58","yes","1024"
"61.016949152542374","61.016949152542374","1220.0677966101696","1220.0677966101696","black","legacy","legacy","legacy","0","incongruent","uniform","1","undefined","1","h","0","0","0","0","58","0","58","0","58","58","0","0","58","58","58","58","Sun Sep 27 11:38:09 2020","1500","The main experiment item","yes","FlankerTask.osexp","/Users/shelia/Desktop","no","mono","no","18","no","white","no","yes","768","legacy","58","58","/Users/shelia/Desktop/ST-subject-3.csv","legacy","Lentiform Loewenfeld","3.3.3","0","h","NA","NA","h","h","return","NA","h","1291","NA","NA","35","650","15881","NA","1291","2","legacy","1024","2","48000","-16","experiment","SSHSS","3","odd","18137","NA","NA","NA","251479","NA","243747","2227","202856","252546","2243","NA","252664","253956","252533","252664","Flanker Task","36","71984","59","yes","1024"
"61.666666666666664","61.666666666666664","1207.2","1207.2","black","legacy","legacy","legacy","0","incongruent","uniform","1","undefined","1","h","0","0","0","0","59","0","59","0","59","59","0","0","59","59","59","59","Sun Sep 27 11:38:09 2020","1500","The main experiment item","yes","FlankerTask.osexp","/Users/shelia/Desktop","no","mono","no","18","no","white","no","yes","768","legacy","59","59","/Users/shelia/Desktop/ST-subject-3.csv","legacy","Lentiform Loewenfeld","3.3.3","0","h","NA","NA","h","h","return","NA","h","448","NA","NA","35","650","15881","NA","448","2","legacy","1024","2","48000","-16","experiment","SSHSS","3","odd","18137","NA","NA","NA","253971","NA","243747","2227","202856","255039","2243","NA","255155","255605","255025","255154","Flanker Task","37","72432","60","yes","1024"
"62.295081967213115","62.295081967213115","1199","1199","black","legacy","legacy","legacy","0","congruent","uniform","1","undefined","1","h","0","0","0","0","60","0","60","0","60","60","0","0","60","60","60","60","Sun Sep 27 11:38:09 2020","1500","The main experiment item","yes","FlankerTask.osexp","/Users/shelia/Desktop","no","mono","no","18","no","white","no","yes","768","legacy","60","60","/Users/shelia/Desktop/ST-subject-3.csv","legacy","Lentiform Loewenfeld","3.3.3","0","h","NA","NA","h","h","return","NA","h","707","NA","NA","35","650","15881","NA","707","2","legacy","1024","2","48000","-16","experiment","HHHHH","3","odd","18137","NA","NA","NA","255618","NA","243747","2227","202856","256690","2243","NA","256809","257517","256676","256809","Flanker Task","38","73139","61","yes","1024"
"62.903225806451616","62.903225806451616","1188.258064516129","1188.258064516129","black","legacy","legacy","legacy","0","congruent","uniform","1","undefined","1","s","0","0","0","0","61","0","61","0","61","61","0","0","61","61","61","61","Sun Sep 27 11:38:09 2020","1500","The main experiment item","yes","FlankerTask.osexp","/Users/shelia/Desktop","no","mono","no","18","no","white","no","yes","768","legacy","61","61","/Users/shelia/Desktop/ST-subject-3.csv","legacy","Lentiform Loewenfeld","3.3.3","0","s","NA","NA","h","h","return","NA","s","533","NA","NA","35","650","15881","NA","533","2","legacy","1024","2","48000","-16","experiment","SSSSS","3","odd","18137","NA","NA","NA","257532","NA","243747","2227","202856","258599","2243","NA","258714","259248","258586","258714","Flanker Task","39","73672","62","yes","1024"
"63.492063492063494","63.492063492063494","1186.079365079365","1186.079365079365","black","legacy","legacy","legacy","0","congruent","uniform","1","undefined","1","s","0","0","0","0","62","0","62","0","62","62","0","0","62","62","62","62","Sun Sep 27 11:38:09 2020","1500","The main experiment item","yes","FlankerTask.osexp","/Users/shelia/Desktop","no","mono","no","18","no","white","no","yes","768","legacy","62","62","/Users/shelia/Desktop/ST-subject-3.csv","legacy","Lentiform Loewenfeld","3.3.3","0","s","NA","NA","h","h","return","NA","s","1051","NA","NA","35","650","15881","NA","1051","2","legacy","1024","2","48000","-16","experiment","SSSSS","3","odd","18137","NA","NA","NA","259263","NA","243747","2227","202856","260333","2243","NA","260448","261500","260319","260447","Flanker Task","40","74723","63","yes","1024"
"64.0625","64.0625","1187.984375","1187.984375","black","legacy","legacy","legacy","0","incongruent","uniform","1","undefined","1","h","0","0","0","0","63","0","63","0","63","63","0","0","63","63","63","63","Sun Sep 27 11:38:09 2020","1500","The main experiment item","yes","FlankerTask.osexp","/Users/shelia/Desktop","no","mono","no","18","no","white","no","yes","768","legacy","63","63","/Users/shelia/Desktop/ST-subject-3.csv","legacy","Lentiform Loewenfeld","3.3.3","0","h","NA","NA","h","h","return","NA","h","1308","NA","NA","35","650","15881","NA","1308","2","legacy","1024","2","48000","-16","experiment","SSHSS","3","odd","18137","NA","NA","NA","261515","NA","243747","2227","202856","262585","2243","NA","262704","264013","262572","262704","Flanker Task","41","76031","64","yes","1024"
"64.61538461538461","64.61538461538461","1189.323076923077","1189.323076923077","black","legacy","legacy","legacy","0","congruent","uniform","1","undefined","1","s","0","0","0","0","64","0","64","0","64","64","0","0","64","64","64","64","Sun Sep 27 11:38:09 2020","1500","The main experiment item","yes","FlankerTask.osexp","/Users/shelia/Desktop","no","mono","no","18","no","white","no","yes","768","legacy","64","64","/Users/shelia/Desktop/ST-subject-3.csv","legacy","Lentiform Loewenfeld","3.3.3","0","s","NA","NA","h","h","return","NA","s","1275","NA","NA","35","650","15881","NA","1275","2","legacy","1024","2","48000","-16","experiment","SSSSS","3","odd","18137","NA","NA","NA","264027","NA","243747","2227","202856","265095","2243","NA","265214","266490","265081","265214","Flanker Task","42","77306","65","yes","1024"
"65.15151515151516","65.15151515151516","1189.2575757575758","1189.2575757575758","black","legacy","legacy","legacy","0","congruent","uniform","1","undefined","1","s","0","0","0","0","65","0","65","0","65","65","0","0","65","65","65","65","Sun Sep 27 11:38:09 2020","1500","The main experiment item","yes","FlankerTask.osexp","/Users/shelia/Desktop","no","mono","no","18","no","white","no","yes","768","legacy","65","65","/Users/shelia/Desktop/ST-subject-3.csv","legacy","Lentiform Loewenfeld","3.3.3","0","s","NA","NA","h","h","return","NA","s","1185","NA","NA","35","650","15881","NA","1185","2","legacy","1024","2","48000","-16","experiment","SSSSS","3","odd","18137","NA","NA","NA","266505","NA","243747","2227","202856","267574","2243","NA","267691","268877","267559","267690","Flanker Task","43","78491","66","yes","1024"
"65.67164179104478","65.67164179104478","1191.2686567164178","1191.2686567164178","black","legacy","legacy","legacy","0","incogruent","uniform","1","undefined","1","s","0","0","0","0","66","0","66","0","66","66","0","0","66","66","66","66","Sun Sep 27 11:38:09 2020","1500","The main experiment item","yes","FlankerTask.osexp","/Users/shelia/Desktop","no","mono","no","18","no","white","no","yes","768","legacy","66","66","/Users/shelia/Desktop/ST-subject-3.csv","legacy","Lentiform Loewenfeld","3.3.3","0","s","NA","NA","h","h","return","NA","s","1324","NA","NA","35","650","15881","NA","1324","2","legacy","1024","2","48000","-16","experiment","HHSHH","3","odd","18137","NA","NA","NA","268891","NA","243747","2227","202856","269964","2243","NA","270078","271404","269950","270078","Flanker Task","44","79815","67","yes","1024"
"66.17647058823529","66.17647058823529","1194.3382352941176","1194.3382352941176","black","legacy","legacy","legacy","0","congruent","uniform","1","undefined","1","h","0","0","0","0","67","0","67","0","67","67","0","0","67","67","67","67","Sun Sep 27 11:38:09 2020","1500","The main experiment item","yes","FlankerTask.osexp","/Users/shelia/Desktop","no","mono","no","18","no","white","no","yes","768","legacy","67","67","/Users/shelia/Desktop/ST-subject-3.csv","legacy","Lentiform Loewenfeld","3.3.3","0","h","NA","NA","h","h","return","NA","h","1400","NA","NA","35","650","15881","NA","1400","2","legacy","1024","2","48000","-16","experiment","HHHHH","3","odd","18137","NA","NA","NA","271418","NA","243747","2227","202856","272486","2243","NA","272602","274004","272472","272602","Flanker Task","45","81215","68","yes","1024"
"66.66666666666667","66.66666666666667","1196.1884057971015","1196.1884057971015","black","legacy","legacy","legacy","0","congruent","uniform","1","undefined","1","s","0","0","0","0","68","0","68","0","68","68","0","0","68","68","68","68","Sun Sep 27 11:38:09 2020","1500","The main experiment item","yes","FlankerTask.osexp","/Users/shelia/Desktop","no","mono","no","18","no","white","no","yes","768","legacy","68","68","/Users/shelia/Desktop/ST-subject-3.csv","legacy","Lentiform Loewenfeld","3.3.3","0","s","NA","NA","h","h","return","NA","s","1322","NA","NA","35","650","15881","NA","1322","2","legacy","1024","2","48000","-16","experiment","SSSSS","3","odd","18137","NA","NA","NA","274019","NA","243747","2227","202856","275089","2243","NA","275205","276529","275075","275205","Flanker Task","46","82537","69","yes","1024"
"67.14285714285714","67.14285714285714","1196.3142857142857","1196.3142857142857","black","legacy","legacy","legacy","0","incongruent","uniform","1","undefined","1","h","0","0","0","0","69","0","69","0","69","69","0","0","69","69","69","69","Sun Sep 27 11:38:09 2020","1500","The main experiment item","yes","FlankerTask.osexp","/Users/shelia/Desktop","no","mono","no","18","no","white","no","yes","768","legacy","69","69","/Users/shelia/Desktop/ST-subject-3.csv","legacy","Lentiform Loewenfeld","3.3.3","0","h","NA","NA","h","h","return","NA","h","1205","NA","NA","35","650","15881","NA","1205","2","legacy","1024","2","48000","-16","experiment","SSHSS","3","odd","18137","NA","NA","NA","276545","NA","243747","2227","202856","277613","2243","NA","277730","278936","277599","277729","Flanker Task","47","83742","70","yes","1024"
"67.6056338028169","67.6056338028169","1197.0140845070423","1197.0140845070423","black","legacy","legacy","legacy","0","incogruent","uniform","1","undefined","1","s","0","0","0","0","70","0","70","0","70","70","0","0","70","70","70","70","Sun Sep 27 11:38:09 2020","1500","The main experiment item","yes","FlankerTask.osexp","/Users/shelia/Desktop","no","mono","no","18","no","white","no","yes","768","legacy","70","70","/Users/shelia/Desktop/ST-subject-3.csv","legacy","Lentiform Loewenfeld","3.3.3","0","s","NA","NA","h","h","return","NA","s","1246","NA","NA","35","650","15881","NA","1246","2","legacy","1024","2","48000","-16","experiment","HHSHH","3","odd","18137","NA","NA","NA","278953","NA","243747","2227","202856","280022","2243","NA","280137","281384","280007","280137","Flanker Task","48","84988","71","yes","1024"
"68.05555555555556","68.05555555555556","1199.7916666666667","1199.7916666666667","black","legacy","legacy","legacy","0","incongruent","uniform","1","undefined","1","h","0","0","0","0","71","0","71","0","71","71","0","0","71","71","71","71","Sun Sep 27 11:38:09 2020","1500","The main experiment item","yes","FlankerTask.osexp","/Users/shelia/Desktop","no","mono","no","18","no","white","no","yes","768","legacy","71","71","/Users/shelia/Desktop/ST-subject-3.csv","legacy","Lentiform Loewenfeld","3.3.3","0","h","NA","NA","h","h","return","NA","h","1397","NA","NA","35","650","15881","NA","1397","2","legacy","1024","2","48000","-16","experiment","SSHSS","3","odd","18137","NA","NA","NA","281398","NA","243747","2227","202856","282464","2243","NA","282578","283976","282449","282578","Flanker Task","49","86385","72","yes","1024"
"68.4931506849315","68.4931506849315","1201.3835616438357","1201.3835616438357","black","legacy","legacy","legacy","0","congruent","uniform","1","undefined","1","h","0","0","0","0","72","0","72","0","72","72","0","0","72","72","72","72","Sun Sep 27 11:38:09 2020","1500","The main experiment item","yes","FlankerTask.osexp","/Users/shelia/Desktop","no","mono","no","18","no","white","no","yes","768","legacy","72","72","/Users/shelia/Desktop/ST-subject-3.csv","legacy","Lentiform Loewenfeld","3.3.3","0","h","NA","NA","h","h","return","NA","h","1316","NA","NA","35","650","15881","NA","1316","2","legacy","1024","2","48000","-16","experiment","HHHHH","3","odd","18137","NA","NA","NA","283991","NA","243747","2227","202856","285057","2243","NA","285173","286490","285043","285173","Flanker Task","50","87701","73","yes","1024"
"68.91891891891892","68.91891891891892","1201.1891891891892","1201.1891891891892","black","legacy","legacy","legacy","0","congruent","uniform","1","undefined","1","s","0","0","0","0","73","0","73","0","73","73","0","0","73","73","73","73","Sun Sep 27 11:38:09 2020","1500","The main experiment item","yes","FlankerTask.osexp","/Users/shelia/Desktop","no","mono","no","18","no","white","no","yes","768","legacy","73","73","/Users/shelia/Desktop/ST-subject-3.csv","legacy","Lentiform Loewenfeld","3.3.3","0","s","NA","NA","h","h","return","NA","s","1187","NA","NA","35","650","15881","NA","1187","2","legacy","1024","2","48000","-16","experiment","SSSSS","3","odd","18137","NA","NA","NA","286505","NA","243747","2227","202856","287574","2243","NA","287693","288881","287560","287692","Flanker Task","51","88888","74","yes","1024"
"69.33333333333333","69.33333333333333","1197.4533333333334","1197.4533333333334","black","legacy","legacy","legacy","0","congruent","uniform","1","undefined","1","s","0","0","0","0","74","0","74","0","74","74","0","0","74","74","74","74","Sun Sep 27 11:38:09 2020","1500","The main experiment item","yes","FlankerTask.osexp","/Users/shelia/Desktop","no","mono","no","18","no","white","no","yes","768","legacy","74","74","/Users/shelia/Desktop/ST-subject-3.csv","legacy","Lentiform Loewenfeld","3.3.3","0","s","NA","NA","h","h","return","NA","s","921","NA","NA","35","650","15881","NA","921","2","legacy","1024","2","48000","-16","experiment","SSSSS","3","odd","18137","NA","NA","NA","288896","NA","243747","2227","202856","289966","2243","NA","290082","291004","289953","290082","Flanker Task","52","89809","75","yes","1024"
"69.73684210526316","69.73684210526316","1197.25","1197.25","black","legacy","legacy","legacy","0","congruent","uniform","1","undefined","1","h","0","0","0","0","75","0","75","0","75","75","0","0","75","75","75","75","Sun Sep 27 11:38:09 2020","1500","The main experiment item","yes","FlankerTask.osexp","/Users/shelia/Desktop","no","mono","no","18","no","white","no","yes","768","legacy","75","75","/Users/shelia/Desktop/ST-subject-3.csv","legacy","Lentiform Loewenfeld","3.3.3","0","h","NA","NA","h","h","return","NA","h","1182","NA","NA","35","650","15881","NA","1182","2","legacy","1024","2","48000","-16","experiment","HHHHH","3","odd","18137","NA","NA","NA","291019","NA","243747","2227","202856","292086","2243","NA","292201","293385","292072","292201","Flanker Task","53","90991","76","yes","1024"
"70.12987012987013","70.12987012987013","1196.5584415584415","1196.5584415584415","black","legacy","legacy","legacy","0","congruent","uniform","1","undefined","1","h","0","0","0","0","76","0","76","0","76","76","0","0","76","76","76","76","Sun Sep 27 11:38:09 2020","1500","The main experiment item","yes","FlankerTask.osexp","/Users/shelia/Desktop","no","mono","no","18","no","white","no","yes","768","legacy","76","76","/Users/shelia/Desktop/ST-subject-3.csv","legacy","Lentiform Loewenfeld","3.3.3","0","h","NA","NA","h","h","return","NA","h","1144","NA","NA","35","650","15881","NA","1144","2","legacy","1024","2","48000","-16","experiment","HHHHH","3","odd","18137","NA","NA","NA","293399","NA","243747","2227","202856","294470","2243","NA","294589","295734","294457","294589","Flanker Task","54","92135","77","yes","1024"
"70.51282051282051","70.51282051282051","1195.6153846153845","1195.6153846153845","black","legacy","legacy","legacy","0","incogruent","uniform","1","undefined","1","s","0","0","0","0","77","0","77","0","77","77","0","0","77","77","77","77","Sun Sep 27 11:38:09 2020","1500","The main experiment item","yes","FlankerTask.osexp","/Users/shelia/Desktop","no","mono","no","18","no","white","no","yes","768","legacy","77","77","/Users/shelia/Desktop/ST-subject-3.csv","legacy","Lentiform Loewenfeld","3.3.3","0","s","NA","NA","h","h","return","NA","s","1123","NA","NA","35","650","15881","NA","1123","2","legacy","1024","2","48000","-16","experiment","HHSHH","3","odd","18137","NA","NA","NA","295748","NA","243747","2227","202856","296814","2243","NA","296930","298054","296801","296930","Flanker Task","55","93258","78","yes","1024"
"70.88607594936708","70.88607594936708","1193.392405063291","1193.392405063291","black","legacy","legacy","legacy","0","congruent","uniform","1","undefined","1","s","0","0","0","0","78","0","78","0","78","78","0","0","78","78","78","78","Sun Sep 27 11:38:09 2020","1500","The main experiment item","yes","FlankerTask.osexp","/Users/shelia/Desktop","no","mono","no","18","no","white","no","yes","768","legacy","78","78","/Users/shelia/Desktop/ST-subject-3.csv","legacy","Lentiform Loewenfeld","3.3.3","0","s","NA","NA","h","h","return","NA","s","1020","NA","NA","35","650","15881","NA","1020","2","legacy","1024","2","48000","-16","experiment","SSSSS","3","odd","18137","NA","NA","NA","298069","NA","243747","2227","202856","299137","2243","NA","299255","300276","299124","299255","Flanker Task","56","94278","79","yes","1024"
"71.25","71.25","1190.325","1190.325","black","legacy","legacy","legacy","0","congruent","uniform","1","undefined","1","h","0","0","0","0","79","0","79","0","79","79","0","0","79","79","79","79","Sun Sep 27 11:38:09 2020","1500","The main experiment item","yes","FlankerTask.osexp","/Users/shelia/Desktop","no","mono","no","18","no","white","no","yes","768","legacy","79","79","/Users/shelia/Desktop/ST-subject-3.csv","legacy","Lentiform Loewenfeld","3.3.3","0","h","NA","NA","h","h","return","NA","h","948","NA","NA","35","650","15881","NA","948","2","legacy","1024","2","48000","-16","experiment","HHHHH","3","odd","18137","NA","NA","NA","300291","NA","243747","2227","202856","301361","2243","NA","301481","302430","301348","301480","Flanker Task","57","95226","80","yes","1024"
"71.60493827160494","71.60493827160494","1194.0246913580247","1194.0246913580247","black","legacy","legacy","legacy","0","incogruent","uniform","1","undefined","1","s","0","0","0","0","80","0","80","0","80","80","0","0","80","80","80","80","Sun Sep 27 11:38:09 2020","600","The main experiment item","yes","FlankerTask.osexp","/Users/shelia/Desktop","no","mono","no","18","no","white","no","yes","768","legacy","0","79","/Users/shelia/Desktop/ST-subject-3.csv","legacy","Lentiform Loewenfeld","3.3.3","0","s","NA","h","h","h","return","NA","s","1490","NA","9651","35","650","15881","NA","1490","2","legacy","1024","2","48000","-16","experiment","HHSHH","3","odd","18137","313138","NA","NA","302445","303486","243747","2227","202856","313181","2243","NA","313301","314792","313167","313301","Flanker Task","58","96716","81","yes","1024"
"71.95121951219512","71.95121951219512","1188.9268292682927","1188.9268292682927","black","legacy","legacy","legacy","0","congruent","uniform","1","undefined","1","h","0","0","0","0","81","0","81","0","81","81","0","0","81","81","81","81","Sun Sep 27 11:38:09 2020","600","The main experiment item","yes","FlankerTask.osexp","/Users/shelia/Desktop","no","mono","no","18","no","white","no","yes","768","legacy","1","79","/Users/shelia/Desktop/ST-subject-3.csv","legacy","Lentiform Loewenfeld","3.3.3","0","h","NA","h","h","s","return","NA","h","776","NA","9651","35","2822","15881","NA","776","2","legacy","1024","2","48000","-16","experiment","HHHHH","3","odd","18137","313138","NA","NA","317645","303486","243747","2227","314808","318713","2243","NA","318832","319609","318699","318832","Flanker Task","59","97492","82","yes","1024"
"72.28915662650603","72.28915662650603","1186.6265060240964","1186.6265060240964","black","legacy","legacy","legacy","0","congruent","uniform","1","undefined","1","s","0","0","0","0","82","0","82","0","82","82","0","0","82","82","82","82","Sun Sep 27 11:38:09 2020","600","The main experiment item","yes","FlankerTask.osexp","/Users/shelia/Desktop","no","mono","no","18","no","white","no","yes","768","legacy","2","79","/Users/shelia/Desktop/ST-subject-3.csv","legacy","Lentiform Loewenfeld","3.3.3","0","s","NA","h","h","h","return","NA","s","998","NA","9651","35","2868","15881","NA","998","2","legacy","1024","2","48000","-16","experiment","SSSSS","3","odd","18137","313138","NA","NA","322506","303486","243747","2227","319623","323574","2243","NA","323688","324687","323561","323688","Flanker Task","60","98490","83","yes","1024"
"71.42857142857143","71.42857142857143","1177.642857142857","1177.642857142857","black","legacy","legacy","legacy","0","incongruent","uniform","0","undefined","0","h","0","0","0","0","83","0","83","0","83","83","0","0","83","83","83","83","Sun Sep 27 11:38:09 2020","600","The main experiment item","yes","FlankerTask.osexp","/Users/shelia/Desktop","no","mono","no","18","no","white","no","yes","768","legacy","3","79","/Users/shelia/Desktop/ST-subject-3.csv","legacy","Lentiform Loewenfeld","3.3.3","0","s","NA","h","h","h","return","NA","s","432","NA","9651","35","2299","15881","NA","432","2","legacy","1024","2","48000","-16","experiment","SSHSS","3","odd","18137","313138","NA","NA","327017","303486","243747","2227","324704","328084","2243","NA","328204","328637","328070","328204","Flanker Task","60","98922","84","yes","1024"
"71.76470588235294","71.76470588235294","1175.0941176470587","1175.0941176470587","black","legacy","legacy","legacy","0","congruent","uniform","1","undefined","1","s","0","0","0","0","84","0","84","0","84","84","0","0","84","84","84","84","Sun Sep 27 11:38:09 2020","600","The main experiment item","yes","FlankerTask.osexp","/Users/shelia/Desktop","no","mono","no","18","no","white","no","yes","768","legacy","4","79","/Users/shelia/Desktop/ST-subject-3.csv","legacy","Lentiform Loewenfeld","3.3.3","0","s","NA","h","h","h","return","NA","s","961","NA","9651","1591","2699","15881","NA","961","2","legacy","1024","2","48000","-16","experiment","SSSSS","3","odd","18137","313138","NA","NA","332970","303486","328651","2227","330256","334039","2243","NA","334154","335116","334025","334154","Flanker Task","61","99883","85","yes","1024"
"72.09302325581395","72.09302325581395","1174.2906976744187","1174.2906976744187","black","legacy","legacy","legacy","0","congruent","uniform","1","undefined","1","h","0","0","0","0","85","0","85","0","85","85","0","0","85","85","85","85","Sun Sep 27 11:38:09 2020","600","The main experiment item","yes","FlankerTask.osexp","/Users/shelia/Desktop","no","mono","no","18","no","white","no","yes","768","legacy","5","79","/Users/shelia/Desktop/ST-subject-3.csv","legacy","Lentiform Loewenfeld","3.3.3","0","h","NA","h","h","h","return","NA","h","1106","NA","9651","1591","3125","15881","NA","1106","2","legacy","1024","2","48000","-16","experiment","HHHHH","3","odd","18137","313138","NA","NA","338270","303486","328651","2227","335131","339338","2243","NA","339454","340562","339324","339454","Flanker Task","62","100989","86","yes","1024"
"72.41379310344827","72.41379310344827","1172.8275862068965","1172.8275862068965","black","legacy","legacy","legacy","0","congruent","uniform","1","undefined","1","h","0","0","0","0","86","0","86","0","86","86","0","0","86","86","86","86","Sun Sep 27 11:38:09 2020","600","The main experiment item","yes","FlankerTask.osexp","/Users/shelia/Desktop","no","mono","no","18","no","white","no","yes","768","legacy","6","79","/Users/shelia/Desktop/ST-subject-3.csv","legacy","Lentiform Loewenfeld","3.3.3","0","h","NA","h","h","h","return","NA","h","1047","NA","9651","1591","1020","15881","NA","1047","2","legacy","1024","2","48000","-16","experiment","HHHHH","3","odd","18137","313138","NA","NA","341611","303486","328651","2227","340576","342677","2243","NA","342793","343841","342664","342793","Flanker Task","63","102036","87","yes","1024"
"71.5909090909091","71.5909090909091","1165.965909090909","1165.965909090909","black","legacy","legacy","legacy","0","incongruent","uniform","0","undefined","0","h","0","0","0","0","87","0","87","0","87","87","0","0","87","87","87","87","Sun Sep 27 11:38:09 2020","600","The main experiment item","yes","FlankerTask.osexp","/Users/shelia/Desktop","no","mono","no","18","no","white","no","yes","768","legacy","7","79","/Users/shelia/Desktop/ST-subject-3.csv","legacy","Lentiform Loewenfeld","3.3.3","0","s","NA","h","h","h","return","NA","s","569","NA","9651","1591","3551","15881","NA","569","2","legacy","1024","2","48000","-16","experiment","SSHSS","3","odd","18137","313138","NA","NA","347422","303486","328651","2227","343856","348490","2243","NA","348610","349181","348476","348610","Flanker Task","63","102605","88","yes","1024"
"71.91011235955057","71.91011235955057","1161.4157303370787","1161.4157303370787","black","legacy","legacy","legacy","0","congruent","uniform","1","undefined","1","s","0","0","0","0","88","0","88","0","88","88","0","0","88","88","88","88","Sun Sep 27 11:38:09 2020","600","The main experiment item","yes","FlankerTask.osexp","/Users/shelia/Desktop","no","mono","no","18","no","white","no","yes","768","legacy","8","79","/Users/shelia/Desktop/ST-subject-3.csv","legacy","Lentiform Loewenfeld","3.3.3","0","s","NA","h","h","h","return","NA","s","761","NA","9651","1332","2620","15881","NA","761","2","legacy","1024","2","48000","-16","experiment","SSSSS","3","odd","18137","313138","NA","NA","353175","303486","349195","2227","350541","354244","2243","NA","354360","355123","354231","354360","Flanker Task","64","103366","89","yes","1024"
"72.22222222222223","72.22222222222223","1153.2111111111112","1153.2111111111112","black","legacy","legacy","legacy","0","congruent","uniform","1","undefined","1","h","0","0","0","0","89","0","89","0","89","89","0","0","89","89","89","89","Sun Sep 27 11:38:09 2020","600","The main experiment item","yes","FlankerTask.osexp","/Users/shelia/Desktop","no","mono","no","18","no","white","no","yes","768","legacy","9","79","/Users/shelia/Desktop/ST-subject-3.csv","legacy","Lentiform Loewenfeld","3.3.3","0","h","NA","h","h","h","return","NA","h","423","NA","9651","1332","4274","15881","NA","423","2","legacy","1024","2","48000","-16","experiment","HHHHH","3","odd","18137","313138","NA","NA","359426","303486","349195","2227","355137","360496","2243","NA","360611","361036","360483","360611","Flanker Task","65","103789","90","yes","1024"
"72.52747252747253","72.52747252747253","1146.7582417582419","1146.7582417582419","black","legacy","legacy","legacy","0","incogruent","uniform","1","undefined","1","s","0","0","0","0","90","0","90","0","90","90","0","0","90","90","90","90","Sun Sep 27 11:38:09 2020","600","The main experiment item","yes","FlankerTask.osexp","/Users/shelia/Desktop","no","mono","no","18","no","white","no","yes","768","legacy","10","79","/Users/shelia/Desktop/ST-subject-3.csv","legacy","Lentiform Loewenfeld","3.3.3","0","s","NA","h","h","h","return","NA","s","566","NA","9651","1332","4274","15881","NA","566","2","legacy","1024","2","48000","-16","experiment","HHSHH","3","odd","18137","313138","NA","NA","361050","303486","349195","2227","355137","362121","2243","NA","362238","362806","362107","362238","Flanker Task","66","104355","91","yes","1024"
"72.82608695652173","72.82608695652173","1143.0978260869565","1143.0978260869565","black","legacy","legacy","legacy","0","congruent","uniform","1","undefined","1","s","0","0","0","0","91","0","91","0","91","91","0","0","91","91","91","91","Sun Sep 27 11:38:09 2020","600","The main experiment item","yes","FlankerTask.osexp","/Users/shelia/Desktop","no","mono","no","18","no","white","no","yes","768","legacy","11","79","/Users/shelia/Desktop/ST-subject-3.csv","legacy","Lentiform Loewenfeld","3.3.3","0","s","NA","h","h","h","return","NA","s","810","NA","9651","1332","4274","15881","NA","810","2","legacy","1024","2","48000","-16","experiment","SSSSS","3","odd","18137","313138","NA","NA","362820","303486","349195","2227","355137","363889","2243","NA","364006","364818","363876","364006","Flanker Task","67","105165","92","yes","1024"
"72.04301075268818","72.04301075268818","1136.6021505376343","1136.6021505376343","black","legacy","legacy","legacy","0","incogruent","uniform","0","undefined","0","s","0","0","0","0","92","0","92","0","92","92","0","0","92","92","92","92","Sun Sep 27 11:38:09 2020","600","The main experiment item","yes","FlankerTask.osexp","/Users/shelia/Desktop","no","mono","no","18","no","white","no","yes","768","legacy","12","79","/Users/shelia/Desktop/ST-subject-3.csv","legacy","Lentiform Loewenfeld","3.3.3","0","h","NA","h","h","s","return","NA","h","539","NA","9651","1332","1730","15881","NA","539","2","legacy","1024","2","48000","-16","experiment","HHSHH","3","odd","18137","313138","NA","NA","366576","303486","349195","2227","364832","367645","2243","NA","367764","368304","367632","367763","Flanker Task","67","105704","93","yes","1024"
"72.34042553191489","72.34042553191489","1131.8936170212767","1131.8936170212767","black","legacy","legacy","legacy","0","congruent","uniform","1","undefined","1","s","0","0","0","0","93","0","93","0","93","93","0","0","93","93","93","93","Sun Sep 27 11:38:09 2020","600","The main experiment item","yes","FlankerTask.osexp","/Users/shelia/Desktop","no","mono","no","18","no","white","no","yes","768","legacy","13","79","/Users/shelia/Desktop/ST-subject-3.csv","legacy","Lentiform Loewenfeld","3.3.3","0","s","NA","h","h","s","return","NA","s","694","NA","9651","588","1730","15881","NA","694","2","legacy","1024","2","48000","-16","experiment","SSSSS","3","odd","18137","313138","NA","NA","368922","303486","368318","2227","364832","369991","2243","NA","370107","370803","369977","370107","Flanker Task","68","106398","94","yes","1024"
"71.57894736842105","71.57894736842105","1135.7684210526315","1135.7684210526315","black","legacy","legacy","legacy","0","incongruent","uniform","0","undefined","0","h","0","0","0","0","94","0","94","0","94","94","0","0","94","94","94","94","Sun Sep 27 11:38:09 2020","600","The main experiment item","yes","FlankerTask.osexp","/Users/shelia/Desktop","no","mono","no","18","no","white","no","yes","768","legacy","14","79","/Users/shelia/Desktop/ST-subject-3.csv","legacy","Lentiform Loewenfeld","3.3.3","0","None","NA","h","h","h","return","NA","None","1500","NA","9651","588","1805","15881","NA","1500","2","legacy","1024","2","48000","-16","experiment","SSHSS","3","odd","18137","313138","NA","NA","372637","303486","368318","2227","370817","373704","2243","NA","373824","375324","373690","373824","Flanker Task","68","107898","95","yes","1024"
"70.83333333333333","70.83333333333333","1139.5625","1139.5625","black","legacy","legacy","legacy","0","congruent","uniform","0","undefined","0","h","0","0","0","0","95","0","95","0","95","95","0","0","95","95","95","95","Sun Sep 27 11:38:09 2020","600","The main experiment item","yes","FlankerTask.osexp","/Users/shelia/Desktop","no","mono","no","18","no","white","no","yes","768","legacy","15","79","/Users/shelia/Desktop/ST-subject-3.csv","legacy","Lentiform Loewenfeld","3.3.3","0","None","NA","h","h","h","return","NA","None","1500","NA","9651","78","1805","15881","NA","1500","2","legacy","1024","2","48000","-16","experiment","HHHHH","3","odd","18137","313138","NA","NA","375432","303486","375339","2227","370817","376501","2243","NA","376616","378116","376488","376616","Flanker Task","68","109398","96","yes","1024"
"70.10309278350516","70.10309278350516","1143.278350515464","1143.278350515464","black","legacy","legacy","legacy","0","congruent","uniform","0","undefined","0","h","0","0","0","0","96","0","96","0","96","96","0","0","96","96","96","96","Sun Sep 27 11:38:09 2020","600","The main experiment item","yes","FlankerTask.osexp","/Users/shelia/Desktop","no","mono","no","18","no","white","no","yes","768","legacy","16","79","/Users/shelia/Desktop/ST-subject-3.csv","legacy","Lentiform Loewenfeld","3.3.3","0","None","NA","h","h","h","return","NA","None","1500","NA","9651","56","1805","15881","NA","1500","2","legacy","1024","2","48000","-16","experiment","HHHHH","3","odd","18137","313138","NA","NA","378203","303486","378131","2227","370817","379272","2243","NA","379390","380890","379259","379390","Flanker Task","68","110898","97","yes","1024"
"70.40816326530613","70.40816326530613","1144.3877551020407","1144.3877551020407","black","legacy","legacy","legacy","0","congruent","uniform","1","undefined","1","h","0","0","0","0","97","0","97","0","97","97","0","0","97","97","97","97","Sun Sep 27 11:38:09 2020","600","The main experiment item","yes","FlankerTask.osexp","/Users/shelia/Desktop","no","mono","no","18","no","white","no","yes","768","legacy","17","79","/Users/shelia/Desktop/ST-subject-3.csv","legacy","Lentiform Loewenfeld","3.3.3","0","h","NA","h","h","h","return","NA","h","1252","NA","9651","83","1805","15881","NA","1252","2","legacy","1024","2","48000","-16","experiment","HHHHH","3","odd","18137","313138","NA","NA","381002","303486","380906","2227","370817","382070","2243","NA","382190","383444","382057","382190","Flanker Task","69","112150","98","yes","1024"
"70.70707070707071","70.70707070707071","1139.6464646464647","1139.6464646464647","black","legacy","legacy","legacy","0","congruent","uniform","1","undefined","1","h","0","0","0","0","98","0","98","0","98","98","0","0","98","98","98","98","Sun Sep 27 11:38:09 2020","600","The main experiment item","yes","FlankerTask.osexp","/Users/shelia/Desktop","no","mono","no","18","no","white","no","yes","768","legacy","18","79","/Users/shelia/Desktop/ST-subject-3.csv","legacy","Lentiform Loewenfeld","3.3.3","0","h","NA","h","h","h","return","NA","h","675","NA","9651","83","768","15881","NA","675","2","legacy","1024","2","48000","-16","experiment","HHHHH","3","odd","18137","313138","NA","NA","384242","303486","380906","2227","383460","385311","2243","NA","385427","386104","385298","385427","Flanker Task","70","112825","99","yes","1024"
"70","70","1133.27","1133.27","black","legacy","legacy","legacy","0","incongruent","uniform","0","undefined","0","h","0","0","0","0","99","0","99","0","99","99","0","0","99","99","99","99","Sun Sep 27 11:38:09 2020","600","The main experiment item","yes","FlankerTask.osexp","/Users/shelia/Desktop","no","mono","no","18","no","white","no","yes","768","legacy","19","79","/Users/shelia/Desktop/ST-subject-3.csv","legacy","Lentiform Loewenfeld","3.3.3","0","s","NA","h","h","h","return","NA","s","502","NA","9651","83","1137","15881","NA","502","2","legacy","1024","2","48000","-16","experiment","SSHSS","3","odd","18137","313138","NA","NA","387270","303486","380906","2227","386118","388340","2243","NA","388458","388961","388327","388458","Flanker Task","70","113327","100","yes","1024"
"70.29702970297029","70.29702970297029","1136.1584158415842","1136.1584158415842","black","legacy","legacy","legacy","0","congruent","uniform","1","undefined","1","s","0","0","0","0","100","0","100","0","100","100","0","0","100","100","100","100","Sun Sep 27 11:38:09 2020","600","The main experiment item","yes","FlankerTask.osexp","/Users/shelia/Desktop","no","mono","no","18","no","white","no","yes","768","legacy","20","79","/Users/shelia/Desktop/ST-subject-3.csv","legacy","Lentiform Loewenfeld","3.3.3","0","s","NA","h","h","h","return","NA","s","1425","NA","9651","593","1137","15881","NA","1425","2","legacy","1024","2","48000","-16","experiment","SSSSS","3","odd","18137","313138","NA","NA","389584","303486","388976","2227","386118","390655","2243","NA","390769","392195","390640","390769","Flanker Task","71","114752","101","yes","1024"
"70.58823529411765","70.58823529411765","1138.4117647058824","1138.4117647058824","black","legacy","legacy","legacy","0","congruent","uniform","1","undefined","1","s","0","0","0","0","101","0","101","0","101","101","0","0","101","101","101","101","Sun Sep 27 11:38:09 2020","600","The main experiment item","yes","FlankerTask.osexp","/Users/shelia/Desktop","no","mono","no","18","no","white","no","yes","768","legacy","21","79","/Users/shelia/Desktop/ST-subject-3.csv","legacy","Lentiform Loewenfeld","3.3.3","0","s","NA","h","h","s","return","NA","s","1366","NA","9651","593","3839","15881","NA","1366","2","legacy","1024","2","48000","-16","experiment","SSSSS","3","odd","18137","313138","NA","NA","396065","303486","388976","2227","392211","397133","2243","NA","397251","398619","397118","397251","Flanker Task","72","116118","102","yes","1024"
"69.90291262135922","69.90291262135922","1130.4466019417475","1130.4466019417475","black","legacy","legacy","legacy","0","incongruent","uniform","0","undefined","0","h","0","0","0","0","102","0","102","0","102","102","0","0","102","102","102","102","Sun Sep 27 11:38:09 2020","600","The main experiment item","yes","FlankerTask.osexp","/Users/shelia/Desktop","no","mono","no","18","no","white","no","yes","768","legacy","22","79","/Users/shelia/Desktop/ST-subject-3.csv","legacy","Lentiform Loewenfeld","3.3.3","0","s","NA","h","h","s","return","NA","s","318","NA","9651","593","1164","15881","NA","318","2","legacy","1024","2","48000","-16","experiment","SSHSS","3","odd","18137","313138","NA","NA","399812","303486","388976","2227","398633","400879","2243","NA","400993","401313","400866","400993","Flanker Task","72","116436","103","yes","1024"
"70.1923076923077","70.1923076923077","1126.923076923077","1126.923076923077","black","legacy","legacy","legacy","0","incongruent","uniform","1","undefined","1","h","0","0","0","0","103","0","103","0","103","103","0","0","103","103","103","103","Sun Sep 27 11:38:09 2020","600","The main experiment item","yes","FlankerTask.osexp","/Users/shelia/Desktop","no","mono","no","18","no","white","no","yes","768","legacy","23","79","/Users/shelia/Desktop/ST-subject-3.csv","legacy","Lentiform Loewenfeld","3.3.3","0","h","NA","h","s","s","return","NA","h","764","NA","9651","577","1164","15881","NA","764","2","legacy","1024","2","48000","-16","experiment","SSHSS","3","odd","18137","313138","NA","NA","401920","303486","401327","2227","398633","402988","2243","NA","403103","403868","402974","403103","Flanker Task","73","117200","104","yes","1024"
"70.47619047619048","70.47619047619048","1130.4095238095238","1130.4095238095238","black","legacy","legacy","legacy","0","congruent","uniform","1","undefined","1","s","0","0","0","0","104","0","104","0","104","104","0","0","104","104","104","104","Sun Sep 27 11:38:09 2020","600","The main experiment item","yes","FlankerTask.osexp","/Users/shelia/Desktop","no","mono","no","18","no","white","no","yes","768","legacy","24","79","/Users/shelia/Desktop/ST-subject-3.csv","legacy","Lentiform Loewenfeld","3.3.3","0","s","NA","h","s","h","return","NA","s","1493","NA","9651","577","1241","15881","NA","1493","2","legacy","1024","2","48000","-16","experiment","SSSSS","3","odd","18137","313138","NA","NA","405140","303486","401327","2227","403884","406208","2243","NA","406323","407818","406195","406323","Flanker Task","74","118693","105","yes","1024"
"70.75471698113208","70.75471698113208","1129.688679245283","1129.688679245283","black","legacy","legacy","legacy","0","incogruent","uniform","1","undefined","1","s","0","0","0","0","105","0","105","0","105","105","0","0","105","105","105","105","Sun Sep 27 11:38:09 2020","600","The main experiment item","yes","FlankerTask.osexp","/Users/shelia/Desktop","no","mono","no","18","no","white","no","yes","768","legacy","25","79","/Users/shelia/Desktop/ST-subject-3.csv","legacy","Lentiform Loewenfeld","3.3.3","0","s","NA","h","s","s","return","NA","s","1054","NA","9651","577","2333","15881","NA","1054","2","legacy","1024","2","48000","-16","experiment","HHSHH","3","odd","18137","313138","NA","NA","410179","303486","401327","2227","407832","411246","2243","NA","411361","412417","411233","411361","Flanker Task","75","119747","106","yes","1024"
"70.09345794392523","70.09345794392523","1133.1495327102805","1133.1495327102805","black","legacy","legacy","legacy","0","incongruent","uniform","0","undefined","0","h","0","0","0","0","106","0","106","0","106","106","0","0","106","106","106","106","Sun Sep 27 11:38:09 2020","600","The main experiment item","yes","FlankerTask.osexp","/Users/shelia/Desktop","no","mono","no","18","no","white","no","yes","768","legacy","26","79","/Users/shelia/Desktop/ST-subject-3.csv","legacy","Lentiform Loewenfeld","3.3.3","0","None","NA","h","s","h","return","NA","None","1500","NA","9651","577","4707","15881","NA","1500","2","legacy","1024","2","48000","-16","experiment","SSHSS","3","odd","18137","313138","NA","NA","417152","303486","401327","2227","412431","418219","2243","NA","418338","419838","418205","418337","Flanker Task","75","121247","107","yes","1024"
"69.44444444444444","69.44444444444444","1136.5462962962963","1136.5462962962963","black","legacy","legacy","legacy","0","incongruent","uniform","0","undefined","0","h","0","0","0","0","107","0","107","0","107","107","0","0","107","107","107","107","Sun Sep 27 11:38:09 2020","600","The main experiment item","yes","FlankerTask.osexp","/Users/shelia/Desktop","no","mono","no","18","no","white","no","yes","768","legacy","27","79","/Users/shelia/Desktop/ST-subject-3.csv","legacy","Lentiform Loewenfeld","3.3.3","0","None","NA","h","h","h","return","NA","None","1500","NA","9651","227","4707","15881","NA","1500","2","legacy","1024","2","48000","-16","experiment","SSHSS","3","odd","18137","313138","NA","NA","420094","303486","419852","2227","412431","421165","2243","NA","421281","422781","421152","421281","Flanker Task","75","122747","108","yes","1024"
"68.80733944954129","68.80733944954129","1139.880733944954","1139.880733944954","black","legacy","legacy","legacy","0","incogruent","uniform","0","undefined","0","s","0","0","0","0","108","0","108","0","108","108","0","0","108","108","108","108","Sun Sep 27 11:38:09 2020","600","The main experiment item","yes","FlankerTask.osexp","/Users/shelia/Desktop","no","mono","no","18","no","white","no","yes","768","legacy","28","79","/Users/shelia/Desktop/ST-subject-3.csv","legacy","Lentiform Loewenfeld","3.3.3","0","None","NA","h","h","h","return","NA","None","1500","NA","9651","331","4707","15881","NA","1500","2","legacy","1024","2","48000","-16","experiment","HHSHH","3","odd","18137","313138","NA","NA","423142","303486","422796","2227","412431","424209","2243","NA","424328","425828","424194","424328","Flanker Task","75","124247","109","yes","1024"
"68.18181818181819","68.18181818181819","1143.1545454545455","1143.1545454545455","black","legacy","legacy","legacy","0","incongruent","uniform","0","undefined","0","h","0","0","0","0","109","0","109","0","109","109","0","0","109","109","109","109","Sun Sep 27 11:38:09 2020","600","The main experiment item","yes","FlankerTask.osexp","/Users/shelia/Desktop","no","mono","no","18","no","white","no","yes","768","legacy","29","79","/Users/shelia/Desktop/ST-subject-3.csv","legacy","Lentiform Loewenfeld","3.3.3","0","None","NA","h","s","h","return","NA","None","1500","NA","9651","134","4707","15881","NA","1500","2","legacy","1024","2","48000","-16","experiment","SSHSS","3","odd","18137","313138","NA","NA","425990","303486","425842","2227","412431","427058","2243","NA","427177","428677","427045","427177","Flanker Task","75","125747","110","yes","1024"
"67.56756756756756","67.56756756756756","1146.3693693693695","1146.3693693693695","black","legacy","legacy","legacy","0","incogruent","uniform","0","undefined","0","s","0","0","0","0","110","0","110","0","110","110","0","0","110","110","110","110","Sun Sep 27 11:38:09 2020","600","The main experiment item","yes","FlankerTask.osexp","/Users/shelia/Desktop","no","mono","no","18","no","white","no","yes","768","legacy","30","79","/Users/shelia/Desktop/ST-subject-3.csv","legacy","Lentiform Loewenfeld","3.3.3","0","None","NA","h","h","h","return","NA","None","1500","NA","9651","158","4707","15881","NA","1500","2","legacy","1024","2","48000","-16","experiment","HHSHH","3","odd","18137","313138","NA","NA","428865","303486","428692","2227","412431","429932","2243","NA","430047","431547","429918","430047","Flanker Task","75","127247","111","yes","1024"
"67.85714285714286","67.85714285714286","1149.4642857142858","1149.4642857142858","black","legacy","legacy","legacy","0","incongruent","uniform","1","undefined","1","h","0","0","0","0","111","0","111","0","111","111","0","0","111","111","111","111","Sun Sep 27 11:38:09 2020","600","The main experiment item","yes","FlankerTask.osexp","/Users/shelia/Desktop","no","mono","no","18","no","white","no","yes","768","legacy","31","79","/Users/shelia/Desktop/ST-subject-3.csv","legacy","Lentiform Loewenfeld","3.3.3","0","h","NA","h","s","h","return","NA","h","1493","NA","9651","191","4707","15881","NA","1493","2","legacy","1024","2","48000","-16","experiment","SSHSS","3","odd","18137","313138","NA","NA","431767","303486","431562","2227","412431","432834","2243","NA","432949","434443","432819","432949","Flanker Task","76","128740","112","yes","1024"
"68.14159292035399","68.14159292035399","1147.6017699115043","1147.6017699115043","black","legacy","legacy","legacy","0","incogruent","uniform","1","undefined","1","s","0","0","0","0","112","0","112","0","112","112","0","0","112","112","112","112","Sun Sep 27 11:38:09 2020","600","The main experiment item","yes","FlankerTask.osexp","/Users/shelia/Desktop","no","mono","no","18","no","white","no","yes","768","legacy","32","79","/Users/shelia/Desktop/ST-subject-3.csv","legacy","Lentiform Loewenfeld","3.3.3","0","s","NA","h","s","h","return","NA","s","939","NA","9651","191","1022","15881","NA","939","2","legacy","1024","2","48000","-16","experiment","HHSHH","3","odd","18137","313138","NA","NA","435494","303486","431562","2227","434458","436563","2243","NA","436678","437618","436550","436678","Flanker Task","77","129679","113","yes","1024"
"68.42105263157895","68.42105263157895","1141.1140350877192","1141.1140350877192","black","legacy","legacy","legacy","0","congruent","uniform","1","undefined","1","s","0","0","0","0","113","0","113","0","113","113","0","0","113","113","113","113","Sun Sep 27 11:38:09 2020","600","The main experiment item","yes","FlankerTask.osexp","/Users/shelia/Desktop","no","mono","no","18","no","white","no","yes","768","legacy","33","79","/Users/shelia/Desktop/ST-subject-3.csv","legacy","Lentiform Loewenfeld","3.3.3","0","s","NA","h","s","s","return","NA","s","408","NA","9651","191","2425","15881","NA","408","2","legacy","1024","2","48000","-16","experiment","SSSSS","3","odd","18137","313138","NA","NA","440071","303486","431562","2227","437632","441141","2243","NA","441257","441666","441128","441257","Flanker Task","78","130087","114","yes","1024"
"68.69565217391305","68.69565217391305","1140.1304347826087","1140.1304347826087","black","legacy","legacy","legacy","0","congruent","uniform","1","undefined","1","h","0","0","0","0","114","0","114","0","114","114","0","0","114","114","114","114","Sun Sep 27 11:38:09 2020","600","The main experiment item","yes","FlankerTask.osexp","/Users/shelia/Desktop","no","mono","no","18","no","white","no","yes","768","legacy","34","79","/Users/shelia/Desktop/ST-subject-3.csv","legacy","Lentiform Loewenfeld","3.3.3","0","h","NA","h","s","s","return","NA","h","1028","NA","9651","191","2425","15881","NA","1028","2","legacy","1024","2","48000","-16","experiment","HHHHH","3","odd","18137","313138","NA","NA","441681","303486","431562","2227","437632","442751","2243","NA","442870","443900","442738","442870","Flanker Task","79","131115","115","yes","1024"
"68.96551724137932","68.96551724137932","1134.4568965517242","1134.4568965517242","black","legacy","legacy","legacy","0","congruent","uniform","1","undefined","1","h","0","0","0","0","115","0","115","0","115","115","0","0","115","115","115","115","Sun Sep 27 11:38:09 2020","600","The main experiment item","yes","FlankerTask.osexp","/Users/shelia/Desktop","no","mono","no","18","no","white","no","yes","768","legacy","35","79","/Users/shelia/Desktop/ST-subject-3.csv","legacy","Lentiform Loewenfeld","3.3.3","0","h","NA","h","s","h","return","NA","h","482","NA","9651","191","1679","15881","NA","482","2","legacy","1024","2","48000","-16","experiment","HHHHH","3","odd","18137","313138","NA","NA","445607","303486","431562","2227","443914","446675","2243","NA","446789","447273","446662","446789","Flanker Task","80","131597","116","yes","1024"
"69.23076923076923","69.23076923076923","1130.076923076923","1130.076923076923","black","legacy","legacy","legacy","0","congruent","uniform","1","undefined","1","h","0","0","0","0","116","0","116","0","116","116","0","0","116","116","116","116","Sun Sep 27 11:38:09 2020","600","The main experiment item","yes","FlankerTask.osexp","/Users/shelia/Desktop","no","mono","no","18","no","white","no","yes","768","legacy","36","79","/Users/shelia/Desktop/ST-subject-3.csv","legacy","Lentiform Loewenfeld","3.3.3","0","h","NA","h","s","h","return","NA","h","622","NA","9651","191","1679","15881","NA","622","2","legacy","1024","2","48000","-16","experiment","HHHHH","3","odd","18137","313138","NA","NA","447288","303486","431562","2227","443914","448357","2243","NA","448471","449094","448344","448471","Flanker Task","81","132219","117","yes","1024"
"68.64406779661017","68.64406779661017","1124.5169491525423","1124.5169491525423","black","legacy","legacy","legacy","0","incongruent","uniform","0","undefined","0","h","0","0","0","0","117","0","117","0","117","117","0","0","117","117","117","117","Sun Sep 27 11:38:09 2020","600","The main experiment item","yes","FlankerTask.osexp","/Users/shelia/Desktop","no","mono","no","18","no","white","no","yes","768","legacy","37","79","/Users/shelia/Desktop/ST-subject-3.csv","legacy","Lentiform Loewenfeld","3.3.3","0","s","NA","h","s","h","return","NA","s","474","NA","9651","191","717","15881","NA","474","2","legacy","1024","2","48000","-16","experiment","SSHSS","3","odd","18137","313138","NA","NA","449839","303486","431562","2227","449108","450908","2243","NA","451025","451500","450895","451025","Flanker Task","81","132693","118","yes","1024"
