"acc","accuracy","average_response_time","avg_rt","background","canvas_backend","clock_backend","color_backend","condition","correct","correct_instructions1","correct_keyboard_response","correct_response","count_Block1","count_Block3","count_ErrorFeedback","count_ISI","count_Instruction3","count_block2","count_experiment","count_faster","count_fixation","count_instructions1","count_instructions2","count_instructions3","count_keyboard_response","count_logger","count_new_sketchpad","count_sequence","count_stimulus","datetime","deadline","description","disable_garbage_collection","experiment_file","experiment_path","font_bold","font_family","font_italic","font_size","font_underline","foreground","form_clicks","fullscreen","height","keyboard_backend","live_row","live_row_Block1","logfile","mouse_backend","opensesame_codename","opensesame_version","repeat_cycle","response","response_Instruction3","response_faster","response_instructions1","response_instructions2","response_instructions3","response_keyboard_response","response_new_sketchpad","response_time","response_time_Instruction3","response_time_faster","response_time_instructions1","response_time_instructions2","response_time_instructions3","response_time_keyboard_response","response_time_new_sketchpad","round_decimals","sampler_backend","sound_buf_size","sound_channels","sound_freq","sound_sample_size","start","stimulus","subject_nr","subject_parity","time_Block1","time_Block3","time_ErrorFeedback","time_ISI","time_Instruction3","time_block2","time_experiment","time_faster","time_fixation","time_instructions1","time_instructions2","time_instructions3","time_keyboard_response","time_logger","time_new_sketchpad","time_sequence","time_stimulus","title","total_correct","total_response_time","total_responses","width"
"100","100","727","727","#3d3846","legacy","legacy","legacy","incongruent","1","undefined","1","h","0","0","0","0","0","0","0","0","0","0","0","0","0","0","NA","0","0","Fri Sep  8 13:58:26 2023","1500","The main experiment item","True","Flanker Task Lab 2.2.osexp","C:\Users\kikip\OneDrive\Desktop","False","mono","False","18","no","white","no","yes","768","legacy","0","0","C:/Users/kikip/OneDrive/Desktop/HB-subject-1.csv","legacy","Melodramatic Milgram","4.0.5","0","h","NA","NA","s","NA","NA","h","NA","727.0","NA","NA","10034","NA","NA","727","NA","2","legacy","1024","2","48000","-16","experiment","SSHSS","1","odd","12689","NA","NA","NA","NA","NA","2645","NA","12763","2653","NA","NA","12865","13593","NA","12762","12865","Neues Experiment","1","727.0","1","1024"
"100","100","669","669","#3d3846","legacy","legacy","legacy","incongruent","1","undefined","1","h","0","0","1","1","0","0","0","1","1","0","0","0","1","1","NA","1","1","Fri Sep  8 13:58:26 2023","1500","The main experiment item","True","Flanker Task Lab 2.2.osexp","C:\Users\kikip\OneDrive\Desktop","False","mono","False","18","no","white","no","yes","768","legacy","1","1","C:/Users/kikip/OneDrive/Desktop/HB-subject-1.csv","legacy","Melodramatic Milgram","4.0.5","0","h","NA","NA","s","NA","NA","h","NA","611.0","NA","NA","10034","NA","NA","611","NA","2","legacy","1024","2","48000","-16","experiment","SSHSS","1","odd","12689","NA","NA","13602","NA","NA","2645","NA","14655","2653","NA","NA","14756","15367","NA","14653","14756","Neues Experiment","2","1338.0","2","1024"
"100","100","661","661","#3d3846","legacy","legacy","legacy","incongruent","1","undefined","1","s","0","0","2","2","0","0","0","2","2","0","0","0","2","2","NA","2","2","Fri Sep  8 13:58:26 2023","1500","The main experiment item","True","Flanker Task Lab 2.2.osexp","C:\Users\kikip\OneDrive\Desktop","False","mono","False","18","no","white","no","yes","768","legacy","2","2","C:/Users/kikip/OneDrive/Desktop/HB-subject-1.csv","legacy","Melodramatic Milgram","4.0.5","0","s","NA","NA","s","NA","NA","s","NA","647.0","NA","NA","10034","NA","NA","647","NA","2","legacy","1024","2","48000","-16","experiment","HHSHH","1","odd","12689","NA","NA","15373","NA","NA","2645","NA","16414","2653","NA","NA","16515","17163","NA","16412","16515","Neues Experiment","3","1985.0","3","1024"
"100","100","665","665","#3d3846","legacy","legacy","legacy","congruent","1","undefined","1","s","0","0","3","3","0","0","0","3","3","0","0","0","3","3","NA","3","3","Fri Sep  8 13:58:26 2023","1500","The main experiment item","True","Flanker Task Lab 2.2.osexp","C:\Users\kikip\OneDrive\Desktop","False","mono","False","18","no","white","no","yes","768","legacy","3","3","C:/Users/kikip/OneDrive/Desktop/HB-subject-1.csv","legacy","Melodramatic Milgram","4.0.5","0","s","NA","NA","s","NA","NA","s","NA","676.0","NA","NA","10034","NA","NA","676","NA","2","legacy","1024","2","48000","-16","experiment","SSSSS","1","odd","12689","NA","NA","17166","NA","NA","2645","NA","18204","2653","NA","NA","18305","18981","NA","18202","18305","Neues Experiment","4","2661.0","4","1024"
"100","100","652","652","#3d3846","legacy","legacy","legacy","coongruent","1","undefined","1","h","0","0","4","4","0","0","0","4","4","0","0","0","4","4","NA","4","4","Fri Sep  8 13:58:26 2023","1500","The main experiment item","True","Flanker Task Lab 2.2.osexp","C:\Users\kikip\OneDrive\Desktop","False","mono","False","18","no","white","no","yes","768","legacy","4","4","C:/Users/kikip/OneDrive/Desktop/HB-subject-1.csv","legacy","Melodramatic Milgram","4.0.5","0","h","NA","NA","s","NA","NA","h","NA","599.0","NA","NA","10034","NA","NA","599","NA","2","legacy","1024","2","48000","-16","experiment","HHHHH","1","odd","12689","NA","NA","18984","NA","NA","2645","NA","20021","2653","NA","NA","20122","20722","NA","20019","20122","Neues Experiment","5","3260.0","5","1024"
"100","100","659","659","#3d3846","legacy","legacy","legacy","incongruent","1","undefined","1","h","0","0","5","5","0","0","0","5","5","0","0","0","5","5","NA","5","5","Fri Sep  8 13:58:26 2023","1500","The main experiment item","True","Flanker Task Lab 2.2.osexp","C:\Users\kikip\OneDrive\Desktop","False","mono","False","18","no","white","no","yes","768","legacy","5","5","C:/Users/kikip/OneDrive/Desktop/HB-subject-1.csv","legacy","Melodramatic Milgram","4.0.5","0","h","NA","NA","s","NA","NA","h","NA","696.0","NA","NA","10034","NA","NA","696","NA","2","legacy","1024","2","48000","-16","experiment","SSHSS","1","odd","12689","NA","NA","20725","NA","NA","2645","NA","21789","2653","NA","NA","21890","22586","NA","21787","21890","Neues Experiment","6","3956.0","6","1024"
"100","100","657","657","#3d3846","legacy","legacy","legacy","congruent","1","undefined","1","s","0","0","6","6","0","0","0","6","6","0","0","0","6","6","NA","6","6","Fri Sep  8 13:58:26 2023","1500","The main experiment item","True","Flanker Task Lab 2.2.osexp","C:\Users\kikip\OneDrive\Desktop","False","mono","False","18","no","white","no","yes","768","legacy","6","6","C:/Users/kikip/OneDrive/Desktop/HB-subject-1.csv","legacy","Melodramatic Milgram","4.0.5","0","s","NA","NA","s","NA","NA","s","NA","644.0","NA","NA","10034","NA","NA","644","NA","2","legacy","1024","2","48000","-16","experiment","SSSSS","1","odd","12689","NA","NA","22590","NA","NA","2645","NA","23660","2653","NA","NA","23761","24406","NA","23658","23761","Neues Experiment","7","4600.0","7","1024"
"100","100","637","637","#3d3846","legacy","legacy","legacy","incongruent","1","undefined","1","s","0","0","7","7","0","0","0","7","7","0","0","0","7","7","NA","7","7","Fri Sep  8 13:58:26 2023","1500","The main experiment item","True","Flanker Task Lab 2.2.osexp","C:\Users\kikip\OneDrive\Desktop","False","mono","False","18","no","white","no","yes","768","legacy","7","7","C:/Users/kikip/OneDrive/Desktop/HB-subject-1.csv","legacy","Melodramatic Milgram","4.0.5","0","s","NA","NA","s","NA","NA","s","NA","500.0","NA","NA","10034","NA","NA","500","NA","2","legacy","1024","2","48000","-16","experiment","HHSHH","1","odd","12689","NA","NA","24409","NA","NA","2645","NA","25458","2653","NA","NA","25559","26059","NA","25456","25559","Neues Experiment","8","5100.0","8","1024"
"88","88","616","616","#3d3846","legacy","legacy","legacy","coongruent","0","undefined","0","h","0","0","8","8","0","0","0","8","8","0","0","0","8","8","NA","8","8","Fri Sep  8 13:58:26 2023","1500","The main experiment item","True","Flanker Task Lab 2.2.osexp","C:\Users\kikip\OneDrive\Desktop","False","mono","False","18","no","white","no","yes","768","legacy","8","8","C:/Users/kikip/OneDrive/Desktop/HB-subject-1.csv","legacy","Melodramatic Milgram","4.0.5","0","s","NA","NA","s","NA","NA","s","NA","445.0","NA","NA","10034","NA","NA","445","NA","2","legacy","1024","2","48000","-16","experiment","HHHHH","1","odd","12689","NA","NA","26062","NA","NA","2645","NA","27127","2653","NA","NA","27228","27674","NA","27126","27228","Neues Experiment","8","5545.0","9","1024"
"90","90","613","613","#3d3846","legacy","legacy","legacy","incongruent","1","undefined","1","s","0","0","9","9","0","0","0","9","9","0","0","0","9","9","NA","9","9","Fri Sep  8 13:58:26 2023","1500","The main experiment item","True","Flanker Task Lab 2.2.osexp","C:\Users\kikip\OneDrive\Desktop","False","mono","False","18","no","white","no","yes","768","legacy","9","9","C:/Users/kikip/OneDrive/Desktop/HB-subject-1.csv","legacy","Melodramatic Milgram","4.0.5","0","s","NA","NA","s","NA","NA","s","NA","593.0","NA","NA","10034","NA","NA","593","NA","2","legacy","1024","2","48000","-16","experiment","HHSHH","1","odd","12689","NA","27677","28178","NA","NA","2645","NA","29234","2653","NA","NA","29335","29929","NA","29232","29335","Neues Experiment","9","6138.0","10","1024"
"90","90","620","620","#3d3846","legacy","legacy","legacy","incongruent","1","undefined","1","h","0","0","10","10","0","0","0","10","10","0","0","0","10","10","NA","10","10","Fri Sep  8 13:58:26 2023","1500","The main experiment item","True","Flanker Task Lab 2.2.osexp","C:\Users\kikip\OneDrive\Desktop","False","mono","False","18","no","white","no","yes","768","legacy","10","10","C:/Users/kikip/OneDrive/Desktop/HB-subject-1.csv","legacy","Melodramatic Milgram","4.0.5","0","h","NA","NA","s","NA","NA","h","NA","690.0","NA","NA","10034","NA","NA","690","NA","2","legacy","1024","2","48000","-16","experiment","SSHSS","1","odd","12689","NA","27677","29935","NA","NA","2645","NA","30981","2653","NA","NA","31082","31773","NA","30979","31082","Neues Experiment","10","6828.0","11","1024"
"91","91","616","616","#3d3846","legacy","legacy","legacy","incongruent","1","undefined","1","h","0","0","11","11","0","0","0","11","11","0","0","0","11","11","NA","11","11","Fri Sep  8 13:58:26 2023","1500","The main experiment item","True","Flanker Task Lab 2.2.osexp","C:\Users\kikip\OneDrive\Desktop","False","mono","False","18","no","white","no","yes","768","legacy","11","11","C:/Users/kikip/OneDrive/Desktop/HB-subject-1.csv","legacy","Melodramatic Milgram","4.0.5","0","h","NA","NA","s","NA","NA","h","NA","570.0","NA","NA","10034","NA","NA","570","NA","2","legacy","1024","2","48000","-16","experiment","SSHSS","1","odd","12689","NA","27677","31776","NA","NA","2645","NA","32831","2653","NA","NA","32932","33503","NA","32829","32932","Neues Experiment","11","7398.0","12","1024"
"92","92","616","616","#3d3846","legacy","legacy","legacy","incongruent","1","undefined","1","s","0","0","12","12","0","0","0","12","12","0","0","0","12","12","NA","12","12","Fri Sep  8 13:58:26 2023","1500","The main experiment item","True","Flanker Task Lab 2.2.osexp","C:\Users\kikip\OneDrive\Desktop","False","mono","False","18","no","white","no","yes","768","legacy","12","12","C:/Users/kikip/OneDrive/Desktop/HB-subject-1.csv","legacy","Melodramatic Milgram","4.0.5","0","s","NA","NA","s","NA","NA","s","NA","611.0","NA","NA","10034","NA","NA","611","NA","2","legacy","1024","2","48000","-16","experiment","HHSHH","1","odd","12689","NA","27677","33506","NA","NA","2645","NA","34569","2653","NA","NA","34670","35282","NA","34567","34670","Neues Experiment","12","8009.0","13","1024"
"92","92","624","624","#3d3846","legacy","legacy","legacy","incongruent","1","undefined","1","s","0","0","13","13","0","0","0","13","13","0","0","0","13","13","NA","13","13","Fri Sep  8 13:58:26 2023","1500","The main experiment item","True","Flanker Task Lab 2.2.osexp","C:\Users\kikip\OneDrive\Desktop","False","mono","False","18","no","white","no","yes","768","legacy","13","13","C:/Users/kikip/OneDrive/Desktop/HB-subject-1.csv","legacy","Melodramatic Milgram","4.0.5","0","s","NA","NA","s","NA","NA","s","NA","734.0","NA","NA","10034","NA","NA","734","NA","2","legacy","1024","2","48000","-16","experiment","HHSHH","1","odd","12689","NA","27677","35285","NA","NA","2645","NA","36361","2653","NA","NA","36462","37197","NA","36359","36462","Neues Experiment","13","8743.0","14","1024"
"93","93","612","612","#3d3846","legacy","legacy","legacy","coongruent","1","undefined","1","h","0","0","14","14","0","0","0","14","14","0","0","0","14","14","NA","14","14","Fri Sep  8 13:58:26 2023","1500","The main experiment item","True","Flanker Task Lab 2.2.osexp","C:\Users\kikip\OneDrive\Desktop","False","mono","False","18","no","white","no","yes","768","legacy","14","14","C:/Users/kikip/OneDrive/Desktop/HB-subject-1.csv","legacy","Melodramatic Milgram","4.0.5","0","h","NA","NA","s","NA","NA","h","NA","444.0","NA","NA","10034","NA","NA","444","NA","2","legacy","1024","2","48000","-16","experiment","HHHHH","1","odd","12689","NA","27677","37204","NA","NA","2645","NA","38281","2653","NA","NA","38382","38827","NA","38280","38382","Neues Experiment","14","9187.0","15","1024"
"93","93","599","599","#3d3846","legacy","legacy","legacy","coongruent","1","undefined","1","h","0","0","15","15","0","0","0","15","15","0","0","0","15","15","NA","15","15","Fri Sep  8 13:58:26 2023","1500","The main experiment item","True","Flanker Task Lab 2.2.osexp","C:\Users\kikip\OneDrive\Desktop","False","mono","False","18","no","white","no","yes","768","legacy","15","15","C:/Users/kikip/OneDrive/Desktop/HB-subject-1.csv","legacy","Melodramatic Milgram","4.0.5","0","h","NA","NA","s","NA","NA","h","NA","402.0","NA","NA","10034","NA","NA","402","NA","2","legacy","1024","2","48000","-16","experiment","HHHHH","1","odd","12689","NA","27677","38830","NA","NA","2645","NA","39887","2653","NA","NA","39988","40391","NA","39885","39988","Neues Experiment","15","9589.0","16","1024"
"94","94","592","592","#3d3846","legacy","legacy","legacy","incongruent","1","undefined","1","h","0","0","16","16","0","0","0","16","16","0","0","0","16","16","NA","16","16","Fri Sep  8 13:58:26 2023","1500","The main experiment item","True","Flanker Task Lab 2.2.osexp","C:\Users\kikip\OneDrive\Desktop","False","mono","False","18","no","white","no","yes","768","legacy","16","16","C:/Users/kikip/OneDrive/Desktop/HB-subject-1.csv","legacy","Melodramatic Milgram","4.0.5","0","h","NA","NA","s","NA","NA","h","NA","482.0","NA","NA","10034","NA","NA","482","NA","2","legacy","1024","2","48000","-16","experiment","SSHSS","1","odd","12689","NA","27677","40394","NA","NA","2645","NA","41442","2653","NA","NA","41543","42026","NA","41441","41543","Neues Experiment","16","10071.0","17","1024"
"94","94","586","586","#3d3846","legacy","legacy","legacy","congruent","1","undefined","1","s","0","0","17","17","0","0","0","17","17","0","0","0","17","17","NA","17","17","Fri Sep  8 13:58:26 2023","1500","The main experiment item","True","Flanker Task Lab 2.2.osexp","C:\Users\kikip\OneDrive\Desktop","False","mono","False","18","no","white","no","yes","768","legacy","17","17","C:/Users/kikip/OneDrive/Desktop/HB-subject-1.csv","legacy","Melodramatic Milgram","4.0.5","0","s","NA","NA","s","NA","NA","s","NA","494.0","NA","NA","10034","NA","NA","494","NA","2","legacy","1024","2","48000","-16","experiment","SSSSS","1","odd","12689","NA","27677","42032","NA","NA","2645","NA","43068","2653","NA","NA","43170","43665","NA","43066","43170","Neues Experiment","17","10565.0","18","1024"
"94","94","583","583","#3d3846","legacy","legacy","legacy","incongruent","1","undefined","1","s","0","0","18","18","0","0","0","18","18","0","0","0","18","18","NA","18","18","Fri Sep  8 13:58:26 2023","1500","The main experiment item","True","Flanker Task Lab 2.2.osexp","C:\Users\kikip\OneDrive\Desktop","False","mono","False","18","no","white","no","yes","768","legacy","18","18","C:/Users/kikip/OneDrive/Desktop/HB-subject-1.csv","legacy","Melodramatic Milgram","4.0.5","0","s","NA","NA","s","NA","NA","s","NA","518.0","NA","NA","10034","NA","NA","518","NA","2","legacy","1024","2","48000","-16","experiment","HHSHH","1","odd","12689","NA","27677","43671","NA","NA","2645","NA","44725","2653","NA","NA","44826","45344","NA","44721","44826","Neues Experiment","18","11083.0","19","1024"
"95","95","579","579","#3d3846","legacy","legacy","legacy","coongruent","1","undefined","1","h","0","0","19","19","0","0","0","19","19","0","0","0","19","19","NA","19","19","Fri Sep  8 13:58:26 2023","1500","The main experiment item","True","Flanker Task Lab 2.2.osexp","C:\Users\kikip\OneDrive\Desktop","False","mono","False","18","no","white","no","yes","768","legacy","19","19","C:/Users/kikip/OneDrive/Desktop/HB-subject-1.csv","legacy","Melodramatic Milgram","4.0.5","0","h","NA","NA","s","NA","NA","h","NA","511.0","NA","NA","10034","NA","NA","511","NA","2","legacy","1024","2","48000","-16","experiment","HHHHH","1","odd","12689","NA","27677","45363","NA","NA","2645","NA","46421","2653","NA","NA","46522","47034","NA","46420","46522","Neues Experiment","19","11594.0","20","1024"
"95","95","571","571","#3d3846","legacy","legacy","legacy","incongruent","1","undefined","1","s","0","0","20","20","0","0","0","20","20","0","0","0","20","20","NA","20","20","Fri Sep  8 13:58:26 2023","1500","The main experiment item","True","Flanker Task Lab 2.2.osexp","C:\Users\kikip\OneDrive\Desktop","False","mono","False","18","no","white","no","yes","768","legacy","20","20","C:/Users/kikip/OneDrive/Desktop/HB-subject-1.csv","legacy","Melodramatic Milgram","4.0.5","0","s","NA","NA","s","NA","NA","s","NA","400.0","NA","NA","10034","NA","NA","400","NA","2","legacy","1024","2","48000","-16","experiment","HHSHH","1","odd","12689","NA","27677","47044","NA","NA","2645","NA","48106","2653","NA","NA","48208","48609","NA","48105","48208","Neues Experiment","20","11994.0","21","1024"
"95","95","564","564","#3d3846","legacy","legacy","legacy","incongruent","1","undefined","1","h","0","0","21","21","0","0","0","21","21","0","0","0","21","21","NA","21","21","Fri Sep  8 13:58:26 2023","1500","The main experiment item","True","Flanker Task Lab 2.2.osexp","C:\Users\kikip\OneDrive\Desktop","False","mono","False","18","no","white","no","yes","768","legacy","21","21","C:/Users/kikip/OneDrive/Desktop/HB-subject-1.csv","legacy","Melodramatic Milgram","4.0.5","0","h","NA","NA","s","NA","NA","h","NA","428.0","NA","NA","10034","NA","NA","428","NA","2","legacy","1024","2","48000","-16","experiment","SSHSS","1","odd","12689","NA","27677","48611","NA","NA","2645","NA","49664","2653","NA","NA","49765","50193","NA","49663","49765","Neues Experiment","21","12422.0","22","1024"
"95","95","578","578","#3d3846","legacy","legacy","legacy","incongruent","1","undefined","1","s","0","0","22","22","0","0","0","22","22","0","0","0","22","22","NA","22","22","Fri Sep  8 13:58:26 2023","1500","The main experiment item","True","Flanker Task Lab 2.2.osexp","C:\Users\kikip\OneDrive\Desktop","False","mono","False","18","no","white","no","yes","768","legacy","22","22","C:/Users/kikip/OneDrive/Desktop/HB-subject-1.csv","legacy","Melodramatic Milgram","4.0.5","0","s","NA","NA","s","NA","NA","s","NA","872.0","NA","NA","10034","NA","NA","872","NA","2","legacy","1024","2","48000","-16","experiment","HHSHH","1","odd","12689","NA","27677","50199","NA","NA","2645","NA","51254","2653","NA","NA","51355","52228","NA","51252","51355","Neues Experiment","22","13294.0","23","1024"
"95","95","576","576","#3d3846","legacy","legacy","legacy","coongruent","1","undefined","1","h","0","0","23","23","0","0","0","23","23","0","0","0","23","23","NA","23","23","Fri Sep  8 13:58:26 2023","1500","The main experiment item","True","Flanker Task Lab 2.2.osexp","C:\Users\kikip\OneDrive\Desktop","False","mono","False","18","no","white","no","yes","768","legacy","23","23","C:/Users/kikip/OneDrive/Desktop/HB-subject-1.csv","legacy","Melodramatic Milgram","4.0.5","0","h","NA","NA","s","NA","NA","h","NA","543.0","NA","NA","10034","NA","NA","543","NA","2","legacy","1024","2","48000","-16","experiment","HHHHH","1","odd","12689","NA","27677","52232","NA","NA","2645","NA","53268","2653","NA","NA","53369","53912","NA","53266","53369","Neues Experiment","23","13837.0","24","1024"
"96","96","571","571","#3d3846","legacy","legacy","legacy","coongruent","1","undefined","1","h","0","0","24","24","0","0","0","24","24","0","0","0","24","24","NA","24","24","Fri Sep  8 13:58:26 2023","1500","The main experiment item","True","Flanker Task Lab 2.2.osexp","C:\Users\kikip\OneDrive\Desktop","False","mono","False","18","no","white","no","yes","768","legacy","24","24","C:/Users/kikip/OneDrive/Desktop/HB-subject-1.csv","legacy","Melodramatic Milgram","4.0.5","0","h","NA","NA","s","NA","NA","h","NA","443.0","NA","NA","10034","NA","NA","443","NA","2","legacy","1024","2","48000","-16","experiment","HHHHH","1","odd","12689","NA","27677","53915","NA","NA","2645","NA","54967","2653","NA","NA","55068","55512","NA","54965","55068","Neues Experiment","24","14280.0","25","1024"
"96","96","567","567","#3d3846","legacy","legacy","legacy","coongruent","1","undefined","1","h","0","0","25","25","0","0","0","25","25","0","0","0","25","25","NA","25","25","Fri Sep  8 13:58:26 2023","1500","The main experiment item","True","Flanker Task Lab 2.2.osexp","C:\Users\kikip\OneDrive\Desktop","False","mono","False","18","no","white","no","yes","768","legacy","25","25","C:/Users/kikip/OneDrive/Desktop/HB-subject-1.csv","legacy","Melodramatic Milgram","4.0.5","0","h","NA","NA","s","NA","NA","h","NA","472.0","NA","NA","10034","NA","NA","472","NA","2","legacy","1024","2","48000","-16","experiment","HHHHH","1","odd","12689","NA","27677","55515","NA","NA","2645","NA","56592","2653","NA","NA","56694","57167","NA","56590","56694","Neues Experiment","25","14752.0","26","1024"
"96","96","567","567","#3d3846","legacy","legacy","legacy","incongruent","1","undefined","1","h","0","0","26","26","0","0","0","26","26","0","0","0","26","26","NA","26","26","Fri Sep  8 13:58:26 2023","1500","The main experiment item","True","Flanker Task Lab 2.2.osexp","C:\Users\kikip\OneDrive\Desktop","False","mono","False","18","no","white","no","yes","768","legacy","26","26","C:/Users/kikip/OneDrive/Desktop/HB-subject-1.csv","legacy","Melodramatic Milgram","4.0.5","0","h","NA","NA","s","NA","NA","h","NA","562.0","NA","NA","10034","NA","NA","562","NA","2","legacy","1024","2","48000","-16","experiment","SSHSS","1","odd","12689","NA","27677","57170","NA","NA","2645","NA","58218","2653","NA","NA","58319","58881","NA","58217","58319","Neues Experiment","26","15314.0","27","1024"
"96","96","565","565","#3d3846","legacy","legacy","legacy","incongruent","1","undefined","1","s","0","0","27","27","0","0","0","27","27","0","0","0","27","27","NA","27","27","Fri Sep  8 13:58:26 2023","1500","The main experiment item","True","Flanker Task Lab 2.2.osexp","C:\Users\kikip\OneDrive\Desktop","False","mono","False","18","no","white","no","yes","768","legacy","27","27","C:/Users/kikip/OneDrive/Desktop/HB-subject-1.csv","legacy","Melodramatic Milgram","4.0.5","0","s","NA","NA","s","NA","NA","s","NA","519.0","NA","NA","10034","NA","NA","519","NA","2","legacy","1024","2","48000","-16","experiment","HHSHH","1","odd","12689","NA","27677","58884","NA","NA","2645","NA","59930","2653","NA","NA","60031","60551","NA","59928","60031","Neues Experiment","27","15833.0","28","1024"
"96","96","564","564","#3d3846","legacy","legacy","legacy","incongruent","1","undefined","1","h","0","0","28","28","0","0","0","28","28","0","0","0","28","28","NA","28","28","Fri Sep  8 13:58:26 2023","1500","The main experiment item","True","Flanker Task Lab 2.2.osexp","C:\Users\kikip\OneDrive\Desktop","False","mono","False","18","no","white","no","yes","768","legacy","28","28","C:/Users/kikip/OneDrive/Desktop/HB-subject-1.csv","legacy","Melodramatic Milgram","4.0.5","0","h","NA","NA","s","NA","NA","h","NA","540.0","NA","NA","10034","NA","NA","540","NA","2","legacy","1024","2","48000","-16","experiment","SSHSS","1","odd","12689","NA","27677","60554","NA","NA","2645","NA","61589","2653","NA","NA","61690","62231","NA","61587","61690","Neues Experiment","28","16373.0","29","1024"
"96","96","561","561","#3d3846","legacy","legacy","legacy","congruent","1","undefined","1","s","0","0","29","29","0","0","0","29","29","0","0","0","29","29","NA","29","29","Fri Sep  8 13:58:26 2023","1500","The main experiment item","True","Flanker Task Lab 2.2.osexp","C:\Users\kikip\OneDrive\Desktop","False","mono","False","18","no","white","no","yes","768","legacy","29","29","C:/Users/kikip/OneDrive/Desktop/HB-subject-1.csv","legacy","Melodramatic Milgram","4.0.5","0","s","NA","NA","s","NA","NA","s","NA","479.0","NA","NA","10034","NA","NA","479","NA","2","legacy","1024","2","48000","-16","experiment","SSSSS","1","odd","12689","NA","27677","62234","NA","NA","2645","NA","63270","2653","NA","NA","63371","63851","NA","63268","63371","Neues Experiment","29","16852.0","30","1024"
"96","96","556","556","#3d3846","legacy","legacy","legacy","congruent","1","undefined","1","s","0","0","30","30","0","0","0","30","30","0","0","0","30","30","NA","30","30","Fri Sep  8 13:58:26 2023","1500","The main experiment item","True","Flanker Task Lab 2.2.osexp","C:\Users\kikip\OneDrive\Desktop","False","mono","False","18","no","white","no","yes","768","legacy","30","30","C:/Users/kikip/OneDrive/Desktop/HB-subject-1.csv","legacy","Melodramatic Milgram","4.0.5","0","s","NA","NA","s","NA","NA","s","NA","409.0","NA","NA","10034","NA","NA","409","NA","2","legacy","1024","2","48000","-16","experiment","SSSSS","1","odd","12689","NA","27677","63854","NA","NA","2645","NA","64889","2653","NA","NA","64990","65400","NA","64888","64990","Neues Experiment","30","17261.0","31","1024"
"96","96","560","560","#3d3846","legacy","legacy","legacy","incongruent","1","undefined","1","h","0","0","31","31","0","0","0","31","31","0","0","0","31","31","NA","31","31","Fri Sep  8 13:58:26 2023","1500","The main experiment item","True","Flanker Task Lab 2.2.osexp","C:\Users\kikip\OneDrive\Desktop","False","mono","False","18","no","white","no","yes","768","legacy","31","31","C:/Users/kikip/OneDrive/Desktop/HB-subject-1.csv","legacy","Melodramatic Milgram","4.0.5","0","h","NA","NA","s","NA","NA","h","NA","671.0","NA","NA","10034","NA","NA","671","NA","2","legacy","1024","2","48000","-16","experiment","SSHSS","1","odd","12689","NA","27677","65403","NA","NA","2645","NA","66447","2653","NA","NA","66548","67220","NA","66445","66548","Neues Experiment","31","17932.0","32","1024"
"96","96","559","559","#3d3846","legacy","legacy","legacy","incongruent","1","undefined","1","s","0","0","32","32","0","0","0","32","32","0","0","0","32","32","NA","32","32","Fri Sep  8 13:58:26 2023","1500","The main experiment item","True","Flanker Task Lab 2.2.osexp","C:\Users\kikip\OneDrive\Desktop","False","mono","False","18","no","white","no","yes","768","legacy","32","32","C:/Users/kikip/OneDrive/Desktop/HB-subject-1.csv","legacy","Melodramatic Milgram","4.0.5","0","s","NA","NA","s","NA","NA","s","NA","523.0","NA","NA","10034","NA","NA","523","NA","2","legacy","1024","2","48000","-16","experiment","HHSHH","1","odd","12689","NA","27677","67223","NA","NA","2645","NA","68260","2653","NA","NA","68361","68884","NA","68258","68361","Neues Experiment","32","18455.0","33","1024"
"97","97","556","556","#3d3846","legacy","legacy","legacy","congruent","1","undefined","1","s","0","0","33","33","0","0","0","33","33","0","0","0","33","33","NA","33","33","Fri Sep  8 13:58:26 2023","1500","The main experiment item","True","Flanker Task Lab 2.2.osexp","C:\Users\kikip\OneDrive\Desktop","False","mono","False","18","no","white","no","yes","768","legacy","33","33","C:/Users/kikip/OneDrive/Desktop/HB-subject-1.csv","legacy","Melodramatic Milgram","4.0.5","0","s","NA","NA","s","NA","NA","s","NA","455.0","NA","NA","10034","NA","NA","455","NA","2","legacy","1024","2","48000","-16","experiment","SSSSS","1","odd","12689","NA","27677","68887","NA","NA","2645","NA","69963","2653","NA","NA","70064","70519","NA","69961","70064","Neues Experiment","33","18910.0","34","1024"
"97","97","556","556","#3d3846","legacy","legacy","legacy","incongruent","1","undefined","1","h","0","0","34","34","0","0","0","34","34","0","0","0","34","34","NA","34","34","Fri Sep  8 13:58:26 2023","1500","The main experiment item","True","Flanker Task Lab 2.2.osexp","C:\Users\kikip\OneDrive\Desktop","False","mono","False","18","no","white","no","yes","768","legacy","34","34","C:/Users/kikip/OneDrive/Desktop/HB-subject-1.csv","legacy","Melodramatic Milgram","4.0.5","0","h","NA","NA","s","NA","NA","h","NA","552.0","NA","NA","10034","NA","NA","552","NA","2","legacy","1024","2","48000","-16","experiment","SSHSS","1","odd","12689","NA","27677","70523","NA","NA","2645","NA","71561","2653","NA","NA","71662","72215","NA","71559","71662","Neues Experiment","34","19462.0","35","1024"
"97","97","552","552","#3d3846","legacy","legacy","legacy","congruent","1","undefined","1","s","0","0","35","35","0","0","0","35","35","0","0","0","35","35","NA","35","35","Fri Sep  8 13:58:26 2023","1500","The main experiment item","True","Flanker Task Lab 2.2.osexp","C:\Users\kikip\OneDrive\Desktop","False","mono","False","18","no","white","no","yes","768","legacy","35","35","C:/Users/kikip/OneDrive/Desktop/HB-subject-1.csv","legacy","Melodramatic Milgram","4.0.5","0","s","NA","NA","s","NA","NA","s","NA","428.0","NA","NA","10034","NA","NA","428","NA","2","legacy","1024","2","48000","-16","experiment","SSSSS","1","odd","12689","NA","27677","72218","NA","NA","2645","NA","73253","2653","NA","NA","73354","73783","NA","73251","73354","Neues Experiment","35","19890.0","36","1024"
"97","97","548","548","#3d3846","legacy","legacy","legacy","coongruent","1","undefined","1","h","0","0","36","36","0","0","0","36","36","0","0","0","36","36","NA","36","36","Fri Sep  8 13:58:26 2023","1500","The main experiment item","True","Flanker Task Lab 2.2.osexp","C:\Users\kikip\OneDrive\Desktop","False","mono","False","18","no","white","no","yes","768","legacy","36","36","C:/Users/kikip/OneDrive/Desktop/HB-subject-1.csv","legacy","Melodramatic Milgram","4.0.5","0","h","NA","NA","s","NA","NA","h","NA","393.0","NA","NA","10034","NA","NA","393","NA","2","legacy","1024","2","48000","-16","experiment","HHHHH","1","odd","12689","NA","27677","73786","NA","NA","2645","NA","74824","2653","NA","NA","74925","75319","NA","74822","74925","Neues Experiment","36","20283.0","37","1024"
"97","97","544","544","#3d3846","legacy","legacy","legacy","congruent","1","undefined","1","s","0","0","37","37","0","0","0","37","37","0","0","0","37","37","NA","37","37","Fri Sep  8 13:58:26 2023","1500","The main experiment item","True","Flanker Task Lab 2.2.osexp","C:\Users\kikip\OneDrive\Desktop","False","mono","False","18","no","white","no","yes","768","legacy","37","37","C:/Users/kikip/OneDrive/Desktop/HB-subject-1.csv","legacy","Melodramatic Milgram","4.0.5","0","s","NA","NA","s","NA","NA","s","NA","412.0","NA","NA","10034","NA","NA","412","NA","2","legacy","1024","2","48000","-16","experiment","SSSSS","1","odd","12689","NA","27677","75322","NA","NA","2645","NA","76364","2653","NA","NA","76465","76878","NA","76362","76465","Neues Experiment","37","20695.0","38","1024"
"97","97","540","540","#3d3846","legacy","legacy","legacy","congruent","1","undefined","1","s","0","0","38","38","0","0","0","38","38","0","0","0","38","38","NA","38","38","Fri Sep  8 13:58:26 2023","1500","The main experiment item","True","Flanker Task Lab 2.2.osexp","C:\Users\kikip\OneDrive\Desktop","False","mono","False","18","no","white","no","yes","768","legacy","38","38","C:/Users/kikip/OneDrive/Desktop/HB-subject-1.csv","legacy","Melodramatic Milgram","4.0.5","0","s","NA","NA","s","NA","NA","s","NA","366.0","NA","NA","10034","NA","NA","366","NA","2","legacy","1024","2","48000","-16","experiment","SSSSS","1","odd","12689","NA","27677","76989","NA","NA","2645","NA","78035","2653","NA","NA","78136","78503","NA","78033","78136","Neues Experiment","38","21061.0","39","1024"
"97","97","537","537","#3d3846","legacy","legacy","legacy","congruent","1","undefined","1","s","0","0","39","39","0","0","0","39","39","0","0","0","39","39","NA","39","39","Fri Sep  8 13:58:26 2023","1500","The main experiment item","True","Flanker Task Lab 2.2.osexp","C:\Users\kikip\OneDrive\Desktop","False","mono","False","18","no","white","no","yes","768","legacy","39","39","C:/Users/kikip/OneDrive/Desktop/HB-subject-1.csv","legacy","Melodramatic Milgram","4.0.5","0","s","NA","NA","s","NA","NA","s","NA","421.0","NA","NA","10034","NA","NA","421","NA","2","legacy","1024","2","48000","-16","experiment","SSSSS","1","odd","12689","NA","27677","78506","NA","NA","2645","NA","79545","2653","NA","NA","79646","80068","NA","79543","79646","Neues Experiment","39","21482.0","40","1024"
"95","95","532","532","#3d3846","legacy","legacy","legacy","incongruent","0","undefined","0","s","0","0","40","40","0","0","0","40","40","0","0","0","40","40","NA","40","40","Fri Sep  8 13:58:26 2023","1500","The main experiment item","True","Flanker Task Lab 2.2.osexp","C:\Users\kikip\OneDrive\Desktop","False","mono","False","18","no","white","no","yes","768","legacy","40","40","C:/Users/kikip/OneDrive/Desktop/HB-subject-1.csv","legacy","Melodramatic Milgram","4.0.5","0","h","NA","NA","s","NA","NA","h","NA","364.0","NA","NA","10034","NA","NA","364","NA","2","legacy","1024","2","48000","-16","experiment","HHSHH","1","odd","12689","NA","27677","80070","NA","NA","2645","NA","81131","2653","NA","NA","81232","81597","NA","81130","81232","Neues Experiment","39","21846.0","41","1024"
"95","95","538","538","#3d3846","legacy","legacy","legacy","incongruent","1","undefined","1","h","0","0","41","41","0","0","0","41","41","0","0","0","41","41","NA","41","41","Fri Sep  8 13:58:26 2023","1500","The main experiment item","True","Flanker Task Lab 2.2.osexp","C:\Users\kikip\OneDrive\Desktop","False","mono","False","18","no","white","no","yes","768","legacy","41","41","C:/Users/kikip/OneDrive/Desktop/HB-subject-1.csv","legacy","Melodramatic Milgram","4.0.5","0","h","NA","NA","s","NA","NA","h","NA","751.0","NA","NA","10034","NA","NA","751","NA","2","legacy","1024","2","48000","-16","experiment","SSHSS","1","odd","12689","NA","81600","82101","NA","NA","2645","NA","83153","2653","NA","NA","83254","84006","NA","83151","83254","Neues Experiment","40","22597.0","42","1024"
"95","95","537","537","#3d3846","legacy","legacy","legacy","incongruent","1","undefined","1","s","0","0","42","42","0","0","0","42","42","0","0","0","42","42","NA","42","42","Fri Sep  8 13:58:26 2023","1500","The main experiment item","True","Flanker Task Lab 2.2.osexp","C:\Users\kikip\OneDrive\Desktop","False","mono","False","18","no","white","no","yes","768","legacy","42","42","C:/Users/kikip/OneDrive/Desktop/HB-subject-1.csv","legacy","Melodramatic Milgram","4.0.5","0","s","NA","NA","s","NA","NA","s","NA","512.0","NA","NA","10034","NA","NA","512","NA","2","legacy","1024","2","48000","-16","experiment","HHSHH","1","odd","12689","NA","81600","84009","NA","NA","2645","NA","85077","2653","NA","NA","85178","85691","NA","85075","85178","Neues Experiment","41","23109.0","43","1024"
"95","95","537","537","#3d3846","legacy","legacy","legacy","congruent","1","undefined","1","s","0","0","43","43","0","0","0","43","43","0","0","0","43","43","NA","43","43","Fri Sep  8 13:58:26 2023","1500","The main experiment item","True","Flanker Task Lab 2.2.osexp","C:\Users\kikip\OneDrive\Desktop","False","mono","False","18","no","white","no","yes","768","legacy","43","43","C:/Users/kikip/OneDrive/Desktop/HB-subject-1.csv","legacy","Melodramatic Milgram","4.0.5","0","s","NA","NA","s","NA","NA","s","NA","552.0","NA","NA","10034","NA","NA","552","NA","2","legacy","1024","2","48000","-16","experiment","SSSSS","1","odd","12689","NA","81600","85693","NA","NA","2645","NA","86731","2653","NA","NA","86832","87385","NA","86729","86832","Neues Experiment","42","23661.0","44","1024"
"95","95","535","535","#3d3846","legacy","legacy","legacy","incongruent","1","undefined","1","s","0","0","44","44","0","0","0","44","44","0","0","0","44","44","NA","44","44","Fri Sep  8 13:58:26 2023","1500","The main experiment item","True","Flanker Task Lab 2.2.osexp","C:\Users\kikip\OneDrive\Desktop","False","mono","False","18","no","white","no","yes","768","legacy","44","44","C:/Users/kikip/OneDrive/Desktop/HB-subject-1.csv","legacy","Melodramatic Milgram","4.0.5","0","s","NA","NA","s","NA","NA","s","NA","438.0","NA","NA","10034","NA","NA","438","NA","2","legacy","1024","2","48000","-16","experiment","HHSHH","1","odd","12689","NA","81600","87388","NA","NA","2645","NA","88455","2653","NA","NA","88556","88995","NA","88453","88556","Neues Experiment","43","24099.0","45","1024"
"95","95","531","531","#3d3846","legacy","legacy","legacy","coongruent","1","undefined","1","h","0","0","45","45","0","0","0","45","45","0","0","0","45","45","NA","45","45","Fri Sep  8 13:58:26 2023","1500","The main experiment item","True","Flanker Task Lab 2.2.osexp","C:\Users\kikip\OneDrive\Desktop","False","mono","False","18","no","white","no","yes","768","legacy","45","45","C:/Users/kikip/OneDrive/Desktop/HB-subject-1.csv","legacy","Melodramatic Milgram","4.0.5","0","h","NA","NA","s","NA","NA","h","NA","369.0","NA","NA","10034","NA","NA","369","NA","2","legacy","1024","2","48000","-16","experiment","HHHHH","1","odd","12689","NA","81600","88998","NA","NA","2645","NA","90068","2653","NA","NA","90169","90539","NA","90066","90169","Neues Experiment","44","24468.0","46","1024"
"95","95","531","531","#3d3846","legacy","legacy","legacy","coongruent","1","undefined","1","h","0","0","46","46","0","0","0","46","46","0","0","0","46","46","NA","46","46","Fri Sep  8 13:58:26 2023","1500","The main experiment item","True","Flanker Task Lab 2.2.osexp","C:\Users\kikip\OneDrive\Desktop","False","mono","False","18","no","white","no","yes","768","legacy","46","46","C:/Users/kikip/OneDrive/Desktop/HB-subject-1.csv","legacy","Melodramatic Milgram","4.0.5","0","h","NA","NA","s","NA","NA","h","NA","496.0","NA","NA","10034","NA","NA","496","NA","2","legacy","1024","2","48000","-16","experiment","HHHHH","1","odd","12689","NA","81600","90542","NA","NA","2645","NA","91601","2653","NA","NA","91702","92199","NA","91599","91702","Neues Experiment","45","24964.0","47","1024"
"95","95","529","529","#3d3846","legacy","legacy","legacy","incongruent","1","undefined","1","s","0","0","47","47","0","0","0","47","47","0","0","0","47","47","NA","47","47","Fri Sep  8 13:58:26 2023","1500","The main experiment item","True","Flanker Task Lab 2.2.osexp","C:\Users\kikip\OneDrive\Desktop","False","mono","False","18","no","white","no","yes","768","legacy","47","47","C:/Users/kikip/OneDrive/Desktop/HB-subject-1.csv","legacy","Melodramatic Milgram","4.0.5","0","s","NA","NA","s","NA","NA","s","NA","467.0","NA","NA","10034","NA","NA","467","NA","2","legacy","1024","2","48000","-16","experiment","HHSHH","1","odd","12689","NA","81600","92202","NA","NA","2645","NA","93255","2653","NA","NA","93356","93824","NA","93253","93356","Neues Experiment","46","25431.0","48","1024"
"95","95","530","530","#3d3846","legacy","legacy","legacy","incongruent","1","undefined","1","h","0","0","48","48","0","0","0","48","48","0","0","0","48","48","NA","48","48","Fri Sep  8 13:58:26 2023","1500","The main experiment item","True","Flanker Task Lab 2.2.osexp","C:\Users\kikip\OneDrive\Desktop","False","mono","False","18","no","white","no","yes","768","legacy","48","48","C:/Users/kikip/OneDrive/Desktop/HB-subject-1.csv","legacy","Melodramatic Milgram","4.0.5","0","h","NA","NA","s","NA","NA","h","NA","542.0","NA","NA","10034","NA","NA","542","NA","2","legacy","1024","2","48000","-16","experiment","SSHSS","1","odd","12689","NA","81600","93828","NA","NA","2645","NA","94880","2653","NA","NA","94981","95524","NA","94879","94981","Neues Experiment","47","25973.0","49","1024"
"96","96","530","530","#3d3846","legacy","legacy","legacy","congruent","1","undefined","1","s","0","0","49","49","0","0","0","49","49","0","0","0","49","49","NA","49","49","Fri Sep  8 13:58:26 2023","1500","The main experiment item","True","Flanker Task Lab 2.2.osexp","C:\Users\kikip\OneDrive\Desktop","False","mono","False","18","no","white","no","yes","768","legacy","49","49","C:/Users/kikip/OneDrive/Desktop/HB-subject-1.csv","legacy","Melodramatic Milgram","4.0.5","0","s","NA","NA","s","NA","NA","s","NA","553.0","NA","NA","10034","NA","NA","553","NA","2","legacy","1024","2","48000","-16","experiment","SSSSS","1","odd","12689","NA","81600","95530","NA","NA","2645","NA","96584","2653","NA","NA","96685","97239","NA","96582","96685","Neues Experiment","48","26526.0","50","1024"
"96","96","528","528","#3d3846","legacy","legacy","legacy","coongruent","1","undefined","1","h","0","0","50","50","0","0","0","50","50","0","0","0","50","50","NA","50","50","Fri Sep  8 13:58:26 2023","1500","The main experiment item","True","Flanker Task Lab 2.2.osexp","C:\Users\kikip\OneDrive\Desktop","False","mono","False","18","no","white","no","yes","768","legacy","50","50","C:/Users/kikip/OneDrive/Desktop/HB-subject-1.csv","legacy","Melodramatic Milgram","4.0.5","0","h","NA","NA","s","NA","NA","h","NA","432.0","NA","NA","10034","NA","NA","432","NA","2","legacy","1024","2","48000","-16","experiment","HHHHH","1","odd","12689","NA","81600","97242","NA","NA","2645","NA","98319","2653","NA","NA","98420","98853","NA","98315","98420","Neues Experiment","49","26958.0","51","1024"
"96","96","532","532","#3d3846","legacy","legacy","legacy","incongruent","1","undefined","1","s","0","0","51","51","0","0","0","51","51","0","0","0","51","51","NA","51","51","Fri Sep  8 13:58:26 2023","1500","The main experiment item","True","Flanker Task Lab 2.2.osexp","C:\Users\kikip\OneDrive\Desktop","False","mono","False","18","no","white","no","yes","768","legacy","51","51","C:/Users/kikip/OneDrive/Desktop/HB-subject-1.csv","legacy","Melodramatic Milgram","4.0.5","0","s","NA","NA","s","NA","NA","s","NA","757.0","NA","NA","10034","NA","NA","757","NA","2","legacy","1024","2","48000","-16","experiment","HHSHH","1","odd","12689","NA","81600","98855","NA","NA","2645","NA","99915","2653","NA","NA","100016","100774","NA","99913","100016","Neues Experiment","50","27715.0","52","1024"
"96","96","531","531","#3d3846","legacy","legacy","legacy","congruent","1","undefined","1","s","0","0","52","52","0","0","0","52","52","0","0","0","52","52","NA","52","52","Fri Sep  8 13:58:26 2023","1500","The main experiment item","True","Flanker Task Lab 2.2.osexp","C:\Users\kikip\OneDrive\Desktop","False","mono","False","18","no","white","no","yes","768","legacy","52","52","C:/Users/kikip/OneDrive/Desktop/HB-subject-1.csv","legacy","Melodramatic Milgram","4.0.5","0","s","NA","NA","s","NA","NA","s","NA","441.0","NA","NA","10034","NA","NA","441","NA","2","legacy","1024","2","48000","-16","experiment","SSSSS","1","odd","12689","NA","81600","100777","NA","NA","2645","NA","101814","2653","NA","NA","101915","102357","NA","101812","101915","Neues Experiment","51","28156.0","53","1024"
"96","96","529","529","#3d3846","legacy","legacy","legacy","coongruent","1","undefined","1","h","0","0","53","53","0","0","0","53","53","0","0","0","53","53","NA","53","53","Fri Sep  8 13:58:26 2023","1500","The main experiment item","True","Flanker Task Lab 2.2.osexp","C:\Users\kikip\OneDrive\Desktop","False","mono","False","18","no","white","no","yes","768","legacy","53","53","C:/Users/kikip/OneDrive/Desktop/HB-subject-1.csv","legacy","Melodramatic Milgram","4.0.5","0","h","NA","NA","s","NA","NA","h","NA","457.0","NA","NA","10034","NA","NA","457","NA","2","legacy","1024","2","48000","-16","experiment","HHHHH","1","odd","12689","NA","81600","102361","NA","NA","2645","NA","103404","2653","NA","NA","103505","103963","NA","103402","103505","Neues Experiment","52","28613.0","54","1024"
"96","96","528","528","#3d3846","legacy","legacy","legacy","congruent","1","undefined","1","s","0","0","54","54","0","0","0","54","54","0","0","0","54","54","NA","54","54","Fri Sep  8 13:58:26 2023","1500","The main experiment item","True","Flanker Task Lab 2.2.osexp","C:\Users\kikip\OneDrive\Desktop","False","mono","False","18","no","white","no","yes","768","legacy","54","54","C:/Users/kikip/OneDrive/Desktop/HB-subject-1.csv","legacy","Melodramatic Milgram","4.0.5","0","s","NA","NA","s","NA","NA","s","NA","472.0","NA","NA","10034","NA","NA","472","NA","2","legacy","1024","2","48000","-16","experiment","SSSSS","1","odd","12689","NA","81600","103965","NA","NA","2645","NA","105009","2653","NA","NA","105110","105583","NA","105008","105110","Neues Experiment","53","29085.0","55","1024"
"96","96","526","526","#3d3846","legacy","legacy","legacy","coongruent","1","undefined","1","h","0","0","55","55","0","0","0","55","55","0","0","0","55","55","NA","55","55","Fri Sep  8 13:58:26 2023","1500","The main experiment item","True","Flanker Task Lab 2.2.osexp","C:\Users\kikip\OneDrive\Desktop","False","mono","False","18","no","white","no","yes","768","legacy","55","55","C:/Users/kikip/OneDrive/Desktop/HB-subject-1.csv","legacy","Melodramatic Milgram","4.0.5","0","h","NA","NA","s","NA","NA","h","NA","400.0","NA","NA","10034","NA","NA","400","NA","2","legacy","1024","2","48000","-16","experiment","HHHHH","1","odd","12689","NA","81600","105586","NA","NA","2645","NA","106629","2653","NA","NA","106730","107131","NA","106627","106730","Neues Experiment","54","29485.0","56","1024"
"96","96","524","524","#3d3846","legacy","legacy","legacy","incongruent","1","undefined","1","s","0","0","56","56","0","0","0","56","56","0","0","0","56","56","NA","56","56","Fri Sep  8 13:58:26 2023","1500","The main experiment item","True","Flanker Task Lab 2.2.osexp","C:\Users\kikip\OneDrive\Desktop","False","mono","False","18","no","white","no","yes","768","legacy","56","56","C:/Users/kikip/OneDrive/Desktop/HB-subject-1.csv","legacy","Melodramatic Milgram","4.0.5","0","s","NA","NA","s","NA","NA","s","NA","420.0","NA","NA","10034","NA","NA","420","NA","2","legacy","1024","2","48000","-16","experiment","HHSHH","1","odd","12689","NA","81600","107134","NA","NA","2645","NA","108179","2653","NA","NA","108280","108701","NA","108177","108280","Neues Experiment","55","29905.0","57","1024"
"96","96","524","524","#3d3846","legacy","legacy","legacy","congruent","1","undefined","1","s","0","0","57","57","0","0","0","57","57","0","0","0","57","57","NA","57","57","Fri Sep  8 13:58:26 2023","1500","The main experiment item","True","Flanker Task Lab 2.2.osexp","C:\Users\kikip\OneDrive\Desktop","False","mono","False","18","no","white","no","yes","768","legacy","57","57","C:/Users/kikip/OneDrive/Desktop/HB-subject-1.csv","legacy","Melodramatic Milgram","4.0.5","0","s","NA","NA","s","NA","NA","s","NA","495.0","NA","NA","10034","NA","NA","495","NA","2","legacy","1024","2","48000","-16","experiment","SSSSS","1","odd","12689","NA","81600","108705","NA","NA","2645","NA","109755","2653","NA","NA","109856","110352","NA","109753","109856","Neues Experiment","56","30400.0","58","1024"
"96","96","521","521","#3d3846","legacy","legacy","legacy","congruent","1","undefined","1","s","0","0","58","58","0","0","0","58","58","0","0","0","58","58","NA","58","58","Fri Sep  8 13:58:26 2023","1500","The main experiment item","True","Flanker Task Lab 2.2.osexp","C:\Users\kikip\OneDrive\Desktop","False","mono","False","18","no","white","no","yes","768","legacy","58","58","C:/Users/kikip/OneDrive/Desktop/HB-subject-1.csv","legacy","Melodramatic Milgram","4.0.5","0","s","NA","NA","s","NA","NA","s","NA","357.0","NA","NA","10034","NA","NA","357","NA","2","legacy","1024","2","48000","-16","experiment","SSSSS","1","odd","12689","NA","81600","110357","NA","NA","2645","NA","111392","2653","NA","NA","111493","111852","NA","111391","111493","Neues Experiment","57","30757.0","59","1024"
"96","96","519","519","#3d3846","legacy","legacy","legacy","congruent","1","undefined","1","s","0","0","59","59","0","0","0","59","59","0","0","0","59","59","NA","59","59","Fri Sep  8 13:58:26 2023","1500","The main experiment item","True","Flanker Task Lab 2.2.osexp","C:\Users\kikip\OneDrive\Desktop","False","mono","False","18","no","white","no","yes","768","legacy","59","59","C:/Users/kikip/OneDrive/Desktop/HB-subject-1.csv","legacy","Melodramatic Milgram","4.0.5","0","s","NA","NA","s","NA","NA","s","NA","419.0","NA","NA","10034","NA","NA","419","NA","2","legacy","1024","2","48000","-16","experiment","SSSSS","1","odd","12689","NA","81600","111859","NA","NA","2645","NA","112905","2653","NA","NA","113006","113426","NA","112903","113006","Neues Experiment","58","31176.0","60","1024"
"96","96","517","517","#3d3846","legacy","legacy","legacy","incongruent","1","undefined","1","s","0","0","60","60","0","0","0","60","60","0","0","0","60","60","NA","60","60","Fri Sep  8 13:58:26 2023","1500","The main experiment item","True","Flanker Task Lab 2.2.osexp","C:\Users\kikip\OneDrive\Desktop","False","mono","False","18","no","white","no","yes","768","legacy","60","60","C:/Users/kikip/OneDrive/Desktop/HB-subject-1.csv","legacy","Melodramatic Milgram","4.0.5","0","s","NA","NA","s","NA","NA","s","NA","413.0","NA","NA","10034","NA","NA","413","NA","2","legacy","1024","2","48000","-16","experiment","HHSHH","1","odd","12689","NA","81600","113430","NA","NA","2645","NA","114539","2653","NA","NA","114641","115055","NA","114537","114641","Neues Experiment","59","31589.0","61","1024"
"96","96","515","515","#3d3846","legacy","legacy","legacy","incongruent","1","undefined","1","s","0","0","61","61","0","0","0","61","61","0","0","0","61","61","NA","61","61","Fri Sep  8 13:58:26 2023","1500","The main experiment item","True","Flanker Task Lab 2.2.osexp","C:\Users\kikip\OneDrive\Desktop","False","mono","False","18","no","white","no","yes","768","legacy","61","61","C:/Users/kikip/OneDrive/Desktop/HB-subject-1.csv","legacy","Melodramatic Milgram","4.0.5","0","s","NA","NA","s","NA","NA","s","NA","377.0","NA","NA","10034","NA","NA","377","NA","2","legacy","1024","2","48000","-16","experiment","HHSHH","1","odd","12689","NA","81600","115059","NA","NA","2645","NA","116105","2653","NA","NA","116206","116585","NA","116103","116206","Neues Experiment","60","31966.0","62","1024"
"96","96","517","517","#3d3846","legacy","legacy","legacy","coongruent","1","undefined","1","h","0","0","62","62","0","0","0","62","62","0","0","0","62","62","NA","62","62","Fri Sep  8 13:58:26 2023","1500","The main experiment item","True","Flanker Task Lab 2.2.osexp","C:\Users\kikip\OneDrive\Desktop","False","mono","False","18","no","white","no","yes","768","legacy","62","62","C:/Users/kikip/OneDrive/Desktop/HB-subject-1.csv","legacy","Melodramatic Milgram","4.0.5","0","h","NA","NA","s","NA","NA","h","NA","637.0","NA","NA","10034","NA","NA","637","NA","2","legacy","1024","2","48000","-16","experiment","HHHHH","1","odd","12689","NA","81600","116588","NA","NA","2645","NA","117626","2653","NA","NA","117727","118366","NA","117624","117727","Neues Experiment","61","32603.0","63","1024"
"96","96","516","516","#3d3846","legacy","legacy","legacy","incongruent","1","undefined","1","s","0","0","63","63","0","0","0","63","63","0","0","0","63","63","NA","63","63","Fri Sep  8 13:58:26 2023","1500","The main experiment item","True","Flanker Task Lab 2.2.osexp","C:\Users\kikip\OneDrive\Desktop","False","mono","False","18","no","white","no","yes","768","legacy","63","63","C:/Users/kikip/OneDrive/Desktop/HB-subject-1.csv","legacy","Melodramatic Milgram","4.0.5","0","s","NA","NA","s","NA","NA","s","NA","452.0","NA","NA","10034","NA","NA","452","NA","2","legacy","1024","2","48000","-16","experiment","HHSHH","1","odd","12689","NA","81600","118369","NA","NA","2645","NA","119404","2653","NA","NA","119505","119958","NA","119402","119505","Neues Experiment","62","33055.0","64","1024"
"96","96","518","518","#3d3846","legacy","legacy","legacy","incongruent","1","undefined","1","h","0","0","64","64","0","0","0","64","64","0","0","0","64","64","NA","64","64","Fri Sep  8 13:58:26 2023","1500","The main experiment item","True","Flanker Task Lab 2.2.osexp","C:\Users\kikip\OneDrive\Desktop","False","mono","False","18","no","white","no","yes","768","legacy","64","64","C:/Users/kikip/OneDrive/Desktop/HB-subject-1.csv","legacy","Melodramatic Milgram","4.0.5","0","h","NA","NA","s","NA","NA","h","NA","649.0","NA","NA","10034","NA","NA","649","NA","2","legacy","1024","2","48000","-16","experiment","SSHSS","1","odd","12689","NA","81600","119961","NA","NA","2645","NA","121002","2653","NA","NA","121103","121753","NA","121000","121103","Neues Experiment","63","33704.0","65","1024"
"96","96","518","518","#3d3846","legacy","legacy","legacy","incongruent","1","undefined","1","h","0","0","65","65","0","0","0","65","65","0","0","0","65","65","NA","65","65","Fri Sep  8 13:58:26 2023","1500","The main experiment item","True","Flanker Task Lab 2.2.osexp","C:\Users\kikip\OneDrive\Desktop","False","mono","False","18","no","white","no","yes","768","legacy","65","65","C:/Users/kikip/OneDrive/Desktop/HB-subject-1.csv","legacy","Melodramatic Milgram","4.0.5","0","h","NA","NA","s","NA","NA","h","NA","530.0","NA","NA","10034","NA","NA","530","NA","2","legacy","1024","2","48000","-16","experiment","SSHSS","1","odd","12689","NA","81600","121758","NA","NA","2645","NA","122796","2653","NA","NA","122897","123428","NA","122794","122897","Neues Experiment","64","34234.0","66","1024"
"97","97","517","517","#3d3846","legacy","legacy","legacy","congruent","1","undefined","1","s","0","0","66","66","0","0","0","66","66","0","0","0","66","66","NA","66","66","Fri Sep  8 13:58:26 2023","1500","The main experiment item","True","Flanker Task Lab 2.2.osexp","C:\Users\kikip\OneDrive\Desktop","False","mono","False","18","no","white","no","yes","768","legacy","66","66","C:/Users/kikip/OneDrive/Desktop/HB-subject-1.csv","legacy","Melodramatic Milgram","4.0.5","0","s","NA","NA","s","NA","NA","s","NA","443.0","NA","NA","10034","NA","NA","443","NA","2","legacy","1024","2","48000","-16","experiment","SSSSS","1","odd","12689","NA","81600","123432","NA","NA","2645","NA","124487","2653","NA","NA","124588","125033","NA","124485","124588","Neues Experiment","65","34677.0","67","1024"
"97","97","516","516","#3d3846","legacy","legacy","legacy","congruent","1","undefined","1","s","0","0","67","67","0","0","0","67","67","0","0","0","67","67","NA","67","67","Fri Sep  8 13:58:26 2023","1500","The main experiment item","True","Flanker Task Lab 2.2.osexp","C:\Users\kikip\OneDrive\Desktop","False","mono","False","18","no","white","no","yes","768","legacy","67","67","C:/Users/kikip/OneDrive/Desktop/HB-subject-1.csv","legacy","Melodramatic Milgram","4.0.5","0","s","NA","NA","s","NA","NA","s","NA","423.0","NA","NA","10034","NA","NA","423","NA","2","legacy","1024","2","48000","-16","experiment","SSSSS","1","odd","12689","NA","81600","125036","NA","NA","2645","NA","126078","2653","NA","NA","126179","126603","NA","126076","126179","Neues Experiment","66","35100.0","68","1024"
"97","97","516","516","#3d3846","legacy","legacy","legacy","incongruent","1","undefined","1","h","0","0","68","68","0","0","0","68","68","0","0","0","68","68","NA","68","68","Fri Sep  8 13:58:26 2023","1500","The main experiment item","True","Flanker Task Lab 2.2.osexp","C:\Users\kikip\OneDrive\Desktop","False","mono","False","18","no","white","no","yes","768","legacy","68","68","C:/Users/kikip/OneDrive/Desktop/HB-subject-1.csv","legacy","Melodramatic Milgram","4.0.5","0","h","NA","NA","s","NA","NA","h","NA","512.0","NA","NA","10034","NA","NA","512","NA","2","legacy","1024","2","48000","-16","experiment","SSHSS","1","odd","12689","NA","81600","126609","NA","NA","2645","NA","127663","2653","NA","NA","127764","128277","NA","127661","127764","Neues Experiment","67","35612.0","69","1024"
"97","97","516","516","#3d3846","legacy","legacy","legacy","coongruent","1","undefined","1","h","0","0","69","69","0","0","0","69","69","0","0","0","69","69","NA","69","69","Fri Sep  8 13:58:26 2023","1500","The main experiment item","True","Flanker Task Lab 2.2.osexp","C:\Users\kikip\OneDrive\Desktop","False","mono","False","18","no","white","no","yes","768","legacy","69","69","C:/Users/kikip/OneDrive/Desktop/HB-subject-1.csv","legacy","Melodramatic Milgram","4.0.5","0","h","NA","NA","s","NA","NA","h","NA","536.0","NA","NA","10034","NA","NA","536","NA","2","legacy","1024","2","48000","-16","experiment","HHHHH","1","odd","12689","NA","81600","128280","NA","NA","2645","NA","129357","2653","NA","NA","129459","129997","NA","129354","129458","Neues Experiment","68","36148.0","70","1024"
"97","97","517","517","#3d3846","legacy","legacy","legacy","incongruent","1","undefined","1","h","0","0","70","70","0","0","0","70","70","0","0","0","70","70","NA","70","70","Fri Sep  8 13:58:26 2023","1500","The main experiment item","True","Flanker Task Lab 2.2.osexp","C:\Users\kikip\OneDrive\Desktop","False","mono","False","18","no","white","no","yes","768","legacy","70","70","C:/Users/kikip/OneDrive/Desktop/HB-subject-1.csv","legacy","Melodramatic Milgram","4.0.5","0","h","NA","NA","s","NA","NA","h","NA","621.0","NA","NA","10034","NA","NA","621","NA","2","legacy","1024","2","48000","-16","experiment","SSHSS","1","odd","12689","NA","81600","130001","NA","NA","2645","NA","131043","2653","NA","NA","131144","131766","NA","131041","131144","Neues Experiment","69","36769.0","71","1024"
"97","97","517","517","#3d3846","legacy","legacy","legacy","congruent","1","undefined","1","s","0","0","71","71","0","0","0","71","71","0","0","0","71","71","NA","71","71","Fri Sep  8 13:58:26 2023","1500","The main experiment item","True","Flanker Task Lab 2.2.osexp","C:\Users\kikip\OneDrive\Desktop","False","mono","False","18","no","white","no","yes","768","legacy","71","71","C:/Users/kikip/OneDrive/Desktop/HB-subject-1.csv","legacy","Melodramatic Milgram","4.0.5","0","s","NA","NA","s","NA","NA","s","NA","499.0","NA","NA","10034","NA","NA","499","NA","2","legacy","1024","2","48000","-16","experiment","SSSSS","1","odd","12689","NA","81600","131770","NA","NA","2645","NA","132820","2653","NA","NA","132921","133421","NA","132819","132921","Neues Experiment","70","37268.0","72","1024"
"97","97","515","515","#3d3846","legacy","legacy","legacy","coongruent","1","undefined","1","h","0","0","72","72","0","0","0","72","72","0","0","0","72","72","NA","72","72","Fri Sep  8 13:58:26 2023","1500","The main experiment item","True","Flanker Task Lab 2.2.osexp","C:\Users\kikip\OneDrive\Desktop","False","mono","False","18","no","white","no","yes","768","legacy","72","72","C:/Users/kikip/OneDrive/Desktop/HB-subject-1.csv","legacy","Melodramatic Milgram","4.0.5","0","h","NA","NA","s","NA","NA","h","NA","379.0","NA","NA","10034","NA","NA","379","NA","2","legacy","1024","2","48000","-16","experiment","HHHHH","1","odd","12689","NA","81600","133425","NA","NA","2645","NA","134474","2653","NA","NA","134575","134956","NA","134472","134575","Neues Experiment","71","37647.0","73","1024"
"97","97","515","515","#3d3846","legacy","legacy","legacy","incongruent","1","undefined","1","s","0","0","73","73","0","0","0","73","73","0","0","0","73","73","NA","73","73","Fri Sep  8 13:58:26 2023","1500","The main experiment item","True","Flanker Task Lab 2.2.osexp","C:\Users\kikip\OneDrive\Desktop","False","mono","False","18","no","white","no","yes","768","legacy","73","73","C:/Users/kikip/OneDrive/Desktop/HB-subject-1.csv","legacy","Melodramatic Milgram","4.0.5","0","s","NA","NA","s","NA","NA","s","NA","464.0","NA","NA","10034","NA","NA","464","NA","2","legacy","1024","2","48000","-16","experiment","HHSHH","1","odd","12689","NA","81600","134966","NA","NA","2645","NA","136019","2653","NA","NA","136120","136585","NA","136017","136120","Neues Experiment","72","38111.0","74","1024"
"97","97","513","513","#3d3846","legacy","legacy","legacy","incongruent","1","undefined","1","h","0","0","74","74","0","0","0","74","74","0","0","0","74","74","NA","74","74","Fri Sep  8 13:58:26 2023","1500","The main experiment item","True","Flanker Task Lab 2.2.osexp","C:\Users\kikip\OneDrive\Desktop","False","mono","False","18","no","white","no","yes","768","legacy","74","74","C:/Users/kikip/OneDrive/Desktop/HB-subject-1.csv","legacy","Melodramatic Milgram","4.0.5","0","h","NA","NA","s","NA","NA","h","NA","394.0","NA","NA","10034","NA","NA","394","NA","2","legacy","1024","2","48000","-16","experiment","SSHSS","1","odd","12689","NA","81600","136590","NA","NA","2645","NA","137645","2653","NA","NA","137746","138142","NA","137644","137746","Neues Experiment","73","38505.0","75","1024"
"97","97","513","513","#3d3846","legacy","legacy","legacy","incongruent","1","undefined","1","h","0","0","75","75","0","0","0","75","75","0","0","0","75","75","NA","75","75","Fri Sep  8 13:58:26 2023","1500","The main experiment item","True","Flanker Task Lab 2.2.osexp","C:\Users\kikip\OneDrive\Desktop","False","mono","False","18","no","white","no","yes","768","legacy","75","75","C:/Users/kikip/OneDrive/Desktop/HB-subject-1.csv","legacy","Melodramatic Milgram","4.0.5","0","h","NA","NA","s","NA","NA","h","NA","557.0","NA","NA","10034","NA","NA","557","NA","2","legacy","1024","2","48000","-16","experiment","SSHSS","1","odd","12689","NA","81600","138146","NA","NA","2645","NA","139191","2653","NA","NA","139293","139852","NA","139189","139293","Neues Experiment","74","39062.0","76","1024"
"97","97","514","514","#3d3846","legacy","legacy","legacy","coongruent","1","undefined","1","h","0","0","76","76","0","0","0","76","76","0","0","0","76","76","NA","76","76","Fri Sep  8 13:58:26 2023","1500","The main experiment item","True","Flanker Task Lab 2.2.osexp","C:\Users\kikip\OneDrive\Desktop","False","mono","False","18","no","white","no","yes","768","legacy","76","76","C:/Users/kikip/OneDrive/Desktop/HB-subject-1.csv","legacy","Melodramatic Milgram","4.0.5","0","h","NA","NA","s","NA","NA","h","NA","517.0","NA","NA","10034","NA","NA","517","NA","2","legacy","1024","2","48000","-16","experiment","HHHHH","1","odd","12689","NA","81600","139854","NA","NA","2645","NA","140920","2653","NA","NA","141022","141541","NA","140917","141021","Neues Experiment","75","39579.0","77","1024"
"97","97","513","513","#3d3846","legacy","legacy","legacy","incongruent","1","undefined","1","h","0","0","77","77","0","0","0","77","77","0","0","0","77","77","NA","77","77","Fri Sep  8 13:58:26 2023","1500","The main experiment item","True","Flanker Task Lab 2.2.osexp","C:\Users\kikip\OneDrive\Desktop","False","mono","False","18","no","white","no","yes","768","legacy","77","77","C:/Users/kikip/OneDrive/Desktop/HB-subject-1.csv","legacy","Melodramatic Milgram","4.0.5","0","h","NA","NA","s","NA","NA","h","NA","451.0","NA","NA","10034","NA","NA","451","NA","2","legacy","1024","2","48000","-16","experiment","SSHSS","1","odd","12689","NA","81600","141546","NA","NA","2645","NA","142585","2653","NA","NA","142686","143139","NA","142583","142686","Neues Experiment","76","40030.0","78","1024"
"97","97","515","515","#3d3846","legacy","legacy","legacy","coongruent","1","undefined","1","h","0","0","78","78","0","0","0","78","78","0","0","0","78","78","NA","78","78","Fri Sep  8 13:58:26 2023","1500","The main experiment item","True","Flanker Task Lab 2.2.osexp","C:\Users\kikip\OneDrive\Desktop","False","mono","False","18","no","white","no","yes","768","legacy","78","78","C:/Users/kikip/OneDrive/Desktop/HB-subject-1.csv","legacy","Melodramatic Milgram","4.0.5","0","h","NA","NA","s","NA","NA","h","NA","669.0","NA","NA","10034","NA","NA","669","NA","2","legacy","1024","2","48000","-16","experiment","HHHHH","1","odd","12689","NA","81600","143143","NA","NA","2645","NA","144217","2653","NA","NA","144318","144988","NA","144214","144318","Neues Experiment","77","40699.0","79","1024"
"97","97","514","514","#3d3846","legacy","legacy","legacy","coongruent","1","undefined","1","h","0","0","79","79","0","0","0","79","79","0","0","0","79","79","NA","79","79","Fri Sep  8 13:58:26 2023","1500","The main experiment item","True","Flanker Task Lab 2.2.osexp","C:\Users\kikip\OneDrive\Desktop","False","mono","False","18","no","white","no","yes","768","legacy","79","79","C:/Users/kikip/OneDrive/Desktop/HB-subject-1.csv","legacy","Melodramatic Milgram","4.0.5","0","h","NA","NA","s","NA","NA","h","NA","438.0","NA","NA","10034","NA","NA","438","NA","2","legacy","1024","2","48000","-16","experiment","HHHHH","1","odd","12689","NA","81600","144992","NA","NA","2645","NA","146028","2653","NA","NA","146129","146569","NA","146027","146129","Neues Experiment","78","41137.0","80","1024"
"97","97","516","516","#3d3846","legacy","legacy","legacy","incongruent","1","undefined","1","h","0","0","80","80","0","0","0","80","80","0","0","0","80","80","NA","80","80","Fri Sep  8 13:58:26 2023","600","The main experiment item","True","Flanker Task Lab 2.2.osexp","C:\Users\kikip\OneDrive\Desktop","False","mono","False","18","no","white","no","yes","768","legacy","0","79","C:/Users/kikip/OneDrive/Desktop/HB-subject-1.csv","legacy","Melodramatic Milgram","4.0.5","0","h","NA","NA","s","h","NA","h","NA","710.0","NA","NA","10034","15979","NA","710","NA","2","legacy","1024","2","48000","-16","experiment","SSHSS","1","odd","12689","NA","81600","146585","NA","163566","2645","NA","163628","2653","147586","NA","163729","164441","NA","163626","163729","Neues Experiment","79","41847.0","81","1024"
"97","97","516","516","#3d3846","legacy","legacy","legacy","incongruent","1","undefined","1","s","0","0","81","81","0","0","0","81","81","0","0","0","81","81","NA","81","81","Fri Sep  8 13:58:26 2023","600","The main experiment item","True","Flanker Task Lab 2.2.osexp","C:\Users\kikip\OneDrive\Desktop","False","mono","False","18","no","white","no","yes","768","legacy","1","79","C:/Users/kikip/OneDrive/Desktop/HB-subject-1.csv","legacy","Melodramatic Milgram","4.0.5","0","s","NA","h","s","h","NA","s","NA","505.0","NA","7035","10034","15979","NA","505","NA","2","legacy","1024","2","48000","-16","experiment","HHSHH","1","odd","12689","NA","81600","171485","NA","163566","2645","164445","172527","2653","147586","NA","172628","173134","NA","172525","172628","Neues Experiment","80","42352.0","82","1024"
"97","97","515","515","#3d3846","legacy","legacy","legacy","coongruent","1","undefined","1","h","0","0","82","82","0","0","0","82","82","0","0","0","82","82","NA","82","82","Fri Sep  8 13:58:26 2023","600","The main experiment item","True","Flanker Task Lab 2.2.osexp","C:\Users\kikip\OneDrive\Desktop","False","mono","False","18","no","white","no","yes","768","legacy","2","79","C:/Users/kikip/OneDrive/Desktop/HB-subject-1.csv","legacy","Melodramatic Milgram","4.0.5","0","h","NA","h","s","h","NA","h","NA","431.0","NA","7035","10034","15979","NA","431","NA","2","legacy","1024","2","48000","-16","experiment","HHHHH","1","odd","12689","NA","81600","173138","NA","163566","2645","164445","174175","2653","147586","NA","174276","174709","NA","174174","174276","Neues Experiment","81","42783.0","83","1024"
"97","97","513","513","#3d3846","legacy","legacy","legacy","coongruent","1","undefined","1","h","0","0","83","83","0","0","0","83","83","0","0","0","83","83","NA","83","83","Fri Sep  8 13:58:26 2023","600","The main experiment item","True","Flanker Task Lab 2.2.osexp","C:\Users\kikip\OneDrive\Desktop","False","mono","False","18","no","white","no","yes","768","legacy","3","79","C:/Users/kikip/OneDrive/Desktop/HB-subject-1.csv","legacy","Melodramatic Milgram","4.0.5","0","h","NA","h","s","h","NA","h","NA","378.0","NA","7035","10034","15979","NA","378","NA","2","legacy","1024","2","48000","-16","experiment","HHHHH","1","odd","12689","NA","81600","174715","NA","163566","2645","164445","175768","2653","147586","NA","175869","176250","NA","175766","175869","Neues Experiment","82","43161.0","84","1024"
"97","97","513","513","#3d3846","legacy","legacy","legacy","incongruent","1","undefined","1","s","0","0","84","84","0","0","0","84","84","0","0","0","84","84","NA","84","84","Fri Sep  8 13:58:26 2023","600","The main experiment item","True","Flanker Task Lab 2.2.osexp","C:\Users\kikip\OneDrive\Desktop","False","mono","False","18","no","white","no","yes","768","legacy","4","79","C:/Users/kikip/OneDrive/Desktop/HB-subject-1.csv","legacy","Melodramatic Milgram","4.0.5","0","s","NA","h","s","h","NA","s","NA","476.0","NA","7035","10034","15979","NA","476","NA","2","legacy","1024","2","48000","-16","experiment","HHSHH","1","odd","12689","NA","81600","176254","NA","163566","2645","164445","177325","2653","147586","NA","177426","177903","NA","177323","177426","Neues Experiment","83","43637.0","85","1024"
"96","96","512","512","#3d3846","legacy","legacy","legacy","congruent","0","undefined","0","s","0","0","85","85","0","0","0","85","85","0","0","0","85","85","NA","85","85","Fri Sep  8 13:58:26 2023","600","The main experiment item","True","Flanker Task Lab 2.2.osexp","C:\Users\kikip\OneDrive\Desktop","False","mono","False","18","no","white","no","yes","768","legacy","5","79","C:/Users/kikip/OneDrive/Desktop/HB-subject-1.csv","legacy","Melodramatic Milgram","4.0.5","0","h","NA","h","s","h","NA","h","NA","406.0","NA","7035","10034","15979","NA","406","NA","2","legacy","1024","2","48000","-16","experiment","SSSSS","1","odd","12689","NA","81600","177914","NA","163566","2645","164445","178970","2653","147586","NA","179071","179479","NA","178968","179071","Neues Experiment","83","44043.0","86","1024"
"96","96","512","512","#3d3846","legacy","legacy","legacy","incongruent","1","undefined","1","s","0","0","86","86","0","0","0","86","86","0","0","0","86","86","NA","86","86","Fri Sep  8 13:58:26 2023","600","The main experiment item","True","Flanker Task Lab 2.2.osexp","C:\Users\kikip\OneDrive\Desktop","False","mono","False","18","no","white","no","yes","768","legacy","6","79","C:/Users/kikip/OneDrive/Desktop/HB-subject-1.csv","legacy","Melodramatic Milgram","4.0.5","0","s","NA","h","s","h","NA","s","NA","507.0","NA","7035","10034","15979","NA","507","NA","2","legacy","1024","2","48000","-16","experiment","HHSHH","1","odd","12689","NA","179483","179985","NA","163566","2645","164445","181044","2653","147586","NA","181145","181653","NA","181041","181145","Neues Experiment","84","44550.0","87","1024"
"96","96","512","512","#3d3846","legacy","legacy","legacy","incongruent","1","undefined","1","h","0","0","87","87","0","0","0","87","87","0","0","0","87","87","NA","87","87","Fri Sep  8 13:58:26 2023","600","The main experiment item","True","Flanker Task Lab 2.2.osexp","C:\Users\kikip\OneDrive\Desktop","False","mono","False","18","no","white","no","yes","768","legacy","7","79","C:/Users/kikip/OneDrive/Desktop/HB-subject-1.csv","legacy","Melodramatic Milgram","4.0.5","0","h","NA","h","s","h","NA","h","NA","507.0","NA","7035","10034","15979","NA","507","NA","2","legacy","1024","2","48000","-16","experiment","SSHSS","1","odd","12689","NA","179483","181660","NA","163566","2645","164445","182712","2653","147586","NA","182814","183323","NA","182710","182814","Neues Experiment","85","45057.0","88","1024"
"96","96","512","512","#3d3846","legacy","legacy","legacy","incongruent","1","undefined","1","h","0","0","88","88","0","0","0","88","88","0","0","0","88","88","NA","88","88","Fri Sep  8 13:58:26 2023","600","The main experiment item","True","Flanker Task Lab 2.2.osexp","C:\Users\kikip\OneDrive\Desktop","False","mono","False","18","no","white","no","yes","768","legacy","8","79","C:/Users/kikip/OneDrive/Desktop/HB-subject-1.csv","legacy","Melodramatic Milgram","4.0.5","0","h","NA","h","s","h","NA","h","NA","549.0","NA","7035","10034","15979","NA","549","NA","2","legacy","1024","2","48000","-16","experiment","SSHSS","1","odd","12689","NA","179483","183327","NA","163566","2645","164445","184387","2653","147586","NA","184488","185039","NA","184385","184488","Neues Experiment","86","45606.0","89","1024"
"96","96","511","511","#3d3846","legacy","legacy","legacy","coongruent","1","undefined","1","h","0","0","89","89","0","0","0","89","89","0","0","0","89","89","NA","89","89","Fri Sep  8 13:58:26 2023","600","The main experiment item","True","Flanker Task Lab 2.2.osexp","C:\Users\kikip\OneDrive\Desktop","False","mono","False","18","no","white","no","yes","768","legacy","9","79","C:/Users/kikip/OneDrive/Desktop/HB-subject-1.csv","legacy","Melodramatic Milgram","4.0.5","0","h","NA","h","s","h","NA","h","NA","401.0","NA","7035","10034","15979","NA","401","NA","2","legacy","1024","2","48000","-16","experiment","HHHHH","1","odd","12689","NA","179483","185043","NA","163566","2645","164445","186085","2653","147586","NA","186186","186590","NA","186083","186186","Neues Experiment","87","46007.0","90","1024"
"96","96","509","509","#3d3846","legacy","legacy","legacy","congruent","1","undefined","1","s","0","0","90","90","0","0","0","90","90","0","0","0","90","90","NA","90","90","Fri Sep  8 13:58:26 2023","600","The main experiment item","True","Flanker Task Lab 2.2.osexp","C:\Users\kikip\OneDrive\Desktop","False","mono","False","18","no","white","no","yes","768","legacy","10","79","C:/Users/kikip/OneDrive/Desktop/HB-subject-1.csv","legacy","Melodramatic Milgram","4.0.5","0","s","NA","h","s","h","NA","s","NA","380.0","NA","7035","10034","15979","NA","380","NA","2","legacy","1024","2","48000","-16","experiment","SSSSS","1","odd","12689","NA","179483","186597","NA","163566","2645","164445","187639","2653","147586","NA","187740","188123","NA","187637","187740","Neues Experiment","88","46387.0","91","1024"
"96","96","509","509","#3d3846","legacy","legacy","legacy","incongruent","1","undefined","1","h","0","0","91","91","0","0","0","91","91","0","0","0","91","91","NA","91","91","Fri Sep  8 13:58:26 2023","600","The main experiment item","True","Flanker Task Lab 2.2.osexp","C:\Users\kikip\OneDrive\Desktop","False","mono","False","18","no","white","no","yes","768","legacy","11","79","C:/Users/kikip/OneDrive/Desktop/HB-subject-1.csv","legacy","Melodramatic Milgram","4.0.5","0","h","NA","h","s","h","NA","h","NA","465.0","NA","7035","10034","15979","NA","465","NA","2","legacy","1024","2","48000","-16","experiment","SSHSS","1","odd","12689","NA","179483","188128","NA","163566","2645","164445","189189","2653","147586","NA","189290","189758","NA","189187","189290","Neues Experiment","89","46852.0","92","1024"
"96","96","507","507","#3d3846","legacy","legacy","legacy","congruent","1","undefined","1","s","0","0","92","92","0","0","0","92","92","0","0","0","92","92","NA","92","92","Fri Sep  8 13:58:26 2023","600","The main experiment item","True","Flanker Task Lab 2.2.osexp","C:\Users\kikip\OneDrive\Desktop","False","mono","False","18","no","white","no","yes","768","legacy","12","79","C:/Users/kikip/OneDrive/Desktop/HB-subject-1.csv","legacy","Melodramatic Milgram","4.0.5","0","s","NA","h","s","h","NA","s","NA","372.0","NA","7035","10034","15979","NA","372","NA","2","legacy","1024","2","48000","-16","experiment","SSSSS","1","odd","12689","NA","179483","189762","NA","163566","2645","164445","190823","2653","147586","NA","190924","191298","NA","190820","190924","Neues Experiment","90","47224.0","93","1024"
"95","95","506","506","#3d3846","legacy","legacy","legacy","incongruent","0","undefined","0","s","0","0","93","93","0","0","0","93","93","0","0","0","93","93","NA","93","93","Fri Sep  8 13:58:26 2023","600","The main experiment item","True","Flanker Task Lab 2.2.osexp","C:\Users\kikip\OneDrive\Desktop","False","mono","False","18","no","white","no","yes","768","legacy","13","79","C:/Users/kikip/OneDrive/Desktop/HB-subject-1.csv","legacy","Melodramatic Milgram","4.0.5","0","h","NA","h","s","h","NA","h","NA","377.0","NA","7035","10034","15979","NA","377","NA","2","legacy","1024","2","48000","-16","experiment","HHSHH","1","odd","12689","NA","179483","191301","NA","163566","2645","164445","192373","2653","147586","NA","192474","192853","NA","192371","192474","Neues Experiment","90","47601.0","94","1024"
"95","95","506","506","#3d3846","legacy","legacy","legacy","incongruent","1","undefined","1","s","0","0","94","94","0","0","0","94","94","0","0","0","94","94","NA","94","94","Fri Sep  8 13:58:26 2023","600","The main experiment item","True","Flanker Task Lab 2.2.osexp","C:\Users\kikip\OneDrive\Desktop","False","mono","False","18","no","white","no","yes","768","legacy","14","79","C:/Users/kikip/OneDrive/Desktop/HB-subject-1.csv","legacy","Melodramatic Milgram","4.0.5","0","s","NA","h","s","h","NA","s","NA","496.0","NA","7035","10034","15979","NA","496","NA","2","legacy","1024","2","48000","-16","experiment","HHSHH","1","odd","12689","NA","192857","193358","NA","163566","2645","164445","194397","2653","147586","NA","194498","194996","NA","194396","194498","Neues Experiment","91","48097.0","95","1024"
"95","95","505","505","#3d3846","legacy","legacy","legacy","incongruent","1","undefined","1","h","0","0","95","95","0","0","0","95","95","0","0","0","95","95","NA","95","95","Fri Sep  8 13:58:26 2023","600","The main experiment item","True","Flanker Task Lab 2.2.osexp","C:\Users\kikip\OneDrive\Desktop","False","mono","False","18","no","white","no","yes","768","legacy","15","79","C:/Users/kikip/OneDrive/Desktop/HB-subject-1.csv","legacy","Melodramatic Milgram","4.0.5","0","h","NA","h","s","h","NA","h","NA","474.0","NA","7035","10034","15979","NA","474","NA","2","legacy","1024","2","48000","-16","experiment","SSHSS","1","odd","12689","NA","192857","195002","NA","163566","2645","164445","196054","2653","147586","NA","196156","196633","NA","196052","196156","Neues Experiment","92","48571.0","96","1024"
"95","95","507","507","#3d3846","legacy","legacy","legacy","incongruent","1","undefined","1","h","0","0","96","96","0","0","0","96","96","0","0","0","96","96","NA","96","96","Fri Sep  8 13:58:26 2023","600","The main experiment item","True","Flanker Task Lab 2.2.osexp","C:\Users\kikip\OneDrive\Desktop","False","mono","False","18","no","white","no","yes","768","legacy","16","79","C:/Users/kikip/OneDrive/Desktop/HB-subject-1.csv","legacy","Melodramatic Milgram","4.0.5","0","h","NA","h","s","h","NA","h","NA","677.0","NA","7035","10034","15979","NA","677","NA","2","legacy","1024","2","48000","-16","experiment","SSHSS","1","odd","12689","NA","192857","196637","NA","163566","2645","164445","197676","2653","147586","NA","197777","198455","NA","197674","197777","Neues Experiment","93","49248.0","97","1024"
"95","95","507","507","#3d3846","legacy","legacy","legacy","incongruent","1","undefined","1","s","0","0","97","97","0","0","0","97","97","0","0","0","97","97","NA","97","97","Fri Sep  8 13:58:26 2023","600","The main experiment item","True","Flanker Task Lab 2.2.osexp","C:\Users\kikip\OneDrive\Desktop","False","mono","False","18","no","white","no","yes","768","legacy","17","79","C:/Users/kikip/OneDrive/Desktop/HB-subject-1.csv","legacy","Melodramatic Milgram","4.0.5","0","s","NA","h","s","h","NA","s","NA","453.0","NA","4284","10034","15979","NA","453","NA","2","legacy","1024","2","48000","-16","experiment","HHSHH","1","odd","12689","NA","192857","202746","NA","163566","2645","198459","203798","2653","147586","NA","203900","204357","NA","203796","203900","Neues Experiment","94","49701.0","98","1024"
"95","95","505","505","#3d3846","legacy","legacy","legacy","coongruent","1","undefined","1","h","0","0","98","98","0","0","0","98","98","0","0","0","98","98","NA","98","98","Fri Sep  8 13:58:26 2023","600","The main experiment item","True","Flanker Task Lab 2.2.osexp","C:\Users\kikip\OneDrive\Desktop","False","mono","False","18","no","white","no","yes","768","legacy","18","79","C:/Users/kikip/OneDrive/Desktop/HB-subject-1.csv","legacy","Melodramatic Milgram","4.0.5","0","h","NA","h","s","h","NA","h","NA","388.0","NA","4284","10034","15979","NA","388","NA","2","legacy","1024","2","48000","-16","experiment","HHHHH","1","odd","12689","NA","192857","204361","NA","163566","2645","198459","205453","2653","147586","NA","205554","205945","NA","205451","205554","Neues Experiment","95","50089.0","99","1024"
"95","95","504","504","#3d3846","legacy","legacy","legacy","incongruent","0","undefined","0","h","0","0","99","99","0","0","0","99","99","0","0","0","99","99","NA","99","99","Fri Sep  8 13:58:26 2023","600","The main experiment item","True","Flanker Task Lab 2.2.osexp","C:\Users\kikip\OneDrive\Desktop","False","mono","False","18","no","white","no","yes","768","legacy","19","79","C:/Users/kikip/OneDrive/Desktop/HB-subject-1.csv","legacy","Melodramatic Milgram","4.0.5","0","s","NA","h","s","h","NA","s","NA","355.0","NA","4284","10034","15979","NA","355","NA","2","legacy","1024","2","48000","-16","experiment","SSHSS","1","odd","12689","NA","192857","205949","NA","163566","2645","198459","206997","2653","147586","NA","207098","207454","NA","206995","207098","Neues Experiment","95","50444.0","100","1024"
"95","95","505","505","#3d3846","legacy","legacy","legacy","incongruent","1","undefined","1","s","0","0","100","100","0","0","0","100","100","0","0","0","100","100","NA","100","100","Fri Sep  8 13:58:26 2023","600","The main experiment item","True","Flanker Task Lab 2.2.osexp","C:\Users\kikip\OneDrive\Desktop","False","mono","False","18","no","white","no","yes","768","legacy","20","79","C:/Users/kikip/OneDrive/Desktop/HB-subject-1.csv","legacy","Melodramatic Milgram","4.0.5","0","s","NA","h","s","h","NA","s","NA","564.0","NA","4284","10034","15979","NA","564","NA","2","legacy","1024","2","48000","-16","experiment","HHSHH","1","odd","12689","NA","207458","207959","NA","163566","2645","198459","209018","2653","147586","NA","209119","209685","NA","209016","209119","Neues Experiment","96","51008.0","101","1024"
"95","95","505","505","#3d3846","legacy","legacy","legacy","incongruent","1","undefined","1","h","0","0","101","101","0","0","0","101","101","0","0","0","101","101","NA","101","101","Fri Sep  8 13:58:26 2023","600","The main experiment item","True","Flanker Task Lab 2.2.osexp","C:\Users\kikip\OneDrive\Desktop","False","mono","False","18","no","white","no","yes","768","legacy","21","79","C:/Users/kikip/OneDrive/Desktop/HB-subject-1.csv","legacy","Melodramatic Milgram","4.0.5","0","h","NA","h","s","h","NA","h","NA","511.0","NA","4284","10034","15979","NA","511","NA","2","legacy","1024","2","48000","-16","experiment","SSHSS","1","odd","12689","NA","207458","209690","NA","163566","2645","198459","210778","2653","147586","NA","210879","211393","NA","210776","210879","Neues Experiment","97","51519.0","102","1024"
"95","95","506","506","#3d3846","legacy","legacy","legacy","incongruent","1","undefined","1","s","0","0","102","102","0","0","0","102","102","0","0","0","102","102","NA","102","102","Fri Sep  8 13:58:26 2023","600","The main experiment item","True","Flanker Task Lab 2.2.osexp","C:\Users\kikip\OneDrive\Desktop","False","mono","False","18","no","white","no","yes","768","legacy","22","79","C:/Users/kikip/OneDrive/Desktop/HB-subject-1.csv","legacy","Melodramatic Milgram","4.0.5","0","s","NA","h","s","h","NA","s","NA","660.0","NA","4284","10034","15979","NA","660","NA","2","legacy","1024","2","48000","-16","experiment","HHSHH","1","odd","12689","NA","207458","211397","NA","163566","2645","198459","212461","2653","147586","NA","212562","213224","NA","212459","212562","Neues Experiment","98","52179.0","103","1024"
"95","95","506","506","#3d3846","legacy","legacy","legacy","coongruent","1","undefined","1","h","0","0","103","103","0","0","0","103","103","0","0","0","103","103","NA","103","103","Fri Sep  8 13:58:26 2023","600","The main experiment item","True","Flanker Task Lab 2.2.osexp","C:\Users\kikip\OneDrive\Desktop","False","mono","False","18","no","white","no","yes","768","legacy","23","79","C:/Users/kikip/OneDrive/Desktop/HB-subject-1.csv","legacy","Melodramatic Milgram","4.0.5","0","h","NA","space","s","h","NA","h","NA","480.0","NA","1000","10034","15979","NA","480","NA","2","legacy","1024","2","48000","-16","experiment","HHHHH","1","odd","12689","NA","207458","214230","NA","163566","2645","213228","215295","2653","147586","NA","215396","215878","NA","215293","215396","Neues Experiment","99","52659.0","104","1024"
"95","95","504","504","#3d3846","legacy","legacy","legacy","congruent","1","undefined","1","s","0","0","104","104","0","0","0","104","104","0","0","0","104","104","NA","104","104","Fri Sep  8 13:58:26 2023","600","The main experiment item","True","Flanker Task Lab 2.2.osexp","C:\Users\kikip\OneDrive\Desktop","False","mono","False","18","no","white","no","yes","768","legacy","24","79","C:/Users/kikip/OneDrive/Desktop/HB-subject-1.csv","legacy","Melodramatic Milgram","4.0.5","0","s","NA","space","s","h","NA","s","NA","348.0","NA","1000","10034","15979","NA","348","NA","2","legacy","1024","2","48000","-16","experiment","SSSSS","1","odd","12689","NA","207458","215881","NA","163566","2645","213228","216942","2653","147586","NA","217043","217394","NA","216939","217043","Neues Experiment","100","53007.0","105","1024"
"95","95","503","503","#3d3846","legacy","legacy","legacy","coongruent","1","undefined","1","h","0","0","105","105","0","0","0","105","105","0","0","0","105","105","NA","105","105","Fri Sep  8 13:58:26 2023","600","The main experiment item","True","Flanker Task Lab 2.2.osexp","C:\Users\kikip\OneDrive\Desktop","False","mono","False","18","no","white","no","yes","768","legacy","25","79","C:/Users/kikip/OneDrive/Desktop/HB-subject-1.csv","legacy","Melodramatic Milgram","4.0.5","0","h","NA","space","s","h","NA","h","NA","332.0","NA","1000","10034","15979","NA","332","NA","2","legacy","1024","2","48000","-16","experiment","HHHHH","1","odd","12689","NA","207458","217398","NA","163566","2645","213228","218444","2653","147586","NA","218545","218879","NA","218442","218545","Neues Experiment","101","53339.0","106","1024"
"95","95","502","502","#3d3846","legacy","legacy","legacy","incongruent","1","undefined","1","h","0","0","106","106","0","0","0","106","106","0","0","0","106","106","NA","106","106","Fri Sep  8 13:58:26 2023","600","The main experiment item","True","Flanker Task Lab 2.2.osexp","C:\Users\kikip\OneDrive\Desktop","False","mono","False","18","no","white","no","yes","768","legacy","26","79","C:/Users/kikip/OneDrive/Desktop/HB-subject-1.csv","legacy","Melodramatic Milgram","4.0.5","0","h","NA","space","s","h","NA","h","NA","376.0","NA","1000","10034","15979","NA","376","NA","2","legacy","1024","2","48000","-16","experiment","SSHSS","1","odd","12689","NA","207458","218884","NA","163566","2645","213228","219979","2653","147586","NA","220080","220458","NA","219977","220080","Neues Experiment","102","53715.0","107","1024"
"95","95","502","502","#3d3846","legacy","legacy","legacy","incongruent","1","undefined","1","h","0","0","107","107","0","0","0","107","107","0","0","0","107","107","NA","107","107","Fri Sep  8 13:58:26 2023","600","The main experiment item","True","Flanker Task Lab 2.2.osexp","C:\Users\kikip\OneDrive\Desktop","False","mono","False","18","no","white","no","yes","768","legacy","27","79","C:/Users/kikip/OneDrive/Desktop/HB-subject-1.csv","legacy","Melodramatic Milgram","4.0.5","0","h","NA","space","s","h","NA","h","NA","513.0","NA","1000","10034","15979","NA","513","NA","2","legacy","1024","2","48000","-16","experiment","SSHSS","1","odd","12689","NA","207458","220461","NA","163566","2645","213228","221541","2653","147586","NA","221643","222159","NA","221539","221643","Neues Experiment","103","54228.0","108","1024"
"95","95","501","501","#3d3846","legacy","legacy","legacy","incongruent","1","undefined","1","s","0","0","108","108","0","0","0","108","108","0","0","0","108","108","NA","108","108","Fri Sep  8 13:58:26 2023","600","The main experiment item","True","Flanker Task Lab 2.2.osexp","C:\Users\kikip\OneDrive\Desktop","False","mono","False","18","no","white","no","yes","768","legacy","28","79","C:/Users/kikip/OneDrive/Desktop/HB-subject-1.csv","legacy","Melodramatic Milgram","4.0.5","0","s","NA","space","s","h","NA","s","NA","472.0","NA","1000","10034","15979","NA","472","NA","2","legacy","1024","2","48000","-16","experiment","HHSHH","1","odd","12689","NA","207458","222164","NA","163566","2645","213228","223202","2653","147586","NA","223303","223778","NA","223201","223303","Neues Experiment","104","54700.0","109","1024"
"94","94","500","500","#3d3846","legacy","legacy","legacy","incongruent","0","undefined","0","s","0","0","109","109","0","0","0","109","109","0","0","0","109","109","NA","109","109","Fri Sep  8 13:58:26 2023","600","The main experiment item","True","Flanker Task Lab 2.2.osexp","C:\Users\kikip\OneDrive\Desktop","False","mono","False","18","no","white","no","yes","768","legacy","29","79","C:/Users/kikip/OneDrive/Desktop/HB-subject-1.csv","legacy","Melodramatic Milgram","4.0.5","0","h","NA","space","s","h","NA","h","NA","328.0","NA","1000","10034","15979","NA","328","NA","2","legacy","1024","2","48000","-16","experiment","HHSHH","1","odd","12689","NA","207458","223783","NA","163566","2645","213228","224825","2653","147586","NA","224926","225257","NA","224823","224926","Neues Experiment","104","55028.0","110","1024"
"94","94","500","500","#3d3846","legacy","legacy","legacy","congruent","1","undefined","1","s","0","0","110","110","0","0","0","110","110","0","0","0","110","110","NA","110","110","Fri Sep  8 13:58:26 2023","600","The main experiment item","True","Flanker Task Lab 2.2.osexp","C:\Users\kikip\OneDrive\Desktop","False","mono","False","18","no","white","no","yes","768","legacy","30","79","C:/Users/kikip/OneDrive/Desktop/HB-subject-1.csv","legacy","Melodramatic Milgram","4.0.5","0","s","NA","space","s","h","NA","s","NA","564.0","NA","1000","10034","15979","NA","564","NA","2","legacy","1024","2","48000","-16","experiment","SSSSS","1","odd","12689","NA","225262","225763","NA","163566","2645","213228","226825","2653","147586","NA","226926","227493","NA","226823","226926","Neues Experiment","105","55592.0","111","1024"
"94","94","500","500","#3d3846","legacy","legacy","legacy","congruent","1","undefined","1","s","0","0","111","111","0","0","0","111","111","0","0","0","111","111","NA","111","111","Fri Sep  8 13:58:26 2023","600","The main experiment item","True","Flanker Task Lab 2.2.osexp","C:\Users\kikip\OneDrive\Desktop","False","mono","False","18","no","white","no","yes","768","legacy","31","79","C:/Users/kikip/OneDrive/Desktop/HB-subject-1.csv","legacy","Melodramatic Milgram","4.0.5","0","s","NA","space","s","h","NA","s","NA","455.0","NA","1000","10034","15979","NA","455","NA","2","legacy","1024","2","48000","-16","experiment","SSSSS","1","odd","12689","NA","225262","227497","NA","163566","2645","213228","228534","2653","147586","NA","228635","229093","NA","228533","228635","Neues Experiment","106","56047.0","112","1024"
"94","94","500","500","#3d3846","legacy","legacy","legacy","incongruent","1","undefined","1","h","0","0","112","112","0","0","0","112","112","0","0","0","112","112","NA","112","112","Fri Sep  8 13:58:26 2023","600","The main experiment item","True","Flanker Task Lab 2.2.osexp","C:\Users\kikip\OneDrive\Desktop","False","mono","False","18","no","white","no","yes","768","legacy","32","79","C:/Users/kikip/OneDrive/Desktop/HB-subject-1.csv","legacy","Melodramatic Milgram","4.0.5","0","h","NA","space","s","h","NA","h","NA","548.0","NA","1000","10034","15979","NA","548","NA","2","legacy","1024","2","48000","-16","experiment","SSHSS","1","odd","12689","NA","225262","229097","NA","163566","2645","213228","230155","2653","147586","NA","230256","230808","NA","230152","230256","Neues Experiment","107","56595.0","113","1024"
"94","94","499","499","#3d3846","legacy","legacy","legacy","congruent","1","undefined","1","s","0","0","113","113","0","0","0","113","113","0","0","0","113","113","NA","113","113","Fri Sep  8 13:58:26 2023","600","The main experiment item","True","Flanker Task Lab 2.2.osexp","C:\Users\kikip\OneDrive\Desktop","False","mono","False","18","no","white","no","yes","768","legacy","33","79","C:/Users/kikip/OneDrive/Desktop/HB-subject-1.csv","legacy","Melodramatic Milgram","4.0.5","0","s","NA","space","s","h","NA","s","NA","389.0","NA","1000","10034","15979","NA","389","NA","2","legacy","1024","2","48000","-16","experiment","SSSSS","1","odd","12689","NA","225262","230812","NA","163566","2645","213228","231854","2653","147586","NA","231955","232346","NA","231852","231955","Neues Experiment","108","56984.0","114","1024"
"94","94","498","498","#3d3846","legacy","legacy","legacy","congruent","1","undefined","1","s","0","0","114","114","0","0","0","114","114","0","0","0","114","114","NA","114","114","Fri Sep  8 13:58:26 2023","600","The main experiment item","True","Flanker Task Lab 2.2.osexp","C:\Users\kikip\OneDrive\Desktop","False","mono","False","18","no","white","no","yes","768","legacy","34","79","C:/Users/kikip/OneDrive/Desktop/HB-subject-1.csv","legacy","Melodramatic Milgram","4.0.5","0","s","NA","space","s","h","NA","s","NA","377.0","NA","1000","10034","15979","NA","377","NA","2","legacy","1024","2","48000","-16","experiment","SSSSS","1","odd","12689","NA","225262","232349","NA","163566","2645","213228","233411","2653","147586","NA","233512","233891","NA","233409","233512","Neues Experiment","109","57361.0","115","1024"
"94","94","500","500","#3d3846","legacy","legacy","legacy","congruent","1","undefined","1","s","0","0","115","115","0","0","0","115","115","0","0","0","115","115","NA","115","115","Fri Sep  8 13:58:26 2023","600","The main experiment item","True","Flanker Task Lab 2.2.osexp","C:\Users\kikip\OneDrive\Desktop","False","mono","False","18","no","white","no","yes","768","legacy","35","79","C:/Users/kikip/OneDrive/Desktop/HB-subject-1.csv","legacy","Melodramatic Milgram","4.0.5","0","s","NA","space","s","h","NA","s","NA","675.0","NA","1000","10034","15979","NA","675","NA","2","legacy","1024","2","48000","-16","experiment","SSSSS","1","odd","12689","NA","225262","233894","NA","163566","2645","213228","234977","2653","147586","NA","235078","235757","NA","234975","235078","Neues Experiment","110","58036.0","116","1024"
"94","94","500","500","#3d3846","legacy","legacy","legacy","incongruent","1","undefined","1","s","0","0","116","116","0","0","0","116","116","0","0","0","116","116","NA","116","116","Fri Sep  8 13:58:26 2023","600","The main experiment item","True","Flanker Task Lab 2.2.osexp","C:\Users\kikip\OneDrive\Desktop","False","mono","False","18","no","white","no","yes","768","legacy","36","79","C:/Users/kikip/OneDrive/Desktop/HB-subject-1.csv","legacy","Melodramatic Milgram","4.0.5","0","s","NA","s","s","h","NA","s","NA","544.0","NA","1073","10034","15979","NA","544","NA","2","legacy","1024","2","48000","-16","experiment","HHSHH","1","odd","12689","NA","225262","236842","NA","163566","2645","235765","237910","2653","147586","NA","238011","238557","NA","237908","238011","Neues Experiment","111","58580.0","117","1024"
"94","94","501","501","#3d3846","legacy","legacy","legacy","congruent","1","undefined","1","s","0","0","117","117","0","0","0","117","117","0","0","0","117","117","NA","117","117","Fri Sep  8 13:58:26 2023","600","The main experiment item","True","Flanker Task Lab 2.2.osexp","C:\Users\kikip\OneDrive\Desktop","False","mono","False","18","no","white","no","yes","768","legacy","37","79","C:/Users/kikip/OneDrive/Desktop/HB-subject-1.csv","legacy","Melodramatic Milgram","4.0.5","0","s","NA","s","s","h","NA","s","NA","541.0","NA","1073","10034","15979","NA","541","NA","2","legacy","1024","2","48000","-16","experiment","SSSSS","1","odd","12689","NA","225262","238560","NA","163566","2645","235765","239650","2653","147586","NA","239752","240297","NA","239648","239752","Neues Experiment","112","59121.0","118","1024"
"94","94","499","499","#3d3846","legacy","legacy","legacy","congruent","1","undefined","1","s","0","0","118","118","0","0","0","118","118","0","0","0","118","118","NA","118","118","Fri Sep  8 13:58:26 2023","600","The main experiment item","True","Flanker Task Lab 2.2.osexp","C:\Users\kikip\OneDrive\Desktop","False","mono","False","18","no","white","no","yes","768","legacy","38","79","C:/Users/kikip/OneDrive/Desktop/HB-subject-1.csv","legacy","Melodramatic Milgram","4.0.5","0","s","NA","s","s","h","NA","s","NA","375.0","NA","1073","10034","15979","NA","375","NA","2","legacy","1024","2","48000","-16","experiment","SSSSS","1","odd","12689","NA","225262","240301","NA","163566","2645","235765","241347","2653","147586","NA","241448","241828","NA","241345","241448","Neues Experiment","113","59496.0","119","1024"
"94","94","499","499","#3d3846","legacy","legacy","legacy","incongruent","0","undefined","0","s","0","0","119","119","0","0","0","119","119","0","0","0","119","119","NA","119","119","Fri Sep  8 13:58:26 2023","600","The main experiment item","True","Flanker Task Lab 2.2.osexp","C:\Users\kikip\OneDrive\Desktop","False","mono","False","18","no","white","no","yes","768","legacy","39","79","C:/Users/kikip/OneDrive/Desktop/HB-subject-1.csv","legacy","Melodramatic Milgram","4.0.5","0","h","NA","s","s","h","NA","h","NA","403.0","NA","1073","10034","15979","NA","403","NA","2","legacy","1024","2","48000","-16","experiment","HHSHH","1","odd","12689","NA","225262","241834","NA","163566","2645","235765","242920","2653","147586","NA","243021","243427","NA","242917","243021","Neues Experiment","113","59899.0","120","1024"
"94","94","499","499","#3d3846","legacy","legacy","legacy","incongruent","1","undefined","1","h","0","0","120","120","0","0","0","120","120","0","0","0","120","120","NA","120","120","Fri Sep  8 13:58:26 2023","600","The main experiment item","True","Flanker Task Lab 2.2.osexp","C:\Users\kikip\OneDrive\Desktop","False","mono","False","18","no","white","no","yes","768","legacy","40","79","C:/Users/kikip/OneDrive/Desktop/HB-subject-1.csv","legacy","Melodramatic Milgram","4.0.5","0","h","NA","s","s","h","NA","h","NA","557.0","NA","1073","10034","15979","NA","557","NA","2","legacy","1024","2","48000","-16","experiment","SSHSS","1","odd","12689","NA","243432","243933","NA","163566","2645","235765","244995","2653","147586","NA","245096","245656","NA","244993","245096","Neues Experiment","114","60456.0","121","1024"
"94","94","498","498","#3d3846","legacy","legacy","legacy","congruent","1","undefined","1","s","0","0","121","121","0","0","0","121","121","0","0","0","121","121","NA","121","121","Fri Sep  8 13:58:26 2023","600","The main experiment item","True","Flanker Task Lab 2.2.osexp","C:\Users\kikip\OneDrive\Desktop","False","mono","False","18","no","white","no","yes","768","legacy","41","79","C:/Users/kikip/OneDrive/Desktop/HB-subject-1.csv","legacy","Melodramatic Milgram","4.0.5","0","s","NA","s","s","h","NA","s","NA","406.0","NA","1073","10034","15979","NA","406","NA","2","legacy","1024","2","48000","-16","experiment","SSSSS","1","odd","12689","NA","243432","245662","NA","163566","2645","235765","246712","2653","147586","NA","246813","247221","NA","246709","246813","Neues Experiment","115","60862.0","122","1024"
