"acc","accuracy","average_response_time","avg_rt","background","canvas_backend","clock_backend","color_backend","compensation","condition","coordinates","correct","correct_instructions1","correct_keyboard_response","correct_response","count_Block1","count_Block2","count_Block3","count_ISI","count_errorFeedback","count_experiment","count_faster","count_finish","count_fixation","count_instructions1","count_instructions2","count_instructons3","count_keyboard_response","count_logger","count_sequence","count_stimulus","datetime","deadline","description","disable_garbage_collection","experiment_file","experiment_path","font_bold","font_family","font_italic","font_size","font_underline","foreground","form_clicks","fullscreen","height","keyboard_backend","live_row","live_row_Block1","logfile","mouse_backend","opensesame_codename","opensesame_version","repeat_cycle","response","response_finish","response_instructions1","response_instructions2","response_instructons3","response_keyboard_response","response_time","response_time_finish","response_time_instructions1","response_time_instructions2","response_time_instructons3","response_time_keyboard_response","round_decimals","sampler_backend","sound_buf_size","sound_channels","sound_freq","sound_sample_size","start","stimulus","subject_nr","subject_parity","time_Block1","time_Block2","time_Block3","time_ISI","time_errorFeedback","time_experiment","time_faster","time_finish","time_fixation","time_instructions1","time_instructions2","time_instructons3","time_keyboard_response","time_logger","time_sequence","time_stimulus","title","total_correct","total_response_time","total_responses","uniform_coordinates","width"
"100","100","876","876","black","legacy","legacy","legacy","0","incongruent","uniform","1","undefined","1","h","0","0","0","0","0","0","0","0","0","0","0","0","0","0","0","0","Fri Sep 24 19:36:56 2021","1500","The main experiment item","yes","SR-FlankerTask.osexp","C:\Users\Simon M. Rook\Documents\School\1Tarleton\Classes\Adv Quant\Lab 2","no","mono","no","18","no","white","no","no","768","legacy","0","0","C:/Users/Simon M. Rook/Documents/School/1Tarleton/Classes/Adv Quant/Lab 2/flanker-data/subject-2.csv","legacy","Lentiform Loewenfeld","3.3.10","0","h","NA","s","NA","NA","h","876","NA","43980","NA","NA","876","2","legacy","1024","2","48000","-16","experiment","SSHSS","2","even","45142","NA","NA","NA","NA","1159","NA","NA","45188","1161","NA","NA","45289","46165","45186","45289","Flanker Task","1","876","1","yes","1024"
"50","50","721.5","721.5","black","legacy","legacy","legacy","0","congruent","uniform","0","undefined","0","s","0","0","0","1","1","0","1","0","1","0","0","0","1","1","1","1","Fri Sep 24 19:36:56 2021","1500","The main experiment item","yes","SR-FlankerTask.osexp","C:\Users\Simon M. Rook\Documents\School\1Tarleton\Classes\Adv Quant\Lab 2","no","mono","no","18","no","white","no","no","768","legacy","1","1","C:/Users/Simon M. Rook/Documents/School/1Tarleton/Classes/Adv Quant/Lab 2/flanker-data/subject-2.csv","legacy","Lentiform Loewenfeld","3.3.10","0","h","NA","s","NA","NA","h","567","NA","43980","NA","NA","567","2","legacy","1024","2","48000","-16","experiment","SSSSS","2","even","45142","NA","NA","46172","NA","1159","NA","NA","47226","1161","NA","NA","47327","47894","47224","47327","Flanker Task","1","1443","2","yes","1024"
"33.333333333333336","33.333333333333336","650.3333333333334","650.3333333333334","black","legacy","legacy","legacy","0","incongruent","uniform","0","undefined","0","s","0","0","0","2","2","0","2","0","2","0","0","0","2","2","2","2","Fri Sep 24 19:36:56 2021","1500","The main experiment item","yes","SR-FlankerTask.osexp","C:\Users\Simon M. Rook\Documents\School\1Tarleton\Classes\Adv Quant\Lab 2","no","mono","no","18","no","white","no","no","768","legacy","2","2","C:/Users/Simon M. Rook/Documents/School/1Tarleton/Classes/Adv Quant/Lab 2/flanker-data/subject-2.csv","legacy","Lentiform Loewenfeld","3.3.10","0","h","NA","s","NA","NA","h","508","NA","43980","NA","NA","508","2","legacy","1024","2","48000","-16","experiment","HHSHH","2","even","45142","NA","NA","48398","47897","1159","NA","NA","49452","1161","NA","NA","49553","50062","49450","49553","Flanker Task","1","1951","3","yes","1024"
"50","50","576.75","576.75","black","legacy","legacy","legacy","0","congruent","uniform","1","undefined","1","h","0","0","0","3","3","0","3","0","3","0","0","0","3","3","3","3","Fri Sep 24 19:36:56 2021","1500","The main experiment item","yes","SR-FlankerTask.osexp","C:\Users\Simon M. Rook\Documents\School\1Tarleton\Classes\Adv Quant\Lab 2","no","mono","no","18","no","white","no","no","768","legacy","3","3","C:/Users/Simon M. Rook/Documents/School/1Tarleton/Classes/Adv Quant/Lab 2/flanker-data/subject-2.csv","legacy","Lentiform Loewenfeld","3.3.10","0","h","NA","s","NA","NA","h","356","NA","43980","NA","NA","356","2","legacy","1024","2","48000","-16","experiment","HHHHH","2","even","45142","NA","NA","50566","50065","1159","NA","NA","51621","1161","NA","NA","51722","52078","51619","51722","Flanker Task","2","2307","4","yes","1024"
"60","60","570.4","570.4","black","legacy","legacy","legacy","0","congruent","uniform","1","undefined","1","h","0","0","0","4","4","0","4","0","4","0","0","0","4","4","4","4","Fri Sep 24 19:36:56 2021","1500","The main experiment item","yes","SR-FlankerTask.osexp","C:\Users\Simon M. Rook\Documents\School\1Tarleton\Classes\Adv Quant\Lab 2","no","mono","no","18","no","white","no","no","768","legacy","4","4","C:/Users/Simon M. Rook/Documents/School/1Tarleton/Classes/Adv Quant/Lab 2/flanker-data/subject-2.csv","legacy","Lentiform Loewenfeld","3.3.10","0","h","NA","s","NA","NA","h","545","NA","43980","NA","NA","545","2","legacy","1024","2","48000","-16","experiment","HHHHH","2","even","45142","NA","NA","52082","50065","1159","NA","NA","53136","1161","NA","NA","53237","53782","53135","53237","Flanker Task","3","2852","5","yes","1024"
"66.66666666666667","66.66666666666667","573.3333333333334","573.3333333333334","black","legacy","legacy","legacy","0","incongruent","uniform","1","undefined","1","h","0","0","0","5","5","0","5","0","5","0","0","0","5","5","5","5","Fri Sep 24 19:36:56 2021","1500","The main experiment item","yes","SR-FlankerTask.osexp","C:\Users\Simon M. Rook\Documents\School\1Tarleton\Classes\Adv Quant\Lab 2","no","mono","no","18","no","white","no","no","768","legacy","5","5","C:/Users/Simon M. Rook/Documents/School/1Tarleton/Classes/Adv Quant/Lab 2/flanker-data/subject-2.csv","legacy","Lentiform Loewenfeld","3.3.10","0","h","NA","s","NA","NA","h","588","NA","43980","NA","NA","588","2","legacy","1024","2","48000","-16","experiment","SSHSS","2","even","45142","NA","NA","53785","50065","1159","NA","NA","54838","1161","NA","NA","54939","55527","54836","54939","Flanker Task","4","3440","6","yes","1024"
"71.42857142857143","71.42857142857143","543.1428571428571","543.1428571428571","black","legacy","legacy","legacy","0","congruent","uniform","1","undefined","1","s","0","0","0","6","6","0","6","0","6","0","0","0","6","6","6","6","Fri Sep 24 19:36:56 2021","1500","The main experiment item","yes","SR-FlankerTask.osexp","C:\Users\Simon M. Rook\Documents\School\1Tarleton\Classes\Adv Quant\Lab 2","no","mono","no","18","no","white","no","no","768","legacy","6","6","C:/Users/Simon M. Rook/Documents/School/1Tarleton/Classes/Adv Quant/Lab 2/flanker-data/subject-2.csv","legacy","Lentiform Loewenfeld","3.3.10","0","s","NA","s","NA","NA","s","362","NA","43980","NA","NA","362","2","legacy","1024","2","48000","-16","experiment","SSSSS","2","even","45142","NA","NA","55530","50065","1159","NA","NA","56584","1161","NA","NA","56685","57047","56582","56685","Flanker Task","5","3802","7","yes","1024"
"75","75","524.125","524.125","black","legacy","legacy","legacy","0","congruent","uniform","1","undefined","1","s","0","0","0","7","7","0","7","0","7","0","0","0","7","7","7","7","Fri Sep 24 19:36:56 2021","1500","The main experiment item","yes","SR-FlankerTask.osexp","C:\Users\Simon M. Rook\Documents\School\1Tarleton\Classes\Adv Quant\Lab 2","no","mono","no","18","no","white","no","no","768","legacy","7","7","C:/Users/Simon M. Rook/Documents/School/1Tarleton/Classes/Adv Quant/Lab 2/flanker-data/subject-2.csv","legacy","Lentiform Loewenfeld","3.3.10","0","s","NA","s","NA","NA","s","391","NA","43980","NA","NA","391","2","legacy","1024","2","48000","-16","experiment","SSSSS","2","even","45142","NA","NA","57050","50065","1159","NA","NA","58106","1161","NA","NA","58207","58599","58104","58207","Flanker Task","6","4193","8","yes","1024"
"66.66666666666667","66.66666666666667","499","499","black","legacy","legacy","legacy","0","incongruent","uniform","0","undefined","0","s","0","0","0","8","8","0","8","0","8","0","0","0","8","8","8","8","Fri Sep 24 19:36:56 2021","1500","The main experiment item","yes","SR-FlankerTask.osexp","C:\Users\Simon M. Rook\Documents\School\1Tarleton\Classes\Adv Quant\Lab 2","no","mono","no","18","no","white","no","no","768","legacy","8","8","C:/Users/Simon M. Rook/Documents/School/1Tarleton/Classes/Adv Quant/Lab 2/flanker-data/subject-2.csv","legacy","Lentiform Loewenfeld","3.3.10","0","h","NA","s","NA","NA","h","298","NA","43980","NA","NA","298","2","legacy","1024","2","48000","-16","experiment","HHSHH","2","even","45142","NA","NA","58602","50065","1159","NA","NA","59656","1161","NA","NA","59757","60056","59655","59757","Flanker Task","6","4491","9","yes","1024"
"70","70","502.3","502.3","black","legacy","legacy","legacy","0","congruent","uniform","1","undefined","1","s","0","0","0","9","9","0","9","0","9","0","0","0","9","9","9","9","Fri Sep 24 19:36:56 2021","1500","The main experiment item","yes","SR-FlankerTask.osexp","C:\Users\Simon M. Rook\Documents\School\1Tarleton\Classes\Adv Quant\Lab 2","no","mono","no","18","no","white","no","no","768","legacy","9","9","C:/Users/Simon M. Rook/Documents/School/1Tarleton/Classes/Adv Quant/Lab 2/flanker-data/subject-2.csv","legacy","Lentiform Loewenfeld","3.3.10","0","s","NA","s","NA","NA","s","532","NA","43980","NA","NA","532","2","legacy","1024","2","48000","-16","experiment","SSSSS","2","even","45142","NA","NA","60569","60068","1159","NA","NA","61622","1161","NA","NA","61723","62255","61620","61723","Flanker Task","7","5023","10","yes","1024"
"72.72727272727273","72.72727272727273","494.72727272727275","494.72727272727275","black","legacy","legacy","legacy","0","incongruent","uniform","1","undefined","1","s","0","0","0","10","10","0","10","0","10","0","0","0","10","10","10","10","Fri Sep 24 19:36:56 2021","1500","The main experiment item","yes","SR-FlankerTask.osexp","C:\Users\Simon M. Rook\Documents\School\1Tarleton\Classes\Adv Quant\Lab 2","no","mono","no","18","no","white","no","no","768","legacy","10","10","C:/Users/Simon M. Rook/Documents/School/1Tarleton/Classes/Adv Quant/Lab 2/flanker-data/subject-2.csv","legacy","Lentiform Loewenfeld","3.3.10","0","s","NA","s","NA","NA","s","419","NA","43980","NA","NA","419","2","legacy","1024","2","48000","-16","experiment","HHSHH","2","even","45142","NA","NA","62259","60068","1159","NA","NA","63312","1161","NA","NA","63413","63832","63311","63413","Flanker Task","8","5442","11","yes","1024"
"75","75","487","487","black","legacy","legacy","legacy","0","congruent","uniform","1","undefined","1","s","0","0","0","11","11","0","11","0","11","0","0","0","11","11","11","11","Fri Sep 24 19:36:56 2021","1500","The main experiment item","yes","SR-FlankerTask.osexp","C:\Users\Simon M. Rook\Documents\School\1Tarleton\Classes\Adv Quant\Lab 2","no","mono","no","18","no","white","no","no","768","legacy","11","11","C:/Users/Simon M. Rook/Documents/School/1Tarleton/Classes/Adv Quant/Lab 2/flanker-data/subject-2.csv","legacy","Lentiform Loewenfeld","3.3.10","0","s","NA","s","NA","NA","s","402","NA","43980","NA","NA","402","2","legacy","1024","2","48000","-16","experiment","SSSSS","2","even","45142","NA","NA","63835","60068","1159","NA","NA","64888","1161","NA","NA","64989","65392","64886","64989","Flanker Task","9","5844","12","yes","1024"
"76.92307692307692","76.92307692307692","481.0769230769231","481.0769230769231","black","legacy","legacy","legacy","0","congruent","uniform","1","undefined","1","s","0","0","0","12","12","0","12","0","12","0","0","0","12","12","12","12","Fri Sep 24 19:36:56 2021","1500","The main experiment item","yes","SR-FlankerTask.osexp","C:\Users\Simon M. Rook\Documents\School\1Tarleton\Classes\Adv Quant\Lab 2","no","mono","no","18","no","white","no","no","768","legacy","12","12","C:/Users/Simon M. Rook/Documents/School/1Tarleton/Classes/Adv Quant/Lab 2/flanker-data/subject-2.csv","legacy","Lentiform Loewenfeld","3.3.10","0","s","NA","s","NA","NA","s","410","NA","43980","NA","NA","410","2","legacy","1024","2","48000","-16","experiment","SSSSS","2","even","45142","NA","NA","65395","60068","1159","NA","NA","66448","1161","NA","NA","66549","66960","66447","66549","Flanker Task","10","6254","13","yes","1024"
"78.57142857142857","78.57142857142857","489.7142857142857","489.7142857142857","black","legacy","legacy","legacy","0","incongruent","uniform","1","undefined","1","s","0","0","0","13","13","0","13","0","13","0","0","0","13","13","13","13","Fri Sep 24 19:36:56 2021","1500","The main experiment item","yes","SR-FlankerTask.osexp","C:\Users\Simon M. Rook\Documents\School\1Tarleton\Classes\Adv Quant\Lab 2","no","mono","no","18","no","white","no","no","768","legacy","13","13","C:/Users/Simon M. Rook/Documents/School/1Tarleton/Classes/Adv Quant/Lab 2/flanker-data/subject-2.csv","legacy","Lentiform Loewenfeld","3.3.10","0","s","NA","s","NA","NA","s","602","NA","43980","NA","NA","602","2","legacy","1024","2","48000","-16","experiment","HHSHH","2","even","45142","NA","NA","66963","60068","1159","NA","NA","68025","1161","NA","NA","68126","68729","68024","68126","Flanker Task","11","6856","14","yes","1024"
"73.33333333333333","73.33333333333333","484.8","484.8","black","legacy","legacy","legacy","0","incongruent","uniform","0","undefined","0","h","0","0","0","14","14","0","14","0","14","0","0","0","14","14","14","14","Fri Sep 24 19:36:56 2021","1500","The main experiment item","yes","SR-FlankerTask.osexp","C:\Users\Simon M. Rook\Documents\School\1Tarleton\Classes\Adv Quant\Lab 2","no","mono","no","18","no","white","no","no","768","legacy","14","14","C:/Users/Simon M. Rook/Documents/School/1Tarleton/Classes/Adv Quant/Lab 2/flanker-data/subject-2.csv","legacy","Lentiform Loewenfeld","3.3.10","0","s","NA","s","NA","NA","s","416","NA","43980","NA","NA","416","2","legacy","1024","2","48000","-16","experiment","SSHSS","2","even","45142","NA","NA","68732","60068","1159","NA","NA","69787","1161","NA","NA","69888","70304","69786","69888","Flanker Task","11","7272","15","yes","1024"
"75","75","480.375","480.375","black","legacy","legacy","legacy","0","congruent","uniform","1","undefined","1","s","0","0","0","15","15","0","15","0","15","0","0","0","15","15","15","15","Fri Sep 24 19:36:56 2021","1500","The main experiment item","yes","SR-FlankerTask.osexp","C:\Users\Simon M. Rook\Documents\School\1Tarleton\Classes\Adv Quant\Lab 2","no","mono","no","18","no","white","no","no","768","legacy","15","15","C:/Users/Simon M. Rook/Documents/School/1Tarleton/Classes/Adv Quant/Lab 2/flanker-data/subject-2.csv","legacy","Lentiform Loewenfeld","3.3.10","0","s","NA","s","NA","NA","s","414","NA","43980","NA","NA","414","2","legacy","1024","2","48000","-16","experiment","SSSSS","2","even","45142","NA","NA","70809","70308","1159","NA","NA","71862","1161","NA","NA","71963","72377","71861","71963","Flanker Task","12","7686","16","yes","1024"
"76.47058823529412","76.47058823529412","486.52941176470586","486.52941176470586","black","legacy","legacy","legacy","0","congruent","uniform","1","undefined","1","s","0","0","0","16","16","0","16","0","16","0","0","0","16","16","16","16","Fri Sep 24 19:36:56 2021","1500","The main experiment item","yes","SR-FlankerTask.osexp","C:\Users\Simon M. Rook\Documents\School\1Tarleton\Classes\Adv Quant\Lab 2","no","mono","no","18","no","white","no","no","768","legacy","16","16","C:/Users/Simon M. Rook/Documents/School/1Tarleton/Classes/Adv Quant/Lab 2/flanker-data/subject-2.csv","legacy","Lentiform Loewenfeld","3.3.10","0","s","NA","s","NA","NA","s","585","NA","43980","NA","NA","585","2","legacy","1024","2","48000","-16","experiment","SSSSS","2","even","45142","NA","NA","72380","70308","1159","NA","NA","73434","1161","NA","NA","73535","74121","73432","73535","Flanker Task","13","8271","17","yes","1024"
"77.77777777777777","77.77777777777777","489.22222222222223","489.22222222222223","black","legacy","legacy","legacy","0","incongruent","uniform","1","undefined","1","h","0","0","0","17","17","0","17","0","17","0","0","0","17","17","17","17","Fri Sep 24 19:36:56 2021","1500","The main experiment item","yes","SR-FlankerTask.osexp","C:\Users\Simon M. Rook\Documents\School\1Tarleton\Classes\Adv Quant\Lab 2","no","mono","no","18","no","white","no","no","768","legacy","17","17","C:/Users/Simon M. Rook/Documents/School/1Tarleton/Classes/Adv Quant/Lab 2/flanker-data/subject-2.csv","legacy","Lentiform Loewenfeld","3.3.10","0","h","NA","s","NA","NA","h","535","NA","43980","NA","NA","535","2","legacy","1024","2","48000","-16","experiment","SSHSS","2","even","45142","NA","NA","74125","70308","1159","NA","NA","75180","1161","NA","NA","75281","75817","75179","75281","Flanker Task","14","8806","18","yes","1024"
"78.94736842105263","78.94736842105263","490.94736842105266","490.94736842105266","black","legacy","legacy","legacy","0","incongruent","uniform","1","undefined","1","h","0","0","0","18","18","0","18","0","18","0","0","0","18","18","18","18","Fri Sep 24 19:36:56 2021","1500","The main experiment item","yes","SR-FlankerTask.osexp","C:\Users\Simon M. Rook\Documents\School\1Tarleton\Classes\Adv Quant\Lab 2","no","mono","no","18","no","white","no","no","768","legacy","18","18","C:/Users/Simon M. Rook/Documents/School/1Tarleton/Classes/Adv Quant/Lab 2/flanker-data/subject-2.csv","legacy","Lentiform Loewenfeld","3.3.10","0","h","NA","s","NA","NA","h","522","NA","43980","NA","NA","522","2","legacy","1024","2","48000","-16","experiment","SSHSS","2","even","45142","NA","NA","75820","70308","1159","NA","NA","76874","1161","NA","NA","76975","77498","76872","76975","Flanker Task","15","9328","19","yes","1024"
"80","80","489.7","489.7","black","legacy","legacy","legacy","0","congruent","uniform","1","undefined","1","s","0","0","0","19","19","0","19","0","19","0","0","0","19","19","19","19","Fri Sep 24 19:36:56 2021","1500","The main experiment item","yes","SR-FlankerTask.osexp","C:\Users\Simon M. Rook\Documents\School\1Tarleton\Classes\Adv Quant\Lab 2","no","mono","no","18","no","white","no","no","768","legacy","19","19","C:/Users/Simon M. Rook/Documents/School/1Tarleton/Classes/Adv Quant/Lab 2/flanker-data/subject-2.csv","legacy","Lentiform Loewenfeld","3.3.10","0","s","NA","s","NA","NA","s","466","NA","43980","NA","NA","466","2","legacy","1024","2","48000","-16","experiment","SSSSS","2","even","45142","NA","NA","77501","70308","1159","NA","NA","78554","1161","NA","NA","78656","79122","78553","78656","Flanker Task","16","9794","20","yes","1024"
"76.19047619047619","76.19047619047619","487.4761904761905","487.4761904761905","black","legacy","legacy","legacy","0","incongruent","uniform","0","undefined","0","h","0","0","0","20","20","0","20","0","20","0","0","0","20","20","20","20","Fri Sep 24 19:36:56 2021","1500","The main experiment item","yes","SR-FlankerTask.osexp","C:\Users\Simon M. Rook\Documents\School\1Tarleton\Classes\Adv Quant\Lab 2","no","mono","no","18","no","white","no","no","768","legacy","20","20","C:/Users/Simon M. Rook/Documents/School/1Tarleton/Classes/Adv Quant/Lab 2/flanker-data/subject-2.csv","legacy","Lentiform Loewenfeld","3.3.10","0","s","NA","s","NA","NA","s","443","NA","43980","NA","NA","443","2","legacy","1024","2","48000","-16","experiment","SSHSS","2","even","45142","NA","NA","79125","70308","1159","NA","NA","80178","1161","NA","NA","80279","80722","80176","80279","Flanker Task","16","10237","21","yes","1024"
"77.27272727272727","77.27272727272727","486.27272727272725","486.27272727272725","black","legacy","legacy","legacy","0","congruent","uniform","1","undefined","1","h","0","0","0","21","21","0","21","0","21","0","0","0","21","21","21","21","Fri Sep 24 19:36:56 2021","1500","The main experiment item","yes","SR-FlankerTask.osexp","C:\Users\Simon M. Rook\Documents\School\1Tarleton\Classes\Adv Quant\Lab 2","no","mono","no","18","no","white","no","no","768","legacy","21","21","C:/Users/Simon M. Rook/Documents/School/1Tarleton/Classes/Adv Quant/Lab 2/flanker-data/subject-2.csv","legacy","Lentiform Loewenfeld","3.3.10","0","h","NA","s","NA","NA","h","461","NA","43980","NA","NA","461","2","legacy","1024","2","48000","-16","experiment","HHHHH","2","even","45142","NA","NA","81226","80725","1159","NA","NA","82279","1161","NA","NA","82380","82842","82278","82380","Flanker Task","17","10698","22","yes","1024"
"78.26086956521739","78.26086956521739","488.5217391304348","488.5217391304348","black","legacy","legacy","legacy","0","incongruent","uniform","1","undefined","1","s","0","0","0","22","22","0","22","0","22","0","0","0","22","22","22","22","Fri Sep 24 19:36:56 2021","1500","The main experiment item","yes","SR-FlankerTask.osexp","C:\Users\Simon M. Rook\Documents\School\1Tarleton\Classes\Adv Quant\Lab 2","no","mono","no","18","no","white","no","no","768","legacy","22","22","C:/Users/Simon M. Rook/Documents/School/1Tarleton/Classes/Adv Quant/Lab 2/flanker-data/subject-2.csv","legacy","Lentiform Loewenfeld","3.3.10","0","s","NA","s","NA","NA","s","538","NA","43980","NA","NA","538","2","legacy","1024","2","48000","-16","experiment","HHSHH","2","even","45142","NA","NA","82845","80725","1159","NA","NA","83898","1161","NA","NA","83999","84538","83897","83999","Flanker Task","18","11236","23","yes","1024"
"79.16666666666667","79.16666666666667","494.625","494.625","black","legacy","legacy","legacy","0","incongruent","uniform","1","undefined","1","h","0","0","0","23","23","0","23","0","23","0","0","0","23","23","23","23","Fri Sep 24 19:36:56 2021","1500","The main experiment item","yes","SR-FlankerTask.osexp","C:\Users\Simon M. Rook\Documents\School\1Tarleton\Classes\Adv Quant\Lab 2","no","mono","no","18","no","white","no","no","768","legacy","23","23","C:/Users/Simon M. Rook/Documents/School/1Tarleton/Classes/Adv Quant/Lab 2/flanker-data/subject-2.csv","legacy","Lentiform Loewenfeld","3.3.10","0","h","NA","s","NA","NA","h","635","NA","43980","NA","NA","635","2","legacy","1024","2","48000","-16","experiment","SSHSS","2","even","45142","NA","NA","84541","80725","1159","NA","NA","85594","1161","NA","NA","85695","86331","85592","85695","Flanker Task","19","11871","24","yes","1024"
"80","80","496.68","496.68","black","legacy","legacy","legacy","0","incongruent","uniform","1","undefined","1","s","0","0","0","24","24","0","24","0","24","0","0","0","24","24","24","24","Fri Sep 24 19:36:56 2021","1500","The main experiment item","yes","SR-FlankerTask.osexp","C:\Users\Simon M. Rook\Documents\School\1Tarleton\Classes\Adv Quant\Lab 2","no","mono","no","18","no","white","no","no","768","legacy","24","24","C:/Users/Simon M. Rook/Documents/School/1Tarleton/Classes/Adv Quant/Lab 2/flanker-data/subject-2.csv","legacy","Lentiform Loewenfeld","3.3.10","0","s","NA","s","NA","NA","s","546","NA","43980","NA","NA","546","2","legacy","1024","2","48000","-16","experiment","HHSHH","2","even","45142","NA","NA","86334","80725","1159","NA","NA","87387","1161","NA","NA","87488","88034","87385","87488","Flanker Task","20","12417","25","yes","1024"
"80.76923076923077","80.76923076923077","502.61538461538464","502.61538461538464","black","legacy","legacy","legacy","0","congruent","uniform","1","undefined","1","s","0","0","0","25","25","0","25","0","25","0","0","0","25","25","25","25","Fri Sep 24 19:36:56 2021","1500","The main experiment item","yes","SR-FlankerTask.osexp","C:\Users\Simon M. Rook\Documents\School\1Tarleton\Classes\Adv Quant\Lab 2","no","mono","no","18","no","white","no","no","768","legacy","25","25","C:/Users/Simon M. Rook/Documents/School/1Tarleton/Classes/Adv Quant/Lab 2/flanker-data/subject-2.csv","legacy","Lentiform Loewenfeld","3.3.10","0","s","NA","s","NA","NA","s","651","NA","43980","NA","NA","651","2","legacy","1024","2","48000","-16","experiment","SSSSS","2","even","45142","NA","NA","88038","80725","1159","NA","NA","89091","1161","NA","NA","89192","89843","89089","89192","Flanker Task","21","13068","26","yes","1024"
"81.48148148148148","81.48148148148148","499.7037037037037","499.7037037037037","black","legacy","legacy","legacy","0","congruent","uniform","1","undefined","1","h","0","0","0","26","26","0","26","0","26","0","0","0","26","26","26","26","Fri Sep 24 19:36:56 2021","1500","The main experiment item","yes","SR-FlankerTask.osexp","C:\Users\Simon M. Rook\Documents\School\1Tarleton\Classes\Adv Quant\Lab 2","no","mono","no","18","no","white","no","no","768","legacy","26","26","C:/Users/Simon M. Rook/Documents/School/1Tarleton/Classes/Adv Quant/Lab 2/flanker-data/subject-2.csv","legacy","Lentiform Loewenfeld","3.3.10","0","h","NA","s","NA","NA","h","424","NA","43980","NA","NA","424","2","legacy","1024","2","48000","-16","experiment","HHHHH","2","even","45142","NA","NA","89846","80725","1159","NA","NA","90901","1161","NA","NA","91002","91427","90899","91002","Flanker Task","22","13492","27","yes","1024"
"82.14285714285714","82.14285714285714","503.17857142857144","503.17857142857144","black","legacy","legacy","legacy","0","incongruent","uniform","1","undefined","1","h","0","0","0","27","27","0","27","0","27","0","0","0","27","27","27","27","Fri Sep 24 19:36:56 2021","1500","The main experiment item","yes","SR-FlankerTask.osexp","C:\Users\Simon M. Rook\Documents\School\1Tarleton\Classes\Adv Quant\Lab 2","no","mono","no","18","no","white","no","no","768","legacy","27","27","C:/Users/Simon M. Rook/Documents/School/1Tarleton/Classes/Adv Quant/Lab 2/flanker-data/subject-2.csv","legacy","Lentiform Loewenfeld","3.3.10","0","h","NA","s","NA","NA","h","597","NA","43980","NA","NA","597","2","legacy","1024","2","48000","-16","experiment","SSHSS","2","even","45142","NA","NA","91430","80725","1159","NA","NA","92496","1161","NA","NA","92597","93195","92494","92597","Flanker Task","23","14089","28","yes","1024"
"82.75862068965517","82.75862068965517","504.6551724137931","504.6551724137931","black","legacy","legacy","legacy","0","congruent","uniform","1","undefined","1","h","0","0","0","28","28","0","28","0","28","0","0","0","28","28","28","28","Fri Sep 24 19:36:56 2021","1500","The main experiment item","yes","SR-FlankerTask.osexp","C:\Users\Simon M. Rook\Documents\School\1Tarleton\Classes\Adv Quant\Lab 2","no","mono","no","18","no","white","no","no","768","legacy","28","28","C:/Users/Simon M. Rook/Documents/School/1Tarleton/Classes/Adv Quant/Lab 2/flanker-data/subject-2.csv","legacy","Lentiform Loewenfeld","3.3.10","0","h","NA","s","NA","NA","h","546","NA","43980","NA","NA","546","2","legacy","1024","2","48000","-16","experiment","HHHHH","2","even","45142","NA","NA","93198","80725","1159","NA","NA","94252","1161","NA","NA","94353","94900","94250","94353","Flanker Task","24","14635","29","yes","1024"
"83.33333333333333","83.33333333333333","503.1","503.1","black","legacy","legacy","legacy","0","incongruent","uniform","1","undefined","1","h","0","0","0","29","29","0","29","0","29","0","0","0","29","29","29","29","Fri Sep 24 19:36:56 2021","1500","The main experiment item","yes","SR-FlankerTask.osexp","C:\Users\Simon M. Rook\Documents\School\1Tarleton\Classes\Adv Quant\Lab 2","no","mono","no","18","no","white","no","no","768","legacy","29","29","C:/Users/Simon M. Rook/Documents/School/1Tarleton/Classes/Adv Quant/Lab 2/flanker-data/subject-2.csv","legacy","Lentiform Loewenfeld","3.3.10","0","h","NA","s","NA","NA","h","458","NA","43980","NA","NA","458","2","legacy","1024","2","48000","-16","experiment","SSHSS","2","even","45142","NA","NA","94903","80725","1159","NA","NA","95956","1161","NA","NA","96057","96520","95954","96057","Flanker Task","25","15093","30","yes","1024"
"83.87096774193549","83.87096774193549","499.93548387096774","499.93548387096774","black","legacy","legacy","legacy","0","incongruent","uniform","1","undefined","1","h","0","0","0","30","30","0","30","0","30","0","0","0","30","30","30","30","Fri Sep 24 19:36:56 2021","1500","The main experiment item","yes","SR-FlankerTask.osexp","C:\Users\Simon M. Rook\Documents\School\1Tarleton\Classes\Adv Quant\Lab 2","no","mono","no","18","no","white","no","no","768","legacy","30","30","C:/Users/Simon M. Rook/Documents/School/1Tarleton/Classes/Adv Quant/Lab 2/flanker-data/subject-2.csv","legacy","Lentiform Loewenfeld","3.3.10","0","h","NA","s","NA","NA","h","405","NA","43980","NA","NA","405","2","legacy","1024","2","48000","-16","experiment","SSHSS","2","even","45142","NA","NA","96528","80725","1159","NA","NA","97594","1161","NA","NA","97695","98100","97592","97695","Flanker Task","26","15498","31","yes","1024"
"84.375","84.375","500.125","500.125","black","legacy","legacy","legacy","0","congruent","uniform","1","undefined","1","s","0","0","0","31","31","0","31","0","31","0","0","0","31","31","31","31","Fri Sep 24 19:36:56 2021","1500","The main experiment item","yes","SR-FlankerTask.osexp","C:\Users\Simon M. Rook\Documents\School\1Tarleton\Classes\Adv Quant\Lab 2","no","mono","no","18","no","white","no","no","768","legacy","31","31","C:/Users/Simon M. Rook/Documents/School/1Tarleton/Classes/Adv Quant/Lab 2/flanker-data/subject-2.csv","legacy","Lentiform Loewenfeld","3.3.10","0","s","NA","s","NA","NA","s","506","NA","43980","NA","NA","506","2","legacy","1024","2","48000","-16","experiment","SSSSS","2","even","45142","NA","NA","98103","80725","1159","NA","NA","99156","1161","NA","NA","99257","99764","99154","99257","Flanker Task","27","16004","32","yes","1024"
"84.84848484848484","84.84848484848484","499.06060606060606","499.06060606060606","black","legacy","legacy","legacy","0","incongruent","uniform","1","undefined","1","h","0","0","0","32","32","0","32","0","32","0","0","0","32","32","32","32","Fri Sep 24 19:36:56 2021","1500","The main experiment item","yes","SR-FlankerTask.osexp","C:\Users\Simon M. Rook\Documents\School\1Tarleton\Classes\Adv Quant\Lab 2","no","mono","no","18","no","white","no","no","768","legacy","32","32","C:/Users/Simon M. Rook/Documents/School/1Tarleton/Classes/Adv Quant/Lab 2/flanker-data/subject-2.csv","legacy","Lentiform Loewenfeld","3.3.10","0","h","NA","s","NA","NA","h","465","NA","43980","NA","NA","465","2","legacy","1024","2","48000","-16","experiment","SSHSS","2","even","45142","NA","NA","99767","80725","1159","NA","NA","100821","1161","NA","NA","100922","101388","100819","100922","Flanker Task","28","16469","33","yes","1024"
"85.29411764705883","85.29411764705883","497.61764705882354","497.61764705882354","black","legacy","legacy","legacy","0","congruent","uniform","1","undefined","1","h","0","0","0","33","33","0","33","0","33","0","0","0","33","33","33","33","Fri Sep 24 19:36:56 2021","1500","The main experiment item","yes","SR-FlankerTask.osexp","C:\Users\Simon M. Rook\Documents\School\1Tarleton\Classes\Adv Quant\Lab 2","no","mono","no","18","no","white","no","no","768","legacy","33","33","C:/Users/Simon M. Rook/Documents/School/1Tarleton/Classes/Adv Quant/Lab 2/flanker-data/subject-2.csv","legacy","Lentiform Loewenfeld","3.3.10","0","h","NA","s","NA","NA","h","450","NA","43980","NA","NA","450","2","legacy","1024","2","48000","-16","experiment","HHHHH","2","even","45142","NA","NA","101391","80725","1159","NA","NA","102445","1161","NA","NA","102546","102997","102443","102546","Flanker Task","29","16919","34","yes","1024"
"85.71428571428571","85.71428571428571","502.2","502.2","black","legacy","legacy","legacy","0","incongruent","uniform","1","undefined","1","s","0","0","0","34","34","0","34","0","34","0","0","0","34","34","34","34","Fri Sep 24 19:36:56 2021","1500","The main experiment item","yes","SR-FlankerTask.osexp","C:\Users\Simon M. Rook\Documents\School\1Tarleton\Classes\Adv Quant\Lab 2","no","mono","no","18","no","white","no","no","768","legacy","34","34","C:/Users/Simon M. Rook/Documents/School/1Tarleton/Classes/Adv Quant/Lab 2/flanker-data/subject-2.csv","legacy","Lentiform Loewenfeld","3.3.10","0","s","NA","s","NA","NA","s","658","NA","43980","NA","NA","658","2","legacy","1024","2","48000","-16","experiment","HHSHH","2","even","45142","NA","NA","103000","80725","1159","NA","NA","104053","1161","NA","NA","104154","104813","104051","104154","Flanker Task","30","17577","35","yes","1024"
"86.11111111111111","86.11111111111111","500.94444444444446","500.94444444444446","black","legacy","legacy","legacy","0","congruent","uniform","1","undefined","1","h","0","0","0","35","35","0","35","0","35","0","0","0","35","35","35","35","Fri Sep 24 19:36:56 2021","1500","The main experiment item","yes","SR-FlankerTask.osexp","C:\Users\Simon M. Rook\Documents\School\1Tarleton\Classes\Adv Quant\Lab 2","no","mono","no","18","no","white","no","no","768","legacy","35","35","C:/Users/Simon M. Rook/Documents/School/1Tarleton/Classes/Adv Quant/Lab 2/flanker-data/subject-2.csv","legacy","Lentiform Loewenfeld","3.3.10","0","h","NA","s","NA","NA","h","457","NA","43980","NA","NA","457","2","legacy","1024","2","48000","-16","experiment","HHHHH","2","even","45142","NA","NA","104817","80725","1159","NA","NA","105870","1161","NA","NA","105971","106429","105868","105971","Flanker Task","31","18034","36","yes","1024"
"86.48648648648648","86.48648648648648","501.94594594594594","501.94594594594594","black","legacy","legacy","legacy","0","incongruent","uniform","1","undefined","1","s","0","0","0","36","36","0","36","0","36","0","0","0","36","36","36","36","Fri Sep 24 19:36:56 2021","1500","The main experiment item","yes","SR-FlankerTask.osexp","C:\Users\Simon M. Rook\Documents\School\1Tarleton\Classes\Adv Quant\Lab 2","no","mono","no","18","no","white","no","no","768","legacy","36","36","C:/Users/Simon M. Rook/Documents/School/1Tarleton/Classes/Adv Quant/Lab 2/flanker-data/subject-2.csv","legacy","Lentiform Loewenfeld","3.3.10","0","s","NA","s","NA","NA","s","538","NA","43980","NA","NA","538","2","legacy","1024","2","48000","-16","experiment","HHSHH","2","even","45142","NA","NA","106432","80725","1159","NA","NA","107485","1161","NA","NA","107586","108125","107484","107586","Flanker Task","32","18572","37","yes","1024"
"86.84210526315789","86.84210526315789","499.94736842105266","499.94736842105266","black","legacy","legacy","legacy","0","congruent","uniform","1","undefined","1","s","0","0","0","37","37","0","37","0","37","0","0","0","37","37","37","37","Fri Sep 24 19:36:56 2021","1500","The main experiment item","yes","SR-FlankerTask.osexp","C:\Users\Simon M. Rook\Documents\School\1Tarleton\Classes\Adv Quant\Lab 2","no","mono","no","18","no","white","no","no","768","legacy","37","37","C:/Users/Simon M. Rook/Documents/School/1Tarleton/Classes/Adv Quant/Lab 2/flanker-data/subject-2.csv","legacy","Lentiform Loewenfeld","3.3.10","0","s","NA","s","NA","NA","s","426","NA","43980","NA","NA","426","2","legacy","1024","2","48000","-16","experiment","SSSSS","2","even","45142","NA","NA","108128","80725","1159","NA","NA","109181","1161","NA","NA","109282","109709","109180","109282","Flanker Task","33","18998","38","yes","1024"
"87.17948717948718","87.17948717948718","501.84615384615387","501.84615384615387","black","legacy","legacy","legacy","0","congruent","uniform","1","undefined","1","h","0","0","0","38","38","0","38","0","38","0","0","0","38","38","38","38","Fri Sep 24 19:36:56 2021","1500","The main experiment item","yes","SR-FlankerTask.osexp","C:\Users\Simon M. Rook\Documents\School\1Tarleton\Classes\Adv Quant\Lab 2","no","mono","no","18","no","white","no","no","768","legacy","38","38","C:/Users/Simon M. Rook/Documents/School/1Tarleton/Classes/Adv Quant/Lab 2/flanker-data/subject-2.csv","legacy","Lentiform Loewenfeld","3.3.10","0","h","NA","s","NA","NA","h","574","NA","43980","NA","NA","574","2","legacy","1024","2","48000","-16","experiment","HHHHH","2","even","45142","NA","NA","109712","80725","1159","NA","NA","110778","1161","NA","NA","110879","111454","110776","110879","Flanker Task","34","19572","39","yes","1024"
"87.5","87.5","499.725","499.725","black","legacy","legacy","legacy","0","congruent","uniform","1","undefined","1","s","0","0","0","39","39","0","39","0","39","0","0","0","39","39","39","39","Fri Sep 24 19:36:56 2021","1500","The main experiment item","yes","SR-FlankerTask.osexp","C:\Users\Simon M. Rook\Documents\School\1Tarleton\Classes\Adv Quant\Lab 2","no","mono","no","18","no","white","no","no","768","legacy","39","39","C:/Users/Simon M. Rook/Documents/School/1Tarleton/Classes/Adv Quant/Lab 2/flanker-data/subject-2.csv","legacy","Lentiform Loewenfeld","3.3.10","0","s","NA","s","NA","NA","s","417","NA","43980","NA","NA","417","2","legacy","1024","2","48000","-16","experiment","SSSSS","2","even","45142","NA","NA","111457","80725","1159","NA","NA","112511","1161","NA","NA","112612","113030","112509","112612","Flanker Task","35","19989","40","yes","1024"
"87.8048780487805","87.8048780487805","501.8292682926829","501.8292682926829","black","legacy","legacy","legacy","0","incongruent","uniform","1","undefined","1","s","0","0","0","40","40","0","40","0","40","0","0","0","40","40","40","40","Fri Sep 24 19:36:56 2021","1500","The main experiment item","yes","SR-FlankerTask.osexp","C:\Users\Simon M. Rook\Documents\School\1Tarleton\Classes\Adv Quant\Lab 2","no","mono","no","18","no","white","no","no","768","legacy","40","40","C:/Users/Simon M. Rook/Documents/School/1Tarleton/Classes/Adv Quant/Lab 2/flanker-data/subject-2.csv","legacy","Lentiform Loewenfeld","3.3.10","0","s","NA","s","NA","NA","s","586","NA","43980","NA","NA","586","2","legacy","1024","2","48000","-16","experiment","HHSHH","2","even","45142","NA","NA","113033","80725","1159","NA","NA","114086","1161","NA","NA","114187","114773","114084","114187","Flanker Task","36","20575","41","yes","1024"
"88.0952380952381","88.0952380952381","501.2142857142857","501.2142857142857","black","legacy","legacy","legacy","0","incongruent","uniform","1","undefined","1","s","0","0","0","41","41","0","41","0","41","0","0","0","41","41","41","41","Fri Sep 24 19:36:56 2021","1500","The main experiment item","yes","SR-FlankerTask.osexp","C:\Users\Simon M. Rook\Documents\School\1Tarleton\Classes\Adv Quant\Lab 2","no","mono","no","18","no","white","no","no","768","legacy","41","41","C:/Users/Simon M. Rook/Documents/School/1Tarleton/Classes/Adv Quant/Lab 2/flanker-data/subject-2.csv","legacy","Lentiform Loewenfeld","3.3.10","0","s","NA","s","NA","NA","s","476","NA","43980","NA","NA","476","2","legacy","1024","2","48000","-16","experiment","HHSHH","2","even","45142","NA","NA","114777","80725","1159","NA","NA","115845","1161","NA","NA","115946","116423","115843","115946","Flanker Task","37","21051","42","yes","1024"
"88.37209302325581","88.37209302325581","501.69767441860466","501.69767441860466","black","legacy","legacy","legacy","0","incongruent","uniform","1","undefined","1","h","0","0","0","42","42","0","42","0","42","0","0","0","42","42","42","42","Fri Sep 24 19:36:56 2021","1500","The main experiment item","yes","SR-FlankerTask.osexp","C:\Users\Simon M. Rook\Documents\School\1Tarleton\Classes\Adv Quant\Lab 2","no","mono","no","18","no","white","no","no","768","legacy","42","42","C:/Users/Simon M. Rook/Documents/School/1Tarleton/Classes/Adv Quant/Lab 2/flanker-data/subject-2.csv","legacy","Lentiform Loewenfeld","3.3.10","0","h","NA","s","NA","NA","h","522","NA","43980","NA","NA","522","2","legacy","1024","2","48000","-16","experiment","SSHSS","2","even","45142","NA","NA","116426","80725","1159","NA","NA","117479","1161","NA","NA","117580","118102","117477","117580","Flanker Task","38","21573","43","yes","1024"
"88.63636363636364","88.63636363636364","501.8181818181818","501.8181818181818","black","legacy","legacy","legacy","0","incongruent","uniform","1","undefined","1","s","0","0","0","43","43","0","43","0","43","0","0","0","43","43","43","43","Fri Sep 24 19:36:56 2021","1500","The main experiment item","yes","SR-FlankerTask.osexp","C:\Users\Simon M. Rook\Documents\School\1Tarleton\Classes\Adv Quant\Lab 2","no","mono","no","18","no","white","no","no","768","legacy","43","43","C:/Users/Simon M. Rook/Documents/School/1Tarleton/Classes/Adv Quant/Lab 2/flanker-data/subject-2.csv","legacy","Lentiform Loewenfeld","3.3.10","0","s","NA","s","NA","NA","s","507","NA","43980","NA","NA","507","2","legacy","1024","2","48000","-16","experiment","HHSHH","2","even","45142","NA","NA","118105","80725","1159","NA","NA","119158","1161","NA","NA","119259","119767","119157","119259","Flanker Task","39","22080","44","yes","1024"
"88.88888888888889","88.88888888888889","501.73333333333335","501.73333333333335","black","legacy","legacy","legacy","0","congruent","uniform","1","undefined","1","s","0","0","0","44","44","0","44","0","44","0","0","0","44","44","44","44","Fri Sep 24 19:36:56 2021","1500","The main experiment item","yes","SR-FlankerTask.osexp","C:\Users\Simon M. Rook\Documents\School\1Tarleton\Classes\Adv Quant\Lab 2","no","mono","no","18","no","white","no","no","768","legacy","44","44","C:/Users/Simon M. Rook/Documents/School/1Tarleton/Classes/Adv Quant/Lab 2/flanker-data/subject-2.csv","legacy","Lentiform Loewenfeld","3.3.10","0","s","NA","s","NA","NA","s","498","NA","43980","NA","NA","498","2","legacy","1024","2","48000","-16","experiment","SSSSS","2","even","45142","NA","NA","119770","80725","1159","NA","NA","120823","1161","NA","NA","120924","121422","120821","120924","Flanker Task","40","22578","45","yes","1024"
"89.1304347826087","89.1304347826087","500.0869565217391","500.0869565217391","black","legacy","legacy","legacy","0","incongruent","uniform","1","undefined","1","s","0","0","0","45","45","0","45","0","45","0","0","0","45","45","45","45","Fri Sep 24 19:36:56 2021","1500","The main experiment item","yes","SR-FlankerTask.osexp","C:\Users\Simon M. Rook\Documents\School\1Tarleton\Classes\Adv Quant\Lab 2","no","mono","no","18","no","white","no","no","768","legacy","45","45","C:/Users/Simon M. Rook/Documents/School/1Tarleton/Classes/Adv Quant/Lab 2/flanker-data/subject-2.csv","legacy","Lentiform Loewenfeld","3.3.10","0","s","NA","s","NA","NA","s","426","NA","43980","NA","NA","426","2","legacy","1024","2","48000","-16","experiment","HHSHH","2","even","45142","NA","NA","121426","80725","1159","NA","NA","122479","1161","NA","NA","122580","123006","122477","122580","Flanker Task","41","23004","46","yes","1024"
"89.36170212765957","89.36170212765957","500.36170212765956","500.36170212765956","black","legacy","legacy","legacy","0","incongruent","uniform","1","undefined","1","s","0","0","0","46","46","0","46","0","46","0","0","0","46","46","46","46","Fri Sep 24 19:36:56 2021","1500","The main experiment item","yes","SR-FlankerTask.osexp","C:\Users\Simon M. Rook\Documents\School\1Tarleton\Classes\Adv Quant\Lab 2","no","mono","no","18","no","white","no","no","768","legacy","46","46","C:/Users/Simon M. Rook/Documents/School/1Tarleton/Classes/Adv Quant/Lab 2/flanker-data/subject-2.csv","legacy","Lentiform Loewenfeld","3.3.10","0","s","NA","s","NA","NA","s","513","NA","43980","NA","NA","513","2","legacy","1024","2","48000","-16","experiment","HHSHH","2","even","45142","NA","NA","123009","80725","1159","NA","NA","124064","1161","NA","NA","124165","124679","124062","124165","Flanker Task","42","23517","47","yes","1024"
"89.58333333333333","89.58333333333333","498.4166666666667","498.4166666666667","black","legacy","legacy","legacy","0","congruent","uniform","1","undefined","1","s","0","0","0","47","47","0","47","0","47","0","0","0","47","47","47","47","Fri Sep 24 19:36:56 2021","1500","The main experiment item","yes","SR-FlankerTask.osexp","C:\Users\Simon M. Rook\Documents\School\1Tarleton\Classes\Adv Quant\Lab 2","no","mono","no","18","no","white","no","no","768","legacy","47","47","C:/Users/Simon M. Rook/Documents/School/1Tarleton/Classes/Adv Quant/Lab 2/flanker-data/subject-2.csv","legacy","Lentiform Loewenfeld","3.3.10","0","s","NA","s","NA","NA","s","407","NA","43980","NA","NA","407","2","legacy","1024","2","48000","-16","experiment","SSSSS","2","even","45142","NA","NA","124682","80725","1159","NA","NA","125762","1161","NA","NA","125863","126271","125760","125863","Flanker Task","43","23924","48","yes","1024"
"89.79591836734694","89.79591836734694","495.7959183673469","495.7959183673469","black","legacy","legacy","legacy","0","congruent","uniform","1","undefined","1","s","0","0","0","48","48","0","48","0","48","0","0","0","48","48","48","48","Fri Sep 24 19:36:56 2021","1500","The main experiment item","yes","SR-FlankerTask.osexp","C:\Users\Simon M. Rook\Documents\School\1Tarleton\Classes\Adv Quant\Lab 2","no","mono","no","18","no","white","no","no","768","legacy","48","48","C:/Users/Simon M. Rook/Documents/School/1Tarleton/Classes/Adv Quant/Lab 2/flanker-data/subject-2.csv","legacy","Lentiform Loewenfeld","3.3.10","0","s","NA","s","NA","NA","s","370","NA","43980","NA","NA","370","2","legacy","1024","2","48000","-16","experiment","SSSSS","2","even","45142","NA","NA","126274","80725","1159","NA","NA","127327","1161","NA","NA","127428","127799","127326","127428","Flanker Task","44","24294","49","yes","1024"
"90","90","495.86","495.86","black","legacy","legacy","legacy","0","incongruent","uniform","1","undefined","1","h","0","0","0","49","49","0","49","0","49","0","0","0","49","49","49","49","Fri Sep 24 19:36:56 2021","1500","The main experiment item","yes","SR-FlankerTask.osexp","C:\Users\Simon M. Rook\Documents\School\1Tarleton\Classes\Adv Quant\Lab 2","no","mono","no","18","no","white","no","no","768","legacy","49","49","C:/Users/Simon M. Rook/Documents/School/1Tarleton/Classes/Adv Quant/Lab 2/flanker-data/subject-2.csv","legacy","Lentiform Loewenfeld","3.3.10","0","h","NA","s","NA","NA","h","499","NA","43980","NA","NA","499","2","legacy","1024","2","48000","-16","experiment","SSHSS","2","even","45142","NA","NA","127802","80725","1159","NA","NA","128855","1161","NA","NA","128956","129456","128854","128956","Flanker Task","45","24793","50","yes","1024"
"90.19607843137256","90.19607843137256","494.47058823529414","494.47058823529414","black","legacy","legacy","legacy","0","congruent","uniform","1","undefined","1","h","0","0","0","50","50","0","50","0","50","0","0","0","50","50","50","50","Fri Sep 24 19:36:56 2021","1500","The main experiment item","yes","SR-FlankerTask.osexp","C:\Users\Simon M. Rook\Documents\School\1Tarleton\Classes\Adv Quant\Lab 2","no","mono","no","18","no","white","no","no","768","legacy","50","50","C:/Users/Simon M. Rook/Documents/School/1Tarleton/Classes/Adv Quant/Lab 2/flanker-data/subject-2.csv","legacy","Lentiform Loewenfeld","3.3.10","0","h","NA","s","NA","NA","h","425","NA","43980","NA","NA","425","2","legacy","1024","2","48000","-16","experiment","HHHHH","2","even","45142","NA","NA","129459","80725","1159","NA","NA","130513","1161","NA","NA","130614","131040","130511","130614","Flanker Task","46","25218","51","yes","1024"
"90.38461538461539","90.38461538461539","492.84615384615387","492.84615384615387","black","legacy","legacy","legacy","0","congruent","uniform","1","undefined","1","h","0","0","0","51","51","0","51","0","51","0","0","0","51","51","51","51","Fri Sep 24 19:36:56 2021","1500","The main experiment item","yes","SR-FlankerTask.osexp","C:\Users\Simon M. Rook\Documents\School\1Tarleton\Classes\Adv Quant\Lab 2","no","mono","no","18","no","white","no","no","768","legacy","51","51","C:/Users/Simon M. Rook/Documents/School/1Tarleton/Classes/Adv Quant/Lab 2/flanker-data/subject-2.csv","legacy","Lentiform Loewenfeld","3.3.10","0","h","NA","s","NA","NA","h","410","NA","43980","NA","NA","410","2","legacy","1024","2","48000","-16","experiment","HHHHH","2","even","45142","NA","NA","131043","80725","1159","NA","NA","132096","1161","NA","NA","132197","132607","132095","132197","Flanker Task","47","25628","52","yes","1024"
"90.56603773584905","90.56603773584905","490.7169811320755","490.7169811320755","black","legacy","legacy","legacy","0","congruent","uniform","1","undefined","1","h","0","0","0","52","52","0","52","0","52","0","0","0","52","52","52","52","Fri Sep 24 19:36:56 2021","1500","The main experiment item","yes","SR-FlankerTask.osexp","C:\Users\Simon M. Rook\Documents\School\1Tarleton\Classes\Adv Quant\Lab 2","no","mono","no","18","no","white","no","no","768","legacy","52","52","C:/Users/Simon M. Rook/Documents/School/1Tarleton/Classes/Adv Quant/Lab 2/flanker-data/subject-2.csv","legacy","Lentiform Loewenfeld","3.3.10","0","h","NA","s","NA","NA","h","380","NA","43980","NA","NA","380","2","legacy","1024","2","48000","-16","experiment","HHHHH","2","even","45142","NA","NA","132610","80725","1159","NA","NA","133663","1161","NA","NA","133764","134144","133661","133764","Flanker Task","48","26008","53","yes","1024"
"90.74074074074075","90.74074074074075","491","491","black","legacy","legacy","legacy","0","incongruent","uniform","1","undefined","1","h","0","0","0","53","53","0","53","0","53","0","0","0","53","53","53","53","Fri Sep 24 19:36:56 2021","1500","The main experiment item","yes","SR-FlankerTask.osexp","C:\Users\Simon M. Rook\Documents\School\1Tarleton\Classes\Adv Quant\Lab 2","no","mono","no","18","no","white","no","no","768","legacy","53","53","C:/Users/Simon M. Rook/Documents/School/1Tarleton/Classes/Adv Quant/Lab 2/flanker-data/subject-2.csv","legacy","Lentiform Loewenfeld","3.3.10","0","h","NA","s","NA","NA","h","506","NA","43980","NA","NA","506","2","legacy","1024","2","48000","-16","experiment","SSHSS","2","even","45142","NA","NA","134147","80725","1159","NA","NA","135200","1161","NA","NA","135301","135808","135198","135301","Flanker Task","49","26514","54","yes","1024"
"90.9090909090909","90.9090909090909","491.1454545454545","491.1454545454545","black","legacy","legacy","legacy","0","incongruent","uniform","1","undefined","1","s","0","0","0","54","54","0","54","0","54","0","0","0","54","54","54","54","Fri Sep 24 19:36:56 2021","1500","The main experiment item","yes","SR-FlankerTask.osexp","C:\Users\Simon M. Rook\Documents\School\1Tarleton\Classes\Adv Quant\Lab 2","no","mono","no","18","no","white","no","no","768","legacy","54","54","C:/Users/Simon M. Rook/Documents/School/1Tarleton/Classes/Adv Quant/Lab 2/flanker-data/subject-2.csv","legacy","Lentiform Loewenfeld","3.3.10","0","s","NA","s","NA","NA","s","499","NA","43980","NA","NA","499","2","legacy","1024","2","48000","-16","experiment","HHSHH","2","even","45142","NA","NA","135811","80725","1159","NA","NA","136864","1161","NA","NA","136965","137465","136863","136965","Flanker Task","50","27013","55","yes","1024"
"91.07142857142857","91.07142857142857","490.69642857142856","490.69642857142856","black","legacy","legacy","legacy","0","congruent","uniform","1","undefined","1","s","0","0","0","55","55","0","55","0","55","0","0","0","55","55","55","55","Fri Sep 24 19:36:56 2021","1500","The main experiment item","yes","SR-FlankerTask.osexp","C:\Users\Simon M. Rook\Documents\School\1Tarleton\Classes\Adv Quant\Lab 2","no","mono","no","18","no","white","no","no","768","legacy","55","55","C:/Users/Simon M. Rook/Documents/School/1Tarleton/Classes/Adv Quant/Lab 2/flanker-data/subject-2.csv","legacy","Lentiform Loewenfeld","3.3.10","0","s","NA","s","NA","NA","s","466","NA","43980","NA","NA","466","2","legacy","1024","2","48000","-16","experiment","SSSSS","2","even","45142","NA","NA","137468","80725","1159","NA","NA","138521","1161","NA","NA","138622","139089","138519","138622","Flanker Task","51","27479","56","yes","1024"
"91.2280701754386","91.2280701754386","491.3333333333333","491.3333333333333","black","legacy","legacy","legacy","0","incongruent","uniform","1","undefined","1","s","0","0","0","56","56","0","56","0","56","0","0","0","56","56","56","56","Fri Sep 24 19:36:56 2021","1500","The main experiment item","yes","SR-FlankerTask.osexp","C:\Users\Simon M. Rook\Documents\School\1Tarleton\Classes\Adv Quant\Lab 2","no","mono","no","18","no","white","no","no","768","legacy","56","56","C:/Users/Simon M. Rook/Documents/School/1Tarleton/Classes/Adv Quant/Lab 2/flanker-data/subject-2.csv","legacy","Lentiform Loewenfeld","3.3.10","0","s","NA","s","NA","NA","s","527","NA","43980","NA","NA","527","2","legacy","1024","2","48000","-16","experiment","HHSHH","2","even","45142","NA","NA","139092","80725","1159","NA","NA","140156","1161","NA","NA","140257","140785","140154","140257","Flanker Task","52","28006","57","yes","1024"
"91.37931034482759","91.37931034482759","490.1034482758621","490.1034482758621","black","legacy","legacy","legacy","0","congruent","uniform","1","undefined","1","s","0","0","0","57","57","0","57","0","57","0","0","0","57","57","57","57","Fri Sep 24 19:36:56 2021","1500","The main experiment item","yes","SR-FlankerTask.osexp","C:\Users\Simon M. Rook\Documents\School\1Tarleton\Classes\Adv Quant\Lab 2","no","mono","no","18","no","white","no","no","768","legacy","57","57","C:/Users/Simon M. Rook/Documents/School/1Tarleton/Classes/Adv Quant/Lab 2/flanker-data/subject-2.csv","legacy","Lentiform Loewenfeld","3.3.10","0","s","NA","s","NA","NA","s","420","NA","43980","NA","NA","420","2","legacy","1024","2","48000","-16","experiment","SSSSS","2","even","45142","NA","NA","140787","80725","1159","NA","NA","141839","1161","NA","NA","141941","142361","141838","141941","Flanker Task","53","28426","58","yes","1024"
"91.52542372881356","91.52542372881356","487.8135593220339","487.8135593220339","black","legacy","legacy","legacy","0","congruent","uniform","1","undefined","1","h","0","0","0","58","58","0","58","0","58","0","0","0","58","58","58","58","Fri Sep 24 19:36:56 2021","1500","The main experiment item","yes","SR-FlankerTask.osexp","C:\Users\Simon M. Rook\Documents\School\1Tarleton\Classes\Adv Quant\Lab 2","no","mono","no","18","no","white","no","no","768","legacy","58","58","C:/Users/Simon M. Rook/Documents/School/1Tarleton/Classes/Adv Quant/Lab 2/flanker-data/subject-2.csv","legacy","Lentiform Loewenfeld","3.3.10","0","h","NA","s","NA","NA","h","355","NA","43980","NA","NA","355","2","legacy","1024","2","48000","-16","experiment","HHHHH","2","even","45142","NA","NA","142364","80725","1159","NA","NA","143417","1161","NA","NA","143518","143873","143416","143518","Flanker Task","54","28781","59","yes","1024"
"90","90","485.81666666666666","485.81666666666666","black","legacy","legacy","legacy","0","incongruent","uniform","0","undefined","0","s","0","0","0","59","59","0","59","0","59","0","0","0","59","59","59","59","Fri Sep 24 19:36:56 2021","1500","The main experiment item","yes","SR-FlankerTask.osexp","C:\Users\Simon M. Rook\Documents\School\1Tarleton\Classes\Adv Quant\Lab 2","no","mono","no","18","no","white","no","no","768","legacy","59","59","C:/Users/Simon M. Rook/Documents/School/1Tarleton/Classes/Adv Quant/Lab 2/flanker-data/subject-2.csv","legacy","Lentiform Loewenfeld","3.3.10","0","h","NA","s","NA","NA","h","368","NA","43980","NA","NA","368","2","legacy","1024","2","48000","-16","experiment","HHSHH","2","even","45142","NA","NA","143877","80725","1159","NA","NA","144931","1161","NA","NA","145032","145401","144929","145032","Flanker Task","54","29149","60","yes","1024"
"90.1639344262295","90.1639344262295","486.1475409836066","486.1475409836066","black","legacy","legacy","legacy","0","incongruent","uniform","1","undefined","1","s","0","0","0","60","60","0","60","0","60","0","0","0","60","60","60","60","Fri Sep 24 19:36:56 2021","1500","The main experiment item","yes","SR-FlankerTask.osexp","C:\Users\Simon M. Rook\Documents\School\1Tarleton\Classes\Adv Quant\Lab 2","no","mono","no","18","no","white","no","no","768","legacy","60","60","C:/Users/Simon M. Rook/Documents/School/1Tarleton/Classes/Adv Quant/Lab 2/flanker-data/subject-2.csv","legacy","Lentiform Loewenfeld","3.3.10","0","s","NA","s","NA","NA","s","506","NA","43980","NA","NA","506","2","legacy","1024","2","48000","-16","experiment","HHSHH","2","even","45142","NA","NA","145906","145405","1159","NA","NA","146962","1161","NA","NA","147063","147570","146960","147063","Flanker Task","55","29655","61","yes","1024"
"90.3225806451613","90.3225806451613","486.06451612903226","486.06451612903226","black","legacy","legacy","legacy","0","congruent","uniform","1","undefined","1","h","0","0","0","61","61","0","61","0","61","0","0","0","61","61","61","61","Fri Sep 24 19:36:56 2021","1500","The main experiment item","yes","SR-FlankerTask.osexp","C:\Users\Simon M. Rook\Documents\School\1Tarleton\Classes\Adv Quant\Lab 2","no","mono","no","18","no","white","no","no","768","legacy","61","61","C:/Users/Simon M. Rook/Documents/School/1Tarleton/Classes/Adv Quant/Lab 2/flanker-data/subject-2.csv","legacy","Lentiform Loewenfeld","3.3.10","0","h","NA","s","NA","NA","h","481","NA","43980","NA","NA","481","2","legacy","1024","2","48000","-16","experiment","HHHHH","2","even","45142","NA","NA","147573","145405","1159","NA","NA","148627","1161","NA","NA","148728","149210","148626","148728","Flanker Task","56","30136","62","yes","1024"
"90.47619047619048","90.47619047619048","486.4761904761905","486.4761904761905","black","legacy","legacy","legacy","0","incongruent","uniform","1","undefined","1","h","0","0","0","62","62","0","62","0","62","0","0","0","62","62","62","62","Fri Sep 24 19:36:56 2021","1500","The main experiment item","yes","SR-FlankerTask.osexp","C:\Users\Simon M. Rook\Documents\School\1Tarleton\Classes\Adv Quant\Lab 2","no","mono","no","18","no","white","no","no","768","legacy","62","62","C:/Users/Simon M. Rook/Documents/School/1Tarleton/Classes/Adv Quant/Lab 2/flanker-data/subject-2.csv","legacy","Lentiform Loewenfeld","3.3.10","0","h","NA","s","NA","NA","h","512","NA","43980","NA","NA","512","2","legacy","1024","2","48000","-16","experiment","SSHSS","2","even","45142","NA","NA","149213","145405","1159","NA","NA","150277","1161","NA","NA","150378","150890","150275","150378","Flanker Task","57","30648","63","yes","1024"
"90.625","90.625","487.390625","487.390625","black","legacy","legacy","legacy","0","incongruent","uniform","1","undefined","1","s","0","0","0","63","63","0","63","0","63","0","0","0","63","63","63","63","Fri Sep 24 19:36:56 2021","1500","The main experiment item","yes","SR-FlankerTask.osexp","C:\Users\Simon M. Rook\Documents\School\1Tarleton\Classes\Adv Quant\Lab 2","no","mono","no","18","no","white","no","no","768","legacy","63","63","C:/Users/Simon M. Rook/Documents/School/1Tarleton/Classes/Adv Quant/Lab 2/flanker-data/subject-2.csv","legacy","Lentiform Loewenfeld","3.3.10","0","s","NA","s","NA","NA","s","545","NA","43980","NA","NA","545","2","legacy","1024","2","48000","-16","experiment","HHSHH","2","even","45142","NA","NA","150894","145405","1159","NA","NA","151947","1161","NA","NA","152048","152594","151945","152048","Flanker Task","58","31193","64","yes","1024"
"90.76923076923077","90.76923076923077","493.53846153846155","493.53846153846155","black","legacy","legacy","legacy","0","incongruent","uniform","1","undefined","1","h","0","0","0","64","64","0","64","0","64","0","0","0","64","64","64","64","Fri Sep 24 19:36:56 2021","1500","The main experiment item","yes","SR-FlankerTask.osexp","C:\Users\Simon M. Rook\Documents\School\1Tarleton\Classes\Adv Quant\Lab 2","no","mono","no","18","no","white","no","no","768","legacy","64","64","C:/Users/Simon M. Rook/Documents/School/1Tarleton/Classes/Adv Quant/Lab 2/flanker-data/subject-2.csv","legacy","Lentiform Loewenfeld","3.3.10","0","h","NA","s","NA","NA","h","887","NA","43980","NA","NA","887","2","legacy","1024","2","48000","-16","experiment","SSHSS","2","even","45142","NA","NA","152597","145405","1159","NA","NA","153653","1161","NA","NA","153754","154642","153651","153754","Flanker Task","59","32080","65","yes","1024"
"90.9090909090909","90.9090909090909","493.6212121212121","493.6212121212121","black","legacy","legacy","legacy","0","incongruent","uniform","1","undefined","1","h","0","0","0","65","65","0","65","0","65","0","0","0","65","65","65","65","Fri Sep 24 19:36:56 2021","1500","The main experiment item","yes","SR-FlankerTask.osexp","C:\Users\Simon M. Rook\Documents\School\1Tarleton\Classes\Adv Quant\Lab 2","no","mono","no","18","no","white","no","no","768","legacy","65","65","C:/Users/Simon M. Rook/Documents/School/1Tarleton/Classes/Adv Quant/Lab 2/flanker-data/subject-2.csv","legacy","Lentiform Loewenfeld","3.3.10","0","h","NA","s","NA","NA","h","499","NA","43980","NA","NA","499","2","legacy","1024","2","48000","-16","experiment","SSHSS","2","even","45142","NA","NA","154645","145405","1159","NA","NA","155698","1161","NA","NA","155799","156298","155696","155799","Flanker Task","60","32579","66","yes","1024"
"91.04477611940298","91.04477611940298","492.5970149253731","492.5970149253731","black","legacy","legacy","legacy","0","congruent","uniform","1","undefined","1","h","0","0","0","66","66","0","66","0","66","0","0","0","66","66","66","66","Fri Sep 24 19:36:56 2021","1500","The main experiment item","yes","SR-FlankerTask.osexp","C:\Users\Simon M. Rook\Documents\School\1Tarleton\Classes\Adv Quant\Lab 2","no","mono","no","18","no","white","no","no","768","legacy","66","66","C:/Users/Simon M. Rook/Documents/School/1Tarleton/Classes/Adv Quant/Lab 2/flanker-data/subject-2.csv","legacy","Lentiform Loewenfeld","3.3.10","0","h","NA","s","NA","NA","h","425","NA","43980","NA","NA","425","2","legacy","1024","2","48000","-16","experiment","HHHHH","2","even","45142","NA","NA","156302","145405","1159","NA","NA","157364","1161","NA","NA","157465","157891","157362","157465","Flanker Task","61","33004","67","yes","1024"
"91.17647058823529","91.17647058823529","491.63235294117646","491.63235294117646","black","legacy","legacy","legacy","0","congruent","uniform","1","undefined","1","h","0","0","0","67","67","0","67","0","67","0","0","0","67","67","67","67","Fri Sep 24 19:36:56 2021","1500","The main experiment item","yes","SR-FlankerTask.osexp","C:\Users\Simon M. Rook\Documents\School\1Tarleton\Classes\Adv Quant\Lab 2","no","mono","no","18","no","white","no","no","768","legacy","67","67","C:/Users/Simon M. Rook/Documents/School/1Tarleton/Classes/Adv Quant/Lab 2/flanker-data/subject-2.csv","legacy","Lentiform Loewenfeld","3.3.10","0","h","NA","s","NA","NA","h","427","NA","43980","NA","NA","427","2","legacy","1024","2","48000","-16","experiment","HHHHH","2","even","45142","NA","NA","157894","145405","1159","NA","NA","158947","1161","NA","NA","159048","159476","158946","159048","Flanker Task","62","33431","68","yes","1024"
"91.30434782608695","91.30434782608695","489.8550724637681","489.8550724637681","black","legacy","legacy","legacy","0","congruent","uniform","1","undefined","1","h","0","0","0","68","68","0","68","0","68","0","0","0","68","68","68","68","Fri Sep 24 19:36:56 2021","1500","The main experiment item","yes","SR-FlankerTask.osexp","C:\Users\Simon M. Rook\Documents\School\1Tarleton\Classes\Adv Quant\Lab 2","no","mono","no","18","no","white","no","no","768","legacy","68","68","C:/Users/Simon M. Rook/Documents/School/1Tarleton/Classes/Adv Quant/Lab 2/flanker-data/subject-2.csv","legacy","Lentiform Loewenfeld","3.3.10","0","h","NA","s","NA","NA","h","369","NA","43980","NA","NA","369","2","legacy","1024","2","48000","-16","experiment","HHHHH","2","even","45142","NA","NA","159479","145405","1159","NA","NA","160532","1161","NA","NA","160633","161003","160530","160633","Flanker Task","63","33800","69","yes","1024"
"91.42857142857143","91.42857142857143","489.95714285714286","489.95714285714286","black","legacy","legacy","legacy","0","incongruent","uniform","1","undefined","1","h","0","0","0","69","69","0","69","0","69","0","0","0","69","69","69","69","Fri Sep 24 19:36:56 2021","1500","The main experiment item","yes","SR-FlankerTask.osexp","C:\Users\Simon M. Rook\Documents\School\1Tarleton\Classes\Adv Quant\Lab 2","no","mono","no","18","no","white","no","no","768","legacy","69","69","C:/Users/Simon M. Rook/Documents/School/1Tarleton/Classes/Adv Quant/Lab 2/flanker-data/subject-2.csv","legacy","Lentiform Loewenfeld","3.3.10","0","h","NA","s","NA","NA","h","497","NA","43980","NA","NA","497","2","legacy","1024","2","48000","-16","experiment","SSHSS","2","even","45142","NA","NA","161006","145405","1159","NA","NA","162060","1161","NA","NA","162161","162659","162058","162161","Flanker Task","64","34297","70","yes","1024"
"91.54929577464789","91.54929577464789","489.40845070422534","489.40845070422534","black","legacy","legacy","legacy","0","congruent","uniform","1","undefined","1","h","0","0","0","70","70","0","70","0","70","0","0","0","70","70","70","70","Fri Sep 24 19:36:56 2021","1500","The main experiment item","yes","SR-FlankerTask.osexp","C:\Users\Simon M. Rook\Documents\School\1Tarleton\Classes\Adv Quant\Lab 2","no","mono","no","18","no","white","no","no","768","legacy","70","70","C:/Users/Simon M. Rook/Documents/School/1Tarleton/Classes/Adv Quant/Lab 2/flanker-data/subject-2.csv","legacy","Lentiform Loewenfeld","3.3.10","0","h","NA","s","NA","NA","h","451","NA","43980","NA","NA","451","2","legacy","1024","2","48000","-16","experiment","HHHHH","2","even","45142","NA","NA","162662","145405","1159","NA","NA","163715","1161","NA","NA","163816","164268","163714","163816","Flanker Task","65","34748","71","yes","1024"
"91.66666666666667","91.66666666666667","487.4166666666667","487.4166666666667","black","legacy","legacy","legacy","0","congruent","uniform","1","undefined","1","h","0","0","0","71","71","0","71","0","71","0","0","0","71","71","71","71","Fri Sep 24 19:36:56 2021","1500","The main experiment item","yes","SR-FlankerTask.osexp","C:\Users\Simon M. Rook\Documents\School\1Tarleton\Classes\Adv Quant\Lab 2","no","mono","no","18","no","white","no","no","768","legacy","71","71","C:/Users/Simon M. Rook/Documents/School/1Tarleton/Classes/Adv Quant/Lab 2/flanker-data/subject-2.csv","legacy","Lentiform Loewenfeld","3.3.10","0","h","NA","s","NA","NA","h","346","NA","43980","NA","NA","346","2","legacy","1024","2","48000","-16","experiment","HHHHH","2","even","45142","NA","NA","164271","145405","1159","NA","NA","165324","1161","NA","NA","165425","165772","165323","165425","Flanker Task","66","35094","72","yes","1024"
"91.78082191780823","91.78082191780823","486.013698630137","486.013698630137","black","legacy","legacy","legacy","0","incongruent","uniform","1","undefined","1","h","0","0","0","72","72","0","72","0","72","0","0","0","72","72","72","72","Fri Sep 24 19:36:56 2021","1500","The main experiment item","yes","SR-FlankerTask.osexp","C:\Users\Simon M. Rook\Documents\School\1Tarleton\Classes\Adv Quant\Lab 2","no","mono","no","18","no","white","no","no","768","legacy","72","72","C:/Users/Simon M. Rook/Documents/School/1Tarleton/Classes/Adv Quant/Lab 2/flanker-data/subject-2.csv","legacy","Lentiform Loewenfeld","3.3.10","0","h","NA","s","NA","NA","h","385","NA","43980","NA","NA","385","2","legacy","1024","2","48000","-16","experiment","SSHSS","2","even","45142","NA","NA","165776","145405","1159","NA","NA","166829","1161","NA","NA","166930","167316","166827","166930","Flanker Task","67","35479","73","yes","1024"
"91.89189189189189","91.89189189189189","483.8918918918919","483.8918918918919","black","legacy","legacy","legacy","0","congruent","uniform","1","undefined","1","s","0","0","0","73","73","0","73","0","73","0","0","0","73","73","73","73","Fri Sep 24 19:36:56 2021","1500","The main experiment item","yes","SR-FlankerTask.osexp","C:\Users\Simon M. Rook\Documents\School\1Tarleton\Classes\Adv Quant\Lab 2","no","mono","no","18","no","white","no","no","768","legacy","73","73","C:/Users/Simon M. Rook/Documents/School/1Tarleton/Classes/Adv Quant/Lab 2/flanker-data/subject-2.csv","legacy","Lentiform Loewenfeld","3.3.10","0","s","NA","s","NA","NA","s","329","NA","43980","NA","NA","329","2","legacy","1024","2","48000","-16","experiment","SSSSS","2","even","45142","NA","NA","167320","145405","1159","NA","NA","168373","1161","NA","NA","168474","168804","168371","168474","Flanker Task","68","35808","74","yes","1024"
"90.66666666666667","90.66666666666667","482.05333333333334","482.05333333333334","black","legacy","legacy","legacy","0","incongruent","uniform","0","undefined","0","s","0","0","0","74","74","0","74","0","74","0","0","0","74","74","74","74","Fri Sep 24 19:36:56 2021","1500","The main experiment item","yes","SR-FlankerTask.osexp","C:\Users\Simon M. Rook\Documents\School\1Tarleton\Classes\Adv Quant\Lab 2","no","mono","no","18","no","white","no","no","768","legacy","74","74","C:/Users/Simon M. Rook/Documents/School/1Tarleton/Classes/Adv Quant/Lab 2/flanker-data/subject-2.csv","legacy","Lentiform Loewenfeld","3.3.10","0","h","NA","s","NA","NA","h","346","NA","43980","NA","NA","346","2","legacy","1024","2","48000","-16","experiment","HHSHH","2","even","45142","NA","NA","168807","145405","1159","NA","NA","169860","1161","NA","NA","169961","170308","169859","169961","Flanker Task","68","36154","75","yes","1024"
"90.78947368421052","90.78947368421052","483.0394736842105","483.0394736842105","black","legacy","legacy","legacy","0","incongruent","uniform","1","undefined","1","s","0","0","0","75","75","0","75","0","75","0","0","0","75","75","75","75","Fri Sep 24 19:36:56 2021","1500","The main experiment item","yes","SR-FlankerTask.osexp","C:\Users\Simon M. Rook\Documents\School\1Tarleton\Classes\Adv Quant\Lab 2","no","mono","no","18","no","white","no","no","768","legacy","75","75","C:/Users/Simon M. Rook/Documents/School/1Tarleton/Classes/Adv Quant/Lab 2/flanker-data/subject-2.csv","legacy","Lentiform Loewenfeld","3.3.10","0","s","NA","s","NA","NA","s","557","NA","43980","NA","NA","557","2","legacy","1024","2","48000","-16","experiment","HHSHH","2","even","45142","NA","NA","170812","170311","1159","NA","NA","171866","1161","NA","NA","171967","172525","171865","171967","Flanker Task","69","36711","76","yes","1024"
"90.9090909090909","90.9090909090909","482.12987012987014","482.12987012987014","black","legacy","legacy","legacy","0","congruent","uniform","1","undefined","1","s","0","0","0","76","76","0","76","0","76","0","0","0","76","76","76","76","Fri Sep 24 19:36:56 2021","1500","The main experiment item","yes","SR-FlankerTask.osexp","C:\Users\Simon M. Rook\Documents\School\1Tarleton\Classes\Adv Quant\Lab 2","no","mono","no","18","no","white","no","no","768","legacy","76","76","C:/Users/Simon M. Rook/Documents/School/1Tarleton/Classes/Adv Quant/Lab 2/flanker-data/subject-2.csv","legacy","Lentiform Loewenfeld","3.3.10","0","s","NA","s","NA","NA","s","413","NA","43980","NA","NA","413","2","legacy","1024","2","48000","-16","experiment","SSSSS","2","even","45142","NA","NA","172537","170311","1159","NA","NA","173610","1161","NA","NA","173711","174125","173608","173711","Flanker Task","70","37124","77","yes","1024"
"91.02564102564102","91.02564102564102","482.02564102564105","482.02564102564105","black","legacy","legacy","legacy","0","incongruent","uniform","1","undefined","1","h","0","0","0","77","77","0","77","0","77","0","0","0","77","77","77","77","Fri Sep 24 19:36:56 2021","1500","The main experiment item","yes","SR-FlankerTask.osexp","C:\Users\Simon M. Rook\Documents\School\1Tarleton\Classes\Adv Quant\Lab 2","no","mono","no","18","no","white","no","no","768","legacy","77","77","C:/Users/Simon M. Rook/Documents/School/1Tarleton/Classes/Adv Quant/Lab 2/flanker-data/subject-2.csv","legacy","Lentiform Loewenfeld","3.3.10","0","h","NA","s","NA","NA","h","474","NA","43980","NA","NA","474","2","legacy","1024","2","48000","-16","experiment","SSHSS","2","even","45142","NA","NA","174128","170311","1159","NA","NA","175182","1161","NA","NA","175283","175757","175180","175283","Flanker Task","71","37598","78","yes","1024"
"91.13924050632912","91.13924050632912","480.88607594936707","480.88607594936707","black","legacy","legacy","legacy","0","congruent","uniform","1","undefined","1","h","0","0","0","78","78","0","78","0","78","0","0","0","78","78","78","78","Fri Sep 24 19:36:56 2021","1500","The main experiment item","yes","SR-FlankerTask.osexp","C:\Users\Simon M. Rook\Documents\School\1Tarleton\Classes\Adv Quant\Lab 2","no","mono","no","18","no","white","no","no","768","legacy","78","78","C:/Users/Simon M. Rook/Documents/School/1Tarleton/Classes/Adv Quant/Lab 2/flanker-data/subject-2.csv","legacy","Lentiform Loewenfeld","3.3.10","0","h","NA","s","NA","NA","h","392","NA","43980","NA","NA","392","2","legacy","1024","2","48000","-16","experiment","HHHHH","2","even","45142","NA","NA","175761","170311","1159","NA","NA","176815","1161","NA","NA","176916","177309","176813","176916","Flanker Task","72","37990","79","yes","1024"
"91.25","91.25","480.2875","480.2875","black","legacy","legacy","legacy","0","congruent","uniform","1","undefined","1","h","0","0","0","79","79","0","79","0","79","0","0","0","79","79","79","79","Fri Sep 24 19:36:56 2021","1500","The main experiment item","yes","SR-FlankerTask.osexp","C:\Users\Simon M. Rook\Documents\School\1Tarleton\Classes\Adv Quant\Lab 2","no","mono","no","18","no","white","no","no","768","legacy","79","79","C:/Users/Simon M. Rook/Documents/School/1Tarleton/Classes/Adv Quant/Lab 2/flanker-data/subject-2.csv","legacy","Lentiform Loewenfeld","3.3.10","0","h","NA","s","NA","NA","h","433","NA","43980","NA","NA","433","2","legacy","1024","2","48000","-16","experiment","HHHHH","2","even","45142","NA","NA","177312","170311","1159","NA","NA","178366","1161","NA","NA","178467","178901","178365","178467","Flanker Task","73","38423","80","yes","1024"
"91.35802469135803","91.35802469135803","482.6666666666667","482.6666666666667","black","legacy","legacy","legacy","0","incongruent","uniform","1","undefined","1","h","0","0","0","80","80","0","80","0","80","0","0","0","80","80","80","80","Fri Sep 24 19:36:56 2021","600","The main experiment item","yes","SR-FlankerTask.osexp","C:\Users\Simon M. Rook\Documents\School\1Tarleton\Classes\Adv Quant\Lab 2","no","mono","no","18","no","white","no","no","768","legacy","0","79","C:/Users/Simon M. Rook/Documents/School/1Tarleton/Classes/Adv Quant/Lab 2/flanker-data/subject-2.csv","legacy","Lentiform Loewenfeld","3.3.10","0","h","NA","s","h","NA","h","673","NA","43980","24441","NA","673","2","legacy","1024","2","48000","-16","experiment","SSHSS","2","even","45142","204368","NA","178904","170311","1159","NA","NA","204409","1161","179926","NA","204510","205184","204407","204510","Flanker Task","74","39096","81","yes","1024"
"91.46341463414635","91.46341463414635","480.6463414634146","480.6463414634146","black","legacy","legacy","legacy","0","incongruent","uniform","1","undefined","1","s","0","0","0","81","81","0","81","0","81","0","0","0","81","81","81","81","Fri Sep 24 19:36:56 2021","600","The main experiment item","yes","SR-FlankerTask.osexp","C:\Users\Simon M. Rook\Documents\School\1Tarleton\Classes\Adv Quant\Lab 2","no","mono","no","18","no","white","no","no","768","legacy","1","79","C:/Users/Simon M. Rook/Documents/School/1Tarleton/Classes/Adv Quant/Lab 2/flanker-data/subject-2.csv","legacy","Lentiform Loewenfeld","3.3.10","0","s","NA","s","h","NA","s","317","NA","43980","24441","NA","317","2","legacy","1024","2","48000","-16","experiment","HHSHH","2","even","45142","204368","NA","205688","170311","1159","205187","NA","206742","1161","179926","NA","206843","207161","206740","206843","Flanker Task","75","39413","82","yes","1024"
"90.36144578313252","90.36144578313252","479.71084337349396","479.71084337349396","black","legacy","legacy","legacy","0","incongruent","uniform","0","undefined","0","h","0","0","0","82","82","0","82","0","82","0","0","0","82","82","82","82","Fri Sep 24 19:36:56 2021","600","The main experiment item","yes","SR-FlankerTask.osexp","C:\Users\Simon M. Rook\Documents\School\1Tarleton\Classes\Adv Quant\Lab 2","no","mono","no","18","no","white","no","no","768","legacy","2","79","C:/Users/Simon M. Rook/Documents/School/1Tarleton/Classes/Adv Quant/Lab 2/flanker-data/subject-2.csv","legacy","Lentiform Loewenfeld","3.3.10","0","s","NA","s","h","NA","s","403","NA","43980","24441","NA","403","2","legacy","1024","2","48000","-16","experiment","SSHSS","2","even","45142","204368","NA","207164","170311","1159","205187","NA","208232","1161","179926","NA","208333","208737","208230","208333","Flanker Task","75","39816","83","yes","1024"
"90.47619047619048","90.47619047619048","478.26190476190476","478.26190476190476","black","legacy","legacy","legacy","0","congruent","uniform","1","undefined","1","s","0","0","0","83","83","0","83","0","83","0","0","0","83","83","83","83","Fri Sep 24 19:36:56 2021","600","The main experiment item","yes","SR-FlankerTask.osexp","C:\Users\Simon M. Rook\Documents\School\1Tarleton\Classes\Adv Quant\Lab 2","no","mono","no","18","no","white","no","no","768","legacy","3","79","C:/Users/Simon M. Rook/Documents/School/1Tarleton/Classes/Adv Quant/Lab 2/flanker-data/subject-2.csv","legacy","Lentiform Loewenfeld","3.3.10","0","s","NA","s","h","NA","s","358","NA","43980","24441","NA","358","2","legacy","1024","2","48000","-16","experiment","SSSSS","2","even","45142","204368","NA","209241","208740","1159","205187","NA","210294","1161","179926","NA","210395","210754","210292","210395","Flanker Task","76","40174","84","yes","1024"
"90.58823529411765","90.58823529411765","477.54117647058825","477.54117647058825","black","legacy","legacy","legacy","0","congruent","uniform","1","undefined","1","h","0","0","0","84","84","0","84","0","84","0","0","0","84","84","84","84","Fri Sep 24 19:36:56 2021","600","The main experiment item","yes","SR-FlankerTask.osexp","C:\Users\Simon M. Rook\Documents\School\1Tarleton\Classes\Adv Quant\Lab 2","no","mono","no","18","no","white","no","no","768","legacy","4","79","C:/Users/Simon M. Rook/Documents/School/1Tarleton/Classes/Adv Quant/Lab 2/flanker-data/subject-2.csv","legacy","Lentiform Loewenfeld","3.3.10","0","h","NA","s","h","NA","h","417","NA","43980","24441","NA","417","2","legacy","1024","2","48000","-16","experiment","HHHHH","2","even","45142","204368","NA","210757","208740","1159","205187","NA","211811","1161","179926","NA","211912","212329","211809","211912","Flanker Task","77","40591","85","yes","1024"
"90.69767441860465","90.69767441860465","475.98837209302326","475.98837209302326","black","legacy","legacy","legacy","0","congruent","uniform","1","undefined","1","h","0","0","0","85","85","0","85","0","85","0","0","0","85","85","85","85","Fri Sep 24 19:36:56 2021","600","The main experiment item","yes","SR-FlankerTask.osexp","C:\Users\Simon M. Rook\Documents\School\1Tarleton\Classes\Adv Quant\Lab 2","no","mono","no","18","no","white","no","no","768","legacy","5","79","C:/Users/Simon M. Rook/Documents/School/1Tarleton/Classes/Adv Quant/Lab 2/flanker-data/subject-2.csv","legacy","Lentiform Loewenfeld","3.3.10","0","h","NA","s","h","NA","h","344","NA","43980","24441","NA","344","2","legacy","1024","2","48000","-16","experiment","HHHHH","2","even","45142","204368","NA","212332","208740","1159","205187","NA","213387","1161","179926","NA","213488","213833","213385","213488","Flanker Task","78","40935","86","yes","1024"
"89.65517241379311","89.65517241379311","474.4942528735632","474.4942528735632","black","legacy","legacy","legacy","0","congruent","uniform","0","undefined","0","s","0","0","0","86","86","0","86","0","86","0","0","0","86","86","86","86","Fri Sep 24 19:36:56 2021","600","The main experiment item","yes","SR-FlankerTask.osexp","C:\Users\Simon M. Rook\Documents\School\1Tarleton\Classes\Adv Quant\Lab 2","no","mono","no","18","no","white","no","no","768","legacy","6","79","C:/Users/Simon M. Rook/Documents/School/1Tarleton/Classes/Adv Quant/Lab 2/flanker-data/subject-2.csv","legacy","Lentiform Loewenfeld","3.3.10","0","h","NA","s","h","NA","h","346","NA","43980","24441","NA","346","2","legacy","1024","2","48000","-16","experiment","SSSSS","2","even","45142","204368","NA","213836","208740","1159","205187","NA","214890","1161","179926","NA","214991","215338","214889","214991","Flanker Task","78","41281","87","yes","1024"
"89.77272727272727","89.77272727272727","472.8863636363636","472.8863636363636","black","legacy","legacy","legacy","0","congruent","uniform","1","undefined","1","h","0","0","0","87","87","0","87","0","87","0","0","0","87","87","87","87","Fri Sep 24 19:36:56 2021","600","The main experiment item","yes","SR-FlankerTask.osexp","C:\Users\Simon M. Rook\Documents\School\1Tarleton\Classes\Adv Quant\Lab 2","no","mono","no","18","no","white","no","no","768","legacy","7","79","C:/Users/Simon M. Rook/Documents/School/1Tarleton/Classes/Adv Quant/Lab 2/flanker-data/subject-2.csv","legacy","Lentiform Loewenfeld","3.3.10","0","h","NA","s","h","NA","h","333","NA","43980","24441","NA","333","2","legacy","1024","2","48000","-16","experiment","HHHHH","2","even","45142","204368","NA","215842","215341","1159","205187","NA","216895","1161","179926","NA","216996","217330","216894","216996","Flanker Task","79","41614","88","yes","1024"
"89.88764044943821","89.88764044943821","471.7303370786517","471.7303370786517","black","legacy","legacy","legacy","0","congruent","uniform","1","undefined","1","s","0","0","0","88","88","0","88","0","88","0","0","0","88","88","88","88","Fri Sep 24 19:36:56 2021","600","The main experiment item","yes","SR-FlankerTask.osexp","C:\Users\Simon M. Rook\Documents\School\1Tarleton\Classes\Adv Quant\Lab 2","no","mono","no","18","no","white","no","no","768","legacy","8","79","C:/Users/Simon M. Rook/Documents/School/1Tarleton/Classes/Adv Quant/Lab 2/flanker-data/subject-2.csv","legacy","Lentiform Loewenfeld","3.3.10","0","s","NA","s","h","NA","s","370","NA","43980","24441","NA","370","2","legacy","1024","2","48000","-16","experiment","SSSSS","2","even","45142","204368","NA","217335","215341","1159","205187","NA","218394","1161","179926","NA","218495","218866","218393","218495","Flanker Task","80","41984","89","yes","1024"
"90","90","471.31111111111113","471.31111111111113","black","legacy","legacy","legacy","0","congruent","uniform","1","undefined","1","h","0","0","0","89","89","0","89","0","89","0","0","0","89","89","89","89","Fri Sep 24 19:36:56 2021","600","The main experiment item","yes","SR-FlankerTask.osexp","C:\Users\Simon M. Rook\Documents\School\1Tarleton\Classes\Adv Quant\Lab 2","no","mono","no","18","no","white","no","no","768","legacy","9","79","C:/Users/Simon M. Rook/Documents/School/1Tarleton/Classes/Adv Quant/Lab 2/flanker-data/subject-2.csv","legacy","Lentiform Loewenfeld","3.3.10","0","h","NA","s","h","NA","h","434","NA","43980","24441","NA","434","2","legacy","1024","2","48000","-16","experiment","HHHHH","2","even","45142","204368","NA","218869","215341","1159","205187","NA","219922","1161","179926","NA","220023","220458","219920","220023","Flanker Task","81","42418","90","yes","1024"
"89.01098901098901","89.01098901098901","469.9340659340659","469.9340659340659","black","legacy","legacy","legacy","0","incongruent","uniform","0","undefined","0","h","0","0","0","90","90","0","90","0","90","0","0","0","90","90","90","90","Fri Sep 24 19:36:56 2021","600","The main experiment item","yes","SR-FlankerTask.osexp","C:\Users\Simon M. Rook\Documents\School\1Tarleton\Classes\Adv Quant\Lab 2","no","mono","no","18","no","white","no","no","768","legacy","10","79","C:/Users/Simon M. Rook/Documents/School/1Tarleton/Classes/Adv Quant/Lab 2/flanker-data/subject-2.csv","legacy","Lentiform Loewenfeld","3.3.10","0","s","NA","s","h","NA","s","346","NA","43980","24441","NA","346","2","legacy","1024","2","48000","-16","experiment","SSHSS","2","even","45142","204368","NA","220461","215341","1159","205187","NA","221514","1161","179926","NA","221615","221962","221512","221615","Flanker Task","81","42764","91","yes","1024"
"89.1304347826087","89.1304347826087","469.2391304347826","469.2391304347826","black","legacy","legacy","legacy","0","congruent","uniform","1","undefined","1","s","0","0","0","91","91","0","91","0","91","0","0","0","91","91","91","91","Fri Sep 24 19:36:56 2021","600","The main experiment item","yes","SR-FlankerTask.osexp","C:\Users\Simon M. Rook\Documents\School\1Tarleton\Classes\Adv Quant\Lab 2","no","mono","no","18","no","white","no","no","768","legacy","11","79","C:/Users/Simon M. Rook/Documents/School/1Tarleton/Classes/Adv Quant/Lab 2/flanker-data/subject-2.csv","legacy","Lentiform Loewenfeld","3.3.10","0","s","NA","s","h","NA","s","406","NA","43980","24441","NA","406","2","legacy","1024","2","48000","-16","experiment","SSSSS","2","even","45142","204368","NA","222466","221965","1159","205187","NA","223519","1161","179926","NA","223620","224027","223517","223620","Flanker Task","82","43170","92","yes","1024"
"89.24731182795699","89.24731182795699","469.2043010752688","469.2043010752688","black","legacy","legacy","legacy","0","incongruent","uniform","1","undefined","1","h","0","0","0","92","92","0","92","0","92","0","0","0","92","92","92","92","Fri Sep 24 19:36:56 2021","600","The main experiment item","yes","SR-FlankerTask.osexp","C:\Users\Simon M. Rook\Documents\School\1Tarleton\Classes\Adv Quant\Lab 2","no","mono","no","18","no","white","no","no","768","legacy","12","79","C:/Users/Simon M. Rook/Documents/School/1Tarleton/Classes/Adv Quant/Lab 2/flanker-data/subject-2.csv","legacy","Lentiform Loewenfeld","3.3.10","0","h","NA","s","h","NA","h","466","NA","43980","24441","NA","466","2","legacy","1024","2","48000","-16","experiment","SSHSS","2","even","45142","204368","NA","224030","221965","1159","205187","NA","225083","1161","179926","NA","225184","225651","225082","225184","Flanker Task","83","43636","93","yes","1024"
"89.36170212765957","89.36170212765957","469.17021276595744","469.17021276595744","black","legacy","legacy","legacy","0","congruent","uniform","1","undefined","1","s","0","0","0","93","93","0","93","0","93","0","0","0","93","93","93","93","Fri Sep 24 19:36:56 2021","600","The main experiment item","yes","SR-FlankerTask.osexp","C:\Users\Simon M. Rook\Documents\School\1Tarleton\Classes\Adv Quant\Lab 2","no","mono","no","18","no","white","no","no","768","legacy","13","79","C:/Users/Simon M. Rook/Documents/School/1Tarleton/Classes/Adv Quant/Lab 2/flanker-data/subject-2.csv","legacy","Lentiform Loewenfeld","3.3.10","0","s","NA","s","h","NA","s","466","NA","43980","24441","NA","466","2","legacy","1024","2","48000","-16","experiment","SSSSS","2","even","45142","204368","NA","225654","221965","1159","205187","NA","226707","1161","179926","NA","226808","227275","226705","226808","Flanker Task","84","44102","94","yes","1024"
"89.47368421052632","89.47368421052632","467.9578947368421","467.9578947368421","black","legacy","legacy","legacy","0","congruent","uniform","1","undefined","1","h","0","0","0","94","94","0","94","0","94","0","0","0","94","94","94","94","Fri Sep 24 19:36:56 2021","600","The main experiment item","yes","SR-FlankerTask.osexp","C:\Users\Simon M. Rook\Documents\School\1Tarleton\Classes\Adv Quant\Lab 2","no","mono","no","18","no","white","no","no","768","legacy","14","79","C:/Users/Simon M. Rook/Documents/School/1Tarleton/Classes/Adv Quant/Lab 2/flanker-data/subject-2.csv","legacy","Lentiform Loewenfeld","3.3.10","0","h","NA","s","h","NA","h","354","NA","43980","24441","NA","354","2","legacy","1024","2","48000","-16","experiment","HHHHH","2","even","45142","204368","NA","227278","221965","1159","205187","NA","228331","1161","179926","NA","228432","228787","228329","228432","Flanker Task","85","44456","95","yes","1024"
"89.58333333333333","89.58333333333333","468.4375","468.4375","black","legacy","legacy","legacy","0","incongruent","uniform","1","undefined","1","h","0","0","0","95","95","0","95","0","95","0","0","0","95","95","95","95","Fri Sep 24 19:36:56 2021","600","The main experiment item","yes","SR-FlankerTask.osexp","C:\Users\Simon M. Rook\Documents\School\1Tarleton\Classes\Adv Quant\Lab 2","no","mono","no","18","no","white","no","no","768","legacy","15","79","C:/Users/Simon M. Rook/Documents/School/1Tarleton/Classes/Adv Quant/Lab 2/flanker-data/subject-2.csv","legacy","Lentiform Loewenfeld","3.3.10","0","h","NA","s","h","NA","h","514","NA","43980","24441","NA","514","2","legacy","1024","2","48000","-16","experiment","SSHSS","2","even","45142","204368","NA","228790","221965","1159","205187","NA","229844","1161","179926","NA","229945","230460","229842","229945","Flanker Task","86","44970","96","yes","1024"
"89.69072164948453","89.69072164948453","467.74226804123714","467.74226804123714","black","legacy","legacy","legacy","0","incongruent","uniform","1","undefined","1","s","0","0","0","96","96","0","96","0","96","0","0","0","96","96","96","96","Fri Sep 24 19:36:56 2021","600","The main experiment item","yes","SR-FlankerTask.osexp","C:\Users\Simon M. Rook\Documents\School\1Tarleton\Classes\Adv Quant\Lab 2","no","mono","no","18","no","white","no","no","768","legacy","16","79","C:/Users/Simon M. Rook/Documents/School/1Tarleton/Classes/Adv Quant/Lab 2/flanker-data/subject-2.csv","legacy","Lentiform Loewenfeld","3.3.10","0","s","NA","s","h","NA","s","401","NA","43980","24441","NA","401","2","legacy","1024","2","48000","-16","experiment","HHSHH","2","even","45142","204368","NA","230463","221965","1159","205187","NA","231517","1161","179926","NA","231618","232020","231515","231618","Flanker Task","87","45371","97","yes","1024"
"88.77551020408163","88.77551020408163","466.9795918367347","466.9795918367347","black","legacy","legacy","legacy","0","incongruent","uniform","0","undefined","0","s","0","0","0","97","97","0","97","0","97","0","0","0","97","97","97","97","Fri Sep 24 19:36:56 2021","600","The main experiment item","yes","SR-FlankerTask.osexp","C:\Users\Simon M. Rook\Documents\School\1Tarleton\Classes\Adv Quant\Lab 2","no","mono","no","18","no","white","no","no","768","legacy","17","79","C:/Users/Simon M. Rook/Documents/School/1Tarleton/Classes/Adv Quant/Lab 2/flanker-data/subject-2.csv","legacy","Lentiform Loewenfeld","3.3.10","0","h","NA","s","h","NA","h","393","NA","43980","24441","NA","393","2","legacy","1024","2","48000","-16","experiment","HHSHH","2","even","45142","204368","NA","232023","221965","1159","205187","NA","233076","1161","179926","NA","233177","233571","233074","233177","Flanker Task","87","45764","98","yes","1024"
"88.88888888888889","88.88888888888889","467.14141414141415","467.14141414141415","black","legacy","legacy","legacy","0","congruent","uniform","1","undefined","1","s","0","0","0","98","98","0","98","0","98","0","0","0","98","98","98","98","Fri Sep 24 19:36:56 2021","600","The main experiment item","yes","SR-FlankerTask.osexp","C:\Users\Simon M. Rook\Documents\School\1Tarleton\Classes\Adv Quant\Lab 2","no","mono","no","18","no","white","no","no","768","legacy","18","79","C:/Users/Simon M. Rook/Documents/School/1Tarleton/Classes/Adv Quant/Lab 2/flanker-data/subject-2.csv","legacy","Lentiform Loewenfeld","3.3.10","0","s","NA","s","h","NA","s","483","NA","43980","24441","NA","483","2","legacy","1024","2","48000","-16","experiment","SSSSS","2","even","45142","204368","NA","234078","233577","1159","205187","NA","235131","1161","179926","NA","235232","235716","235129","235232","Flanker Task","88","46247","99","yes","1024"
"89","89","466.31","466.31","black","legacy","legacy","legacy","0","congruent","uniform","1","undefined","1","s","0","0","0","99","99","0","99","0","99","0","0","0","99","99","99","99","Fri Sep 24 19:36:56 2021","600","The main experiment item","yes","SR-FlankerTask.osexp","C:\Users\Simon M. Rook\Documents\School\1Tarleton\Classes\Adv Quant\Lab 2","no","mono","no","18","no","white","no","no","768","legacy","19","79","C:/Users/Simon M. Rook/Documents/School/1Tarleton/Classes/Adv Quant/Lab 2/flanker-data/subject-2.csv","legacy","Lentiform Loewenfeld","3.3.10","0","s","NA","s","h","NA","s","384","NA","43980","24441","NA","384","2","legacy","1024","2","48000","-16","experiment","SSSSS","2","even","45142","204368","NA","235720","233577","1159","205187","NA","236774","1161","179926","NA","236875","237260","236772","236875","Flanker Task","89","46631","100","yes","1024"
"89.10891089108911","89.10891089108911","466.15841584158414","466.15841584158414","black","legacy","legacy","legacy","0","incongruent","uniform","1","undefined","1","s","0","0","0","100","100","0","100","0","100","0","0","0","100","100","100","100","Fri Sep 24 19:36:56 2021","600","The main experiment item","yes","SR-FlankerTask.osexp","C:\Users\Simon M. Rook\Documents\School\1Tarleton\Classes\Adv Quant\Lab 2","no","mono","no","18","no","white","no","no","768","legacy","20","79","C:/Users/Simon M. Rook/Documents/School/1Tarleton/Classes/Adv Quant/Lab 2/flanker-data/subject-2.csv","legacy","Lentiform Loewenfeld","3.3.10","0","s","NA","s","h","NA","s","451","NA","43980","24441","NA","451","2","legacy","1024","2","48000","-16","experiment","HHSHH","2","even","45142","204368","NA","237263","233577","1159","205187","NA","238316","1161","179926","NA","238417","238869","238315","238417","Flanker Task","90","47082","101","yes","1024"
"89.2156862745098","89.2156862745098","465.6862745098039","465.6862745098039","black","legacy","legacy","legacy","0","congruent","uniform","1","undefined","1","s","0","0","0","101","101","0","101","0","101","0","0","0","101","101","101","101","Fri Sep 24 19:36:56 2021","600","The main experiment item","yes","SR-FlankerTask.osexp","C:\Users\Simon M. Rook\Documents\School\1Tarleton\Classes\Adv Quant\Lab 2","no","mono","no","18","no","white","no","no","768","legacy","21","79","C:/Users/Simon M. Rook/Documents/School/1Tarleton/Classes/Adv Quant/Lab 2/flanker-data/subject-2.csv","legacy","Lentiform Loewenfeld","3.3.10","0","s","NA","s","h","NA","s","418","NA","43980","24441","NA","418","2","legacy","1024","2","48000","-16","experiment","SSSSS","2","even","45142","204368","NA","238872","233577","1159","205187","NA","239925","1161","179926","NA","240026","240445","239924","240026","Flanker Task","91","47500","102","yes","1024"
"89.32038834951456","89.32038834951456","464.80582524271847","464.80582524271847","black","legacy","legacy","legacy","0","congruent","uniform","1","undefined","1","h","0","0","0","102","102","0","102","0","102","0","0","0","102","102","102","102","Fri Sep 24 19:36:56 2021","600","The main experiment item","yes","SR-FlankerTask.osexp","C:\Users\Simon M. Rook\Documents\School\1Tarleton\Classes\Adv Quant\Lab 2","no","mono","no","18","no","white","no","no","768","legacy","22","79","C:/Users/Simon M. Rook/Documents/School/1Tarleton/Classes/Adv Quant/Lab 2/flanker-data/subject-2.csv","legacy","Lentiform Loewenfeld","3.3.10","0","h","NA","s","h","NA","h","375","NA","43980","24441","NA","375","2","legacy","1024","2","48000","-16","experiment","HHHHH","2","even","45142","204368","NA","240448","233577","1159","205187","NA","241503","1161","179926","NA","241604","241981","241501","241604","Flanker Task","92","47875","103","yes","1024"
"88.46153846153847","88.46153846153847","464.5","464.5","black","legacy","legacy","legacy","0","incongruent","uniform","0","undefined","0","h","0","0","0","103","103","0","103","0","103","0","0","0","103","103","103","103","Fri Sep 24 19:36:56 2021","600","The main experiment item","yes","SR-FlankerTask.osexp","C:\Users\Simon M. Rook\Documents\School\1Tarleton\Classes\Adv Quant\Lab 2","no","mono","no","18","no","white","no","no","768","legacy","23","79","C:/Users/Simon M. Rook/Documents/School/1Tarleton/Classes/Adv Quant/Lab 2/flanker-data/subject-2.csv","legacy","Lentiform Loewenfeld","3.3.10","0","s","NA","s","h","NA","s","433","NA","43980","24441","NA","433","2","legacy","1024","2","48000","-16","experiment","SSHSS","2","even","45142","204368","NA","241984","233577","1159","205187","NA","243037","1161","179926","NA","243139","243574","243036","243139","Flanker Task","92","48308","104","yes","1024"
"88.57142857142857","88.57142857142857","463.4761904761905","463.4761904761905","black","legacy","legacy","legacy","0","incongruent","uniform","1","undefined","1","s","0","0","0","104","104","0","104","0","104","0","0","0","104","104","104","104","Fri Sep 24 19:36:56 2021","600","The main experiment item","yes","SR-FlankerTask.osexp","C:\Users\Simon M. Rook\Documents\School\1Tarleton\Classes\Adv Quant\Lab 2","no","mono","no","18","no","white","no","no","768","legacy","24","79","C:/Users/Simon M. Rook/Documents/School/1Tarleton/Classes/Adv Quant/Lab 2/flanker-data/subject-2.csv","legacy","Lentiform Loewenfeld","3.3.10","0","s","NA","s","h","NA","s","357","NA","43980","24441","NA","357","2","legacy","1024","2","48000","-16","experiment","HHSHH","2","even","45142","204368","NA","244082","243581","1159","205187","NA","245138","1161","179926","NA","245239","245597","245136","245239","Flanker Task","93","48665","105","yes","1024"
"88.67924528301887","88.67924528301887","463.7169811320755","463.7169811320755","black","legacy","legacy","legacy","0","incongruent","uniform","1","undefined","1","h","0","0","0","105","105","0","105","0","105","0","0","0","105","105","105","105","Fri Sep 24 19:36:56 2021","600","The main experiment item","yes","SR-FlankerTask.osexp","C:\Users\Simon M. Rook\Documents\School\1Tarleton\Classes\Adv Quant\Lab 2","no","mono","no","18","no","white","no","no","768","legacy","25","79","C:/Users/Simon M. Rook/Documents/School/1Tarleton/Classes/Adv Quant/Lab 2/flanker-data/subject-2.csv","legacy","Lentiform Loewenfeld","3.3.10","0","h","NA","s","h","NA","h","489","NA","43980","24441","NA","489","2","legacy","1024","2","48000","-16","experiment","SSHSS","2","even","45142","204368","NA","245601","243581","1159","205187","NA","246654","1161","179926","NA","246755","247245","246653","246755","Flanker Task","94","49154","106","yes","1024"
"88.78504672897196","88.78504672897196","463.4392523364486","463.4392523364486","black","legacy","legacy","legacy","0","congruent","uniform","1","undefined","1","h","0","0","0","106","106","0","106","0","106","0","0","0","106","106","106","106","Fri Sep 24 19:36:56 2021","600","The main experiment item","yes","SR-FlankerTask.osexp","C:\Users\Simon M. Rook\Documents\School\1Tarleton\Classes\Adv Quant\Lab 2","no","mono","no","18","no","white","no","no","768","legacy","26","79","C:/Users/Simon M. Rook/Documents/School/1Tarleton/Classes/Adv Quant/Lab 2/flanker-data/subject-2.csv","legacy","Lentiform Loewenfeld","3.3.10","0","h","NA","s","h","NA","h","434","NA","43980","24441","NA","434","2","legacy","1024","2","48000","-16","experiment","HHHHH","2","even","45142","204368","NA","247248","243581","1159","205187","NA","248309","1161","179926","NA","248410","248845","248307","248410","Flanker Task","95","49588","107","yes","1024"
"88.88888888888889","88.88888888888889","462.6388888888889","462.6388888888889","black","legacy","legacy","legacy","0","incongruent","uniform","1","undefined","1","h","0","0","0","107","107","0","107","0","107","0","0","0","107","107","107","107","Fri Sep 24 19:36:56 2021","600","The main experiment item","yes","SR-FlankerTask.osexp","C:\Users\Simon M. Rook\Documents\School\1Tarleton\Classes\Adv Quant\Lab 2","no","mono","no","18","no","white","no","no","768","legacy","27","79","C:/Users/Simon M. Rook/Documents/School/1Tarleton/Classes/Adv Quant/Lab 2/flanker-data/subject-2.csv","legacy","Lentiform Loewenfeld","3.3.10","0","h","NA","s","h","NA","h","377","NA","43980","24441","NA","377","2","legacy","1024","2","48000","-16","experiment","SSHSS","2","even","45142","204368","NA","248848","243581","1159","205187","NA","249903","1161","179926","NA","250004","250382","249901","250004","Flanker Task","96","49965","108","yes","1024"
