"acc","accuracy","average_response_time","avg_rt","background","canvas_backend","clock_backend","color_backend","compensation","condition","coordinates","correct","correct_Instructions1","correct_Keyboard_Response","correct_response","count_ErrorFeedback","count_FasterFeedback","count_Finish","count_Fixation","count_ISI","count_Instructions1","count_Instructions2","count_Instructions3","count_Keyboard_Response","count_Logger","count_Sequence","count_Stimulus","count_block1","count_block2","count_block3","count_experiment","datetime","deadline","description","disable_garbage_collection","experiment_file","experiment_path","font_bold","font_family","font_italic","font_size","font_underline","foreground","form_clicks","fullscreen","height","keyboard_backend","live_row","live_row_block1","logfile","mouse_backend","opensesame_codename","opensesame_version","repeat_cycle","response","response_Finish","response_Instructions1","response_Instructions2","response_Instructions3","response_Keyboard_Response","response_time","response_time_Finish","response_time_Instructions1","response_time_Instructions2","response_time_Instructions3","response_time_Keyboard_Response","round_decimals","sampler_backend","sound_buf_size","sound_channels","sound_freq","sound_sample_size","start","stimulus","subject_nr","subject_parity","time_ErrorFeedback","time_FasterFeedback","time_Finish","time_Fixation","time_ISI","time_Instructions1","time_Instructions2","time_Instructions3","time_Keyboard_Response","time_Logger","time_Sequence","time_Stimulus","time_block1","time_block2","time_block3","time_experiment","title","total_correct","total_response_time","total_responses","uniform_coordinates","width"
"100","100","1052","1052","black","legacy","legacy","legacy","0","incongruent","uniform","1","undefined","1","s","0","0","0","0","0","0","0","0","0","0","0","0","0","0","0","0","09/25/22 20:58:32","1500","The main experiment item","yes","FlankerTask.osexp","C:/Users/saudm/OneDrive/Desktop","no","mono","no","18","no","white","no","yes","768","legacy","0","0","C:/Users/saudm/OneDrive/Desktop/MK-subject-2.csv","legacy","Lentiform Loewenfeld","3.3.12","0","s","NA","h","NA","NA","s","1052","NA","29027","NA","NA","1052","2","legacy","1024","2","48000","-16","experiment","HHSHH","2","even","NA","NA","NA","31134","NA","2040","NA","NA","31236","32289","31133","31236","31068","NA","NA","2039","Flanker Task ","1","1052","1","yes","1024"
"100","100","765.5","765.5","black","legacy","legacy","legacy","0","congruent","uniform","1","undefined","1","s","1","1","0","1","1","0","0","0","1","1","1","1","0","0","0","0","09/25/22 20:58:32","1500","The main experiment item","yes","FlankerTask.osexp","C:/Users/saudm/OneDrive/Desktop","no","mono","no","18","no","white","no","yes","768","legacy","1","1","C:/Users/saudm/OneDrive/Desktop/MK-subject-2.csv","legacy","Lentiform Loewenfeld","3.3.12","0","s","NA","h","NA","NA","s","479","NA","29027","NA","NA","479","2","legacy","1024","2","48000","-16","experiment","SSSSS","2","even","NA","NA","NA","33345","32302","2040","NA","NA","33446","33925","33344","33446","31068","NA","NA","2039","Flanker Task ","2","1531","2","yes","1024"
"100","100","692","692","black","legacy","legacy","legacy","0","incongruent","uniform","1","undefined","1","h","2","2","0","2","2","0","0","0","2","2","2","2","0","0","0","0","09/25/22 20:58:32","1500","The main experiment item","yes","FlankerTask.osexp","C:/Users/saudm/OneDrive/Desktop","no","mono","no","18","no","white","no","yes","768","legacy","2","2","C:/Users/saudm/OneDrive/Desktop/MK-subject-2.csv","legacy","Lentiform Loewenfeld","3.3.12","0","h","NA","h","NA","NA","h","545","NA","29027","NA","NA","545","2","legacy","1024","2","48000","-16","experiment","SSHSS","2","even","NA","NA","NA","34973","33938","2040","NA","NA","35074","35619","34971","35074","31068","NA","NA","2039","Flanker Task ","3","2076","3","yes","1024"
"100","100","646.5","646.5","black","legacy","legacy","legacy","0","congruent","uniform","1","undefined","1","h","3","3","0","3","3","0","0","0","3","3","3","3","0","0","0","0","09/25/22 20:58:32","1500","The main experiment item","yes","FlankerTask.osexp","C:/Users/saudm/OneDrive/Desktop","no","mono","no","18","no","white","no","yes","768","legacy","3","3","C:/Users/saudm/OneDrive/Desktop/MK-subject-2.csv","legacy","Lentiform Loewenfeld","3.3.12","0","h","NA","h","NA","NA","h","510","NA","29027","NA","NA","510","2","legacy","1024","2","48000","-16","experiment","HHHHH","2","even","NA","NA","NA","36664","35632","2040","NA","NA","36766","37277","36663","36766","31068","NA","NA","2039","Flanker Task ","4","2586","4","yes","1024"
"100","100","624.6","624.6","black","legacy","legacy","legacy","0","incongruent","uniform","1","undefined","1","h","4","4","0","4","4","0","0","0","4","4","4","4","0","0","0","0","09/25/22 20:58:32","1500","The main experiment item","yes","FlankerTask.osexp","C:/Users/saudm/OneDrive/Desktop","no","mono","no","18","no","white","no","yes","768","legacy","4","4","C:/Users/saudm/OneDrive/Desktop/MK-subject-2.csv","legacy","Lentiform Loewenfeld","3.3.12","0","h","NA","h","NA","NA","h","537","NA","29027","NA","NA","537","2","legacy","1024","2","48000","-16","experiment","SSHSS","2","even","NA","NA","NA","38322","37289","2040","NA","NA","38423","38961","38320","38422","31068","NA","NA","2039","Flanker Task ","5","3123","5","yes","1024"
"83.3333333333","83.3333333333","598.333333333","598.333333333","black","legacy","legacy","legacy","0","incongruent","uniform","0","undefined","0","s","5","5","0","5","5","0","0","0","5","5","5","5","0","0","0","0","09/25/22 20:58:32","1500","The main experiment item","yes","FlankerTask.osexp","C:/Users/saudm/OneDrive/Desktop","no","mono","no","18","no","white","no","yes","768","legacy","5","5","C:/Users/saudm/OneDrive/Desktop/MK-subject-2.csv","legacy","Lentiform Loewenfeld","3.3.12","0","h","NA","h","NA","NA","h","467","NA","29027","NA","NA","467","2","legacy","1024","2","48000","-16","experiment","HHSHH","2","even","NA","NA","NA","40009","38973","2040","NA","NA","40110","40578","40006","40110","31068","NA","NA","2039","Flanker Task ","5","3590","6","yes","1024"
"85.7142857143","85.7142857143","599","599","black","legacy","legacy","legacy","0","incongruent","uniform","1","undefined","1","s","6","6","0","6","6","0","0","0","6","6","6","6","0","0","0","0","09/25/22 20:58:32","1500","The main experiment item","yes","FlankerTask.osexp","C:/Users/saudm/OneDrive/Desktop","no","mono","no","18","no","white","no","yes","768","legacy","6","6","C:/Users/saudm/OneDrive/Desktop/MK-subject-2.csv","legacy","Lentiform Loewenfeld","3.3.12","0","s","NA","h","NA","NA","s","603","NA","29027","NA","NA","603","2","legacy","1024","2","48000","-16","experiment","HHSHH","2","even","40581","NA","NA","42125","41082","2040","NA","NA","42227","42830","42123","42227","31068","NA","NA","2039","Flanker Task ","6","4193","7","yes","1024"
"87.5","87.5","588.375","588.375","black","legacy","legacy","legacy","0","incongruent","uniform","1","undefined","1","s","7","7","0","7","7","0","0","0","7","7","7","7","0","0","0","0","09/25/22 20:58:32","1500","The main experiment item","yes","FlankerTask.osexp","C:/Users/saudm/OneDrive/Desktop","no","mono","no","18","no","white","no","yes","768","legacy","7","7","C:/Users/saudm/OneDrive/Desktop/MK-subject-2.csv","legacy","Lentiform Loewenfeld","3.3.12","0","s","NA","h","NA","NA","s","514","NA","29027","NA","NA","514","2","legacy","1024","2","48000","-16","experiment","HHSHH","2","even","40581","NA","NA","43875","42842","2040","NA","NA","43976","44491","43874","43975","31068","NA","NA","2039","Flanker Task ","7","4707","8","yes","1024"
"88.8888888889","88.8888888889","572.666666667","572.666666667","black","legacy","legacy","legacy","0","congruent","uniform","1","undefined","1","h","8","8","0","8","8","0","0","0","8","8","8","8","0","0","0","0","09/25/22 20:58:32","1500","The main experiment item","yes","FlankerTask.osexp","C:/Users/saudm/OneDrive/Desktop","no","mono","no","18","no","white","no","yes","768","legacy","8","8","C:/Users/saudm/OneDrive/Desktop/MK-subject-2.csv","legacy","Lentiform Loewenfeld","3.3.12","0","h","NA","h","NA","NA","h","447","NA","29027","NA","NA","447","2","legacy","1024","2","48000","-16","experiment","HHHHH","2","even","40581","NA","NA","45525","44493","2040","NA","NA","45627","46075","45524","45627","31068","NA","NA","2039","Flanker Task ","8","5154","9","yes","1024"
"90","90","557","557","black","legacy","legacy","legacy","0","incongruent","uniform","1","undefined","1","s","9","9","0","9","9","0","0","0","9","9","9","9","0","0","0","0","09/25/22 20:58:32","1500","The main experiment item","yes","FlankerTask.osexp","C:/Users/saudm/OneDrive/Desktop","no","mono","no","18","no","white","no","yes","768","legacy","9","9","C:/Users/saudm/OneDrive/Desktop/MK-subject-2.csv","legacy","Lentiform Loewenfeld","3.3.12","0","s","NA","h","NA","NA","s","416","NA","29027","NA","NA","416","2","legacy","1024","2","48000","-16","experiment","HHSHH","2","even","40581","NA","NA","47119","46087","2040","NA","NA","47221","47637","47118","47221","31068","NA","NA","2039","Flanker Task ","9","5570","10","yes","1024"
"90.9090909091","90.9090909091","555.272727273","555.272727273","black","legacy","legacy","legacy","0","incongruent","uniform","1","undefined","1","h","10","10","0","10","10","0","0","0","10","10","10","10","0","0","0","0","09/25/22 20:58:32","1500","The main experiment item","yes","FlankerTask.osexp","C:/Users/saudm/OneDrive/Desktop","no","mono","no","18","no","white","no","yes","768","legacy","10","10","C:/Users/saudm/OneDrive/Desktop/MK-subject-2.csv","legacy","Lentiform Loewenfeld","3.3.12","0","h","NA","h","NA","NA","h","538","NA","29027","NA","NA","538","2","legacy","1024","2","48000","-16","experiment","SSHSS","2","even","40581","NA","NA","48683","47649","2040","NA","NA","48785","49323","48682","48785","31068","NA","NA","2039","Flanker Task ","10","6108","11","yes","1024"
"91.6666666667","91.6666666667","566.916666667","566.916666667","black","legacy","legacy","legacy","0","incongruent","uniform","1","undefined","1","s","11","11","0","11","11","0","0","0","11","11","11","11","0","0","0","0","09/25/22 20:58:32","1500","The main experiment item","yes","FlankerTask.osexp","C:/Users/saudm/OneDrive/Desktop","no","mono","no","18","no","white","no","yes","768","legacy","11","11","C:/Users/saudm/OneDrive/Desktop/MK-subject-2.csv","legacy","Lentiform Loewenfeld","3.3.12","0","s","NA","h","NA","NA","s","695","NA","29027","NA","NA","695","2","legacy","1024","2","48000","-16","experiment","HHSHH","2","even","40581","NA","NA","50369","49336","2040","NA","NA","50471","51166","50368","50471","31068","NA","NA","2039","Flanker Task ","11","6803","12","yes","1024"
"92.3076923077","92.3076923077","563.384615385","563.384615385","black","legacy","legacy","legacy","0","congruent","uniform","1","undefined","1","h","12","12","0","12","12","0","0","0","12","12","12","12","0","0","0","0","09/25/22 20:58:32","1500","The main experiment item","yes","FlankerTask.osexp","C:/Users/saudm/OneDrive/Desktop","no","mono","no","18","no","white","no","yes","768","legacy","12","12","C:/Users/saudm/OneDrive/Desktop/MK-subject-2.csv","legacy","Lentiform Loewenfeld","3.3.12","0","h","NA","h","NA","NA","h","521","NA","29027","NA","NA","521","2","legacy","1024","2","48000","-16","experiment","HHHHH","2","even","40581","NA","NA","52200","51168","2040","NA","NA","52301","52823","52199","52301","31068","NA","NA","2039","Flanker Task ","12","7324","13","yes","1024"
"92.8571428571","92.8571428571","567.642857143","567.642857143","black","legacy","legacy","legacy","0","incongruent","uniform","1","undefined","1","h","13","13","0","13","13","0","0","0","13","13","13","13","0","0","0","0","09/25/22 20:58:32","1500","The main experiment item","yes","FlankerTask.osexp","C:/Users/saudm/OneDrive/Desktop","no","mono","no","18","no","white","no","yes","768","legacy","13","13","C:/Users/saudm/OneDrive/Desktop/MK-subject-2.csv","legacy","Lentiform Loewenfeld","3.3.12","0","h","NA","h","NA","NA","h","623","NA","29027","NA","NA","623","2","legacy","1024","2","48000","-16","experiment","SSHSS","2","even","40581","NA","NA","53871","52834","2040","NA","NA","53973","54596","53870","53973","31068","NA","NA","2039","Flanker Task ","13","7947","14","yes","1024"
"93.3333333333","93.3333333333","557.933333333","557.933333333","black","legacy","legacy","legacy","0","incongruent","uniform","1","undefined","1","s","14","14","0","14","14","0","0","0","14","14","14","14","0","0","0","0","09/25/22 20:58:32","1500","The main experiment item","yes","FlankerTask.osexp","C:/Users/saudm/OneDrive/Desktop","no","mono","no","18","no","white","no","yes","768","legacy","14","14","C:/Users/saudm/OneDrive/Desktop/MK-subject-2.csv","legacy","Lentiform Loewenfeld","3.3.12","0","s","NA","h","NA","NA","s","422","NA","29027","NA","NA","422","2","legacy","1024","2","48000","-16","experiment","HHSHH","2","even","40581","NA","NA","55643","54609","2040","NA","NA","55744","56166","55641","55744","31068","NA","NA","2039","Flanker Task ","14","8369","15","yes","1024"
"93.75","93.75","552.5","552.5","black","legacy","legacy","legacy","0","congruent","uniform","1","undefined","1","s","15","15","0","15","15","0","0","0","15","15","15","15","0","0","0","0","09/25/22 20:58:32","1500","The main experiment item","yes","FlankerTask.osexp","C:/Users/saudm/OneDrive/Desktop","no","mono","no","18","no","white","no","yes","768","legacy","15","15","C:/Users/saudm/OneDrive/Desktop/MK-subject-2.csv","legacy","Lentiform Loewenfeld","3.3.12","0","s","NA","h","NA","NA","s","471","NA","29027","NA","NA","471","2","legacy","1024","2","48000","-16","experiment","SSSSS","2","even","40581","NA","NA","57202","56168","2040","NA","NA","57303","57774","57201","57302","31068","NA","NA","2039","Flanker Task ","15","8840","16","yes","1024"
"94.1176470588","94.1176470588","547","547","black","legacy","legacy","legacy","0","congruent","uniform","1","undefined","1","s","16","16","0","16","16","0","0","0","16","16","16","16","0","0","0","0","09/25/22 20:58:32","1500","The main experiment item","yes","FlankerTask.osexp","C:/Users/saudm/OneDrive/Desktop","no","mono","no","18","no","white","no","yes","768","legacy","16","16","C:/Users/saudm/OneDrive/Desktop/MK-subject-2.csv","legacy","Lentiform Loewenfeld","3.3.12","0","s","NA","h","NA","NA","s","459","NA","29027","NA","NA","459","2","legacy","1024","2","48000","-16","experiment","SSSSS","2","even","40581","NA","NA","58820","57787","2040","NA","NA","58922","59381","58818","58922","31068","NA","NA","2039","Flanker Task ","16","9299","17","yes","1024"
"94.4444444444","94.4444444444","545.388888889","545.388888889","black","legacy","legacy","legacy","0","incongruent","uniform","1","undefined","1","h","17","17","0","17","17","0","0","0","17","17","17","17","0","0","0","0","09/25/22 20:58:32","1500","The main experiment item","yes","FlankerTask.osexp","C:/Users/saudm/OneDrive/Desktop","no","mono","no","18","no","white","no","yes","768","legacy","17","17","C:/Users/saudm/OneDrive/Desktop/MK-subject-2.csv","legacy","Lentiform Loewenfeld","3.3.12","0","h","NA","h","NA","NA","h","518","NA","29027","NA","NA","518","2","legacy","1024","2","48000","-16","experiment","SSHSS","2","even","40581","NA","NA","60429","59393","2040","NA","NA","60530","61049","60428","60530","31068","NA","NA","2039","Flanker Task ","17","9817","18","yes","1024"
"94.7368421053","94.7368421053","547.473684211","547.473684211","black","legacy","legacy","legacy","0","congruent","uniform","1","undefined","1","s","18","18","0","18","18","0","0","0","18","18","18","18","0","0","0","0","09/25/22 20:58:32","1500","The main experiment item","yes","FlankerTask.osexp","C:/Users/saudm/OneDrive/Desktop","no","mono","no","18","no","white","no","yes","768","legacy","18","18","C:/Users/saudm/OneDrive/Desktop/MK-subject-2.csv","legacy","Lentiform Loewenfeld","3.3.12","0","s","NA","h","NA","NA","s","585","NA","29027","NA","NA","585","2","legacy","1024","2","48000","-16","experiment","SSSSS","2","even","40581","NA","NA","62096","61061","2040","NA","NA","62198","62784","62094","62198","31068","NA","NA","2039","Flanker Task ","18","10402","19","yes","1024"
"95","95","545.85","545.85","black","legacy","legacy","legacy","0","incongruent","uniform","1","undefined","1","h","19","19","0","19","19","0","0","0","19","19","19","19","0","0","0","0","09/25/22 20:58:32","1500","The main experiment item","yes","FlankerTask.osexp","C:/Users/saudm/OneDrive/Desktop","no","mono","no","18","no","white","no","yes","768","legacy","19","19","C:/Users/saudm/OneDrive/Desktop/MK-subject-2.csv","legacy","Lentiform Loewenfeld","3.3.12","0","h","NA","h","NA","NA","h","515","NA","29027","NA","NA","515","2","legacy","1024","2","48000","-16","experiment","SSHSS","2","even","40581","NA","NA","63829","62795","2040","NA","NA","63930","64446","63827","63930","31068","NA","NA","2039","Flanker Task ","19","10917","20","yes","1024"
"95.2380952381","95.2380952381","545.619047619","545.619047619","black","legacy","legacy","legacy","0","incongruent","uniform","1","undefined","1","s","20","20","0","20","20","0","0","0","20","20","20","20","0","0","0","0","09/25/22 20:58:32","1500","The main experiment item","yes","FlankerTask.osexp","C:/Users/saudm/OneDrive/Desktop","no","mono","no","18","no","white","no","yes","768","legacy","20","20","C:/Users/saudm/OneDrive/Desktop/MK-subject-2.csv","legacy","Lentiform Loewenfeld","3.3.12","0","s","NA","h","NA","NA","s","541","NA","29027","NA","NA","541","2","legacy","1024","2","48000","-16","experiment","HHSHH","2","even","40581","NA","NA","65491","64458","2040","NA","NA","65593","66135","65488","65593","31068","NA","NA","2039","Flanker Task ","20","11458","21","yes","1024"
"95.4545454545","95.4545454545","543.181818182","543.181818182","black","legacy","legacy","legacy","0","congruent","uniform","1","undefined","1","h","21","21","0","21","21","0","0","0","21","21","21","21","0","0","0","0","09/25/22 20:58:32","1500","The main experiment item","yes","FlankerTask.osexp","C:/Users/saudm/OneDrive/Desktop","no","mono","no","18","no","white","no","yes","768","legacy","21","21","C:/Users/saudm/OneDrive/Desktop/MK-subject-2.csv","legacy","Lentiform Loewenfeld","3.3.12","0","h","NA","h","NA","NA","h","492","NA","29027","NA","NA","492","2","legacy","1024","2","48000","-16","experiment","HHHHH","2","even","40581","NA","NA","67171","66137","2040","NA","NA","67272","67764","67169","67272","31068","NA","NA","2039","Flanker Task ","21","11950","22","yes","1024"
"95.652173913","95.652173913","539.086956522","539.086956522","black","legacy","legacy","legacy","0","congruent","uniform","1","undefined","1","h","22","22","0","22","22","0","0","0","22","22","22","22","0","0","0","0","09/25/22 20:58:32","1500","The main experiment item","yes","FlankerTask.osexp","C:/Users/saudm/OneDrive/Desktop","no","mono","no","18","no","white","no","yes","768","legacy","22","22","C:/Users/saudm/OneDrive/Desktop/MK-subject-2.csv","legacy","Lentiform Loewenfeld","3.3.12","0","h","NA","h","NA","NA","h","449","NA","29027","NA","NA","449","2","legacy","1024","2","48000","-16","experiment","HHHHH","2","even","40581","NA","NA","68816","67777","2040","NA","NA","68919","69368","68814","68919","31068","NA","NA","2039","Flanker Task ","22","12399","23","yes","1024"
"95.8333333333","95.8333333333","537.375","537.375","black","legacy","legacy","legacy","0","incongruent","uniform","1","undefined","1","s","23","23","0","23","23","0","0","0","23","23","23","23","0","0","0","0","09/25/22 20:58:32","1500","The main experiment item","yes","FlankerTask.osexp","C:/Users/saudm/OneDrive/Desktop","no","mono","no","18","no","white","no","yes","768","legacy","23","23","C:/Users/saudm/OneDrive/Desktop/MK-subject-2.csv","legacy","Lentiform Loewenfeld","3.3.12","0","s","NA","h","NA","NA","s","498","NA","29027","NA","NA","498","2","legacy","1024","2","48000","-16","experiment","HHSHH","2","even","40581","NA","NA","70413","69380","2040","NA","NA","70515","71014","70411","70515","31068","NA","NA","2039","Flanker Task ","23","12897","24","yes","1024"
"96","96","535.76","535.76","black","legacy","legacy","legacy","0","incongruent","uniform","1","undefined","1","h","24","24","0","24","24","0","0","0","24","24","24","24","0","0","0","0","09/25/22 20:58:32","1500","The main experiment item","yes","FlankerTask.osexp","C:/Users/saudm/OneDrive/Desktop","no","mono","no","18","no","white","no","yes","768","legacy","24","24","C:/Users/saudm/OneDrive/Desktop/MK-subject-2.csv","legacy","Lentiform Loewenfeld","3.3.12","0","h","NA","h","NA","NA","h","497","NA","29027","NA","NA","497","2","legacy","1024","2","48000","-16","experiment","SSHSS","2","even","40581","NA","NA","72069","71026","2040","NA","NA","72172","72669","72067","72172","31068","NA","NA","2039","Flanker Task ","24","13394","25","yes","1024"
"96.1538461538","96.1538461538","532.115384615","532.115384615","black","legacy","legacy","legacy","0","congruent","uniform","1","undefined","1","s","25","25","0","25","25","0","0","0","25","25","25","25","0","0","0","0","09/25/22 20:58:32","1500","The main experiment item","yes","FlankerTask.osexp","C:/Users/saudm/OneDrive/Desktop","no","mono","no","18","no","white","no","yes","768","legacy","25","25","C:/Users/saudm/OneDrive/Desktop/MK-subject-2.csv","legacy","Lentiform Loewenfeld","3.3.12","0","s","NA","h","NA","NA","s","441","NA","29027","NA","NA","441","2","legacy","1024","2","48000","-16","experiment","SSSSS","2","even","40581","NA","NA","73715","72682","2040","NA","NA","73816","74258","73714","73816","31068","NA","NA","2039","Flanker Task ","25","13835","26","yes","1024"
"96.2962962963","96.2962962963","530.037037037","530.037037037","black","legacy","legacy","legacy","0","congruent","uniform","1","undefined","1","h","26","26","0","26","26","0","0","0","26","26","26","26","0","0","0","0","09/25/22 20:58:32","1500","The main experiment item","yes","FlankerTask.osexp","C:/Users/saudm/OneDrive/Desktop","no","mono","no","18","no","white","no","yes","768","legacy","26","26","C:/Users/saudm/OneDrive/Desktop/MK-subject-2.csv","legacy","Lentiform Loewenfeld","3.3.12","0","h","NA","h","NA","NA","h","476","NA","29027","NA","NA","476","2","legacy","1024","2","48000","-16","experiment","HHHHH","2","even","40581","NA","NA","75305","74270","2040","NA","NA","75406","75883","75303","75405","31068","NA","NA","2039","Flanker Task ","26","14311","27","yes","1024"
"96.4285714286","96.4285714286","530.464285714","530.464285714","black","legacy","legacy","legacy","0","incongruent","uniform","1","undefined","1","s","27","27","0","27","27","0","0","0","27","27","27","27","0","0","0","0","09/25/22 20:58:32","1500","The main experiment item","yes","FlankerTask.osexp","C:/Users/saudm/OneDrive/Desktop","no","mono","no","18","no","white","no","yes","768","legacy","27","27","C:/Users/saudm/OneDrive/Desktop/MK-subject-2.csv","legacy","Lentiform Loewenfeld","3.3.12","0","s","NA","h","NA","NA","s","542","NA","29027","NA","NA","542","2","legacy","1024","2","48000","-16","experiment","HHSHH","2","even","40581","NA","NA","76929","75895","2040","NA","NA","77032","77575","76927","77032","31068","NA","NA","2039","Flanker Task ","27","14853","28","yes","1024"
"96.5517241379","96.5517241379","526.965517241","526.965517241","black","legacy","legacy","legacy","0","congruent","uniform","1","undefined","1","h","28","28","0","28","28","0","0","0","28","28","28","28","0","0","0","0","09/25/22 20:58:32","1500","The main experiment item","yes","FlankerTask.osexp","C:/Users/saudm/OneDrive/Desktop","no","mono","no","18","no","white","no","yes","768","legacy","28","28","C:/Users/saudm/OneDrive/Desktop/MK-subject-2.csv","legacy","Lentiform Loewenfeld","3.3.12","0","h","NA","h","NA","NA","h","429","NA","29027","NA","NA","429","2","legacy","1024","2","48000","-16","experiment","HHHHH","2","even","40581","NA","NA","78621","77587","2040","NA","NA","78723","79152","78620","78723","31068","NA","NA","2039","Flanker Task ","28","15282","29","yes","1024"
"96.6666666667","96.6666666667","528.3","528.3","black","legacy","legacy","legacy","0","congruent","uniform","1","undefined","1","h","29","29","0","29","29","0","0","0","29","29","29","29","0","0","0","0","09/25/22 20:58:32","1500","The main experiment item","yes","FlankerTask.osexp","C:/Users/saudm/OneDrive/Desktop","no","mono","no","18","no","white","no","yes","768","legacy","29","29","C:/Users/saudm/OneDrive/Desktop/MK-subject-2.csv","legacy","Lentiform Loewenfeld","3.3.12","0","h","NA","h","NA","NA","h","567","NA","29027","NA","NA","567","2","legacy","1024","2","48000","-16","experiment","HHHHH","2","even","40581","NA","NA","80201","79164","2040","NA","NA","80303","80871","80199","80303","31068","NA","NA","2039","Flanker Task ","29","15849","30","yes","1024"
"96.7741935484","96.7741935484","532.677419355","532.677419355","black","legacy","legacy","legacy","0","congruent","uniform","1","undefined","1","s","30","30","0","30","30","0","0","0","30","30","30","30","0","0","0","0","09/25/22 20:58:32","1500","The main experiment item","yes","FlankerTask.osexp","C:/Users/saudm/OneDrive/Desktop","no","mono","no","18","no","white","no","yes","768","legacy","30","30","C:/Users/saudm/OneDrive/Desktop/MK-subject-2.csv","legacy","Lentiform Loewenfeld","3.3.12","0","s","NA","h","NA","NA","s","664","NA","29027","NA","NA","664","2","legacy","1024","2","48000","-16","experiment","SSSSS","2","even","40581","NA","NA","81918","80883","2040","NA","NA","82019","82684","81917","82019","31068","NA","NA","2039","Flanker Task ","30","16513","31","yes","1024"
"96.875","96.875","533.84375","533.84375","black","legacy","legacy","legacy","0","congruent","uniform","1","undefined","1","s","31","31","0","31","31","0","0","0","31","31","31","31","0","0","0","0","09/25/22 20:58:32","1500","The main experiment item","yes","FlankerTask.osexp","C:/Users/saudm/OneDrive/Desktop","no","mono","no","18","no","white","no","yes","768","legacy","31","31","C:/Users/saudm/OneDrive/Desktop/MK-subject-2.csv","legacy","Lentiform Loewenfeld","3.3.12","0","s","NA","h","NA","NA","s","570","NA","29027","NA","NA","570","2","legacy","1024","2","48000","-16","experiment","SSSSS","2","even","40581","NA","NA","83729","82696","2040","NA","NA","83830","84400","83727","83829","31068","NA","NA","2039","Flanker Task ","31","17083","32","yes","1024"
"96.9696969697","96.9696969697","537.333333333","537.333333333","black","legacy","legacy","legacy","0","congruent","uniform","1","undefined","1","s","32","32","0","32","32","0","0","0","32","32","32","32","0","0","0","0","09/25/22 20:58:32","1500","The main experiment item","yes","FlankerTask.osexp","C:/Users/saudm/OneDrive/Desktop","no","mono","no","18","no","white","no","yes","768","legacy","32","32","C:/Users/saudm/OneDrive/Desktop/MK-subject-2.csv","legacy","Lentiform Loewenfeld","3.3.12","0","s","NA","h","NA","NA","s","649","NA","29027","NA","NA","649","2","legacy","1024","2","48000","-16","experiment","SSSSS","2","even","40581","NA","NA","85449","84413","2040","NA","NA","85550","86199","85448","85550","31068","NA","NA","2039","Flanker Task ","32","17732","33","yes","1024"
"97.0588235294","97.0588235294","536.235294118","536.235294118","black","legacy","legacy","legacy","0","incongruent","uniform","1","undefined","1","s","33","33","0","33","33","0","0","0","33","33","33","33","0","0","0","0","09/25/22 20:58:32","1500","The main experiment item","yes","FlankerTask.osexp","C:/Users/saudm/OneDrive/Desktop","no","mono","no","18","no","white","no","yes","768","legacy","33","33","C:/Users/saudm/OneDrive/Desktop/MK-subject-2.csv","legacy","Lentiform Loewenfeld","3.3.12","0","s","NA","h","NA","NA","s","500","NA","29027","NA","NA","500","2","legacy","1024","2","48000","-16","experiment","HHSHH","2","even","40581","NA","NA","87257","86211","2040","NA","NA","87359","87859","87254","87359","31068","NA","NA","2039","Flanker Task ","33","18232","34","yes","1024"
"97.1428571429","97.1428571429","535.457142857","535.457142857","black","legacy","legacy","legacy","0","congruent","uniform","1","undefined","1","h","34","34","0","34","34","0","0","0","34","34","34","34","0","0","0","0","09/25/22 20:58:32","1500","The main experiment item","yes","FlankerTask.osexp","C:/Users/saudm/OneDrive/Desktop","no","mono","no","18","no","white","no","yes","768","legacy","34","34","C:/Users/saudm/OneDrive/Desktop/MK-subject-2.csv","legacy","Lentiform Loewenfeld","3.3.12","0","h","NA","h","NA","NA","h","509","NA","29027","NA","NA","509","2","legacy","1024","2","48000","-16","experiment","HHHHH","2","even","40581","NA","NA","88899","87862","2040","NA","NA","89000","89509","88898","89000","31068","NA","NA","2039","Flanker Task ","34","18741","35","yes","1024"
"94.4444444444","94.4444444444","533.75","533.75","black","legacy","legacy","legacy","0","congruent","uniform","0","undefined","0","h","35","35","0","35","35","0","0","0","35","35","35","35","0","0","0","0","09/25/22 20:58:32","1500","The main experiment item","yes","FlankerTask.osexp","C:/Users/saudm/OneDrive/Desktop","no","mono","no","18","no","white","no","yes","768","legacy","35","35","C:/Users/saudm/OneDrive/Desktop/MK-subject-2.csv","legacy","Lentiform Loewenfeld","3.3.12","0","s","NA","h","NA","NA","s","474","NA","29027","NA","NA","474","2","legacy","1024","2","48000","-16","experiment","HHHHH","2","even","40581","NA","NA","90555","89521","2040","NA","NA","90656","91131","90554","90656","31068","NA","NA","2039","Flanker Task ","34","19215","36","yes","1024"
"94.5945945946","94.5945945946","533.864864865","533.864864865","black","legacy","legacy","legacy","0","congruent","uniform","1","undefined","1","s","36","36","0","36","36","0","0","0","36","36","36","36","0","0","0","0","09/25/22 20:58:32","1500","The main experiment item","yes","FlankerTask.osexp","C:/Users/saudm/OneDrive/Desktop","no","mono","no","18","no","white","no","yes","768","legacy","36","36","C:/Users/saudm/OneDrive/Desktop/MK-subject-2.csv","legacy","Lentiform Loewenfeld","3.3.12","0","s","NA","h","NA","NA","s","538","NA","29027","NA","NA","538","2","legacy","1024","2","48000","-16","experiment","SSSSS","2","even","91143","NA","NA","92679","91644","2040","NA","NA","92782","93321","92677","92782","31068","NA","NA","2039","Flanker Task ","35","19753","37","yes","1024"
"94.7368421053","94.7368421053","533.605263158","533.605263158","black","legacy","legacy","legacy","0","incongruent","uniform","1","undefined","1","s","37","37","0","37","37","0","0","0","37","37","37","37","0","0","0","0","09/25/22 20:58:32","1500","The main experiment item","yes","FlankerTask.osexp","C:/Users/saudm/OneDrive/Desktop","no","mono","no","18","no","white","no","yes","768","legacy","37","37","C:/Users/saudm/OneDrive/Desktop/MK-subject-2.csv","legacy","Lentiform Loewenfeld","3.3.12","0","s","NA","h","NA","NA","s","524","NA","29027","NA","NA","524","2","legacy","1024","2","48000","-16","experiment","HHSHH","2","even","91143","NA","NA","94366","93333","2040","NA","NA","94467","94992","94365","94467","31068","NA","NA","2039","Flanker Task ","36","20277","38","yes","1024"
"94.8717948718","94.8717948718","533.435897436","533.435897436","black","legacy","legacy","legacy","0","incongruent","uniform","1","undefined","1","h","38","38","0","38","38","0","0","0","38","38","38","38","0","0","0","0","09/25/22 20:58:32","1500","The main experiment item","yes","FlankerTask.osexp","C:/Users/saudm/OneDrive/Desktop","no","mono","no","18","no","white","no","yes","768","legacy","38","38","C:/Users/saudm/OneDrive/Desktop/MK-subject-2.csv","legacy","Lentiform Loewenfeld","3.3.12","0","h","NA","h","NA","NA","h","527","NA","29027","NA","NA","527","2","legacy","1024","2","48000","-16","experiment","SSHSS","2","even","91143","NA","NA","96039","95004","2040","NA","NA","96139","96667","96038","96139","31068","NA","NA","2039","Flanker Task ","37","20804","39","yes","1024"
"95","95","530.625","530.625","black","legacy","legacy","legacy","0","incongruent","uniform","1","undefined","1","h","39","39","0","39","39","0","0","0","39","39","39","39","0","0","0","0","09/25/22 20:58:32","1500","The main experiment item","yes","FlankerTask.osexp","C:/Users/saudm/OneDrive/Desktop","no","mono","no","18","no","white","no","yes","768","legacy","39","39","C:/Users/saudm/OneDrive/Desktop/MK-subject-2.csv","legacy","Lentiform Loewenfeld","3.3.12","0","h","NA","h","NA","NA","h","421","NA","29027","NA","NA","421","2","legacy","1024","2","48000","-16","experiment","SSHSS","2","even","91143","NA","NA","97715","96679","2040","NA","NA","97817","98239","97713","97817","31068","NA","NA","2039","Flanker Task ","38","21225","40","yes","1024"
"95.1219512195","95.1219512195","528.341463415","528.341463415","black","legacy","legacy","legacy","0","congruent","uniform","1","undefined","1","h","40","40","0","40","40","0","0","0","40","40","40","40","0","0","0","0","09/25/22 20:58:32","1500","The main experiment item","yes","FlankerTask.osexp","C:/Users/saudm/OneDrive/Desktop","no","mono","no","18","no","white","no","yes","768","legacy","40","40","C:/Users/saudm/OneDrive/Desktop/MK-subject-2.csv","legacy","Lentiform Loewenfeld","3.3.12","0","h","NA","h","NA","NA","h","437","NA","29027","NA","NA","437","2","legacy","1024","2","48000","-16","experiment","HHHHH","2","even","91143","NA","NA","99283","98251","2040","NA","NA","99385","99823","99282","99385","31068","NA","NA","2039","Flanker Task ","39","21662","41","yes","1024"
"95.2380952381","95.2380952381","525.238095238","525.238095238","black","legacy","legacy","legacy","0","congruent","uniform","1","undefined","1","h","41","41","0","41","41","0","0","0","41","41","41","41","0","0","0","0","09/25/22 20:58:32","1500","The main experiment item","yes","FlankerTask.osexp","C:/Users/saudm/OneDrive/Desktop","no","mono","no","18","no","white","no","yes","768","legacy","41","41","C:/Users/saudm/OneDrive/Desktop/MK-subject-2.csv","legacy","Lentiform Loewenfeld","3.3.12","0","h","NA","h","NA","NA","h","398","NA","29027","NA","NA","398","2","legacy","1024","2","48000","-16","experiment","HHHHH","2","even","91143","NA","NA","100870","99835","2040","NA","NA","100972","101371","100869","100972","31068","NA","NA","2039","Flanker Task ","40","22060","42","yes","1024"
"95.3488372093","95.3488372093","522.325581395","522.325581395","black","legacy","legacy","legacy","0","congruent","uniform","1","undefined","1","s","42","42","0","42","42","0","0","0","42","42","42","42","0","0","0","0","09/25/22 20:58:32","1500","The main experiment item","yes","FlankerTask.osexp","C:/Users/saudm/OneDrive/Desktop","no","mono","no","18","no","white","no","yes","768","legacy","42","42","C:/Users/saudm/OneDrive/Desktop/MK-subject-2.csv","legacy","Lentiform Loewenfeld","3.3.12","0","s","NA","h","NA","NA","s","400","NA","29027","NA","NA","400","2","legacy","1024","2","48000","-16","experiment","SSSSS","2","even","91143","NA","NA","102418","101382","2040","NA","NA","102519","102921","102416","102519","31068","NA","NA","2039","Flanker Task ","41","22460","43","yes","1024"
"95.4545454545","95.4545454545","520.818181818","520.818181818","black","legacy","legacy","legacy","0","congruent","uniform","1","undefined","1","h","43","43","0","43","43","0","0","0","43","43","43","43","0","0","0","0","09/25/22 20:58:32","1500","The main experiment item","yes","FlankerTask.osexp","C:/Users/saudm/OneDrive/Desktop","no","mono","no","18","no","white","no","yes","768","legacy","43","43","C:/Users/saudm/OneDrive/Desktop/MK-subject-2.csv","legacy","Lentiform Loewenfeld","3.3.12","0","h","NA","h","NA","NA","h","456","NA","29027","NA","NA","456","2","legacy","1024","2","48000","-16","experiment","HHHHH","2","even","91143","NA","NA","103968","102934","2040","NA","NA","104070","104527","103966","104070","31068","NA","NA","2039","Flanker Task ","42","22916","44","yes","1024"
"95.5555555556","95.5555555556","517.533333333","517.533333333","black","legacy","legacy","legacy","0","congruent","uniform","1","undefined","1","h","44","44","0","44","44","0","0","0","44","44","44","44","0","0","0","0","09/25/22 20:58:32","1500","The main experiment item","yes","FlankerTask.osexp","C:/Users/saudm/OneDrive/Desktop","no","mono","no","18","no","white","no","yes","768","legacy","44","44","C:/Users/saudm/OneDrive/Desktop/MK-subject-2.csv","legacy","Lentiform Loewenfeld","3.3.12","0","h","NA","h","NA","NA","h","373","NA","29027","NA","NA","373","2","legacy","1024","2","48000","-16","experiment","HHHHH","2","even","91143","NA","NA","105572","104539","2040","NA","NA","105673","106046","105570","105673","31068","NA","NA","2039","Flanker Task ","43","23289","45","yes","1024"
"95.652173913","95.652173913","515.173913043","515.173913043","black","legacy","legacy","legacy","0","congruent","uniform","1","undefined","1","h","45","45","0","45","45","0","0","0","45","45","45","45","0","0","0","0","09/25/22 20:58:32","1500","The main experiment item","yes","FlankerTask.osexp","C:/Users/saudm/OneDrive/Desktop","no","mono","no","18","no","white","no","yes","768","legacy","45","45","C:/Users/saudm/OneDrive/Desktop/MK-subject-2.csv","legacy","Lentiform Loewenfeld","3.3.12","0","h","NA","h","NA","NA","h","409","NA","29027","NA","NA","409","2","legacy","1024","2","48000","-16","experiment","HHHHH","2","even","91143","NA","NA","107085","106051","2040","NA","NA","107186","107596","107082","107186","31068","NA","NA","2039","Flanker Task ","44","23698","46","yes","1024"
"95.7446808511","95.7446808511","515.255319149","515.255319149","black","legacy","legacy","legacy","0","incongruent","uniform","1","undefined","1","s","46","46","0","46","46","0","0","0","46","46","46","46","0","0","0","0","09/25/22 20:58:32","1500","The main experiment item","yes","FlankerTask.osexp","C:/Users/saudm/OneDrive/Desktop","no","mono","no","18","no","white","no","yes","768","legacy","46","46","C:/Users/saudm/OneDrive/Desktop/MK-subject-2.csv","legacy","Lentiform Loewenfeld","3.3.12","0","s","NA","h","NA","NA","s","519","NA","29027","NA","NA","519","2","legacy","1024","2","48000","-16","experiment","HHSHH","2","even","91143","NA","NA","108643","107608","2040","NA","NA","108745","109264","108641","108745","31068","NA","NA","2039","Flanker Task ","45","24217","47","yes","1024"
"95.8333333333","95.8333333333","513.854166667","513.854166667","black","legacy","legacy","legacy","0","congruent","uniform","1","undefined","1","h","47","47","0","47","47","0","0","0","47","47","47","47","0","0","0","0","09/25/22 20:58:32","1500","The main experiment item","yes","FlankerTask.osexp","C:/Users/saudm/OneDrive/Desktop","no","mono","no","18","no","white","no","yes","768","legacy","47","47","C:/Users/saudm/OneDrive/Desktop/MK-subject-2.csv","legacy","Lentiform Loewenfeld","3.3.12","0","h","NA","h","NA","NA","h","448","NA","29027","NA","NA","448","2","legacy","1024","2","48000","-16","experiment","HHHHH","2","even","91143","NA","NA","110310","109277","2040","NA","NA","110413","110862","110308","110413","31068","NA","NA","2039","Flanker Task ","46","24665","48","yes","1024"
"95.9183673469","95.9183673469","514.551020408","514.551020408","black","legacy","legacy","legacy","0","congruent","uniform","1","undefined","1","s","48","48","0","48","48","0","0","0","48","48","48","48","0","0","0","0","09/25/22 20:58:32","1500","The main experiment item","yes","FlankerTask.osexp","C:/Users/saudm/OneDrive/Desktop","no","mono","no","18","no","white","no","yes","768","legacy","48","48","C:/Users/saudm/OneDrive/Desktop/MK-subject-2.csv","legacy","Lentiform Loewenfeld","3.3.12","0","s","NA","h","NA","NA","s","548","NA","29027","NA","NA","548","2","legacy","1024","2","48000","-16","experiment","SSSSS","2","even","91143","NA","NA","111910","110874","2040","NA","NA","112012","112561","111909","112012","31068","NA","NA","2039","Flanker Task ","47","25213","49","yes","1024"
"96","96","515.46","515.46","black","legacy","legacy","legacy","0","congruent","uniform","1","undefined","1","h","49","49","0","49","49","0","0","0","49","49","49","49","0","0","0","0","09/25/22 20:58:32","1500","The main experiment item","yes","FlankerTask.osexp","C:/Users/saudm/OneDrive/Desktop","no","mono","no","18","no","white","no","yes","768","legacy","49","49","C:/Users/saudm/OneDrive/Desktop/MK-subject-2.csv","legacy","Lentiform Loewenfeld","3.3.12","0","h","NA","h","NA","NA","h","560","NA","29027","NA","NA","560","2","legacy","1024","2","48000","-16","experiment","HHHHH","2","even","91143","NA","NA","113597","112563","2040","NA","NA","113698","114259","113596","113698","31068","NA","NA","2039","Flanker Task ","48","25773","50","yes","1024"
"96.0784313725","96.0784313725","513.705882353","513.705882353","black","legacy","legacy","legacy","0","congruent","uniform","1","undefined","1","s","50","50","0","50","50","0","0","0","50","50","50","50","0","0","0","0","09/25/22 20:58:32","1500","The main experiment item","yes","FlankerTask.osexp","C:/Users/saudm/OneDrive/Desktop","no","mono","no","18","no","white","no","yes","768","legacy","50","50","C:/Users/saudm/OneDrive/Desktop/MK-subject-2.csv","legacy","Lentiform Loewenfeld","3.3.12","0","s","NA","h","NA","NA","s","426","NA","29027","NA","NA","426","2","legacy","1024","2","48000","-16","experiment","SSSSS","2","even","91143","NA","NA","115306","114271","2040","NA","NA","115408","115835","115304","115408","31068","NA","NA","2039","Flanker Task ","49","26199","51","yes","1024"
"96.1538461538","96.1538461538","514.576923077","514.576923077","black","legacy","legacy","legacy","0","incongruent","uniform","1","undefined","1","h","51","51","0","51","51","0","0","0","51","51","51","51","0","0","0","0","09/25/22 20:58:32","1500","The main experiment item","yes","FlankerTask.osexp","C:/Users/saudm/OneDrive/Desktop","no","mono","no","18","no","white","no","yes","768","legacy","51","51","C:/Users/saudm/OneDrive/Desktop/MK-subject-2.csv","legacy","Lentiform Loewenfeld","3.3.12","0","h","NA","h","NA","NA","h","559","NA","29027","NA","NA","559","2","legacy","1024","2","48000","-16","experiment","SSHSS","2","even","91143","NA","NA","116884","115847","2040","NA","NA","116985","117544","116882","116985","31068","NA","NA","2039","Flanker Task ","50","26758","52","yes","1024"
"96.2264150943","96.2264150943","514.679245283","514.679245283","black","legacy","legacy","legacy","0","incongruent","uniform","1","undefined","1","h","52","52","0","52","52","0","0","0","52","52","52","52","0","0","0","0","09/25/22 20:58:32","1500","The main experiment item","yes","FlankerTask.osexp","C:/Users/saudm/OneDrive/Desktop","no","mono","no","18","no","white","no","yes","768","legacy","52","52","C:/Users/saudm/OneDrive/Desktop/MK-subject-2.csv","legacy","Lentiform Loewenfeld","3.3.12","0","h","NA","h","NA","NA","h","520","NA","29027","NA","NA","520","2","legacy","1024","2","48000","-16","experiment","SSHSS","2","even","91143","NA","NA","118585","117547","2040","NA","NA","118688","119209","118584","118688","31068","NA","NA","2039","Flanker Task ","51","27278","53","yes","1024"
"96.2962962963","96.2962962963","513.259259259","513.259259259","black","legacy","legacy","legacy","0","incongruent","uniform","1","undefined","1","s","53","53","0","53","53","0","0","0","53","53","53","53","0","0","0","0","09/25/22 20:58:32","1500","The main experiment item","yes","FlankerTask.osexp","C:/Users/saudm/OneDrive/Desktop","no","mono","no","18","no","white","no","yes","768","legacy","53","53","C:/Users/saudm/OneDrive/Desktop/MK-subject-2.csv","legacy","Lentiform Loewenfeld","3.3.12","0","s","NA","h","NA","NA","s","438","NA","29027","NA","NA","438","2","legacy","1024","2","48000","-16","experiment","HHSHH","2","even","91143","NA","NA","120272","119221","2040","NA","NA","120373","120811","120271","120373","31068","NA","NA","2039","Flanker Task ","52","27716","54","yes","1024"
"96.3636363636","96.3636363636","512.145454545","512.145454545","black","legacy","legacy","legacy","0","congruent","uniform","1","undefined","1","s","54","54","0","54","54","0","0","0","54","54","54","54","0","0","0","0","09/25/22 20:58:32","1500","The main experiment item","yes","FlankerTask.osexp","C:/Users/saudm/OneDrive/Desktop","no","mono","no","18","no","white","no","yes","768","legacy","54","54","C:/Users/saudm/OneDrive/Desktop/MK-subject-2.csv","legacy","Lentiform Loewenfeld","3.3.12","0","s","NA","h","NA","NA","s","452","NA","29027","NA","NA","452","2","legacy","1024","2","48000","-16","experiment","SSSSS","2","even","91143","NA","NA","121847","120813","2040","NA","NA","121948","122401","121845","121948","31068","NA","NA","2039","Flanker Task ","53","28168","55","yes","1024"
"96.4285714286","96.4285714286","511.767857143","511.767857143","black","legacy","legacy","legacy","0","incongruent","uniform","1","undefined","1","h","55","55","0","55","55","0","0","0","55","55","55","55","0","0","0","0","09/25/22 20:58:32","1500","The main experiment item","yes","FlankerTask.osexp","C:/Users/saudm/OneDrive/Desktop","no","mono","no","18","no","white","no","yes","768","legacy","55","55","C:/Users/saudm/OneDrive/Desktop/MK-subject-2.csv","legacy","Lentiform Loewenfeld","3.3.12","0","h","NA","h","NA","NA","h","491","NA","29027","NA","NA","491","2","legacy","1024","2","48000","-16","experiment","SSHSS","2","even","91143","NA","NA","123446","122413","2040","NA","NA","123548","124039","123445","123548","31068","NA","NA","2039","Flanker Task ","54","28659","56","yes","1024"
"96.4912280702","96.4912280702","512.105263158","512.105263158","black","legacy","legacy","legacy","0","incongruent","uniform","1","undefined","1","s","56","56","0","56","56","0","0","0","56","56","56","56","0","0","0","0","09/25/22 20:58:32","1500","The main experiment item","yes","FlankerTask.osexp","C:/Users/saudm/OneDrive/Desktop","no","mono","no","18","no","white","no","yes","768","legacy","56","56","C:/Users/saudm/OneDrive/Desktop/MK-subject-2.csv","legacy","Lentiform Loewenfeld","3.3.12","0","s","NA","h","NA","NA","s","531","NA","29027","NA","NA","531","2","legacy","1024","2","48000","-16","experiment","HHSHH","2","even","91143","NA","NA","125080","124045","2040","NA","NA","125183","125715","125079","125183","31068","NA","NA","2039","Flanker Task ","55","29190","57","yes","1024"
"96.5517241379","96.5517241379","511.379310345","511.379310345","black","legacy","legacy","legacy","0","congruent","uniform","1","undefined","1","s","57","57","0","57","57","0","0","0","57","57","57","57","0","0","0","0","09/25/22 20:58:32","1500","The main experiment item","yes","FlankerTask.osexp","C:/Users/saudm/OneDrive/Desktop","no","mono","no","18","no","white","no","yes","768","legacy","57","57","C:/Users/saudm/OneDrive/Desktop/MK-subject-2.csv","legacy","Lentiform Loewenfeld","3.3.12","0","s","NA","h","NA","NA","s","470","NA","29027","NA","NA","470","2","legacy","1024","2","48000","-16","experiment","SSSSS","2","even","91143","NA","NA","126765","125727","2040","NA","NA","126866","127337","126763","126866","31068","NA","NA","2039","Flanker Task ","56","29660","58","yes","1024"
"96.6101694915","96.6101694915","513.13559322","513.13559322","black","legacy","legacy","legacy","0","incongruent","uniform","1","undefined","1","h","58","58","0","58","58","0","0","0","58","58","58","58","0","0","0","0","09/25/22 20:58:32","1500","The main experiment item","yes","FlankerTask.osexp","C:/Users/saudm/OneDrive/Desktop","no","mono","no","18","no","white","no","yes","768","legacy","58","58","C:/Users/saudm/OneDrive/Desktop/MK-subject-2.csv","legacy","Lentiform Loewenfeld","3.3.12","0","h","NA","h","NA","NA","h","615","NA","29027","NA","NA","615","2","legacy","1024","2","48000","-16","experiment","SSHSS","2","even","91143","NA","NA","128381","127349","2040","NA","NA","128483","129099","128380","128483","31068","NA","NA","2039","Flanker Task ","57","30275","59","yes","1024"
"96.6666666667","96.6666666667","511.8","511.8","black","legacy","legacy","legacy","0","congruent","uniform","1","undefined","1","s","59","59","0","59","59","0","0","0","59","59","59","59","0","0","0","0","09/25/22 20:58:32","1500","The main experiment item","yes","FlankerTask.osexp","C:/Users/saudm/OneDrive/Desktop","no","mono","no","18","no","white","no","yes","768","legacy","59","59","C:/Users/saudm/OneDrive/Desktop/MK-subject-2.csv","legacy","Lentiform Loewenfeld","3.3.12","0","s","NA","h","NA","NA","s","433","NA","29027","NA","NA","433","2","legacy","1024","2","48000","-16","experiment","SSSSS","2","even","91143","NA","NA","130149","129112","2040","NA","NA","130250","130684","130147","130250","31068","NA","NA","2039","Flanker Task ","58","30708","60","yes","1024"
"96.7213114754","96.7213114754","511.409836066","511.409836066","black","legacy","legacy","legacy","0","incongruent","uniform","1","undefined","1","h","60","60","0","60","60","0","0","0","60","60","60","60","0","0","0","0","09/25/22 20:58:32","1500","The main experiment item","yes","FlankerTask.osexp","C:/Users/saudm/OneDrive/Desktop","no","mono","no","18","no","white","no","yes","768","legacy","60","60","C:/Users/saudm/OneDrive/Desktop/MK-subject-2.csv","legacy","Lentiform Loewenfeld","3.3.12","0","h","NA","h","NA","NA","h","488","NA","29027","NA","NA","488","2","legacy","1024","2","48000","-16","experiment","SSHSS","2","even","91143","NA","NA","131729","130696","2040","NA","NA","131830","132318","131728","131830","31068","NA","NA","2039","Flanker Task ","59","31196","61","yes","1024"
"96.7741935484","96.7741935484","510.790322581","510.790322581","black","legacy","legacy","legacy","0","incongruent","uniform","1","undefined","1","h","61","61","0","61","61","0","0","0","61","61","61","61","0","0","0","0","09/25/22 20:58:32","1500","The main experiment item","yes","FlankerTask.osexp","C:/Users/saudm/OneDrive/Desktop","no","mono","no","18","no","white","no","yes","768","legacy","61","61","C:/Users/saudm/OneDrive/Desktop/MK-subject-2.csv","legacy","Lentiform Loewenfeld","3.3.12","0","h","NA","h","NA","NA","h","473","NA","29027","NA","NA","473","2","legacy","1024","2","48000","-16","experiment","SSHSS","2","even","91143","NA","NA","133366","132331","2040","NA","NA","133467","133940","133364","133467","31068","NA","NA","2039","Flanker Task ","60","31669","62","yes","1024"
"96.8253968254","96.8253968254","511.888888889","511.888888889","black","legacy","legacy","legacy","0","incongruent","uniform","1","undefined","1","s","62","62","0","62","62","0","0","0","62","62","62","62","0","0","0","0","09/25/22 20:58:32","1500","The main experiment item","yes","FlankerTask.osexp","C:/Users/saudm/OneDrive/Desktop","no","mono","no","18","no","white","no","yes","768","legacy","62","62","C:/Users/saudm/OneDrive/Desktop/MK-subject-2.csv","legacy","Lentiform Loewenfeld","3.3.12","0","s","NA","h","NA","NA","s","580","NA","29027","NA","NA","580","2","legacy","1024","2","48000","-16","experiment","HHSHH","2","even","91143","NA","NA","134987","133953","2040","NA","NA","135087","135668","134986","135087","31068","NA","NA","2039","Flanker Task ","61","32249","63","yes","1024"
"96.875","96.875","512.5","512.5","black","legacy","legacy","legacy","0","incongruent","uniform","1","undefined","1","h","63","63","0","63","63","0","0","0","63","63","63","63","0","0","0","0","09/25/22 20:58:32","1500","The main experiment item","yes","FlankerTask.osexp","C:/Users/saudm/OneDrive/Desktop","no","mono","no","18","no","white","no","yes","768","legacy","63","63","C:/Users/saudm/OneDrive/Desktop/MK-subject-2.csv","legacy","Lentiform Loewenfeld","3.3.12","0","h","NA","h","NA","NA","h","551","NA","29027","NA","NA","551","2","legacy","1024","2","48000","-16","experiment","SSHSS","2","even","91143","NA","NA","136713","135680","2040","NA","NA","136815","137366","136711","136815","31068","NA","NA","2039","Flanker Task ","62","32800","64","yes","1024"
"96.9230769231","96.9230769231","512.953846154","512.953846154","black","legacy","legacy","legacy","0","incongruent","uniform","1","undefined","1","h","64","64","0","64","64","0","0","0","64","64","64","64","0","0","0","0","09/25/22 20:58:32","1500","The main experiment item","yes","FlankerTask.osexp","C:/Users/saudm/OneDrive/Desktop","no","mono","no","18","no","white","no","yes","768","legacy","64","64","C:/Users/saudm/OneDrive/Desktop/MK-subject-2.csv","legacy","Lentiform Loewenfeld","3.3.12","0","h","NA","h","NA","NA","h","542","NA","29027","NA","NA","542","2","legacy","1024","2","48000","-16","experiment","SSHSS","2","even","91143","NA","NA","138411","137378","2040","NA","NA","138512","139054","138409","138512","31068","NA","NA","2039","Flanker Task ","63","33342","65","yes","1024"
"96.9696969697","96.9696969697","512.590909091","512.590909091","black","legacy","legacy","legacy","0","congruent","uniform","1","undefined","1","s","65","65","0","65","65","0","0","0","65","65","65","65","0","0","0","0","09/25/22 20:58:32","1500","The main experiment item","yes","FlankerTask.osexp","C:/Users/saudm/OneDrive/Desktop","no","mono","no","18","no","white","no","yes","768","legacy","65","65","C:/Users/saudm/OneDrive/Desktop/MK-subject-2.csv","legacy","Lentiform Loewenfeld","3.3.12","0","s","NA","h","NA","NA","s","489","NA","29027","NA","NA","489","2","legacy","1024","2","48000","-16","experiment","SSSSS","2","even","91143","NA","NA","140101","139067","2040","NA","NA","140203","140693","140100","140203","31068","NA","NA","2039","Flanker Task ","64","33831","66","yes","1024"
"97.0149253731","97.0149253731","511.71641791","511.71641791","black","legacy","legacy","legacy","0","congruent","uniform","1","undefined","1","h","66","66","0","66","66","0","0","0","66","66","66","66","0","0","0","0","09/25/22 20:58:32","1500","The main experiment item","yes","FlankerTask.osexp","C:/Users/saudm/OneDrive/Desktop","no","mono","no","18","no","white","no","yes","768","legacy","66","66","C:/Users/saudm/OneDrive/Desktop/MK-subject-2.csv","legacy","Lentiform Loewenfeld","3.3.12","0","h","NA","h","NA","NA","h","454","NA","29027","NA","NA","454","2","legacy","1024","2","48000","-16","experiment","HHHHH","2","even","91143","NA","NA","141730","140695","2040","NA","NA","141831","142286","141728","141831","31068","NA","NA","2039","Flanker Task ","65","34285","67","yes","1024"
"97.0588235294","97.0588235294","511.544117647","511.544117647","black","legacy","legacy","legacy","0","incongruent","uniform","1","undefined","1","s","67","67","0","67","67","0","0","0","67","67","67","67","0","0","0","0","09/25/22 20:58:32","1500","The main experiment item","yes","FlankerTask.osexp","C:/Users/saudm/OneDrive/Desktop","no","mono","no","18","no","white","no","yes","768","legacy","67","67","C:/Users/saudm/OneDrive/Desktop/MK-subject-2.csv","legacy","Lentiform Loewenfeld","3.3.12","0","s","NA","h","NA","NA","s","500","NA","29027","NA","NA","500","2","legacy","1024","2","48000","-16","experiment","HHSHH","2","even","91143","NA","NA","143333","142298","2040","NA","NA","143435","143935","143331","143434","31068","NA","NA","2039","Flanker Task ","66","34785","68","yes","1024"
"97.1014492754","97.1014492754","511.173913043","511.173913043","black","legacy","legacy","legacy","0","congruent","uniform","1","undefined","1","h","68","68","0","68","68","0","0","0","68","68","68","68","0","0","0","0","09/25/22 20:58:32","1500","The main experiment item","yes","FlankerTask.osexp","C:/Users/saudm/OneDrive/Desktop","no","mono","no","18","no","white","no","yes","768","legacy","68","68","C:/Users/saudm/OneDrive/Desktop/MK-subject-2.csv","legacy","Lentiform Loewenfeld","3.3.12","0","h","NA","h","NA","NA","h","486","NA","29027","NA","NA","486","2","legacy","1024","2","48000","-16","experiment","HHHHH","2","even","91143","NA","NA","144971","143937","2040","NA","NA","145073","145560","144969","145073","31068","NA","NA","2039","Flanker Task ","67","35271","69","yes","1024"
"97.1428571429","97.1428571429","510.6","510.6","black","legacy","legacy","legacy","0","congruent","uniform","1","undefined","1","h","69","69","0","69","69","0","0","0","69","69","69","69","0","0","0","0","09/25/22 20:58:32","1500","The main experiment item","yes","FlankerTask.osexp","C:/Users/saudm/OneDrive/Desktop","no","mono","no","18","no","white","no","yes","768","legacy","69","69","C:/Users/saudm/OneDrive/Desktop/MK-subject-2.csv","legacy","Lentiform Loewenfeld","3.3.12","0","h","NA","h","NA","NA","h","471","NA","29027","NA","NA","471","2","legacy","1024","2","48000","-16","experiment","HHHHH","2","even","91143","NA","NA","146605","145572","2040","NA","NA","146706","147177","146604","146706","31068","NA","NA","2039","Flanker Task ","68","35742","70","yes","1024"
"97.1830985915","97.1830985915","512.098591549","512.098591549","black","legacy","legacy","legacy","0","incongruent","uniform","1","undefined","1","s","70","70","0","70","70","0","0","0","70","70","70","70","0","0","0","0","09/25/22 20:58:32","1500","The main experiment item","yes","FlankerTask.osexp","C:/Users/saudm/OneDrive/Desktop","no","mono","no","18","no","white","no","yes","768","legacy","70","70","C:/Users/saudm/OneDrive/Desktop/MK-subject-2.csv","legacy","Lentiform Loewenfeld","3.3.12","0","s","NA","h","NA","NA","s","617","NA","29027","NA","NA","617","2","legacy","1024","2","48000","-16","experiment","HHSHH","2","even","91143","NA","NA","148223","147189","2040","NA","NA","148325","148943","148221","148325","31068","NA","NA","2039","Flanker Task ","69","36359","71","yes","1024"
"97.2222222222","97.2222222222","511.722222222","511.722222222","black","legacy","legacy","legacy","0","incongruent","uniform","1","undefined","1","h","71","71","0","71","71","0","0","0","71","71","71","71","0","0","0","0","09/25/22 20:58:32","1500","The main experiment item","yes","FlankerTask.osexp","C:/Users/saudm/OneDrive/Desktop","no","mono","no","18","no","white","no","yes","768","legacy","71","71","C:/Users/saudm/OneDrive/Desktop/MK-subject-2.csv","legacy","Lentiform Loewenfeld","3.3.12","0","h","NA","h","NA","NA","h","485","NA","29027","NA","NA","485","2","legacy","1024","2","48000","-16","experiment","SSHSS","2","even","91143","NA","NA","149992","148955","2040","NA","NA","150093","150578","149988","150093","31068","NA","NA","2039","Flanker Task ","70","36844","72","yes","1024"
"97.2602739726","97.2602739726","512.123287671","512.123287671","black","legacy","legacy","legacy","0","incongruent","uniform","1","undefined","1","s","72","72","0","72","72","0","0","0","72","72","72","72","0","0","0","0","09/25/22 20:58:32","1500","The main experiment item","yes","FlankerTask.osexp","C:/Users/saudm/OneDrive/Desktop","no","mono","no","18","no","white","no","yes","768","legacy","72","72","C:/Users/saudm/OneDrive/Desktop/MK-subject-2.csv","legacy","Lentiform Loewenfeld","3.3.12","0","s","NA","h","NA","NA","s","541","NA","29027","NA","NA","541","2","legacy","1024","2","48000","-16","experiment","HHSHH","2","even","91143","NA","NA","151623","150591","2040","NA","NA","151724","152266","151622","151724","31068","NA","NA","2039","Flanker Task ","71","37385","73","yes","1024"
"97.2972972973","97.2972972973","514.864864865","514.864864865","black","legacy","legacy","legacy","0","congruent","uniform","1","undefined","1","s","73","73","0","73","73","0","0","0","73","73","73","73","0","0","0","0","09/25/22 20:58:32","1500","The main experiment item","yes","FlankerTask.osexp","C:/Users/saudm/OneDrive/Desktop","no","mono","no","18","no","white","no","yes","768","legacy","73","73","C:/Users/saudm/OneDrive/Desktop/MK-subject-2.csv","legacy","Lentiform Loewenfeld","3.3.12","0","s","NA","h","NA","NA","s","715","NA","29027","NA","NA","715","2","legacy","1024","2","48000","-16","experiment","SSSSS","2","even","91143","NA","NA","153314","152278","2040","NA","NA","153416","154132","153312","153416","31068","NA","NA","2039","Flanker Task ","72","38100","74","yes","1024"
"97.3333333333","97.3333333333","515.64","515.64","black","legacy","legacy","legacy","0","incongruent","uniform","1","undefined","1","h","74","74","0","74","74","0","0","0","74","74","74","74","0","0","0","0","09/25/22 20:58:32","1500","The main experiment item","yes","FlankerTask.osexp","C:/Users/saudm/OneDrive/Desktop","no","mono","no","18","no","white","no","yes","768","legacy","74","74","C:/Users/saudm/OneDrive/Desktop/MK-subject-2.csv","legacy","Lentiform Loewenfeld","3.3.12","0","h","NA","h","NA","NA","h","573","NA","29027","NA","NA","573","2","legacy","1024","2","48000","-16","experiment","SSHSS","2","even","91143","NA","NA","155182","154145","2040","NA","NA","155284","155857","155180","155284","31068","NA","NA","2039","Flanker Task ","73","38673","75","yes","1024"
"97.3684210526","97.3684210526","514.539473684","514.539473684","black","legacy","legacy","legacy","0","incongruent","uniform","1","undefined","1","h","75","75","0","75","75","0","0","0","75","75","75","75","0","0","0","0","09/25/22 20:58:32","1500","The main experiment item","yes","FlankerTask.osexp","C:/Users/saudm/OneDrive/Desktop","no","mono","no","18","no","white","no","yes","768","legacy","75","75","C:/Users/saudm/OneDrive/Desktop/MK-subject-2.csv","legacy","Lentiform Loewenfeld","3.3.12","0","h","NA","h","NA","NA","h","432","NA","29027","NA","NA","432","2","legacy","1024","2","48000","-16","experiment","SSHSS","2","even","91143","NA","NA","156902","155869","2040","NA","NA","157004","157436","156900","157004","31068","NA","NA","2039","Flanker Task ","74","39105","76","yes","1024"
"97.4025974026","97.4025974026","514.961038961","514.961038961","black","legacy","legacy","legacy","0","incongruent","uniform","1","undefined","1","s","76","76","0","76","76","0","0","0","76","76","76","76","0","0","0","0","09/25/22 20:58:32","1500","The main experiment item","yes","FlankerTask.osexp","C:/Users/saudm/OneDrive/Desktop","no","mono","no","18","no","white","no","yes","768","legacy","76","76","C:/Users/saudm/OneDrive/Desktop/MK-subject-2.csv","legacy","Lentiform Loewenfeld","3.3.12","0","s","NA","h","NA","NA","s","547","NA","29027","NA","NA","547","2","legacy","1024","2","48000","-16","experiment","HHSHH","2","even","91143","NA","NA","158483","157448","2040","NA","NA","158584","159132","158482","158584","31068","NA","NA","2039","Flanker Task ","75","39652","77","yes","1024"
"97.4358974359","97.4358974359","515.602564103","515.602564103","black","legacy","legacy","legacy","0","congruent","uniform","1","undefined","1","s","77","77","0","77","77","0","0","0","77","77","77","77","0","0","0","0","09/25/22 20:58:32","1500","The main experiment item","yes","FlankerTask.osexp","C:/Users/saudm/OneDrive/Desktop","no","mono","no","18","no","white","no","yes","768","legacy","77","77","C:/Users/saudm/OneDrive/Desktop/MK-subject-2.csv","legacy","Lentiform Loewenfeld","3.3.12","0","s","NA","h","NA","NA","s","565","NA","29027","NA","NA","565","2","legacy","1024","2","48000","-16","experiment","SSSSS","2","even","91143","NA","NA","160178","159144","2040","NA","NA","160279","160844","160177","160279","31068","NA","NA","2039","Flanker Task ","76","40217","78","yes","1024"
"97.4683544304","97.4683544304","513.873417722","513.873417722","black","legacy","legacy","legacy","0","congruent","uniform","1","undefined","1","s","78","78","0","78","78","0","0","0","78","78","78","78","0","0","0","0","09/25/22 20:58:32","1500","The main experiment item","yes","FlankerTask.osexp","C:/Users/saudm/OneDrive/Desktop","no","mono","no","18","no","white","no","yes","768","legacy","78","78","C:/Users/saudm/OneDrive/Desktop/MK-subject-2.csv","legacy","Lentiform Loewenfeld","3.3.12","0","s","NA","h","NA","NA","s","379","NA","29027","NA","NA","379","2","legacy","1024","2","48000","-16","experiment","SSSSS","2","even","91143","NA","NA","161881","160846","2040","NA","NA","161982","162362","161879","161982","31068","NA","NA","2039","Flanker Task ","77","40596","79","yes","1024"
"97.5","97.5","512.9125","512.9125","black","legacy","legacy","legacy","0","congruent","uniform","1","undefined","1","s","79","79","0","79","79","0","0","0","79","79","79","79","0","0","0","0","09/25/22 20:58:32","1500","The main experiment item","yes","FlankerTask.osexp","C:/Users/saudm/OneDrive/Desktop","no","mono","no","18","no","white","no","yes","768","legacy","79","79","C:/Users/saudm/OneDrive/Desktop/MK-subject-2.csv","legacy","Lentiform Loewenfeld","3.3.12","0","s","NA","h","NA","NA","s","437","NA","29027","NA","NA","437","2","legacy","1024","2","48000","-16","experiment","SSSSS","2","even","91143","NA","NA","163409","162375","2040","NA","NA","163512","163950","163408","163511","31068","NA","NA","2039","Flanker Task ","78","41033","80","yes","1024"
"97.5308641975","97.5308641975","513.567901235","513.567901235","black","legacy","legacy","legacy","0","congruent","uniform","1","undefined","1","s","80","80","0","80","80","0","0","0","80","80","80","80","0","0","0","0","09/25/22 20:58:32","600","The main experiment item","yes","FlankerTask.osexp","C:/Users/saudm/OneDrive/Desktop","no","mono","no","18","no","white","no","yes","768","legacy","0","79","C:/Users/saudm/OneDrive/Desktop/MK-subject-2.csv","legacy","Lentiform Loewenfeld","3.3.12","0","s","NA","h","s","NA","s","566","NA","29027","10051","NA","566","2","legacy","1024","2","48000","-16","experiment","SSSSS","2","even","91143","NA","NA","175057","163962","2040","164972","NA","175158","175725","175056","175158","31068","175024","NA","2039","Flanker Task ","79","41599","81","yes","1024"
"97.5609756098","97.5609756098","513.073170732","513.073170732","black","legacy","legacy","legacy","0","congruent","uniform","1","undefined","1","h","81","81","0","81","81","0","0","0","81","81","81","81","0","0","0","0","09/25/22 20:58:32","600","The main experiment item","yes","FlankerTask.osexp","C:/Users/saudm/OneDrive/Desktop","no","mono","no","18","no","white","no","yes","768","legacy","1","79","C:/Users/saudm/OneDrive/Desktop/MK-subject-2.csv","legacy","Lentiform Loewenfeld","3.3.12","0","h","NA","h","s","NA","h","473","NA","29027","10051","NA","473","2","legacy","1024","2","48000","-16","experiment","HHHHH","2","even","91143","NA","NA","176772","175737","2040","164972","NA","176874","177348","176771","176874","31068","175024","NA","2039","Flanker Task ","80","42072","82","yes","1024"
"97.5903614458","97.5903614458","512.590361446","512.590361446","black","legacy","legacy","legacy","0","congruent","uniform","1","undefined","1","s","82","82","0","82","82","0","0","0","82","82","82","82","0","0","0","0","09/25/22 20:58:32","600","The main experiment item","yes","FlankerTask.osexp","C:/Users/saudm/OneDrive/Desktop","no","mono","no","18","no","white","no","yes","768","legacy","2","79","C:/Users/saudm/OneDrive/Desktop/MK-subject-2.csv","legacy","Lentiform Loewenfeld","3.3.12","0","s","NA","h","s","NA","s","473","NA","29027","10051","NA","473","2","legacy","1024","2","48000","-16","experiment","SSSSS","2","even","91143","NA","NA","178394","177360","2040","164972","NA","178495","178969","178392","178495","31068","175024","NA","2039","Flanker Task ","81","42545","83","yes","1024"
"97.619047619","97.619047619","511.476190476","511.476190476","black","legacy","legacy","legacy","0","incongruent","uniform","1","undefined","1","s","83","83","0","83","83","0","0","0","83","83","83","83","0","0","0","0","09/25/22 20:58:32","600","The main experiment item","yes","FlankerTask.osexp","C:/Users/saudm/OneDrive/Desktop","no","mono","no","18","no","white","no","yes","768","legacy","3","79","C:/Users/saudm/OneDrive/Desktop/MK-subject-2.csv","legacy","Lentiform Loewenfeld","3.3.12","0","s","NA","h","s","NA","s","419","NA","29027","10051","NA","419","2","legacy","1024","2","48000","-16","experiment","HHSHH","2","even","91143","NA","NA","180013","178981","2040","164972","NA","180115","180534","180011","180115","31068","175024","NA","2039","Flanker Task ","82","42964","84","yes","1024"
"97.6470588235","97.6470588235","510.623529412","510.623529412","black","legacy","legacy","legacy","0","congruent","uniform","1","undefined","1","h","84","84","0","84","84","0","0","0","84","84","84","84","0","0","0","0","09/25/22 20:58:32","600","The main experiment item","yes","FlankerTask.osexp","C:/Users/saudm/OneDrive/Desktop","no","mono","no","18","no","white","no","yes","768","legacy","4","79","C:/Users/saudm/OneDrive/Desktop/MK-subject-2.csv","legacy","Lentiform Loewenfeld","3.3.12","0","h","NA","h","s","NA","h","439","NA","29027","10051","NA","439","2","legacy","1024","2","48000","-16","experiment","HHHHH","2","even","91143","NA","NA","181579","180546","2040","164972","NA","181681","182121","181577","181681","31068","175024","NA","2039","Flanker Task ","83","43403","85","yes","1024"
"97.6744186047","97.6744186047","509.069767442","509.069767442","black","legacy","legacy","legacy","0","congruent","uniform","1","undefined","1","s","85","85","0","85","85","0","0","0","85","85","85","85","0","0","0","0","09/25/22 20:58:32","600","The main experiment item","yes","FlankerTask.osexp","C:/Users/saudm/OneDrive/Desktop","no","mono","no","18","no","white","no","yes","768","legacy","5","79","C:/Users/saudm/OneDrive/Desktop/MK-subject-2.csv","legacy","Lentiform Loewenfeld","3.3.12","0","s","NA","h","s","NA","s","377","NA","29027","10051","NA","377","2","legacy","1024","2","48000","-16","experiment","SSSSS","2","even","91143","NA","NA","183159","182123","2040","164972","NA","183260","183638","183157","183259","31068","175024","NA","2039","Flanker Task ","84","43780","86","yes","1024"
"97.7011494253","97.7011494253","507.689655172","507.689655172","black","legacy","legacy","legacy","0","congruent","uniform","1","undefined","1","h","86","86","0","86","86","0","0","0","86","86","86","86","0","0","0","0","09/25/22 20:58:32","600","The main experiment item","yes","FlankerTask.osexp","C:/Users/saudm/OneDrive/Desktop","no","mono","no","18","no","white","no","yes","768","legacy","6","79","C:/Users/saudm/OneDrive/Desktop/MK-subject-2.csv","legacy","Lentiform Loewenfeld","3.3.12","0","h","NA","h","s","NA","h","389","NA","29027","10051","NA","389","2","legacy","1024","2","48000","-16","experiment","HHHHH","2","even","91143","NA","NA","184690","183650","2040","164972","NA","184793","185183","184689","184793","31068","175024","NA","2039","Flanker Task ","85","44169","87","yes","1024"
"97.7272727273","97.7272727273","505.954545455","505.954545455","black","legacy","legacy","legacy","0","congruent","uniform","1","undefined","1","s","87","87","0","87","87","0","0","0","87","87","87","87","0","0","0","0","09/25/22 20:58:32","600","The main experiment item","yes","FlankerTask.osexp","C:/Users/saudm/OneDrive/Desktop","no","mono","no","18","no","white","no","yes","768","legacy","7","79","C:/Users/saudm/OneDrive/Desktop/MK-subject-2.csv","legacy","Lentiform Loewenfeld","3.3.12","0","s","NA","h","s","NA","s","355","NA","29027","10051","NA","355","2","legacy","1024","2","48000","-16","experiment","SSSSS","2","even","91143","NA","NA","186230","185196","2040","164972","NA","186331","186687","186228","186331","31068","175024","NA","2039","Flanker Task ","86","44524","88","yes","1024"
"97.7528089888","97.7528089888","506.202247191","506.202247191","black","legacy","legacy","legacy","0","incongruent","uniform","1","undefined","1","h","88","88","0","88","88","0","0","0","88","88","88","88","0","0","0","0","09/25/22 20:58:32","600","The main experiment item","yes","FlankerTask.osexp","C:/Users/saudm/OneDrive/Desktop","no","mono","no","18","no","white","no","yes","768","legacy","8","79","C:/Users/saudm/OneDrive/Desktop/MK-subject-2.csv","legacy","Lentiform Loewenfeld","3.3.12","0","h","NA","h","s","NA","h","528","NA","29027","10051","NA","528","2","legacy","1024","2","48000","-16","experiment","SSHSS","2","even","91143","NA","NA","187731","186699","2040","164972","NA","187832","188360","187730","187832","31068","175024","NA","2039","Flanker Task ","87","45052","89","yes","1024"
"97.7777777778","97.7777777778","505.188888889","505.188888889","black","legacy","legacy","legacy","0","congruent","uniform","1","undefined","1","h","89","89","0","89","89","0","0","0","89","89","89","89","0","0","0","0","09/25/22 20:58:32","600","The main experiment item","yes","FlankerTask.osexp","C:/Users/saudm/OneDrive/Desktop","no","mono","no","18","no","white","no","yes","768","legacy","9","79","C:/Users/saudm/OneDrive/Desktop/MK-subject-2.csv","legacy","Lentiform Loewenfeld","3.3.12","0","h","NA","h","s","NA","h","415","NA","29027","10051","NA","415","2","legacy","1024","2","48000","-16","experiment","HHHHH","2","even","91143","NA","NA","189406","188372","2040","164972","NA","189508","189924","189405","189508","31068","175024","NA","2039","Flanker Task ","88","45467","90","yes","1024"
"97.8021978022","97.8021978022","504.285714286","504.285714286","black","legacy","legacy","legacy","0","incongruent","uniform","1","undefined","1","h","90","90","0","90","90","0","0","0","90","90","90","90","0","0","0","0","09/25/22 20:58:32","600","The main experiment item","yes","FlankerTask.osexp","C:/Users/saudm/OneDrive/Desktop","no","mono","no","18","no","white","no","yes","768","legacy","10","79","C:/Users/saudm/OneDrive/Desktop/MK-subject-2.csv","legacy","Lentiform Loewenfeld","3.3.12","0","h","NA","h","s","NA","h","423","NA","29027","10051","NA","423","2","legacy","1024","2","48000","-16","experiment","SSHSS","2","even","91143","NA","NA","190966","189933","2040","164972","NA","191068","191492","190965","191068","31068","175024","NA","2039","Flanker Task ","89","45890","91","yes","1024"
"97.8260869565","97.8260869565","504.02173913","504.02173913","black","legacy","legacy","legacy","0","incongruent","uniform","1","undefined","1","s","91","91","0","91","91","0","0","0","91","91","91","91","0","0","0","0","09/25/22 20:58:32","600","The main experiment item","yes","FlankerTask.osexp","C:/Users/saudm/OneDrive/Desktop","no","mono","no","18","no","white","no","yes","768","legacy","11","79","C:/Users/saudm/OneDrive/Desktop/MK-subject-2.csv","legacy","Lentiform Loewenfeld","3.3.12","0","s","NA","h","s","NA","s","480","NA","29027","10051","NA","480","2","legacy","1024","2","48000","-16","experiment","HHSHH","2","even","91143","NA","NA","192538","191504","2040","164972","NA","192640","193121","192537","192640","31068","175024","NA","2039","Flanker Task ","90","46370","92","yes","1024"
"97.8494623656","97.8494623656","503.225806452","503.225806452","black","legacy","legacy","legacy","0","incongruent","uniform","1","undefined","1","h","92","92","0","92","92","0","0","0","92","92","92","92","0","0","0","0","09/25/22 20:58:32","600","The main experiment item","yes","FlankerTask.osexp","C:/Users/saudm/OneDrive/Desktop","no","mono","no","18","no","white","no","yes","768","legacy","12","79","C:/Users/saudm/OneDrive/Desktop/MK-subject-2.csv","legacy","Lentiform Loewenfeld","3.3.12","0","h","NA","h","s","NA","h","430","NA","29027","10051","NA","430","2","legacy","1024","2","48000","-16","experiment","SSHSS","2","even","91143","NA","NA","194166","193133","2040","164972","NA","194269","194699","194164","194268","31068","175024","NA","2039","Flanker Task ","91","46800","93","yes","1024"
"97.8723404255","97.8723404255","502.308510638","502.308510638","black","legacy","legacy","legacy","0","incongruent","uniform","1","undefined","1","h","93","93","0","93","93","0","0","0","93","93","93","93","0","0","0","0","09/25/22 20:58:32","600","The main experiment item","yes","FlankerTask.osexp","C:/Users/saudm/OneDrive/Desktop","no","mono","no","18","no","white","no","yes","768","legacy","13","79","C:/Users/saudm/OneDrive/Desktop/MK-subject-2.csv","legacy","Lentiform Loewenfeld","3.3.12","0","h","NA","h","s","NA","h","417","NA","29027","10051","NA","417","2","legacy","1024","2","48000","-16","experiment","SSHSS","2","even","91143","NA","NA","195753","194711","2040","164972","NA","195856","196274","195751","195856","31068","175024","NA","2039","Flanker Task ","92","47217","94","yes","1024"
"96.8421052632","96.8421052632","500.926315789","500.926315789","black","legacy","legacy","legacy","0","incongruent","uniform","0","undefined","0","h","94","94","0","94","94","0","0","0","94","94","94","94","0","0","0","0","09/25/22 20:58:32","600","The main experiment item","yes","FlankerTask.osexp","C:/Users/saudm/OneDrive/Desktop","no","mono","no","18","no","white","no","yes","768","legacy","14","79","C:/Users/saudm/OneDrive/Desktop/MK-subject-2.csv","legacy","Lentiform Loewenfeld","3.3.12","0","s","NA","h","s","NA","s","371","NA","29027","10051","NA","371","2","legacy","1024","2","48000","-16","experiment","SSHSS","2","even","91143","NA","NA","197323","196286","2040","164972","NA","197425","197797","197321","197424","31068","175024","NA","2039","Flanker Task ","92","47588","95","yes","1024"
"96.875","96.875","499.364583333","499.364583333","black","legacy","legacy","legacy","0","congruent","uniform","1","undefined","1","s","95","95","0","95","95","0","0","0","95","95","95","95","0","0","0","0","09/25/22 20:58:32","600","The main experiment item","yes","FlankerTask.osexp","C:/Users/saudm/OneDrive/Desktop","no","mono","no","18","no","white","no","yes","768","legacy","15","79","C:/Users/saudm/OneDrive/Desktop/MK-subject-2.csv","legacy","Lentiform Loewenfeld","3.3.12","0","s","NA","h","s","NA","s","351","NA","29027","10051","NA","351","2","legacy","1024","2","48000","-16","experiment","SSSSS","2","even","197809","NA","NA","199359","198310","2040","164972","NA","199460","199811","199358","199460","31068","175024","NA","2039","Flanker Task ","93","47939","96","yes","1024"
"96.9072164948","96.9072164948","498.927835052","498.927835052","black","legacy","legacy","legacy","0","congruent","uniform","1","undefined","1","h","96","96","0","96","96","0","0","0","96","96","96","96","0","0","0","0","09/25/22 20:58:32","600","The main experiment item","yes","FlankerTask.osexp","C:/Users/saudm/OneDrive/Desktop","no","mono","no","18","no","white","no","yes","768","legacy","16","79","C:/Users/saudm/OneDrive/Desktop/MK-subject-2.csv","legacy","Lentiform Loewenfeld","3.3.12","0","h","NA","h","s","NA","h","457","NA","29027","10051","NA","457","2","legacy","1024","2","48000","-16","experiment","HHHHH","2","even","197809","NA","NA","200860","199823","2040","164972","NA","200962","201420","200858","200962","31068","175024","NA","2039","Flanker Task ","94","48396","97","yes","1024"
"96.9387755102","96.9387755102","498.418367347","498.418367347","black","legacy","legacy","legacy","0","incongruent","uniform","1","undefined","1","s","97","97","0","97","97","0","0","0","97","97","97","97","0","0","0","0","09/25/22 20:58:32","600","The main experiment item","yes","FlankerTask.osexp","C:/Users/saudm/OneDrive/Desktop","no","mono","no","18","no","white","no","yes","768","legacy","17","79","C:/Users/saudm/OneDrive/Desktop/MK-subject-2.csv","legacy","Lentiform Loewenfeld","3.3.12","0","s","NA","h","s","NA","s","449","NA","29027","10051","NA","449","2","legacy","1024","2","48000","-16","experiment","HHSHH","2","even","197809","NA","NA","202469","201432","2040","164972","NA","202571","203021","202468","202571","31068","175024","NA","2039","Flanker Task ","95","48845","98","yes","1024"
"96.9696969697","96.9696969697","497.686868687","497.686868687","black","legacy","legacy","legacy","0","incongruent","uniform","1","undefined","1","s","98","98","0","98","98","0","0","0","98","98","98","98","0","0","0","0","09/25/22 20:58:32","600","The main experiment item","yes","FlankerTask.osexp","C:/Users/saudm/OneDrive/Desktop","no","mono","no","18","no","white","no","yes","768","legacy","18","79","C:/Users/saudm/OneDrive/Desktop/MK-subject-2.csv","legacy","Lentiform Loewenfeld","3.3.12","0","s","NA","h","s","NA","s","426","NA","29027","10051","NA","426","2","legacy","1024","2","48000","-16","experiment","HHSHH","2","even","197809","NA","NA","204067","203033","2040","164972","NA","204168","204594","204065","204168","31068","175024","NA","2039","Flanker Task ","96","49271","99","yes","1024"
"97","97","497.25","497.25","black","legacy","legacy","legacy","0","congruent","uniform","1","undefined","1","s","99","99","0","99","99","0","0","0","99","99","99","99","0","0","0","0","09/25/22 20:58:32","600","The main experiment item","yes","FlankerTask.osexp","C:/Users/saudm/OneDrive/Desktop","no","mono","no","18","no","white","no","yes","768","legacy","19","79","C:/Users/saudm/OneDrive/Desktop/MK-subject-2.csv","legacy","Lentiform Loewenfeld","3.3.12","0","s","NA","h","s","NA","s","454","NA","29027","10051","NA","454","2","legacy","1024","2","48000","-16","experiment","SSSSS","2","even","197809","NA","NA","205641","204606","2040","164972","NA","205743","206198","205639","205743","31068","175024","NA","2039","Flanker Task ","97","49725","100","yes","1024"
"97.0297029703","97.0297029703","497.544554455","497.544554455","black","legacy","legacy","legacy","0","incongruent","uniform","1","undefined","1","h","100","100","0","100","100","0","0","0","100","100","100","100","0","0","0","0","09/25/22 20:58:32","600","The main experiment item","yes","FlankerTask.osexp","C:/Users/saudm/OneDrive/Desktop","no","mono","no","18","no","white","no","yes","768","legacy","20","79","C:/Users/saudm/OneDrive/Desktop/MK-subject-2.csv","legacy","Lentiform Loewenfeld","3.3.12","0","h","NA","h","s","NA","h","527","NA","29027","10051","NA","527","2","legacy","1024","2","48000","-16","experiment","SSHSS","2","even","197809","NA","NA","207248","206210","2040","164972","NA","207349","207877","207247","207349","31068","175024","NA","2039","Flanker Task ","98","50252","101","yes","1024"
"97.0588235294","97.0588235294","498.009803922","498.009803922","black","legacy","legacy","legacy","0","incongruent","uniform","1","undefined","1","h","101","101","0","101","101","0","0","0","101","101","101","101","0","0","0","0","09/25/22 20:58:32","600","The main experiment item","yes","FlankerTask.osexp","C:/Users/saudm/OneDrive/Desktop","no","mono","no","18","no","white","no","yes","768","legacy","21","79","C:/Users/saudm/OneDrive/Desktop/MK-subject-2.csv","legacy","Lentiform Loewenfeld","3.3.12","0","h","NA","h","s","NA","h","545","NA","29027","10051","NA","545","2","legacy","1024","2","48000","-16","experiment","SSHSS","2","even","197809","NA","NA","208923","207889","2040","164972","NA","209026","209572","208922","209026","31068","175024","NA","2039","Flanker Task ","99","50797","102","yes","1024"
"97.0873786408","97.0873786408","499.650485437","499.650485437","black","legacy","legacy","legacy","0","congruent","uniform","1","undefined","1","s","102","102","0","102","102","0","0","0","102","102","102","102","0","0","0","0","09/25/22 20:58:32","600","The main experiment item","yes","FlankerTask.osexp","C:/Users/saudm/OneDrive/Desktop","no","mono","no","18","no","white","no","yes","768","legacy","22","79","C:/Users/saudm/OneDrive/Desktop/MK-subject-2.csv","legacy","Lentiform Loewenfeld","3.3.12","0","s","NA","h","s","NA","s","667","NA","29027","10051","NA","667","2","legacy","1024","2","48000","-16","experiment","SSSSS","2","even","197809","NA","NA","210620","209584","2040","164972","NA","210721","211388","210618","210721","31068","175024","NA","2039","Flanker Task ","100","51464","103","yes","1024"
"97.1153846154","97.1153846154","498.798076923","498.798076923","black","legacy","legacy","legacy","0","incongruent","uniform","1","undefined","1","h","103","103","0","103","103","0","0","0","103","103","103","103","0","0","0","0","09/25/22 20:58:32","600","The main experiment item","yes","FlankerTask.osexp","C:/Users/saudm/OneDrive/Desktop","no","mono","no","18","no","white","no","yes","768","legacy","23","79","C:/Users/saudm/OneDrive/Desktop/MK-subject-2.csv","legacy","Lentiform Loewenfeld","3.3.12","0","h","NA","h","s","NA","h","411","NA","29027","10051","NA","411","2","legacy","1024","2","48000","-16","experiment","SSHSS","2","even","197809","211400","NA","212938","211901","2040","164972","NA","213039","213450","212937","213039","31068","175024","NA","2039","Flanker Task ","101","51875","104","yes","1024"
"97.1428571429","97.1428571429","497.457142857","497.457142857","black","legacy","legacy","legacy","0","congruent","uniform","1","undefined","1","s","104","104","0","104","104","0","0","0","104","104","104","104","0","0","0","0","09/25/22 20:58:32","600","The main experiment item","yes","FlankerTask.osexp","C:/Users/saudm/OneDrive/Desktop","no","mono","no","18","no","white","no","yes","768","legacy","24","79","C:/Users/saudm/OneDrive/Desktop/MK-subject-2.csv","legacy","Lentiform Loewenfeld","3.3.12","0","s","NA","h","s","NA","s","358","NA","29027","10051","NA","358","2","legacy","1024","2","48000","-16","experiment","SSSSS","2","even","197809","211400","NA","214499","213462","2040","164972","NA","214600","214959","214497","214600","31068","175024","NA","2039","Flanker Task ","102","52233","105","yes","1024"
"97.1698113208","97.1698113208","496.981132075","496.981132075","black","legacy","legacy","legacy","0","congruent","uniform","1","undefined","1","h","105","105","0","105","105","0","0","0","105","105","105","105","0","0","0","0","09/25/22 20:58:32","600","The main experiment item","yes","FlankerTask.osexp","C:/Users/saudm/OneDrive/Desktop","no","mono","no","18","no","white","no","yes","768","legacy","25","79","C:/Users/saudm/OneDrive/Desktop/MK-subject-2.csv","legacy","Lentiform Loewenfeld","3.3.12","0","h","NA","h","s","NA","h","447","NA","29027","10051","NA","447","2","legacy","1024","2","48000","-16","experiment","HHHHH","2","even","197809","211400","NA","216003","214970","2040","164972","NA","216104","216553","216002","216104","31068","175024","NA","2039","Flanker Task ","103","52680","106","yes","1024"
"97.1962616822","97.1962616822","495.794392523","495.794392523","black","legacy","legacy","legacy","0","congruent","uniform","1","undefined","1","s","106","106","0","106","106","0","0","0","106","106","106","106","0","0","0","0","09/25/22 20:58:32","600","The main experiment item","yes","FlankerTask.osexp","C:/Users/saudm/OneDrive/Desktop","no","mono","no","18","no","white","no","yes","768","legacy","26","79","C:/Users/saudm/OneDrive/Desktop/MK-subject-2.csv","legacy","Lentiform Loewenfeld","3.3.12","0","s","NA","h","s","NA","s","370","NA","29027","10051","NA","370","2","legacy","1024","2","48000","-16","experiment","SSSSS","2","even","197809","211400","NA","217590","216556","2040","164972","NA","217692","218063","217589","217692","31068","175024","NA","2039","Flanker Task ","104","53050","107","yes","1024"
"97.2222222222","97.2222222222","494.583333333","494.583333333","black","legacy","legacy","legacy","0","incongruent","uniform","1","undefined","1","s","107","107","0","107","107","0","0","0","107","107","107","107","0","0","0","0","09/25/22 20:58:32","600","The main experiment item","yes","FlankerTask.osexp","C:/Users/saudm/OneDrive/Desktop","no","mono","no","18","no","white","no","yes","768","legacy","27","79","C:/Users/saudm/OneDrive/Desktop/MK-subject-2.csv","legacy","Lentiform Loewenfeld","3.3.12","0","s","NA","h","s","NA","s","365","NA","29027","10051","NA","365","2","legacy","1024","2","48000","-16","experiment","HHSHH","2","even","197809","211400","NA","219107","218075","2040","164972","NA","219209","219575","219106","219209","31068","175024","NA","2039","Flanker Task ","105","53415","108","yes","1024"
"97.247706422","97.247706422","494.247706422","494.247706422","black","legacy","legacy","legacy","0","incongruent","uniform","1","undefined","1","h","108","108","0","108","108","0","0","0","108","108","108","108","0","0","0","0","09/25/22 20:58:32","600","The main experiment item","yes","FlankerTask.osexp","C:/Users/saudm/OneDrive/Desktop","no","mono","no","18","no","white","no","yes","768","legacy","28","79","C:/Users/saudm/OneDrive/Desktop/MK-subject-2.csv","legacy","Lentiform Loewenfeld","3.3.12","0","h","NA","h","s","NA","h","458","NA","29027","10051","NA","458","2","legacy","1024","2","48000","-16","experiment","SSHSS","2","even","197809","211400","NA","220623","219588","2040","164972","NA","220725","221184","220622","220725","31068","175024","NA","2039","Flanker Task ","106","53873","109","yes","1024"
"97.2727272727","97.2727272727","494.181818182","494.181818182","black","legacy","legacy","legacy","0","congruent","uniform","1","undefined","1","s","109","109","0","109","109","0","0","0","109","109","109","109","0","0","0","0","09/25/22 20:58:32","600","The main experiment item","yes","FlankerTask.osexp","C:/Users/saudm/OneDrive/Desktop","no","mono","no","18","no","white","no","yes","768","legacy","29","79","C:/Users/saudm/OneDrive/Desktop/MK-subject-2.csv","legacy","Lentiform Loewenfeld","3.3.12","0","s","NA","h","s","NA","s","487","NA","29027","10051","NA","487","2","legacy","1024","2","48000","-16","experiment","SSSSS","2","even","197809","211400","NA","222232","221196","2040","164972","NA","222334","222822","222230","222334","31068","175024","NA","2039","Flanker Task ","107","54360","110","yes","1024"
"97.2972972973","97.2972972973","493.585585586","493.585585586","black","legacy","legacy","legacy","0","congruent","uniform","1","undefined","1","h","110","110","0","110","110","0","0","0","110","110","110","110","0","0","0","0","09/25/22 20:58:32","600","The main experiment item","yes","FlankerTask.osexp","C:/Users/saudm/OneDrive/Desktop","no","mono","no","18","no","white","no","yes","768","legacy","30","79","C:/Users/saudm/OneDrive/Desktop/MK-subject-2.csv","legacy","Lentiform Loewenfeld","3.3.12","0","h","NA","h","s","NA","h","428","NA","29027","10051","NA","428","2","legacy","1024","2","48000","-16","experiment","HHHHH","2","even","197809","211400","NA","223867","222834","2040","164972","NA","223969","224398","223866","223969","31068","175024","NA","2039","Flanker Task ","108","54788","111","yes","1024"
"97.3214285714","97.3214285714","493.758928571","493.758928571","black","legacy","legacy","legacy","0","incongruent","uniform","1","undefined","1","h","111","111","0","111","111","0","0","0","111","111","111","111","0","0","0","0","09/25/22 20:58:32","600","The main experiment item","yes","FlankerTask.osexp","C:/Users/saudm/OneDrive/Desktop","no","mono","no","18","no","white","no","yes","768","legacy","31","79","C:/Users/saudm/OneDrive/Desktop/MK-subject-2.csv","legacy","Lentiform Loewenfeld","3.3.12","0","h","NA","h","s","NA","h","513","NA","29027","10051","NA","513","2","legacy","1024","2","48000","-16","experiment","SSHSS","2","even","197809","211400","NA","225443","224400","2040","164972","NA","225545","226059","225442","225545","31068","175024","NA","2039","Flanker Task ","109","55301","112","yes","1024"
"97.3451327434","97.3451327434","493.672566372","493.672566372","black","legacy","legacy","legacy","0","congruent","uniform","1","undefined","1","h","112","112","0","112","112","0","0","0","112","112","112","112","0","0","0","0","09/25/22 20:58:32","600","The main experiment item","yes","FlankerTask.osexp","C:/Users/saudm/OneDrive/Desktop","no","mono","no","18","no","white","no","yes","768","legacy","32","79","C:/Users/saudm/OneDrive/Desktop/MK-subject-2.csv","legacy","Lentiform Loewenfeld","3.3.12","0","h","NA","h","s","NA","h","484","NA","29027","10051","NA","484","2","legacy","1024","2","48000","-16","experiment","HHHHH","2","even","197809","211400","NA","227095","226061","2040","164972","NA","227197","227682","227093","227197","31068","175024","NA","2039","Flanker Task ","110","55785","113","yes","1024"
"97.3684210526","97.3684210526","492.798245614","492.798245614","black","legacy","legacy","legacy","0","congruent","uniform","1","undefined","1","s","113","113","0","113","113","0","0","0","113","113","113","113","0","0","0","0","09/25/22 20:58:32","600","The main experiment item","yes","FlankerTask.osexp","C:/Users/saudm/OneDrive/Desktop","no","mono","no","18","no","white","no","yes","768","legacy","33","79","C:/Users/saudm/OneDrive/Desktop/MK-subject-2.csv","legacy","Lentiform Loewenfeld","3.3.12","0","s","NA","h","s","NA","s","394","NA","29027","10051","NA","394","2","legacy","1024","2","48000","-16","experiment","SSSSS","2","even","197809","211400","NA","228726","227694","2040","164972","NA","228828","229223","228724","228828","31068","175024","NA","2039","Flanker Task ","111","56179","114","yes","1024"
"97.3913043478","97.3913043478","493.930434783","493.930434783","black","legacy","legacy","legacy","0","congruent","uniform","1","undefined","1","h","114","114","0","114","114","0","0","0","114","114","114","114","0","0","0","0","09/25/22 20:58:32","600","The main experiment item","yes","FlankerTask.osexp","C:/Users/saudm/OneDrive/Desktop","no","mono","no","18","no","white","no","yes","768","legacy","34","79","C:/Users/saudm/OneDrive/Desktop/MK-subject-2.csv","legacy","Lentiform Loewenfeld","3.3.12","0","h","NA","h","s","NA","h","623","NA","29027","10051","NA","623","2","legacy","1024","2","48000","-16","experiment","HHHHH","2","even","197809","211400","NA","230268","229235","2040","164972","NA","230369","230993","230267","230369","31068","175024","NA","2039","Flanker Task ","112","56802","115","yes","1024"
"97.4137931034","97.4137931034","493.586206897","493.586206897","black","legacy","legacy","legacy","0","incongruent","uniform","1","undefined","1","s","115","115","0","115","115","0","0","0","115","115","115","115","0","0","0","0","09/25/22 20:58:32","600","The main experiment item","yes","FlankerTask.osexp","C:/Users/saudm/OneDrive/Desktop","no","mono","no","18","no","white","no","yes","768","legacy","35","79","C:/Users/saudm/OneDrive/Desktop/MK-subject-2.csv","legacy","Lentiform Loewenfeld","3.3.12","0","s","NA","h","s","NA","s","454","NA","29027","10051","NA","454","2","legacy","1024","2","48000","-16","experiment","HHSHH","2","even","197809","231004","NA","232541","231505","2040","164972","NA","232643","233097","232540","232643","31068","175024","NA","2039","Flanker Task ","113","57256","116","yes","1024"
"97.4358974359","97.4358974359","492.487179487","492.487179487","black","legacy","legacy","legacy","0","incongruent","uniform","1","undefined","1","h","116","116","0","116","116","0","0","0","116","116","116","116","0","0","0","0","09/25/22 20:58:32","600","The main experiment item","yes","FlankerTask.osexp","C:/Users/saudm/OneDrive/Desktop","no","mono","no","18","no","white","no","yes","768","legacy","36","79","C:/Users/saudm/OneDrive/Desktop/MK-subject-2.csv","legacy","Lentiform Loewenfeld","3.3.12","0","h","NA","h","s","NA","h","365","NA","29027","10051","NA","365","2","legacy","1024","2","48000","-16","experiment","SSHSS","2","even","197809","231004","NA","234145","233109","2040","164972","NA","234246","234612","234144","234246","31068","175024","NA","2039","Flanker Task ","114","57621","117","yes","1024"
"97.4576271186","97.4576271186","492.906779661","492.906779661","black","legacy","legacy","legacy","0","incongruent","uniform","1","undefined","1","s","117","117","0","117","117","0","0","0","117","117","117","117","0","0","0","0","09/25/22 20:58:32","600","The main experiment item","yes","FlankerTask.osexp","C:/Users/saudm/OneDrive/Desktop","no","mono","no","18","no","white","no","yes","768","legacy","37","79","C:/Users/saudm/OneDrive/Desktop/MK-subject-2.csv","legacy","Lentiform Loewenfeld","3.3.12","0","s","NA","h","s","NA","s","542","NA","29027","10051","NA","542","2","legacy","1024","2","48000","-16","experiment","HHSHH","2","even","197809","231004","NA","235649","234615","2040","164972","NA","235751","236293","235647","235751","31068","175024","NA","2039","Flanker Task ","115","58163","118","yes","1024"
"97.4789915966","97.4789915966","492.31092437","492.31092437","black","legacy","legacy","legacy","0","incongruent","uniform","1","undefined","1","s","118","118","0","118","118","0","0","0","118","118","118","118","0","0","0","0","09/25/22 20:58:32","600","The main experiment item","yes","FlankerTask.osexp","C:/Users/saudm/OneDrive/Desktop","no","mono","no","18","no","white","no","yes","768","legacy","38","79","C:/Users/saudm/OneDrive/Desktop/MK-subject-2.csv","legacy","Lentiform Loewenfeld","3.3.12","0","s","NA","h","s","NA","s","422","NA","29027","10051","NA","422","2","legacy","1024","2","48000","-16","experiment","HHSHH","2","even","197809","231004","NA","237340","236305","2040","164972","NA","237441","237864","237338","237441","31068","175024","NA","2039","Flanker Task ","116","58585","119","yes","1024"
"97.5","97.5","491.616666667","491.616666667","black","legacy","legacy","legacy","0","congruent","uniform","1","undefined","1","h","119","119","0","119","119","0","0","0","119","119","119","119","0","0","0","0","09/25/22 20:58:32","600","The main experiment item","yes","FlankerTask.osexp","C:/Users/saudm/OneDrive/Desktop","no","mono","no","18","no","white","no","yes","768","legacy","39","79","C:/Users/saudm/OneDrive/Desktop/MK-subject-2.csv","legacy","Lentiform Loewenfeld","3.3.12","0","h","NA","h","s","NA","h","409","NA","29027","10051","NA","409","2","legacy","1024","2","48000","-16","experiment","HHHHH","2","even","197809","231004","NA","238910","237876","2040","164972","NA","239011","239421","238909","239011","31068","175024","NA","2039","Flanker Task ","117","58994","120","yes","1024"
"97.520661157","97.520661157","490.371900826","490.371900826","black","legacy","legacy","legacy","0","congruent","uniform","1","undefined","1","h","120","120","0","120","120","0","0","0","120","120","120","120","0","0","0","0","09/25/22 20:58:32","600","The main experiment item","yes","FlankerTask.osexp","C:/Users/saudm/OneDrive/Desktop","no","mono","no","18","no","white","no","yes","768","legacy","40","79","C:/Users/saudm/OneDrive/Desktop/MK-subject-2.csv","legacy","Lentiform Loewenfeld","3.3.12","0","h","NA","h","s","NA","h","341","NA","29027","10051","NA","341","2","legacy","1024","2","48000","-16","experiment","HHHHH","2","even","197809","231004","NA","240457","239424","2040","164972","NA","240558","240900","240456","240558","31068","175024","NA","2039","Flanker Task ","118","59335","121","yes","1024"
"96.7213114754","96.7213114754","488.770491803","488.770491803","black","legacy","legacy","legacy","0","incongruent","uniform","0","undefined","0","h","121","121","0","121","121","0","0","0","121","121","121","121","0","0","0","0","09/25/22 20:58:32","600","The main experiment item","yes","FlankerTask.osexp","C:/Users/saudm/OneDrive/Desktop","no","mono","no","18","no","white","no","yes","768","legacy","41","79","C:/Users/saudm/OneDrive/Desktop/MK-subject-2.csv","legacy","Lentiform Loewenfeld","3.3.12","0","s","NA","h","s","NA","s","295","NA","29027","10051","NA","295","2","legacy","1024","2","48000","-16","experiment","SSHSS","2","even","197809","231004","NA","241949","240913","2040","164972","NA","242051","242347","241947","242051","31068","175024","NA","2039","Flanker Task ","118","59630","122","yes","1024"
"96.7479674797","96.7479674797","487.642276423","487.642276423","black","legacy","legacy","legacy","0","congruent","uniform","1","undefined","1","h","122","122","0","122","122","0","0","0","122","122","122","122","0","0","0","0","09/25/22 20:58:32","600","The main experiment item","yes","FlankerTask.osexp","C:/Users/saudm/OneDrive/Desktop","no","mono","no","18","no","white","no","yes","768","legacy","42","79","C:/Users/saudm/OneDrive/Desktop/MK-subject-2.csv","legacy","Lentiform Loewenfeld","3.3.12","0","h","NA","h","s","NA","h","350","NA","29027","10051","NA","350","2","legacy","1024","2","48000","-16","experiment","HHHHH","2","even","242359","231004","NA","243894","242860","2040","164972","NA","243995","244346","243892","243995","31068","175024","NA","2039","Flanker Task ","119","59980","123","yes","1024"
