"acc","accuracy","average_response_time","avg_rt","background","canvas_backend","clock_backend","color_backend","compensation","condition","coordinates","correct","correct_instructions1","correct_keyboard_response","correct_response","count_Block1","count_Block2","count_Block3","count_ISI","count_errorFeedback","count_experiment","count_faster","count_finish","count_fixation","count_instructions1","count_instructions2","count_instructions3","count_keyboard_response","count_logger","count_sequence","count_stimulus","datetime","deadline","description","disable_garbage_collection","experiment_file","experiment_path","font_bold","font_family","font_italic","font_size","font_underline","foreground","form_clicks","fullscreen","height","keyboard_backend","live_row","live_row_Block1","logfile","mouse_backend","opensesame_codename","opensesame_version","repeat_cycle","response","response_finish","response_instructions1","response_instructions2","response_instructions3","response_keyboard_response","response_time","response_time_finish","response_time_instructions1","response_time_instructions2","response_time_instructions3","response_time_keyboard_response","round_decimals","sampler_backend","sound_buf_size","sound_channels","sound_freq","sound_sample_size","start","stimulus","subject_nr","subject_parity","time_Block1","time_Block2","time_Block3","time_ISI","time_errorFeedback","time_experiment","time_faster","time_finish","time_fixation","time_instructions1","time_instructions2","time_instructions3","time_keyboard_response","time_logger","time_sequence","time_stimulus","title","total_correct","total_response_time","total_responses","uniform_coordinates","width"
"100","100","463","463","#800080","legacy","legacy","legacy","0","congruent","uniform","1","undefined","1","h","0","0","0","0","0","0","0","0","0","0","0","0","0","0","0","0","Sun Sep 20 11:13:48 2020","1500","The main experiment item","yes","FlankerTaskLab.osexp","/Users/Arianna/Desktop","no","sans","no","18","no","white","no","yes","768","legacy","0","0","/Users/Arianna/Desktop/AG-subject-1.csv","legacy","Lentiform Loewenfeld","3.3.3","0","h","NA","h","NA","NA","h","463","NA","844","NA","NA","463","2","legacy","1024","2","48000","-16","experiment","HHHHH","1","odd","4694","NA","NA","NA","NA","3808","NA","NA","4773","3823","NA","NA","4888","5352","4759","4888","Flanker Task Lab 2.1","1","463","1","yes","1024"
"100","100","451","451","#800080","legacy","legacy","legacy","0","congruent","uniform","1","undefined","1","s","0","0","0","1","1","0","1","0","1","0","0","0","1","1","1","1","Sun Sep 20 11:13:48 2020","1500","The main experiment item","yes","FlankerTaskLab.osexp","/Users/Arianna/Desktop","no","sans","no","18","no","white","no","yes","768","legacy","1","1","/Users/Arianna/Desktop/AG-subject-1.csv","legacy","Lentiform Loewenfeld","3.3.3","0","s","NA","h","NA","NA","s","439","NA","844","NA","NA","439","2","legacy","1024","2","48000","-16","experiment","SSSSS","1","odd","4694","NA","NA","5380","NA","3808","NA","NA","6492","3823","NA","NA","6608","7048","6479","6608","Flanker Task Lab 2.1","2","902","2","yes","1024"
"100","100","423","423","#800080","legacy","legacy","legacy","0","congruent","uniform","1","undefined","1","s","0","0","0","2","2","0","2","0","2","0","0","0","2","2","2","2","Sun Sep 20 11:13:48 2020","1500","The main experiment item","yes","FlankerTaskLab.osexp","/Users/Arianna/Desktop","no","sans","no","18","no","white","no","yes","768","legacy","2","2","/Users/Arianna/Desktop/AG-subject-1.csv","legacy","Lentiform Loewenfeld","3.3.3","0","s","NA","h","NA","NA","s","367","NA","844","NA","NA","367","2","legacy","1024","2","48000","-16","experiment","SSSSS","1","odd","4694","NA","NA","7075","NA","3808","NA","NA","8166","3823","NA","NA","8282","8650","8152","8282","Flanker Task Lab 2.1","3","1269","3","yes","1024"
"100","100","425","425","#800080","legacy","legacy","legacy","0","congruent","uniform","1","undefined","1","h","0","0","0","3","3","0","3","0","3","0","0","0","3","3","3","3","Sun Sep 20 11:13:48 2020","1500","The main experiment item","yes","FlankerTaskLab.osexp","/Users/Arianna/Desktop","no","sans","no","18","no","white","no","yes","768","legacy","3","3","/Users/Arianna/Desktop/AG-subject-1.csv","legacy","Lentiform Loewenfeld","3.3.3","0","h","NA","h","NA","NA","h","431","NA","844","NA","NA","431","2","legacy","1024","2","48000","-16","experiment","HHHHH","1","odd","4694","NA","NA","8677","NA","3808","NA","NA","9763","3823","NA","NA","9878","10310","9750","9878","Flanker Task Lab 2.1","4","1700","4","yes","1024"
"100","100","423","423","#800080","legacy","legacy","legacy","0","incongruent","uniform","1","undefined","1","h","0","0","0","4","4","0","4","0","4","0","0","0","4","4","4","4","Sun Sep 20 11:13:48 2020","1500","The main experiment item","yes","FlankerTaskLab.osexp","/Users/Arianna/Desktop","no","sans","no","18","no","white","no","yes","768","legacy","4","4","/Users/Arianna/Desktop/AG-subject-1.csv","legacy","Lentiform Loewenfeld","3.3.3","0","h","NA","h","NA","NA","h","415","NA","844","NA","NA","415","2","legacy","1024","2","48000","-16","experiment","SSHSS","1","odd","4694","NA","NA","10335","NA","3808","NA","NA","11425","3823","NA","NA","11541","11957","11412","11541","Flanker Task Lab 2.1","5","2115","5","yes","1024"
"100","100","432.6666666666667","432.6666666666667","#800080","legacy","legacy","legacy","0","incongruent","uniform","1","undefined","1","s","0","0","0","5","5","0","5","0","5","0","0","0","5","5","5","5","Sun Sep 20 11:13:48 2020","1500","The main experiment item","yes","FlankerTaskLab.osexp","/Users/Arianna/Desktop","no","sans","no","18","no","white","no","yes","768","legacy","5","5","/Users/Arianna/Desktop/AG-subject-1.csv","legacy","Lentiform Loewenfeld","3.3.3","0","s","NA","h","NA","NA","s","481","NA","844","NA","NA","481","2","legacy","1024","2","48000","-16","experiment","HHSHH","1","odd","4694","NA","NA","11984","NA","3808","NA","NA","13068","3823","NA","NA","13184","13666","13055","13183","Flanker Task Lab 2.1","6","2596","6","yes","1024"
"100","100","434.42857142857144","434.42857142857144","#800080","legacy","legacy","legacy","0","congruent","uniform","1","undefined","1","h","0","0","0","6","6","0","6","0","6","0","0","0","6","6","6","6","Sun Sep 20 11:13:48 2020","1500","The main experiment item","yes","FlankerTaskLab.osexp","/Users/Arianna/Desktop","no","sans","no","18","no","white","no","yes","768","legacy","6","6","/Users/Arianna/Desktop/AG-subject-1.csv","legacy","Lentiform Loewenfeld","3.3.3","0","h","NA","h","NA","NA","h","445","NA","844","NA","NA","445","2","legacy","1024","2","48000","-16","experiment","HHHHH","1","odd","4694","NA","NA","13692","NA","3808","NA","NA","14778","3823","NA","NA","14894","15340","14765","14894","Flanker Task Lab 2.1","7","3041","7","yes","1024"
"100","100","427.125","427.125","#800080","legacy","legacy","legacy","0","congruent","uniform","1","undefined","1","h","0","0","0","7","7","0","7","0","7","0","0","0","7","7","7","7","Sun Sep 20 11:13:48 2020","1500","The main experiment item","yes","FlankerTaskLab.osexp","/Users/Arianna/Desktop","no","sans","no","18","no","white","no","yes","768","legacy","7","7","/Users/Arianna/Desktop/AG-subject-1.csv","legacy","Lentiform Loewenfeld","3.3.3","0","h","NA","h","NA","NA","h","376","NA","844","NA","NA","376","2","legacy","1024","2","48000","-16","experiment","HHHHH","1","odd","4694","NA","NA","15366","NA","3808","NA","NA","16451","3823","NA","NA","16566","16943","16438","16566","Flanker Task Lab 2.1","8","3417","8","yes","1024"
"100","100","429.6666666666667","429.6666666666667","#800080","legacy","legacy","legacy","0","congruent","uniform","1","undefined","1","h","0","0","0","8","8","0","8","0","8","0","0","0","8","8","8","8","Sun Sep 20 11:13:48 2020","1500","The main experiment item","yes","FlankerTaskLab.osexp","/Users/Arianna/Desktop","no","sans","no","18","no","white","no","yes","768","legacy","8","8","/Users/Arianna/Desktop/AG-subject-1.csv","legacy","Lentiform Loewenfeld","3.3.3","0","h","NA","h","NA","NA","h","450","NA","844","NA","NA","450","2","legacy","1024","2","48000","-16","experiment","HHHHH","1","odd","4694","NA","NA","16969","NA","3808","NA","NA","18054","3823","NA","NA","18169","18620","18040","18169","Flanker Task Lab 2.1","9","3867","9","yes","1024"
"90","90","420.7","420.7","#800080","legacy","legacy","legacy","0","incongruent","uniform","0","undefined","0","h","0","0","0","9","9","0","9","0","9","0","0","0","9","9","9","9","Sun Sep 20 11:13:48 2020","1500","The main experiment item","yes","FlankerTaskLab.osexp","/Users/Arianna/Desktop","no","sans","no","18","no","white","no","yes","768","legacy","9","9","/Users/Arianna/Desktop/AG-subject-1.csv","legacy","Lentiform Loewenfeld","3.3.3","0","s","NA","h","NA","NA","s","340","NA","844","NA","NA","340","2","legacy","1024","2","48000","-16","experiment","SSHSS","1","odd","4694","NA","NA","18647","NA","3808","NA","NA","19733","3823","NA","NA","19848","20189","19719","19848","Flanker Task Lab 2.1","9","4207","10","yes","1024"
"90.9090909090909","90.9090909090909","425.45454545454544","425.45454545454544","#800080","legacy","legacy","legacy","0","congruent","uniform","1","undefined","1","s","0","0","0","10","10","0","10","0","10","0","0","0","10","10","10","10","Sun Sep 20 11:13:48 2020","1500","The main experiment item","yes","FlankerTaskLab.osexp","/Users/Arianna/Desktop","no","sans","no","18","no","white","no","yes","768","legacy","10","10","/Users/Arianna/Desktop/AG-subject-1.csv","legacy","Lentiform Loewenfeld","3.3.3","0","s","NA","h","NA","NA","s","473","NA","844","NA","NA","473","2","legacy","1024","2","48000","-16","experiment","SSSSS","1","odd","4694","NA","NA","20730","20216","3808","NA","NA","21815","3823","NA","NA","21931","22405","21802","21931","Flanker Task Lab 2.1","10","4680","11","yes","1024"
"91.66666666666667","91.66666666666667","422","422","#800080","legacy","legacy","legacy","0","congruent","uniform","1","undefined","1","h","0","0","0","11","11","0","11","0","11","0","0","0","11","11","11","11","Sun Sep 20 11:13:48 2020","1500","The main experiment item","yes","FlankerTaskLab.osexp","/Users/Arianna/Desktop","no","sans","no","18","no","white","no","yes","768","legacy","11","11","/Users/Arianna/Desktop/AG-subject-1.csv","legacy","Lentiform Loewenfeld","3.3.3","0","h","NA","h","NA","NA","h","384","NA","844","NA","NA","384","2","legacy","1024","2","48000","-16","experiment","HHHHH","1","odd","4694","NA","NA","22432","20216","3808","NA","NA","23519","3823","NA","NA","23635","24020","23506","23634","Flanker Task Lab 2.1","11","5064","12","yes","1024"
"92.3076923076923","92.3076923076923","415.84615384615387","415.84615384615387","#800080","legacy","legacy","legacy","0","congruent","uniform","1","undefined","1","h","0","0","0","12","12","0","12","0","12","0","0","0","12","12","12","12","Sun Sep 20 11:13:48 2020","1500","The main experiment item","yes","FlankerTaskLab.osexp","/Users/Arianna/Desktop","no","sans","no","18","no","white","no","yes","768","legacy","12","12","/Users/Arianna/Desktop/AG-subject-1.csv","legacy","Lentiform Loewenfeld","3.3.3","0","h","NA","h","NA","NA","h","342","NA","844","NA","NA","342","2","legacy","1024","2","48000","-16","experiment","HHHHH","1","odd","4694","NA","NA","24046","20216","3808","NA","NA","25136","3823","NA","NA","25253","25596","25122","25253","Flanker Task Lab 2.1","12","5406","13","yes","1024"
"92.85714285714286","92.85714285714286","419.07142857142856","419.07142857142856","#800080","legacy","legacy","legacy","0","congruent","uniform","1","undefined","1","s","0","0","0","13","13","0","13","0","13","0","0","0","13","13","13","13","Sun Sep 20 11:13:48 2020","1500","The main experiment item","yes","FlankerTaskLab.osexp","/Users/Arianna/Desktop","no","sans","no","18","no","white","no","yes","768","legacy","13","13","/Users/Arianna/Desktop/AG-subject-1.csv","legacy","Lentiform Loewenfeld","3.3.3","0","s","NA","h","NA","NA","s","461","NA","844","NA","NA","461","2","legacy","1024","2","48000","-16","experiment","SSSSS","1","odd","4694","NA","NA","25615","20216","3808","NA","NA","26702","3823","NA","NA","26818","27280","26688","26818","Flanker Task Lab 2.1","13","5867","14","yes","1024"
"93.33333333333333","93.33333333333333","415.4","415.4","#800080","legacy","legacy","legacy","0","congruent","uniform","1","undefined","1","h","0","0","0","14","14","0","14","0","14","0","0","0","14","14","14","14","Sun Sep 20 11:13:48 2020","1500","The main experiment item","yes","FlankerTaskLab.osexp","/Users/Arianna/Desktop","no","sans","no","18","no","white","no","yes","768","legacy","14","14","/Users/Arianna/Desktop/AG-subject-1.csv","legacy","Lentiform Loewenfeld","3.3.3","0","h","NA","h","NA","NA","h","364","NA","844","NA","NA","364","2","legacy","1024","2","48000","-16","experiment","HHHHH","1","odd","4694","NA","NA","27294","20216","3808","NA","NA","28380","3823","NA","NA","28496","28861","28367","28495","Flanker Task Lab 2.1","14","6231","15","yes","1024"
"87.5","87.5","415.5","415.5","#800080","legacy","legacy","legacy","0","incongruent","uniform","0","undefined","0","h","0","0","0","15","15","0","15","0","15","0","0","0","15","15","15","15","Sun Sep 20 11:13:48 2020","1500","The main experiment item","yes","FlankerTaskLab.osexp","/Users/Arianna/Desktop","no","sans","no","18","no","white","no","yes","768","legacy","15","15","/Users/Arianna/Desktop/AG-subject-1.csv","legacy","Lentiform Loewenfeld","3.3.3","0","s","NA","h","NA","NA","s","417","NA","844","NA","NA","417","2","legacy","1024","2","48000","-16","experiment","SSHSS","1","odd","4694","NA","NA","28888","20216","3808","NA","NA","29974","3823","NA","NA","30089","30507","29961","30089","Flanker Task Lab 2.1","14","6648","16","yes","1024"
"88.23529411764706","88.23529411764706","418.11764705882354","418.11764705882354","#800080","legacy","legacy","legacy","0","congruent","uniform","1","undefined","1","s","0","0","0","16","16","0","16","0","16","0","0","0","16","16","16","16","Sun Sep 20 11:13:48 2020","1500","The main experiment item","yes","FlankerTaskLab.osexp","/Users/Arianna/Desktop","no","sans","no","18","no","white","no","yes","768","legacy","16","16","/Users/Arianna/Desktop/AG-subject-1.csv","legacy","Lentiform Loewenfeld","3.3.3","0","s","NA","h","NA","NA","s","460","NA","844","NA","NA","460","2","legacy","1024","2","48000","-16","experiment","SSSSS","1","odd","4694","NA","NA","31047","30533","3808","NA","NA","32134","3823","NA","NA","32251","32712","32121","32251","Flanker Task Lab 2.1","15","7108","17","yes","1024"
"88.88888888888889","88.88888888888889","418.1111111111111","418.1111111111111","#800080","legacy","legacy","legacy","0","incongruent","uniform","1","undefined","1","s","0","0","0","17","17","0","17","0","17","0","0","0","17","17","17","17","Sun Sep 20 11:13:48 2020","1500","The main experiment item","yes","FlankerTaskLab.osexp","/Users/Arianna/Desktop","no","sans","no","18","no","white","no","yes","768","legacy","17","17","/Users/Arianna/Desktop/AG-subject-1.csv","legacy","Lentiform Loewenfeld","3.3.3","0","s","NA","h","NA","NA","s","418","NA","844","NA","NA","418","2","legacy","1024","2","48000","-16","experiment","HHSHH","1","odd","4694","NA","NA","32739","30533","3808","NA","NA","33825","3823","NA","NA","33940","34359","33812","33940","Flanker Task Lab 2.1","16","7526","18","yes","1024"
"89.47368421052632","89.47368421052632","415.3157894736842","415.3157894736842","#800080","legacy","legacy","legacy","0","congruent","uniform","1","undefined","1","s","0","0","0","18","18","0","18","0","18","0","0","0","18","18","18","18","Sun Sep 20 11:13:48 2020","1500","The main experiment item","yes","FlankerTaskLab.osexp","/Users/Arianna/Desktop","no","sans","no","18","no","white","no","yes","768","legacy","18","18","/Users/Arianna/Desktop/AG-subject-1.csv","legacy","Lentiform Loewenfeld","3.3.3","0","s","NA","h","NA","NA","s","365","NA","844","NA","NA","365","2","legacy","1024","2","48000","-16","experiment","SSSSS","1","odd","4694","NA","NA","34386","30533","3808","NA","NA","35473","3823","NA","NA","35590","35957","35459","35590","Flanker Task Lab 2.1","17","7891","19","yes","1024"
"90","90","416.1","416.1","#800080","legacy","legacy","legacy","0","incongruent","uniform","1","undefined","1","h","0","0","0","19","19","0","19","0","19","0","0","0","19","19","19","19","Sun Sep 20 11:13:48 2020","1500","The main experiment item","yes","FlankerTaskLab.osexp","/Users/Arianna/Desktop","no","sans","no","18","no","white","no","yes","768","legacy","19","19","/Users/Arianna/Desktop/AG-subject-1.csv","legacy","Lentiform Loewenfeld","3.3.3","0","h","NA","h","NA","NA","h","431","NA","844","NA","NA","431","2","legacy","1024","2","48000","-16","experiment","SSHSS","1","odd","4694","NA","NA","35972","30533","3808","NA","NA","37057","3823","NA","NA","37172","37605","37044","37172","Flanker Task Lab 2.1","18","8322","20","yes","1024"
"90.47619047619048","90.47619047619048","417.23809523809524","417.23809523809524","#800080","legacy","legacy","legacy","0","incongruent","uniform","1","undefined","1","h","0","0","0","20","20","0","20","0","20","0","0","0","20","20","20","20","Sun Sep 20 11:13:48 2020","1500","The main experiment item","yes","FlankerTaskLab.osexp","/Users/Arianna/Desktop","no","sans","no","18","no","white","no","yes","768","legacy","20","20","/Users/Arianna/Desktop/AG-subject-1.csv","legacy","Lentiform Loewenfeld","3.3.3","0","h","NA","h","NA","NA","h","440","NA","844","NA","NA","440","2","legacy","1024","2","48000","-16","experiment","SSHSS","1","odd","4694","NA","NA","37633","30533","3808","NA","NA","38720","3823","NA","NA","38835","39276","38706","38835","Flanker Task Lab 2.1","19","8762","21","yes","1024"
"90.9090909090909","90.9090909090909","413.95454545454544","413.95454545454544","#800080","legacy","legacy","legacy","0","incongruent","uniform","1","undefined","1","h","0","0","0","21","21","0","21","0","21","0","0","0","21","21","21","21","Sun Sep 20 11:13:48 2020","1500","The main experiment item","yes","FlankerTaskLab.osexp","/Users/Arianna/Desktop","no","sans","no","18","no","white","no","yes","768","legacy","21","21","/Users/Arianna/Desktop/AG-subject-1.csv","legacy","Lentiform Loewenfeld","3.3.3","0","h","NA","h","NA","NA","h","345","NA","844","NA","NA","345","2","legacy","1024","2","48000","-16","experiment","SSHSS","1","odd","4694","NA","NA","39302","30533","3808","NA","NA","40391","3823","NA","NA","40507","40854","40378","40507","Flanker Task Lab 2.1","20","9107","22","yes","1024"
"91.30434782608695","91.30434782608695","410","410","#800080","legacy","legacy","legacy","0","congruent","uniform","1","undefined","1","h","0","0","0","22","22","0","22","0","22","0","0","0","22","22","22","22","Sun Sep 20 11:13:48 2020","1500","The main experiment item","yes","FlankerTaskLab.osexp","/Users/Arianna/Desktop","no","sans","no","18","no","white","no","yes","768","legacy","22","22","/Users/Arianna/Desktop/AG-subject-1.csv","legacy","Lentiform Loewenfeld","3.3.3","0","h","NA","h","NA","NA","h","323","NA","844","NA","NA","323","2","legacy","1024","2","48000","-16","experiment","HHHHH","1","odd","4694","NA","NA","40880","30533","3808","NA","NA","41967","3823","NA","NA","42082","42407","41953","42082","Flanker Task Lab 2.1","21","9430","23","yes","1024"
"91.66666666666667","91.66666666666667","412.2083333333333","412.2083333333333","#800080","legacy","legacy","legacy","0","congruent","uniform","1","undefined","1","s","0","0","0","23","23","0","23","0","23","0","0","0","23","23","23","23","Sun Sep 20 11:13:48 2020","1500","The main experiment item","yes","FlankerTaskLab.osexp","/Users/Arianna/Desktop","no","sans","no","18","no","white","no","yes","768","legacy","23","23","/Users/Arianna/Desktop/AG-subject-1.csv","legacy","Lentiform Loewenfeld","3.3.3","0","s","NA","h","NA","NA","s","463","NA","844","NA","NA","463","2","legacy","1024","2","48000","-16","experiment","SSSSS","1","odd","4694","NA","NA","42430","30533","3808","NA","NA","43517","3823","NA","NA","43632","44096","43503","43632","Flanker Task Lab 2.1","22","9893","24","yes","1024"
"88","88","413.04","413.04","#800080","legacy","legacy","legacy","0","incongruent","uniform","0","undefined","0","s","0","0","0","24","24","0","24","0","24","0","0","0","24","24","24","24","Sun Sep 20 11:13:48 2020","1500","The main experiment item","yes","FlankerTaskLab.osexp","/Users/Arianna/Desktop","no","sans","no","18","no","white","no","yes","768","legacy","24","24","/Users/Arianna/Desktop/AG-subject-1.csv","legacy","Lentiform Loewenfeld","3.3.3","0","h","NA","h","NA","NA","h","433","NA","844","NA","NA","433","2","legacy","1024","2","48000","-16","experiment","HHSHH","1","odd","4694","NA","NA","44123","30533","3808","NA","NA","45209","3823","NA","NA","45325","45760","45196","45325","Flanker Task Lab 2.1","22","10326","25","yes","1024"
"88.46153846153847","88.46153846153847","414.5","414.5","#800080","legacy","legacy","legacy","0","congruent","uniform","1","undefined","1","s","0","0","0","25","25","0","25","0","25","0","0","0","25","25","25","25","Sun Sep 20 11:13:48 2020","1500","The main experiment item","yes","FlankerTaskLab.osexp","/Users/Arianna/Desktop","no","sans","no","18","no","white","no","yes","768","legacy","25","25","/Users/Arianna/Desktop/AG-subject-1.csv","legacy","Lentiform Loewenfeld","3.3.3","0","s","NA","h","NA","NA","s","451","NA","844","NA","NA","451","2","legacy","1024","2","48000","-16","experiment","SSSSS","1","odd","4694","NA","NA","46289","45774","3808","NA","NA","47376","3823","NA","NA","47491","47944","47363","47491","Flanker Task Lab 2.1","23","10777","26","yes","1024"
"88.88888888888889","88.88888888888889","413","413","#800080","legacy","legacy","legacy","0","congruent","uniform","1","undefined","1","s","0","0","0","26","26","0","26","0","26","0","0","0","26","26","26","26","Sun Sep 20 11:13:48 2020","1500","The main experiment item","yes","FlankerTaskLab.osexp","/Users/Arianna/Desktop","no","sans","no","18","no","white","no","yes","768","legacy","26","26","/Users/Arianna/Desktop/AG-subject-1.csv","legacy","Lentiform Loewenfeld","3.3.3","0","s","NA","h","NA","NA","s","374","NA","844","NA","NA","374","2","legacy","1024","2","48000","-16","experiment","SSSSS","1","odd","4694","NA","NA","47970","45774","3808","NA","NA","49056","3823","NA","NA","49171","49547","49042","49171","Flanker Task Lab 2.1","24","11151","27","yes","1024"
"89.28571428571429","89.28571428571429","413.14285714285717","413.14285714285717","#800080","legacy","legacy","legacy","0","congruent","uniform","1","undefined","1","s","0","0","0","27","27","0","27","0","27","0","0","0","27","27","27","27","Sun Sep 20 11:13:48 2020","1500","The main experiment item","yes","FlankerTaskLab.osexp","/Users/Arianna/Desktop","no","sans","no","18","no","white","no","yes","768","legacy","27","27","/Users/Arianna/Desktop/AG-subject-1.csv","legacy","Lentiform Loewenfeld","3.3.3","0","s","NA","h","NA","NA","s","417","NA","844","NA","NA","417","2","legacy","1024","2","48000","-16","experiment","SSSSS","1","odd","4694","NA","NA","49574","45774","3808","NA","NA","50660","3823","NA","NA","50775","51194","50647","50775","Flanker Task Lab 2.1","25","11568","28","yes","1024"
"89.65517241379311","89.65517241379311","411.0689655172414","411.0689655172414","#800080","legacy","legacy","legacy","0","congruent","uniform","1","undefined","1","s","0","0","0","28","28","0","28","0","28","0","0","0","28","28","28","28","Sun Sep 20 11:13:48 2020","1500","The main experiment item","yes","FlankerTaskLab.osexp","/Users/Arianna/Desktop","no","sans","no","18","no","white","no","yes","768","legacy","28","28","/Users/Arianna/Desktop/AG-subject-1.csv","legacy","Lentiform Loewenfeld","3.3.3","0","s","NA","h","NA","NA","s","353","NA","844","NA","NA","353","2","legacy","1024","2","48000","-16","experiment","SSSSS","1","odd","4694","NA","NA","51220","45774","3808","NA","NA","52311","3823","NA","NA","52427","52781","52298","52427","Flanker Task Lab 2.1","26","11921","29","yes","1024"
"90","90","411.93333333333334","411.93333333333334","#800080","legacy","legacy","legacy","0","incongruent","uniform","1","undefined","1","h","0","0","0","29","29","0","29","0","29","0","0","0","29","29","29","29","Sun Sep 20 11:13:48 2020","1500","The main experiment item","yes","FlankerTaskLab.osexp","/Users/Arianna/Desktop","no","sans","no","18","no","white","no","yes","768","legacy","29","29","/Users/Arianna/Desktop/AG-subject-1.csv","legacy","Lentiform Loewenfeld","3.3.3","0","h","NA","h","NA","NA","h","437","NA","844","NA","NA","437","2","legacy","1024","2","48000","-16","experiment","SSHSS","1","odd","4694","NA","NA","52808","45774","3808","NA","NA","53894","3823","NA","NA","54008","54447","53880","54007","Flanker Task Lab 2.1","27","12358","30","yes","1024"
"90.3225806451613","90.3225806451613","414.61290322580646","414.61290322580646","#800080","legacy","legacy","legacy","0","incongruent","uniform","1","undefined","1","s","0","0","0","30","30","0","30","0","30","0","0","0","30","30","30","30","Sun Sep 20 11:13:48 2020","1500","The main experiment item","yes","FlankerTaskLab.osexp","/Users/Arianna/Desktop","no","sans","no","18","no","white","no","yes","768","legacy","30","30","/Users/Arianna/Desktop/AG-subject-1.csv","legacy","Lentiform Loewenfeld","3.3.3","0","s","NA","h","NA","NA","s","495","NA","844","NA","NA","495","2","legacy","1024","2","48000","-16","experiment","HHSHH","1","odd","4694","NA","NA","54461","45774","3808","NA","NA","55547","3823","NA","NA","55663","56159","55533","55663","Flanker Task Lab 2.1","28","12853","31","yes","1024"
"87.5","87.5","413.03125","413.03125","#800080","legacy","legacy","legacy","0","incongruent","uniform","0","undefined","0","h","0","0","0","31","31","0","31","0","31","0","0","0","31","31","31","31","Sun Sep 20 11:13:48 2020","1500","The main experiment item","yes","FlankerTaskLab.osexp","/Users/Arianna/Desktop","no","sans","no","18","no","white","no","yes","768","legacy","31","31","/Users/Arianna/Desktop/AG-subject-1.csv","legacy","Lentiform Loewenfeld","3.3.3","0","s","NA","h","NA","NA","s","364","NA","844","NA","NA","364","2","legacy","1024","2","48000","-16","experiment","SSHSS","1","odd","4694","NA","NA","56175","45774","3808","NA","NA","57265","3823","NA","NA","57380","57746","57251","57380","Flanker Task Lab 2.1","28","13217","32","yes","1024"
"87.87878787878788","87.87878787878788","417.06060606060606","417.06060606060606","#800080","legacy","legacy","legacy","0","incongruent","uniform","1","undefined","1","s","0","0","0","32","32","0","32","0","32","0","0","0","32","32","32","32","Sun Sep 20 11:13:48 2020","1500","The main experiment item","yes","FlankerTaskLab.osexp","/Users/Arianna/Desktop","no","sans","no","18","no","white","no","yes","768","legacy","32","32","/Users/Arianna/Desktop/AG-subject-1.csv","legacy","Lentiform Loewenfeld","3.3.3","0","s","NA","h","NA","NA","s","546","NA","844","NA","NA","546","2","legacy","1024","2","48000","-16","experiment","HHSHH","1","odd","4694","NA","NA","58286","57772","3808","NA","NA","59375","3823","NA","NA","59491","60039","59361","59490","Flanker Task Lab 2.1","29","13763","33","yes","1024"
"85.29411764705883","85.29411764705883","414.2647058823529","414.2647058823529","#800080","legacy","legacy","legacy","0","incongruent","uniform","0","undefined","0","s","0","0","0","33","33","0","33","0","33","0","0","0","33","33","33","33","Sun Sep 20 11:13:48 2020","1500","The main experiment item","yes","FlankerTaskLab.osexp","/Users/Arianna/Desktop","no","sans","no","18","no","white","no","yes","768","legacy","33","33","/Users/Arianna/Desktop/AG-subject-1.csv","legacy","Lentiform Loewenfeld","3.3.3","0","h","NA","h","NA","NA","h","322","NA","844","NA","NA","322","2","legacy","1024","2","48000","-16","experiment","HHSHH","1","odd","4694","NA","NA","60066","57772","3808","NA","NA","61156","3823","NA","NA","61273","61596","61143","61272","Flanker Task Lab 2.1","29","14085","34","yes","1024"
"85.71428571428571","85.71428571428571","414.8857142857143","414.8857142857143","#800080","legacy","legacy","legacy","0","congruent","uniform","1","undefined","1","s","0","0","0","34","34","0","34","0","34","0","0","0","34","34","34","34","Sun Sep 20 11:13:48 2020","1500","The main experiment item","yes","FlankerTaskLab.osexp","/Users/Arianna/Desktop","no","sans","no","18","no","white","no","yes","768","legacy","34","34","/Users/Arianna/Desktop/AG-subject-1.csv","legacy","Lentiform Loewenfeld","3.3.3","0","s","NA","h","NA","NA","s","436","NA","844","NA","NA","436","2","legacy","1024","2","48000","-16","experiment","SSSSS","1","odd","4694","NA","NA","62138","61624","3808","NA","NA","63225","3823","NA","NA","63341","63779","63211","63341","Flanker Task Lab 2.1","30","14521","35","yes","1024"
"86.11111111111111","86.11111111111111","413.6111111111111","413.6111111111111","#800080","legacy","legacy","legacy","0","congruent","uniform","1","undefined","1","s","0","0","0","35","35","0","35","0","35","0","0","0","35","35","35","35","Sun Sep 20 11:13:48 2020","1500","The main experiment item","yes","FlankerTaskLab.osexp","/Users/Arianna/Desktop","no","sans","no","18","no","white","no","yes","768","legacy","35","35","/Users/Arianna/Desktop/AG-subject-1.csv","legacy","Lentiform Loewenfeld","3.3.3","0","s","NA","h","NA","NA","s","369","NA","844","NA","NA","369","2","legacy","1024","2","48000","-16","experiment","SSSSS","1","odd","4694","NA","NA","63805","61624","3808","NA","NA","64892","3823","NA","NA","65006","65377","64879","65006","Flanker Task Lab 2.1","31","14890","36","yes","1024"
"86.48648648648648","86.48648648648648","415.43243243243245","415.43243243243245","#800080","legacy","legacy","legacy","0","incongruent","uniform","1","undefined","1","h","0","0","0","36","36","0","36","0","36","0","0","0","36","36","36","36","Sun Sep 20 11:13:48 2020","1500","The main experiment item","yes","FlankerTaskLab.osexp","/Users/Arianna/Desktop","no","sans","no","18","no","white","no","yes","768","legacy","36","36","/Users/Arianna/Desktop/AG-subject-1.csv","legacy","Lentiform Loewenfeld","3.3.3","0","h","NA","h","NA","NA","h","481","NA","844","NA","NA","481","2","legacy","1024","2","48000","-16","experiment","SSHSS","1","odd","4694","NA","NA","65403","61624","3808","NA","NA","66490","3823","NA","NA","66606","67088","66476","66606","Flanker Task Lab 2.1","32","15371","37","yes","1024"
"86.84210526315789","86.84210526315789","415.42105263157896","415.42105263157896","#800080","legacy","legacy","legacy","0","congruent","uniform","1","undefined","1","s","0","0","0","37","37","0","37","0","37","0","0","0","37","37","37","37","Sun Sep 20 11:13:48 2020","1500","The main experiment item","yes","FlankerTaskLab.osexp","/Users/Arianna/Desktop","no","sans","no","18","no","white","no","yes","768","legacy","37","37","/Users/Arianna/Desktop/AG-subject-1.csv","legacy","Lentiform Loewenfeld","3.3.3","0","s","NA","h","NA","NA","s","415","NA","844","NA","NA","415","2","legacy","1024","2","48000","-16","experiment","SSSSS","1","odd","4694","NA","NA","67115","61624","3808","NA","NA","68202","3823","NA","NA","68317","68733","68188","68317","Flanker Task Lab 2.1","33","15786","38","yes","1024"
"84.61538461538461","84.61538461538461","416.6923076923077","416.6923076923077","#800080","legacy","legacy","legacy","0","incongruent","uniform","0","undefined","0","h","0","0","0","38","38","0","38","0","38","0","0","0","38","38","38","38","Sun Sep 20 11:13:48 2020","1500","The main experiment item","yes","FlankerTaskLab.osexp","/Users/Arianna/Desktop","no","sans","no","18","no","white","no","yes","768","legacy","38","38","/Users/Arianna/Desktop/AG-subject-1.csv","legacy","Lentiform Loewenfeld","3.3.3","0","s","NA","h","NA","NA","s","465","NA","844","NA","NA","465","2","legacy","1024","2","48000","-16","experiment","SSHSS","1","odd","4694","NA","NA","68760","61624","3808","NA","NA","69850","3823","NA","NA","69965","70431","69836","69965","Flanker Task Lab 2.1","33","16251","39","yes","1024"
"85","85","421.7","421.7","#800080","legacy","legacy","legacy","0","congruent","uniform","1","undefined","1","s","0","0","0","39","39","0","39","0","39","0","0","0","39","39","39","39","Sun Sep 20 11:13:48 2020","1500","The main experiment item","yes","FlankerTaskLab.osexp","/Users/Arianna/Desktop","no","sans","no","18","no","white","no","yes","768","legacy","39","39","/Users/Arianna/Desktop/AG-subject-1.csv","legacy","Lentiform Loewenfeld","3.3.3","0","s","NA","h","NA","NA","s","617","NA","844","NA","NA","617","2","legacy","1024","2","48000","-16","experiment","SSSSS","1","odd","4694","NA","NA","70972","70458","3808","NA","NA","72057","3823","NA","NA","72173","72791","72044","72173","Flanker Task Lab 2.1","34","16868","40","yes","1024"
"85.36585365853658","85.36585365853658","422.7560975609756","422.7560975609756","#800080","legacy","legacy","legacy","0","congruent","uniform","1","undefined","1","h","0","0","0","40","40","0","40","0","40","0","0","0","40","40","40","40","Sun Sep 20 11:13:48 2020","1500","The main experiment item","yes","FlankerTaskLab.osexp","/Users/Arianna/Desktop","no","sans","no","18","no","white","no","yes","768","legacy","40","40","/Users/Arianna/Desktop/AG-subject-1.csv","legacy","Lentiform Loewenfeld","3.3.3","0","h","NA","h","NA","NA","h","465","NA","844","NA","NA","465","2","legacy","1024","2","48000","-16","experiment","HHHHH","1","odd","4694","NA","NA","72818","70458","3808","NA","NA","73911","3823","NA","NA","74026","74492","73898","74026","Flanker Task Lab 2.1","35","17333","41","yes","1024"
"85.71428571428571","85.71428571428571","423.26190476190476","423.26190476190476","#800080","legacy","legacy","legacy","0","incongruent","uniform","1","undefined","1","s","0","0","0","41","41","0","41","0","41","0","0","0","41","41","41","41","Sun Sep 20 11:13:48 2020","1500","The main experiment item","yes","FlankerTaskLab.osexp","/Users/Arianna/Desktop","no","sans","no","18","no","white","no","yes","768","legacy","41","41","/Users/Arianna/Desktop/AG-subject-1.csv","legacy","Lentiform Loewenfeld","3.3.3","0","s","NA","h","NA","NA","s","444","NA","844","NA","NA","444","2","legacy","1024","2","48000","-16","experiment","HHSHH","1","odd","4694","NA","NA","74521","70458","3808","NA","NA","75607","3823","NA","NA","75722","76167","75593","75722","Flanker Task Lab 2.1","36","17777","42","yes","1024"
"86.04651162790698","86.04651162790698","422.2093023255814","422.2093023255814","#800080","legacy","legacy","legacy","0","incongruent","uniform","1","undefined","1","s","0","0","0","42","42","0","42","0","42","0","0","0","42","42","42","42","Sun Sep 20 11:13:48 2020","1500","The main experiment item","yes","FlankerTaskLab.osexp","/Users/Arianna/Desktop","no","sans","no","18","no","white","no","yes","768","legacy","42","42","/Users/Arianna/Desktop/AG-subject-1.csv","legacy","Lentiform Loewenfeld","3.3.3","0","s","NA","h","NA","NA","s","378","NA","844","NA","NA","378","2","legacy","1024","2","48000","-16","experiment","HHSHH","1","odd","4694","NA","NA","76181","70458","3808","NA","NA","77271","3823","NA","NA","77387","77766","77258","77387","Flanker Task Lab 2.1","37","18155","43","yes","1024"
"86.36363636363636","86.36363636363636","420.84090909090907","420.84090909090907","#800080","legacy","legacy","legacy","0","congruent","uniform","1","undefined","1","s","0","0","0","43","43","0","43","0","43","0","0","0","43","43","43","43","Sun Sep 20 11:13:48 2020","1500","The main experiment item","yes","FlankerTaskLab.osexp","/Users/Arianna/Desktop","no","sans","no","18","no","white","no","yes","768","legacy","43","43","/Users/Arianna/Desktop/AG-subject-1.csv","legacy","Lentiform Loewenfeld","3.3.3","0","s","NA","h","NA","NA","s","362","NA","844","NA","NA","362","2","legacy","1024","2","48000","-16","experiment","SSSSS","1","odd","4694","NA","NA","77792","70458","3808","NA","NA","78879","3823","NA","NA","78994","79357","78866","78994","Flanker Task Lab 2.1","38","18517","44","yes","1024"
"86.66666666666667","86.66666666666667","420.68888888888887","420.68888888888887","#800080","legacy","legacy","legacy","0","incongruent","uniform","1","undefined","1","s","0","0","0","44","44","0","44","0","44","0","0","0","44","44","44","44","Sun Sep 20 11:13:48 2020","1500","The main experiment item","yes","FlankerTaskLab.osexp","/Users/Arianna/Desktop","no","sans","no","18","no","white","no","yes","768","legacy","44","44","/Users/Arianna/Desktop/AG-subject-1.csv","legacy","Lentiform Loewenfeld","3.3.3","0","s","NA","h","NA","NA","s","414","NA","844","NA","NA","414","2","legacy","1024","2","48000","-16","experiment","HHSHH","1","odd","4694","NA","NA","79383","70458","3808","NA","NA","80525","3823","NA","NA","80641","81057","80507","80641","Flanker Task Lab 2.1","39","18931","45","yes","1024"
"86.95652173913044","86.95652173913044","426.04347826086956","426.04347826086956","#800080","legacy","legacy","legacy","0","incongruent","uniform","1","undefined","1","h","0","0","0","45","45","0","45","0","45","0","0","0","45","45","45","45","Sun Sep 20 11:13:48 2020","1500","The main experiment item","yes","FlankerTaskLab.osexp","/Users/Arianna/Desktop","no","sans","no","18","no","white","no","yes","768","legacy","45","45","/Users/Arianna/Desktop/AG-subject-1.csv","legacy","Lentiform Loewenfeld","3.3.3","0","h","NA","h","NA","NA","h","667","NA","844","NA","NA","667","2","legacy","1024","2","48000","-16","experiment","SSHSS","1","odd","4694","NA","NA","81075","70458","3808","NA","NA","82162","3823","NA","NA","82278","82946","82149","82278","Flanker Task Lab 2.1","40","19598","46","yes","1024"
"87.23404255319149","87.23404255319149","425.531914893617","425.531914893617","#800080","legacy","legacy","legacy","0","congruent","uniform","1","undefined","1","h","0","0","0","46","46","0","46","0","46","0","0","0","46","46","46","46","Sun Sep 20 11:13:48 2020","1500","The main experiment item","yes","FlankerTaskLab.osexp","/Users/Arianna/Desktop","no","sans","no","18","no","white","no","yes","768","legacy","46","46","/Users/Arianna/Desktop/AG-subject-1.csv","legacy","Lentiform Loewenfeld","3.3.3","0","h","NA","h","NA","NA","h","402","NA","844","NA","NA","402","2","legacy","1024","2","48000","-16","experiment","HHHHH","1","odd","4694","NA","NA","82972","70458","3808","NA","NA","84057","3823","NA","NA","84173","84576","84044","84173","Flanker Task Lab 2.1","41","20000","47","yes","1024"
"85.41666666666667","85.41666666666667","425.4791666666667","425.4791666666667","#800080","legacy","legacy","legacy","0","incongruent","uniform","0","undefined","0","s","0","0","0","47","47","0","47","0","47","0","0","0","47","47","47","47","Sun Sep 20 11:13:48 2020","1500","The main experiment item","yes","FlankerTaskLab.osexp","/Users/Arianna/Desktop","no","sans","no","18","no","white","no","yes","768","legacy","47","47","/Users/Arianna/Desktop/AG-subject-1.csv","legacy","Lentiform Loewenfeld","3.3.3","0","h","NA","h","NA","NA","h","423","NA","844","NA","NA","423","2","legacy","1024","2","48000","-16","experiment","HHSHH","1","odd","4694","NA","NA","84603","70458","3808","NA","NA","85689","3823","NA","NA","85805","86230","85677","85805","Flanker Task Lab 2.1","41","20423","48","yes","1024"
"83.6734693877551","83.6734693877551","424.3061224489796","424.3061224489796","#800080","legacy","legacy","legacy","0","incongruent","uniform","0","undefined","0","h","0","0","0","48","48","0","48","0","48","0","0","0","48","48","48","48","Sun Sep 20 11:13:48 2020","1500","The main experiment item","yes","FlankerTaskLab.osexp","/Users/Arianna/Desktop","no","sans","no","18","no","white","no","yes","768","legacy","48","48","/Users/Arianna/Desktop/AG-subject-1.csv","legacy","Lentiform Loewenfeld","3.3.3","0","s","NA","h","NA","NA","s","368","NA","844","NA","NA","368","2","legacy","1024","2","48000","-16","experiment","SSHSS","1","odd","4694","NA","NA","86772","86258","3808","NA","NA","87860","3823","NA","NA","87976","88346","87846","87975","Flanker Task Lab 2.1","41","20791","49","yes","1024"
"84","84","423.5","423.5","#800080","legacy","legacy","legacy","0","congruent","uniform","1","undefined","1","s","0","0","0","49","49","0","49","0","49","0","0","0","49","49","49","49","Sun Sep 20 11:13:48 2020","1500","The main experiment item","yes","FlankerTaskLab.osexp","/Users/Arianna/Desktop","no","sans","no","18","no","white","no","yes","768","legacy","49","49","/Users/Arianna/Desktop/AG-subject-1.csv","legacy","Lentiform Loewenfeld","3.3.3","0","s","NA","h","NA","NA","s","384","NA","844","NA","NA","384","2","legacy","1024","2","48000","-16","experiment","SSSSS","1","odd","4694","NA","NA","88888","88374","3808","NA","NA","89975","3823","NA","NA","90091","90477","89962","90091","Flanker Task Lab 2.1","42","21175","50","yes","1024"
"82.3529411764706","82.3529411764706","422.96078431372547","422.96078431372547","#800080","legacy","legacy","legacy","0","incongruent","uniform","0","undefined","0","h","0","0","0","50","50","0","50","0","50","0","0","0","50","50","50","50","Sun Sep 20 11:13:48 2020","1500","The main experiment item","yes","FlankerTaskLab.osexp","/Users/Arianna/Desktop","no","sans","no","18","no","white","no","yes","768","legacy","50","50","/Users/Arianna/Desktop/AG-subject-1.csv","legacy","Lentiform Loewenfeld","3.3.3","0","s","NA","h","NA","NA","s","396","NA","844","NA","NA","396","2","legacy","1024","2","48000","-16","experiment","SSHSS","1","odd","4694","NA","NA","90504","88374","3808","NA","NA","91589","3823","NA","NA","91705","92103","91576","91705","Flanker Task Lab 2.1","42","21571","51","yes","1024"
"82.6923076923077","82.6923076923077","425.40384615384613","425.40384615384613","#800080","legacy","legacy","legacy","0","congruent","uniform","1","undefined","1","h","0","0","0","51","51","0","51","0","51","0","0","0","51","51","51","51","Sun Sep 20 11:13:48 2020","1500","The main experiment item","yes","FlankerTaskLab.osexp","/Users/Arianna/Desktop","no","sans","no","18","no","white","no","yes","768","legacy","51","51","/Users/Arianna/Desktop/AG-subject-1.csv","legacy","Lentiform Loewenfeld","3.3.3","0","h","NA","h","NA","NA","h","550","NA","844","NA","NA","550","2","legacy","1024","2","48000","-16","experiment","HHHHH","1","odd","4694","NA","NA","92644","92130","3808","NA","NA","93730","3823","NA","NA","93845","94397","93717","93845","Flanker Task Lab 2.1","43","22121","52","yes","1024"
"83.01886792452831","83.01886792452831","426.50943396226415","426.50943396226415","#800080","legacy","legacy","legacy","0","incongruent","uniform","1","undefined","1","s","0","0","0","52","52","0","52","0","52","0","0","0","52","52","52","52","Sun Sep 20 11:13:48 2020","1500","The main experiment item","yes","FlankerTaskLab.osexp","/Users/Arianna/Desktop","no","sans","no","18","no","white","no","yes","768","legacy","52","52","/Users/Arianna/Desktop/AG-subject-1.csv","legacy","Lentiform Loewenfeld","3.3.3","0","s","NA","h","NA","NA","s","484","NA","844","NA","NA","484","2","legacy","1024","2","48000","-16","experiment","HHSHH","1","odd","4694","NA","NA","94424","92130","3808","NA","NA","95514","3823","NA","NA","95630","96116","95500","95630","Flanker Task Lab 2.1","44","22605","53","yes","1024"
"83.33333333333333","83.33333333333333","425.51851851851853","425.51851851851853","#800080","legacy","legacy","legacy","0","congruent","uniform","1","undefined","1","s","0","0","0","53","53","0","53","0","53","0","0","0","53","53","53","53","Sun Sep 20 11:13:48 2020","1500","The main experiment item","yes","FlankerTaskLab.osexp","/Users/Arianna/Desktop","no","sans","no","18","no","white","no","yes","768","legacy","53","53","/Users/Arianna/Desktop/AG-subject-1.csv","legacy","Lentiform Loewenfeld","3.3.3","0","s","NA","h","NA","NA","s","373","NA","844","NA","NA","373","2","legacy","1024","2","48000","-16","experiment","SSSSS","1","odd","4694","NA","NA","96142","92130","3808","NA","NA","97230","3823","NA","NA","97346","97721","97217","97346","Flanker Task Lab 2.1","45","22978","54","yes","1024"
"83.63636363636364","83.63636363636364","425.8727272727273","425.8727272727273","#800080","legacy","legacy","legacy","0","incongruent","uniform","1","undefined","1","h","0","0","0","54","54","0","54","0","54","0","0","0","54","54","54","54","Sun Sep 20 11:13:48 2020","1500","The main experiment item","yes","FlankerTaskLab.osexp","/Users/Arianna/Desktop","no","sans","no","18","no","white","no","yes","768","legacy","54","54","/Users/Arianna/Desktop/AG-subject-1.csv","legacy","Lentiform Loewenfeld","3.3.3","0","h","NA","h","NA","NA","h","445","NA","844","NA","NA","445","2","legacy","1024","2","48000","-16","experiment","SSHSS","1","odd","4694","NA","NA","97748","92130","3808","NA","NA","98836","3823","NA","NA","98952","99399","98822","98951","Flanker Task Lab 2.1","46","23423","55","yes","1024"
"83.92857142857143","83.92857142857143","427.19642857142856","427.19642857142856","#800080","legacy","legacy","legacy","0","incongruent","uniform","1","undefined","1","s","0","0","0","55","55","0","55","0","55","0","0","0","55","55","55","55","Sun Sep 20 11:13:48 2020","1500","The main experiment item","yes","FlankerTaskLab.osexp","/Users/Arianna/Desktop","no","sans","no","18","no","white","no","yes","768","legacy","55","55","/Users/Arianna/Desktop/AG-subject-1.csv","legacy","Lentiform Loewenfeld","3.3.3","0","s","NA","h","NA","NA","s","500","NA","844","NA","NA","500","2","legacy","1024","2","48000","-16","experiment","HHSHH","1","odd","4694","NA","NA","99425","92130","3808","NA","NA","100513","3823","NA","NA","100629","101131","100500","100629","Flanker Task Lab 2.1","47","23923","56","yes","1024"
"84.21052631578948","84.21052631578948","426.719298245614","426.719298245614","#800080","legacy","legacy","legacy","0","congruent","uniform","1","undefined","1","s","0","0","0","56","56","0","56","0","56","0","0","0","56","56","56","56","Sun Sep 20 11:13:48 2020","1500","The main experiment item","yes","FlankerTaskLab.osexp","/Users/Arianna/Desktop","no","sans","no","18","no","white","no","yes","768","legacy","56","56","/Users/Arianna/Desktop/AG-subject-1.csv","legacy","Lentiform Loewenfeld","3.3.3","0","s","NA","h","NA","NA","s","400","NA","844","NA","NA","400","2","legacy","1024","2","48000","-16","experiment","SSSSS","1","odd","4694","NA","NA","101158","92130","3808","NA","NA","102247","3823","NA","NA","102363","102765","102233","102363","Flanker Task Lab 2.1","48","24323","57","yes","1024"
"84.48275862068965","84.48275862068965","426.55172413793105","426.55172413793105","#800080","legacy","legacy","legacy","0","congruent","uniform","1","undefined","1","h","0","0","0","57","57","0","57","0","57","0","0","0","57","57","57","57","Sun Sep 20 11:13:48 2020","1500","The main experiment item","yes","FlankerTaskLab.osexp","/Users/Arianna/Desktop","no","sans","no","18","no","white","no","yes","768","legacy","57","57","/Users/Arianna/Desktop/AG-subject-1.csv","legacy","Lentiform Loewenfeld","3.3.3","0","h","NA","h","NA","NA","h","417","NA","844","NA","NA","417","2","legacy","1024","2","48000","-16","experiment","HHHHH","1","odd","4694","NA","NA","102791","92130","3808","NA","NA","103889","3823","NA","NA","104004","104423","103876","104003","Flanker Task Lab 2.1","49","24740","58","yes","1024"
"84.7457627118644","84.7457627118644","425.91525423728814","425.91525423728814","#800080","legacy","legacy","legacy","0","congruent","uniform","1","undefined","1","h","0","0","0","58","58","0","58","0","58","0","0","0","58","58","58","58","Sun Sep 20 11:13:48 2020","1500","The main experiment item","yes","FlankerTaskLab.osexp","/Users/Arianna/Desktop","no","sans","no","18","no","white","no","yes","768","legacy","58","58","/Users/Arianna/Desktop/AG-subject-1.csv","legacy","Lentiform Loewenfeld","3.3.3","0","h","NA","h","NA","NA","h","389","NA","844","NA","NA","389","2","legacy","1024","2","48000","-16","experiment","HHHHH","1","odd","4694","NA","NA","104450","92130","3808","NA","NA","105542","3823","NA","NA","105657","106047","105529","105657","Flanker Task Lab 2.1","50","25129","59","yes","1024"
"85","85","425.0833333333333","425.0833333333333","#800080","legacy","legacy","legacy","0","congruent","uniform","1","undefined","1","h","0","0","0","59","59","0","59","0","59","0","0","0","59","59","59","59","Sun Sep 20 11:13:48 2020","1500","The main experiment item","yes","FlankerTaskLab.osexp","/Users/Arianna/Desktop","no","sans","no","18","no","white","no","yes","768","legacy","59","59","/Users/Arianna/Desktop/AG-subject-1.csv","legacy","Lentiform Loewenfeld","3.3.3","0","h","NA","h","NA","NA","h","376","NA","844","NA","NA","376","2","legacy","1024","2","48000","-16","experiment","HHHHH","1","odd","4694","NA","NA","106074","92130","3808","NA","NA","107162","3823","NA","NA","107278","107656","107149","107278","Flanker Task Lab 2.1","51","25505","60","yes","1024"
"85.24590163934427","85.24590163934427","426.4590163934426","426.4590163934426","#800080","legacy","legacy","legacy","0","incongruent","uniform","1","undefined","1","s","0","0","0","60","60","0","60","0","60","0","0","0","60","60","60","60","Sun Sep 20 11:13:48 2020","1500","The main experiment item","yes","FlankerTaskLab.osexp","/Users/Arianna/Desktop","no","sans","no","18","no","white","no","yes","768","legacy","60","60","/Users/Arianna/Desktop/AG-subject-1.csv","legacy","Lentiform Loewenfeld","3.3.3","0","s","NA","h","NA","NA","s","509","NA","844","NA","NA","509","2","legacy","1024","2","48000","-16","experiment","HHSHH","1","odd","4694","NA","NA","107682","92130","3808","NA","NA","108769","3823","NA","NA","108885","109395","108756","108885","Flanker Task Lab 2.1","52","26014","61","yes","1024"
"85.48387096774194","85.48387096774194","425.7741935483871","425.7741935483871","#800080","legacy","legacy","legacy","0","congruent","uniform","1","undefined","1","h","0","0","0","61","61","0","61","0","61","0","0","0","61","61","61","61","Sun Sep 20 11:13:48 2020","1500","The main experiment item","yes","FlankerTaskLab.osexp","/Users/Arianna/Desktop","no","sans","no","18","no","white","no","yes","768","legacy","61","61","/Users/Arianna/Desktop/AG-subject-1.csv","legacy","Lentiform Loewenfeld","3.3.3","0","h","NA","h","NA","NA","h","384","NA","844","NA","NA","384","2","legacy","1024","2","48000","-16","experiment","HHHHH","1","odd","4694","NA","NA","109423","92130","3808","NA","NA","110513","3823","NA","NA","110628","111013","110500","110628","Flanker Task Lab 2.1","53","26398","62","yes","1024"
"85.71428571428571","85.71428571428571","426.6825396825397","426.6825396825397","#800080","legacy","legacy","legacy","0","incongruent","uniform","1","undefined","1","h","0","0","0","62","62","0","62","0","62","0","0","0","62","62","62","62","Sun Sep 20 11:13:48 2020","1500","The main experiment item","yes","FlankerTaskLab.osexp","/Users/Arianna/Desktop","no","sans","no","18","no","white","no","yes","768","legacy","62","62","/Users/Arianna/Desktop/AG-subject-1.csv","legacy","Lentiform Loewenfeld","3.3.3","0","h","NA","h","NA","NA","h","483","NA","844","NA","NA","483","2","legacy","1024","2","48000","-16","experiment","SSHSS","1","odd","4694","NA","NA","111040","92130","3808","NA","NA","112127","3823","NA","NA","112243","112727","112114","112242","Flanker Task Lab 2.1","54","26881","63","yes","1024"
"85.9375","85.9375","426.671875","426.671875","#800080","legacy","legacy","legacy","0","incongruent","uniform","1","undefined","1","h","0","0","0","63","63","0","63","0","63","0","0","0","63","63","63","63","Sun Sep 20 11:13:48 2020","1500","The main experiment item","yes","FlankerTaskLab.osexp","/Users/Arianna/Desktop","no","sans","no","18","no","white","no","yes","768","legacy","63","63","/Users/Arianna/Desktop/AG-subject-1.csv","legacy","Lentiform Loewenfeld","3.3.3","0","h","NA","h","NA","NA","h","426","NA","844","NA","NA","426","2","legacy","1024","2","48000","-16","experiment","SSHSS","1","odd","4694","NA","NA","112754","92130","3808","NA","NA","113844","3823","NA","NA","113959","114386","113830","113959","Flanker Task Lab 2.1","55","27307","64","yes","1024"
"84.61538461538461","84.61538461538461","426.4153846153846","426.4153846153846","#800080","legacy","legacy","legacy","0","incongruent","uniform","0","undefined","0","h","0","0","0","64","64","0","64","0","64","0","0","0","64","64","64","64","Sun Sep 20 11:13:48 2020","1500","The main experiment item","yes","FlankerTaskLab.osexp","/Users/Arianna/Desktop","no","sans","no","18","no","white","no","yes","768","legacy","64","64","/Users/Arianna/Desktop/AG-subject-1.csv","legacy","Lentiform Loewenfeld","3.3.3","0","s","NA","h","NA","NA","s","410","NA","844","NA","NA","410","2","legacy","1024","2","48000","-16","experiment","SSHSS","1","odd","4694","NA","NA","114413","92130","3808","NA","NA","115500","3823","NA","NA","115615","116026","115486","115615","Flanker Task Lab 2.1","55","27717","65","yes","1024"
"84.84848484848484","84.84848484848484","425.7878787878788","425.7878787878788","#800080","legacy","legacy","legacy","0","congruent","uniform","1","undefined","1","s","0","0","0","65","65","0","65","0","65","0","0","0","65","65","65","65","Sun Sep 20 11:13:48 2020","1500","The main experiment item","yes","FlankerTaskLab.osexp","/Users/Arianna/Desktop","no","sans","no","18","no","white","no","yes","768","legacy","65","65","/Users/Arianna/Desktop/AG-subject-1.csv","legacy","Lentiform Loewenfeld","3.3.3","0","s","NA","h","NA","NA","s","385","NA","844","NA","NA","385","2","legacy","1024","2","48000","-16","experiment","SSSSS","1","odd","4694","NA","NA","116567","116053","3808","NA","NA","117657","3823","NA","NA","117773","118160","117644","117773","Flanker Task Lab 2.1","56","28102","66","yes","1024"
"85.07462686567165","85.07462686567165","425.67164179104475","425.67164179104475","#800080","legacy","legacy","legacy","0","congruent","uniform","1","undefined","1","h","0","0","0","66","66","0","66","0","66","0","0","0","66","66","66","66","Sun Sep 20 11:13:48 2020","1500","The main experiment item","yes","FlankerTaskLab.osexp","/Users/Arianna/Desktop","no","sans","no","18","no","white","no","yes","768","legacy","66","66","/Users/Arianna/Desktop/AG-subject-1.csv","legacy","Lentiform Loewenfeld","3.3.3","0","h","NA","h","NA","NA","h","418","NA","844","NA","NA","418","2","legacy","1024","2","48000","-16","experiment","HHHHH","1","odd","4694","NA","NA","118186","116053","3808","NA","NA","119277","3823","NA","NA","119393","119812","119262","119393","Flanker Task Lab 2.1","57","28520","67","yes","1024"
"83.82352941176471","83.82352941176471","426.1470588235294","426.1470588235294","#800080","legacy","legacy","legacy","0","incongruent","uniform","0","undefined","0","s","0","0","0","67","67","0","67","0","67","0","0","0","67","67","67","67","Sun Sep 20 11:13:48 2020","1500","The main experiment item","yes","FlankerTaskLab.osexp","/Users/Arianna/Desktop","no","sans","no","18","no","white","no","yes","768","legacy","67","67","/Users/Arianna/Desktop/AG-subject-1.csv","legacy","Lentiform Loewenfeld","3.3.3","0","h","NA","h","NA","NA","h","458","NA","844","NA","NA","458","2","legacy","1024","2","48000","-16","experiment","HHSHH","1","odd","4694","NA","NA","119839","116053","3808","NA","NA","120927","3823","NA","NA","121042","121501","120914","121042","Flanker Task Lab 2.1","57","28978","68","yes","1024"
"82.6086956521739","82.6086956521739","425.8985507246377","425.8985507246377","#800080","legacy","legacy","legacy","0","incongruent","uniform","0","undefined","0","h","0","0","0","68","68","0","68","0","68","0","0","0","68","68","68","68","Sun Sep 20 11:13:48 2020","1500","The main experiment item","yes","FlankerTaskLab.osexp","/Users/Arianna/Desktop","no","sans","no","18","no","white","no","yes","768","legacy","68","68","/Users/Arianna/Desktop/AG-subject-1.csv","legacy","Lentiform Loewenfeld","3.3.3","0","s","NA","h","NA","NA","s","409","NA","844","NA","NA","409","2","legacy","1024","2","48000","-16","experiment","SSHSS","1","odd","4694","NA","NA","122043","121527","3808","NA","NA","123129","3823","NA","NA","123245","123655","123116","123245","Flanker Task Lab 2.1","57","29387","69","yes","1024"
"82.85714285714286","82.85714285714286","426.2142857142857","426.2142857142857","#800080","legacy","legacy","legacy","0","incongruent","uniform","1","undefined","1","s","0","0","0","69","69","0","69","0","69","0","0","0","69","69","69","69","Sun Sep 20 11:13:48 2020","1500","The main experiment item","yes","FlankerTaskLab.osexp","/Users/Arianna/Desktop","no","sans","no","18","no","white","no","yes","768","legacy","69","69","/Users/Arianna/Desktop/AG-subject-1.csv","legacy","Lentiform Loewenfeld","3.3.3","0","s","NA","h","NA","NA","s","448","NA","844","NA","NA","448","2","legacy","1024","2","48000","-16","experiment","HHSHH","1","odd","4694","NA","NA","124184","123670","3808","NA","NA","125272","3823","NA","NA","125387","125836","125258","125387","Flanker Task Lab 2.1","58","29835","70","yes","1024"
"83.09859154929578","83.09859154929578","429.2112676056338","429.2112676056338","#800080","legacy","legacy","legacy","0","incongruent","uniform","1","undefined","1","s","0","0","0","70","70","0","70","0","70","0","0","0","70","70","70","70","Sun Sep 20 11:13:48 2020","1500","The main experiment item","yes","FlankerTaskLab.osexp","/Users/Arianna/Desktop","no","sans","no","18","no","white","no","yes","768","legacy","70","70","/Users/Arianna/Desktop/AG-subject-1.csv","legacy","Lentiform Loewenfeld","3.3.3","0","s","NA","h","NA","NA","s","639","NA","844","NA","NA","639","2","legacy","1024","2","48000","-16","experiment","HHSHH","1","odd","4694","NA","NA","125859","123670","3808","NA","NA","126951","3823","NA","NA","127068","127709","126938","127068","Flanker Task Lab 2.1","59","30474","71","yes","1024"
"83.33333333333333","83.33333333333333","430.84722222222223","430.84722222222223","#800080","legacy","legacy","legacy","0","incongruent","uniform","1","undefined","1","s","0","0","0","71","71","0","71","0","71","0","0","0","71","71","71","71","Sun Sep 20 11:13:48 2020","1500","The main experiment item","yes","FlankerTaskLab.osexp","/Users/Arianna/Desktop","no","sans","no","18","no","white","no","yes","768","legacy","71","71","/Users/Arianna/Desktop/AG-subject-1.csv","legacy","Lentiform Loewenfeld","3.3.3","0","s","NA","h","NA","NA","s","547","NA","844","NA","NA","547","2","legacy","1024","2","48000","-16","experiment","HHSHH","1","odd","4694","NA","NA","127727","123670","3808","NA","NA","128828","3823","NA","NA","128947","129495","128815","128946","Flanker Task Lab 2.1","60","31021","72","yes","1024"
"82.1917808219178","82.1917808219178","430.1232876712329","430.1232876712329","#800080","legacy","legacy","legacy","0","incongruent","uniform","0","undefined","0","h","0","0","0","72","72","0","72","0","72","0","0","0","72","72","72","72","Sun Sep 20 11:13:48 2020","1500","The main experiment item","yes","FlankerTaskLab.osexp","/Users/Arianna/Desktop","no","sans","no","18","no","white","no","yes","768","legacy","72","72","/Users/Arianna/Desktop/AG-subject-1.csv","legacy","Lentiform Loewenfeld","3.3.3","0","s","NA","h","NA","NA","s","378","NA","844","NA","NA","378","2","legacy","1024","2","48000","-16","experiment","SSHSS","1","odd","4694","NA","NA","129511","123670","3808","NA","NA","130600","3823","NA","NA","130716","131095","130584","130715","Flanker Task Lab 2.1","60","31399","73","yes","1024"
"82.43243243243244","82.43243243243244","429.6216216216216","429.6216216216216","#800080","legacy","legacy","legacy","0","congruent","uniform","1","undefined","1","h","0","0","0","73","73","0","73","0","73","0","0","0","73","73","73","73","Sun Sep 20 11:13:48 2020","1500","The main experiment item","yes","FlankerTaskLab.osexp","/Users/Arianna/Desktop","no","sans","no","18","no","white","no","yes","768","legacy","73","73","/Users/Arianna/Desktop/AG-subject-1.csv","legacy","Lentiform Loewenfeld","3.3.3","0","h","NA","h","NA","NA","h","393","NA","844","NA","NA","393","2","legacy","1024","2","48000","-16","experiment","HHHHH","1","odd","4694","NA","NA","131628","131111","3808","NA","NA","132717","3823","NA","NA","132832","133227","132703","132832","Flanker Task Lab 2.1","61","31792","74","yes","1024"
"82.66666666666667","82.66666666666667","430.04","430.04","#800080","legacy","legacy","legacy","0","incongruent","uniform","1","undefined","1","s","0","0","0","74","74","0","74","0","74","0","0","0","74","74","74","74","Sun Sep 20 11:13:48 2020","1500","The main experiment item","yes","FlankerTaskLab.osexp","/Users/Arianna/Desktop","no","sans","no","18","no","white","no","yes","768","legacy","74","74","/Users/Arianna/Desktop/AG-subject-1.csv","legacy","Lentiform Loewenfeld","3.3.3","0","s","NA","h","NA","NA","s","461","NA","844","NA","NA","461","2","legacy","1024","2","48000","-16","experiment","HHSHH","1","odd","4694","NA","NA","133251","131111","3808","NA","NA","134340","3823","NA","NA","134455","134918","134327","134455","Flanker Task Lab 2.1","62","32253","75","yes","1024"
"82.89473684210526","82.89473684210526","430.0131578947368","430.0131578947368","#800080","legacy","legacy","legacy","0","incongruent","uniform","1","undefined","1","s","0","0","0","75","75","0","75","0","75","0","0","0","75","75","75","75","Sun Sep 20 11:13:48 2020","1500","The main experiment item","yes","FlankerTaskLab.osexp","/Users/Arianna/Desktop","no","sans","no","18","no","white","no","yes","768","legacy","75","75","/Users/Arianna/Desktop/AG-subject-1.csv","legacy","Lentiform Loewenfeld","3.3.3","0","s","NA","h","NA","NA","s","428","NA","844","NA","NA","428","2","legacy","1024","2","48000","-16","experiment","HHSHH","1","odd","4694","NA","NA","134945","131111","3808","NA","NA","136042","3823","NA","NA","136158","136588","136025","136158","Flanker Task Lab 2.1","63","32681","76","yes","1024"
"83.11688311688312","83.11688311688312","429.5974025974026","429.5974025974026","#800080","legacy","legacy","legacy","0","incongruent","uniform","1","undefined","1","s","0","0","0","76","76","0","76","0","76","0","0","0","76","76","76","76","Sun Sep 20 11:13:48 2020","1500","The main experiment item","yes","FlankerTaskLab.osexp","/Users/Arianna/Desktop","no","sans","no","18","no","white","no","yes","768","legacy","76","76","/Users/Arianna/Desktop/AG-subject-1.csv","legacy","Lentiform Loewenfeld","3.3.3","0","s","NA","h","NA","NA","s","398","NA","844","NA","NA","398","2","legacy","1024","2","48000","-16","experiment","HHSHH","1","odd","4694","NA","NA","136615","131111","3808","NA","NA","137705","3823","NA","NA","137821","138221","137692","137821","Flanker Task Lab 2.1","64","33079","77","yes","1024"
"83.33333333333333","83.33333333333333","430","430","#800080","legacy","legacy","legacy","0","congruent","uniform","1","undefined","1","h","0","0","0","77","77","0","77","0","77","0","0","0","77","77","77","77","Sun Sep 20 11:13:48 2020","1500","The main experiment item","yes","FlankerTaskLab.osexp","/Users/Arianna/Desktop","no","sans","no","18","no","white","no","yes","768","legacy","77","77","/Users/Arianna/Desktop/AG-subject-1.csv","legacy","Lentiform Loewenfeld","3.3.3","0","h","NA","h","NA","NA","h","461","NA","844","NA","NA","461","2","legacy","1024","2","48000","-16","experiment","HHHHH","1","odd","4694","NA","NA","138247","131111","3808","NA","NA","139335","3823","NA","NA","139450","139913","139321","139450","Flanker Task Lab 2.1","65","33540","78","yes","1024"
"83.54430379746836","83.54430379746836","432.3164556962025","432.3164556962025","#800080","legacy","legacy","legacy","0","incongruent","uniform","1","undefined","1","h","0","0","0","78","78","0","78","0","78","0","0","0","78","78","78","78","Sun Sep 20 11:13:48 2020","1500","The main experiment item","yes","FlankerTaskLab.osexp","/Users/Arianna/Desktop","no","sans","no","18","no","white","no","yes","768","legacy","78","78","/Users/Arianna/Desktop/AG-subject-1.csv","legacy","Lentiform Loewenfeld","3.3.3","0","h","NA","h","NA","NA","h","613","NA","844","NA","NA","613","2","legacy","1024","2","48000","-16","experiment","SSHSS","1","odd","4694","NA","NA","139928","131111","3808","NA","NA","141028","3823","NA","NA","141146","141761","141011","141145","Flanker Task Lab 2.1","66","34153","79","yes","1024"
"83.75","83.75","431.6375","431.6375","#800080","legacy","legacy","legacy","0","congruent","uniform","1","undefined","1","h","0","0","0","79","79","0","79","0","79","0","0","0","79","79","79","79","Sun Sep 20 11:13:48 2020","1500","The main experiment item","yes","FlankerTaskLab.osexp","/Users/Arianna/Desktop","no","sans","no","18","no","white","no","yes","768","legacy","79","79","/Users/Arianna/Desktop/AG-subject-1.csv","legacy","Lentiform Loewenfeld","3.3.3","0","h","NA","h","NA","NA","h","378","NA","844","NA","NA","378","2","legacy","1024","2","48000","-16","experiment","HHHHH","1","odd","4694","NA","NA","141776","131111","3808","NA","NA","142893","3823","NA","NA","143016","143396","142879","143016","Flanker Task Lab 2.1","67","34531","80","yes","1024"
"83.95061728395062","83.95061728395062","432.5432098765432","432.5432098765432","#800080","legacy","legacy","legacy","0","incongruent","uniform","1","undefined","1","s","0","0","0","80","80","0","80","0","80","0","0","0","80","80","80","80","Sun Sep 20 11:13:48 2020","600","The main experiment item","yes","FlankerTaskLab.osexp","/Users/Arianna/Desktop","no","sans","no","18","no","white","no","yes","768","legacy","0","79","/Users/Arianna/Desktop/AG-subject-1.csv","legacy","Lentiform Loewenfeld","3.3.3","0","s","NA","h","h","NA","s","505","NA","844","926","NA","505","2","legacy","1024","2","48000","-16","experiment","HHSHH","1","odd","4694","145396","NA","143412","131111","3808","NA","NA","145453","3823","144468","NA","145569","146077","145439","145569","Flanker Task Lab 2.1","68","35036","81","yes","1024"
"84.14634146341463","84.14634146341463","432.0609756097561","432.0609756097561","#800080","legacy","legacy","legacy","0","incongruent","uniform","1","undefined","1","s","0","0","0","81","81","0","81","0","81","0","0","0","81","81","81","81","Sun Sep 20 11:13:48 2020","600","The main experiment item","yes","FlankerTaskLab.osexp","/Users/Arianna/Desktop","no","sans","no","18","no","white","no","yes","768","legacy","1","79","/Users/Arianna/Desktop/AG-subject-1.csv","legacy","Lentiform Loewenfeld","3.3.3","0","s","NA","h","h","NA","s","393","NA","844","926","NA","393","2","legacy","1024","2","48000","-16","experiment","HHSHH","1","odd","4694","145396","NA","146092","131111","3808","NA","NA","147184","3823","144468","NA","147301","147697","147167","147301","Flanker Task Lab 2.1","69","35429","82","yes","1024"
"83.13253012048193","83.13253012048193","432.09638554216866","432.09638554216866","#800080","legacy","legacy","legacy","0","incongruent","uniform","0","undefined","0","h","0","0","0","82","82","0","82","0","82","0","0","0","82","82","82","82","Sun Sep 20 11:13:48 2020","600","The main experiment item","yes","FlankerTaskLab.osexp","/Users/Arianna/Desktop","no","sans","no","18","no","white","no","yes","768","legacy","2","79","/Users/Arianna/Desktop/AG-subject-1.csv","legacy","Lentiform Loewenfeld","3.3.3","0","s","NA","h","h","NA","s","435","NA","844","926","NA","435","2","legacy","1024","2","48000","-16","experiment","SSHSS","1","odd","4694","145396","NA","147713","131111","3808","NA","NA","148801","3823","144468","NA","148916","149353","148788","148916","Flanker Task Lab 2.1","69","35864","83","yes","1024"
"82.14285714285714","82.14285714285714","431.95238095238096","431.95238095238096","#800080","legacy","legacy","legacy","0","incongruent","uniform","0","undefined","0","s","0","0","0","83","83","0","83","0","83","0","0","0","83","83","83","83","Sun Sep 20 11:13:48 2020","600","The main experiment item","yes","FlankerTaskLab.osexp","/Users/Arianna/Desktop","no","sans","no","18","no","white","no","yes","768","legacy","3","79","/Users/Arianna/Desktop/AG-subject-1.csv","legacy","Lentiform Loewenfeld","3.3.3","0","h","NA","h","h","NA","h","420","NA","844","926","NA","420","2","legacy","1024","2","48000","-16","experiment","HHSHH","1","odd","4694","145396","NA","149894","149380","3808","NA","NA","150990","3823","144468","NA","151104","151526","150975","151104","Flanker Task Lab 2.1","69","36284","84","yes","1024"
"82.3529411764706","82.3529411764706","432.1411764705882","432.1411764705882","#800080","legacy","legacy","legacy","0","congruent","uniform","1","undefined","1","s","0","0","0","84","84","0","84","0","84","0","0","0","84","84","84","84","Sun Sep 20 11:13:48 2020","600","The main experiment item","yes","FlankerTaskLab.osexp","/Users/Arianna/Desktop","no","sans","no","18","no","white","no","yes","768","legacy","4","79","/Users/Arianna/Desktop/AG-subject-1.csv","legacy","Lentiform Loewenfeld","3.3.3","0","s","NA","h","h","NA","s","448","NA","844","926","NA","448","2","legacy","1024","2","48000","-16","experiment","SSSSS","1","odd","4694","145396","NA","152057","151540","3808","NA","NA","153144","3823","144468","NA","153259","153709","153130","153259","Flanker Task Lab 2.1","70","36732","85","yes","1024"
"82.55813953488372","82.55813953488372","431.7906976744186","431.7906976744186","#800080","legacy","legacy","legacy","0","congruent","uniform","1","undefined","1","s","0","0","0","85","85","0","85","0","85","0","0","0","85","85","85","85","Sun Sep 20 11:13:48 2020","600","The main experiment item","yes","FlankerTaskLab.osexp","/Users/Arianna/Desktop","no","sans","no","18","no","white","no","yes","768","legacy","5","79","/Users/Arianna/Desktop/AG-subject-1.csv","legacy","Lentiform Loewenfeld","3.3.3","0","s","NA","h","h","NA","s","402","NA","844","926","NA","402","2","legacy","1024","2","48000","-16","experiment","SSSSS","1","odd","4694","145396","NA","153724","151540","3808","NA","NA","154836","3823","144468","NA","154954","155358","154817","154954","Flanker Task Lab 2.1","71","37134","86","yes","1024"
"82.75862068965517","82.75862068965517","431.2413793103448","431.2413793103448","#800080","legacy","legacy","legacy","0","congruent","uniform","1","undefined","1","h","0","0","0","86","86","0","86","0","86","0","0","0","86","86","86","86","Sun Sep 20 11:13:48 2020","600","The main experiment item","yes","FlankerTaskLab.osexp","/Users/Arianna/Desktop","no","sans","no","18","no","white","no","yes","768","legacy","6","79","/Users/Arianna/Desktop/AG-subject-1.csv","legacy","Lentiform Loewenfeld","3.3.3","0","h","NA","h","h","NA","h","384","NA","844","926","NA","384","2","legacy","1024","2","48000","-16","experiment","HHHHH","1","odd","4694","145396","NA","155372","151540","3808","NA","NA","156463","3823","144468","NA","156579","156965","156449","156578","Flanker Task Lab 2.1","72","37518","87","yes","1024"
"82.95454545454545","82.95454545454545","430.8181818181818","430.8181818181818","#800080","legacy","legacy","legacy","0","congruent","uniform","1","undefined","1","s","0","0","0","87","87","0","87","0","87","0","0","0","87","87","87","87","Sun Sep 20 11:13:48 2020","600","The main experiment item","yes","FlankerTaskLab.osexp","/Users/Arianna/Desktop","no","sans","no","18","no","white","no","yes","768","legacy","7","79","/Users/Arianna/Desktop/AG-subject-1.csv","legacy","Lentiform Loewenfeld","3.3.3","0","s","NA","h","h","NA","s","394","NA","844","926","NA","394","2","legacy","1024","2","48000","-16","experiment","SSSSS","1","odd","4694","145396","NA","156981","151540","3808","NA","NA","158074","3823","144468","NA","158190","158586","158059","158190","Flanker Task Lab 2.1","73","37912","88","yes","1024"
"83.14606741573034","83.14606741573034","430.2247191011236","430.2247191011236","#800080","legacy","legacy","legacy","0","congruent","uniform","1","undefined","1","h","0","0","0","88","88","0","88","0","88","0","0","0","88","88","88","88","Sun Sep 20 11:13:48 2020","600","The main experiment item","yes","FlankerTaskLab.osexp","/Users/Arianna/Desktop","no","sans","no","18","no","white","no","yes","768","legacy","8","79","/Users/Arianna/Desktop/AG-subject-1.csv","legacy","Lentiform Loewenfeld","3.3.3","0","h","NA","h","h","NA","h","378","NA","844","926","NA","378","2","legacy","1024","2","48000","-16","experiment","HHHHH","1","odd","4694","145396","NA","158600","151540","3808","NA","NA","159694","3823","144468","NA","159809","160189","159677","159809","Flanker Task Lab 2.1","74","38290","89","yes","1024"
"83.33333333333333","83.33333333333333","430.4222222222222","430.4222222222222","#800080","legacy","legacy","legacy","0","congruent","uniform","1","undefined","1","s","0","0","0","89","89","0","89","0","89","0","0","0","89","89","89","89","Sun Sep 20 11:13:48 2020","600","The main experiment item","yes","FlankerTaskLab.osexp","/Users/Arianna/Desktop","no","sans","no","18","no","white","no","yes","768","legacy","9","79","/Users/Arianna/Desktop/AG-subject-1.csv","legacy","Lentiform Loewenfeld","3.3.3","0","s","NA","h","h","NA","s","448","NA","844","926","NA","448","2","legacy","1024","2","48000","-16","experiment","SSSSS","1","odd","4694","145396","NA","160209","151540","3808","NA","NA","161299","3823","144468","NA","161420","161869","161285","161420","Flanker Task Lab 2.1","75","38738","90","yes","1024"
"83.51648351648352","83.51648351648352","429.4835164835165","429.4835164835165","#800080","legacy","legacy","legacy","0","congruent","uniform","1","undefined","1","s","0","0","0","90","90","0","90","0","90","0","0","0","90","90","90","90","Sun Sep 20 11:13:48 2020","600","The main experiment item","yes","FlankerTaskLab.osexp","/Users/Arianna/Desktop","no","sans","no","18","no","white","no","yes","768","legacy","10","79","/Users/Arianna/Desktop/AG-subject-1.csv","legacy","Lentiform Loewenfeld","3.3.3","0","s","NA","h","h","NA","s","345","NA","844","926","NA","345","2","legacy","1024","2","48000","-16","experiment","SSSSS","1","odd","4694","145396","NA","161889","151540","3808","NA","NA","162975","3823","144468","NA","163090","163436","162962","163090","Flanker Task Lab 2.1","76","39083","91","yes","1024"
"83.69565217391305","83.69565217391305","429.2282608695652","429.2282608695652","#800080","legacy","legacy","legacy","0","congruent","uniform","1","undefined","1","h","0","0","0","91","91","0","91","0","91","0","0","0","91","91","91","91","Sun Sep 20 11:13:48 2020","600","The main experiment item","yes","FlankerTaskLab.osexp","/Users/Arianna/Desktop","no","sans","no","18","no","white","no","yes","768","legacy","11","79","/Users/Arianna/Desktop/AG-subject-1.csv","legacy","Lentiform Loewenfeld","3.3.3","0","h","NA","h","h","NA","h","406","NA","844","926","NA","406","2","legacy","1024","2","48000","-16","experiment","HHHHH","1","odd","4694","145396","NA","163462","151540","3808","NA","NA","164550","3823","144468","NA","164667","165074","164537","164667","Flanker Task Lab 2.1","77","39489","92","yes","1024"
"82.79569892473118","82.79569892473118","428.6559139784946","428.6559139784946","#800080","legacy","legacy","legacy","0","incongruent","uniform","0","undefined","0","s","0","0","0","92","92","0","92","0","92","0","0","0","92","92","92","92","Sun Sep 20 11:13:48 2020","600","The main experiment item","yes","FlankerTaskLab.osexp","/Users/Arianna/Desktop","no","sans","no","18","no","white","no","yes","768","legacy","12","79","/Users/Arianna/Desktop/AG-subject-1.csv","legacy","Lentiform Loewenfeld","3.3.3","0","h","NA","h","h","NA","h","376","NA","844","926","NA","376","2","legacy","1024","2","48000","-16","experiment","HHSHH","1","odd","4694","145396","NA","165089","151540","3808","NA","NA","166175","3823","144468","NA","166291","166668","166161","166291","Flanker Task Lab 2.1","77","39865","93","yes","1024"
"82.97872340425532","82.97872340425532","428.67021276595744","428.67021276595744","#800080","legacy","legacy","legacy","0","incongruent","uniform","1","undefined","1","h","0","0","0","93","93","0","93","0","93","0","0","0","93","93","93","93","Sun Sep 20 11:13:48 2020","600","The main experiment item","yes","FlankerTaskLab.osexp","/Users/Arianna/Desktop","no","sans","no","18","no","white","no","yes","768","legacy","13","79","/Users/Arianna/Desktop/AG-subject-1.csv","legacy","Lentiform Loewenfeld","3.3.3","0","h","NA","h","h","NA","h","430","NA","844","926","NA","430","2","legacy","1024","2","48000","-16","experiment","SSHSS","1","odd","4694","145396","NA","167209","166695","3808","NA","NA","168296","3823","144468","NA","168412","168844","168282","168412","Flanker Task Lab 2.1","78","40295","94","yes","1024"
"82.10526315789474","82.10526315789474","429.9578947368421","429.9578947368421","#800080","legacy","legacy","legacy","0","incongruent","uniform","0","undefined","0","s","0","0","0","94","94","0","94","0","94","0","0","0","94","94","94","94","Sun Sep 20 11:13:48 2020","600","The main experiment item","yes","FlankerTaskLab.osexp","/Users/Arianna/Desktop","no","sans","no","18","no","white","no","yes","768","legacy","14","79","/Users/Arianna/Desktop/AG-subject-1.csv","legacy","Lentiform Loewenfeld","3.3.3","0","h","NA","h","h","NA","h","551","NA","844","926","NA","551","2","legacy","1024","2","48000","-16","experiment","HHSHH","1","odd","4694","145396","NA","168859","166695","3808","NA","NA","169945","3823","144468","NA","170060","170612","169932","170060","Flanker Task Lab 2.1","78","40846","95","yes","1024"
"82.29166666666667","82.29166666666667","429.2708333333333","429.2708333333333","#800080","legacy","legacy","legacy","0","congruent","uniform","1","undefined","1","h","0","0","0","95","95","0","95","0","95","0","0","0","95","95","95","95","Sun Sep 20 11:13:48 2020","600","The main experiment item","yes","FlankerTaskLab.osexp","/Users/Arianna/Desktop","no","sans","no","18","no","white","no","yes","768","legacy","15","79","/Users/Arianna/Desktop/AG-subject-1.csv","legacy","Lentiform Loewenfeld","3.3.3","0","h","NA","h","h","NA","h","364","NA","844","926","NA","364","2","legacy","1024","2","48000","-16","experiment","HHHHH","1","odd","4694","145396","NA","171153","170639","3808","NA","NA","172241","3823","144468","NA","172358","172723","172226","172358","Flanker Task Lab 2.1","79","41210","96","yes","1024"
"82.47422680412372","82.47422680412372","430.4020618556701","430.4020618556701","#800080","legacy","legacy","legacy","0","incongruent","uniform","1","undefined","1","s","0","0","0","96","96","0","96","0","96","0","0","0","96","96","96","96","Sun Sep 20 11:13:48 2020","600","The main experiment item","yes","FlankerTaskLab.osexp","/Users/Arianna/Desktop","no","sans","no","18","no","white","no","yes","768","legacy","16","79","/Users/Arianna/Desktop/AG-subject-1.csv","legacy","Lentiform Loewenfeld","3.3.3","0","s","NA","h","h","NA","s","539","NA","844","926","NA","539","2","legacy","1024","2","48000","-16","experiment","HHSHH","1","odd","4694","145396","NA","172738","170639","3808","NA","NA","173827","3823","144468","NA","173944","174484","173813","173944","Flanker Task Lab 2.1","80","41749","97","yes","1024"
"82.65306122448979","82.65306122448979","429.33673469387753","429.33673469387753","#800080","legacy","legacy","legacy","0","congruent","uniform","1","undefined","1","h","0","0","0","97","97","0","97","0","97","0","0","0","97","97","97","97","Sun Sep 20 11:13:48 2020","600","The main experiment item","yes","FlankerTaskLab.osexp","/Users/Arianna/Desktop","no","sans","no","18","no","white","no","yes","768","legacy","17","79","/Users/Arianna/Desktop/AG-subject-1.csv","legacy","Lentiform Loewenfeld","3.3.3","0","h","NA","h","h","NA","h","326","NA","844","926","NA","326","2","legacy","1024","2","48000","-16","experiment","HHHHH","1","odd","4694","145396","NA","174510","170639","3808","NA","NA","175598","3823","144468","NA","175713","176040","175584","175713","Flanker Task Lab 2.1","81","42075","98","yes","1024"
"82.82828282828282","82.82828282828282","429.07070707070704","429.07070707070704","#800080","legacy","legacy","legacy","0","congruent","uniform","1","undefined","1","h","0","0","0","98","98","0","98","0","98","0","0","0","98","98","98","98","Sun Sep 20 11:13:48 2020","600","The main experiment item","yes","FlankerTaskLab.osexp","/Users/Arianna/Desktop","no","sans","no","18","no","white","no","yes","768","legacy","18","79","/Users/Arianna/Desktop/AG-subject-1.csv","legacy","Lentiform Loewenfeld","3.3.3","0","h","NA","h","h","NA","h","403","NA","844","926","NA","403","2","legacy","1024","2","48000","-16","experiment","HHHHH","1","odd","4694","145396","NA","176066","170639","3808","NA","NA","177159","3823","144468","NA","177276","177680","177145","177276","Flanker Task Lab 2.1","82","42478","99","yes","1024"
"83","83","428.05","428.05","#800080","legacy","legacy","legacy","0","congruent","uniform","1","undefined","1","h","0","0","0","99","99","0","99","0","99","0","0","0","99","99","99","99","Sun Sep 20 11:13:48 2020","600","The main experiment item","yes","FlankerTaskLab.osexp","/Users/Arianna/Desktop","no","sans","no","18","no","white","no","yes","768","legacy","19","79","/Users/Arianna/Desktop/AG-subject-1.csv","legacy","Lentiform Loewenfeld","3.3.3","0","h","NA","h","h","NA","h","327","NA","844","926","NA","327","2","legacy","1024","2","48000","-16","experiment","HHHHH","1","odd","4694","145396","NA","177706","170639","3808","NA","NA","178795","3823","144468","NA","178911","179240","178782","178911","Flanker Task Lab 2.1","83","42805","100","yes","1024"
"82.17821782178218","82.17821782178218","427.35643564356434","427.35643564356434","#800080","legacy","legacy","legacy","0","incongruent","uniform","0","undefined","0","h","0","0","0","100","100","0","100","0","100","0","0","0","100","100","100","100","Sun Sep 20 11:13:48 2020","600","The main experiment item","yes","FlankerTaskLab.osexp","/Users/Arianna/Desktop","no","sans","no","18","no","white","no","yes","768","legacy","20","79","/Users/Arianna/Desktop/AG-subject-1.csv","legacy","Lentiform Loewenfeld","3.3.3","0","s","NA","h","h","NA","s","358","NA","844","926","NA","358","2","legacy","1024","2","48000","-16","experiment","SSHSS","1","odd","4694","145396","NA","179268","170639","3808","NA","NA","180357","3823","144468","NA","180473","180833","180344","180473","Flanker Task Lab 2.1","83","43163","101","yes","1024"
"81.37254901960785","81.37254901960785","427.2352941176471","427.2352941176471","#800080","legacy","legacy","legacy","0","incongruent","uniform","0","undefined","0","h","0","0","0","101","101","0","101","0","101","0","0","0","101","101","101","101","Sun Sep 20 11:13:48 2020","600","The main experiment item","yes","FlankerTaskLab.osexp","/Users/Arianna/Desktop","no","sans","no","18","no","white","no","yes","768","legacy","21","79","/Users/Arianna/Desktop/AG-subject-1.csv","legacy","Lentiform Loewenfeld","3.3.3","0","s","NA","h","h","NA","s","415","NA","844","926","NA","415","2","legacy","1024","2","48000","-16","experiment","SSHSS","1","odd","4694","145396","NA","181373","180859","3808","NA","NA","182461","3823","144468","NA","182577","182994","182447","182576","Flanker Task Lab 2.1","83","43578","102","yes","1024"
"81.55339805825243","81.55339805825243","426.252427184466","426.252427184466","#800080","legacy","legacy","legacy","0","incongruent","uniform","1","undefined","1","h","0","0","0","102","102","0","102","0","102","0","0","0","102","102","102","102","Sun Sep 20 11:13:48 2020","600","The main experiment item","yes","FlankerTaskLab.osexp","/Users/Arianna/Desktop","no","sans","no","18","no","white","no","yes","768","legacy","22","79","/Users/Arianna/Desktop/AG-subject-1.csv","legacy","Lentiform Loewenfeld","3.3.3","0","h","NA","h","h","NA","h","326","NA","844","926","NA","326","2","legacy","1024","2","48000","-16","experiment","SSHSS","1","odd","4694","145396","NA","183534","183020","3808","NA","NA","184620","3823","144468","NA","184735","185063","184606","184735","Flanker Task Lab 2.1","84","43904","103","yes","1024"
"81.73076923076923","81.73076923076923","426.6057692307692","426.6057692307692","#800080","legacy","legacy","legacy","0","incongruent","uniform","1","undefined","1","s","0","0","0","103","103","0","103","0","103","0","0","0","103","103","103","103","Sun Sep 20 11:13:48 2020","600","The main experiment item","yes","FlankerTaskLab.osexp","/Users/Arianna/Desktop","no","sans","no","18","no","white","no","yes","768","legacy","23","79","/Users/Arianna/Desktop/AG-subject-1.csv","legacy","Lentiform Loewenfeld","3.3.3","0","s","NA","h","h","NA","s","463","NA","844","926","NA","463","2","legacy","1024","2","48000","-16","experiment","HHSHH","1","odd","4694","145396","NA","185090","183020","3808","NA","NA","186179","3823","144468","NA","186295","186760","186165","186295","Flanker Task Lab 2.1","85","44367","104","yes","1024"
"81.9047619047619","81.9047619047619","426.5904761904762","426.5904761904762","#800080","legacy","legacy","legacy","0","congruent","uniform","1","undefined","1","s","0","0","0","104","104","0","104","0","104","0","0","0","104","104","104","104","Sun Sep 20 11:13:48 2020","600","The main experiment item","yes","FlankerTaskLab.osexp","/Users/Arianna/Desktop","no","sans","no","18","no","white","no","yes","768","legacy","24","79","/Users/Arianna/Desktop/AG-subject-1.csv","legacy","Lentiform Loewenfeld","3.3.3","0","s","NA","h","h","NA","s","425","NA","844","926","NA","425","2","legacy","1024","2","48000","-16","experiment","SSSSS","1","odd","4694","145396","NA","186786","183020","3808","NA","NA","187874","3823","144468","NA","187989","188416","187861","187989","Flanker Task Lab 2.1","86","44792","105","yes","1024"
"82.0754716981132","82.0754716981132","426.1792452830189","426.1792452830189","#800080","legacy","legacy","legacy","0","incongruent","uniform","1","undefined","1","s","0","0","0","105","105","0","105","0","105","0","0","0","105","105","105","105","Sun Sep 20 11:13:48 2020","600","The main experiment item","yes","FlankerTaskLab.osexp","/Users/Arianna/Desktop","no","sans","no","18","no","white","no","yes","768","legacy","25","79","/Users/Arianna/Desktop/AG-subject-1.csv","legacy","Lentiform Loewenfeld","3.3.3","0","s","NA","h","h","NA","s","383","NA","844","926","NA","383","2","legacy","1024","2","48000","-16","experiment","HHSHH","1","odd","4694","145396","NA","188444","183020","3808","NA","NA","189530","3823","144468","NA","189646","190031","189516","189645","Flanker Task Lab 2.1","87","45175","106","yes","1024"
"82.24299065420561","82.24299065420561","426.1214953271028","426.1214953271028","#800080","legacy","legacy","legacy","0","congruent","uniform","1","undefined","1","h","0","0","0","106","106","0","106","0","106","0","0","0","106","106","106","106","Sun Sep 20 11:13:48 2020","600","The main experiment item","yes","FlankerTaskLab.osexp","/Users/Arianna/Desktop","no","sans","no","18","no","white","no","yes","768","legacy","26","79","/Users/Arianna/Desktop/AG-subject-1.csv","legacy","Lentiform Loewenfeld","3.3.3","0","h","NA","h","h","NA","h","420","NA","844","926","NA","420","2","legacy","1024","2","48000","-16","experiment","HHHHH","1","odd","4694","145396","NA","190058","183020","3808","NA","NA","191144","3823","144468","NA","191261","191683","191131","191260","Flanker Task Lab 2.1","88","45595","107","yes","1024"
"81.48148148148148","81.48148148148148","426.39814814814815","426.39814814814815","#800080","legacy","legacy","legacy","0","congruent","uniform","0","undefined","0","s","0","0","0","107","107","0","107","0","107","0","0","0","107","107","107","107","Sun Sep 20 11:13:48 2020","600","The main experiment item","yes","FlankerTaskLab.osexp","/Users/Arianna/Desktop","no","sans","no","18","no","white","no","yes","768","legacy","27","79","/Users/Arianna/Desktop/AG-subject-1.csv","legacy","Lentiform Loewenfeld","3.3.3","0","h","NA","h","h","NA","h","456","NA","844","926","NA","456","2","legacy","1024","2","48000","-16","experiment","SSSSS","1","odd","4694","145396","NA","191707","183020","3808","NA","NA","192794","3823","144468","NA","192910","193368","192781","192910","Flanker Task Lab 2.1","88","46051","108","yes","1024"
"81.65137614678899","81.65137614678899","426.07339449541286","426.07339449541286","#800080","legacy","legacy","legacy","0","congruent","uniform","1","undefined","1","s","0","0","0","108","108","0","108","0","108","0","0","0","108","108","108","108","Sun Sep 20 11:13:48 2020","600","The main experiment item","yes","FlankerTaskLab.osexp","/Users/Arianna/Desktop","no","sans","no","18","no","white","no","yes","768","legacy","28","79","/Users/Arianna/Desktop/AG-subject-1.csv","legacy","Lentiform Loewenfeld","3.3.3","0","s","NA","h","h","NA","s","391","NA","844","926","NA","391","2","legacy","1024","2","48000","-16","experiment","SSSSS","1","odd","4694","145396","NA","193907","193393","3808","NA","NA","194994","3823","144468","NA","195109","195502","194981","195109","Flanker Task Lab 2.1","89","46442","109","yes","1024"
"81.81818181818181","81.81818181818181","425.95454545454544","425.95454545454544","#800080","legacy","legacy","legacy","0","incongruent","uniform","1","undefined","1","s","0","0","0","109","109","0","109","0","109","0","0","0","109","109","109","109","Sun Sep 20 11:13:48 2020","600","The main experiment item","yes","FlankerTaskLab.osexp","/Users/Arianna/Desktop","no","sans","no","18","no","white","no","yes","768","legacy","29","79","/Users/Arianna/Desktop/AG-subject-1.csv","legacy","Lentiform Loewenfeld","3.3.3","0","s","NA","h","h","NA","s","413","NA","844","926","NA","413","2","legacy","1024","2","48000","-16","experiment","HHSHH","1","odd","4694","145396","NA","195529","193393","3808","NA","NA","196616","3823","144468","NA","196732","197147","196602","196731","Flanker Task Lab 2.1","90","46855","110","yes","1024"
"81.98198198198199","81.98198198198199","425.4144144144144","425.4144144144144","#800080","legacy","legacy","legacy","0","congruent","uniform","1","undefined","1","s","0","0","0","110","110","0","110","0","110","0","0","0","110","110","110","110","Sun Sep 20 11:13:48 2020","600","The main experiment item","yes","FlankerTaskLab.osexp","/Users/Arianna/Desktop","no","sans","no","18","no","white","no","yes","768","legacy","30","79","/Users/Arianna/Desktop/AG-subject-1.csv","legacy","Lentiform Loewenfeld","3.3.3","0","s","NA","h","h","NA","s","366","NA","844","926","NA","366","2","legacy","1024","2","48000","-16","experiment","SSSSS","1","odd","4694","145396","NA","197172","193393","3808","NA","NA","198263","3823","144468","NA","198378","198746","198246","198378","Flanker Task Lab 2.1","91","47221","111","yes","1024"
"82.14285714285714","82.14285714285714","424.82142857142856","424.82142857142856","#800080","legacy","legacy","legacy","0","congruent","uniform","1","undefined","1","s","0","0","0","111","111","0","111","0","111","0","0","0","111","111","111","111","Sun Sep 20 11:13:48 2020","600","The main experiment item","yes","FlankerTaskLab.osexp","/Users/Arianna/Desktop","no","sans","no","18","no","white","no","yes","768","legacy","31","79","/Users/Arianna/Desktop/AG-subject-1.csv","legacy","Lentiform Loewenfeld","3.3.3","0","s","NA","h","h","NA","s","359","NA","844","926","NA","359","2","legacy","1024","2","48000","-16","experiment","SSSSS","1","odd","4694","145396","NA","198772","193393","3808","NA","NA","199861","3823","144468","NA","199977","200338","199847","199977","Flanker Task Lab 2.1","92","47580","112","yes","1024"
"81.41592920353982","81.41592920353982","423.94690265486724","423.94690265486724","#800080","legacy","legacy","legacy","0","incongruent","uniform","0","undefined","0","h","0","0","0","112","112","0","112","0","112","0","0","0","112","112","112","112","Sun Sep 20 11:13:48 2020","600","The main experiment item","yes","FlankerTaskLab.osexp","/Users/Arianna/Desktop","no","sans","no","18","no","white","no","yes","768","legacy","32","79","/Users/Arianna/Desktop/AG-subject-1.csv","legacy","Lentiform Loewenfeld","3.3.3","0","s","NA","h","h","NA","s","326","NA","844","926","NA","326","2","legacy","1024","2","48000","-16","experiment","SSHSS","1","odd","4694","145396","NA","200370","193393","3808","NA","NA","201456","3823","144468","NA","201572","201900","201442","201571","Flanker Task Lab 2.1","92","47906","113","yes","1024"
"81.57894736842105","81.57894736842105","424.5964912280702","424.5964912280702","#800080","legacy","legacy","legacy","0","congruent","uniform","1","undefined","1","h","0","0","0","113","113","0","113","0","113","0","0","0","113","113","113","113","Sun Sep 20 11:13:48 2020","600","The main experiment item","yes","FlankerTaskLab.osexp","/Users/Arianna/Desktop","no","sans","no","18","no","white","no","yes","768","legacy","33","79","/Users/Arianna/Desktop/AG-subject-1.csv","legacy","Lentiform Loewenfeld","3.3.3","0","h","NA","h","h","NA","h","498","NA","844","926","NA","498","2","legacy","1024","2","48000","-16","experiment","HHHHH","1","odd","4694","145396","NA","202441","201926","3808","NA","NA","203528","3823","144468","NA","203643","204143","203514","203643","Flanker Task Lab 2.1","93","48404","114","yes","1024"
"81.73913043478261","81.73913043478261","425","425","#800080","legacy","legacy","legacy","0","incongruent","uniform","1","undefined","1","s","0","0","0","114","114","0","114","0","114","0","0","0","114","114","114","114","Sun Sep 20 11:13:48 2020","600","The main experiment item","yes","FlankerTaskLab.osexp","/Users/Arianna/Desktop","no","sans","no","18","no","white","no","yes","768","legacy","34","79","/Users/Arianna/Desktop/AG-subject-1.csv","legacy","Lentiform Loewenfeld","3.3.3","0","s","NA","h","h","NA","s","471","NA","844","926","NA","471","2","legacy","1024","2","48000","-16","experiment","HHSHH","1","odd","4694","145396","NA","204165","201926","3808","NA","NA","205252","3823","144468","NA","205367","205840","205238","205367","Flanker Task Lab 2.1","94","48875","115","yes","1024"
"81.89655172413794","81.89655172413794","424.5344827586207","424.5344827586207","#800080","legacy","legacy","legacy","0","congruent","uniform","1","undefined","1","s","0","0","0","115","115","0","115","0","115","0","0","0","115","115","115","115","Sun Sep 20 11:13:48 2020","600","The main experiment item","yes","FlankerTaskLab.osexp","/Users/Arianna/Desktop","no","sans","no","18","no","white","no","yes","768","legacy","35","79","/Users/Arianna/Desktop/AG-subject-1.csv","legacy","Lentiform Loewenfeld","3.3.3","0","s","NA","h","h","NA","s","371","NA","844","926","NA","371","2","legacy","1024","2","48000","-16","experiment","SSSSS","1","odd","4694","145396","NA","205855","201926","3808","NA","NA","206941","3823","144468","NA","207056","207429","206928","207056","Flanker Task Lab 2.1","95","49246","116","yes","1024"
"82.05128205128206","82.05128205128206","424.7435897435897","424.7435897435897","#800080","legacy","legacy","legacy","0","congruent","uniform","1","undefined","1","s","0","0","0","116","116","0","116","0","116","0","0","0","116","116","116","116","Sun Sep 20 11:13:48 2020","600","The main experiment item","yes","FlankerTaskLab.osexp","/Users/Arianna/Desktop","no","sans","no","18","no","white","no","yes","768","legacy","36","79","/Users/Arianna/Desktop/AG-subject-1.csv","legacy","Lentiform Loewenfeld","3.3.3","0","s","NA","h","h","NA","s","449","NA","844","926","NA","449","2","legacy","1024","2","48000","-16","experiment","SSSSS","1","odd","4694","145396","NA","207456","201926","3808","NA","NA","208544","3823","144468","NA","208660","209111","208530","208660","Flanker Task Lab 2.1","96","49695","117","yes","1024"
"82.20338983050847","82.20338983050847","424.6271186440678","424.6271186440678","#800080","legacy","legacy","legacy","0","incongruent","uniform","1","undefined","1","h","0","0","0","117","117","0","117","0","117","0","0","0","117","117","117","117","Sun Sep 20 11:13:48 2020","600","The main experiment item","yes","FlankerTaskLab.osexp","/Users/Arianna/Desktop","no","sans","no","18","no","white","no","yes","768","legacy","37","79","/Users/Arianna/Desktop/AG-subject-1.csv","legacy","Lentiform Loewenfeld","3.3.3","0","h","NA","h","h","NA","h","411","NA","844","926","NA","411","2","legacy","1024","2","48000","-16","experiment","SSHSS","1","odd","4694","145396","NA","209138","201926","3808","NA","NA","210224","3823","144468","NA","210340","210753","210210","210339","Flanker Task Lab 2.1","97","50106","118","yes","1024"
"82.3529411764706","82.3529411764706","424.4033613445378","424.4033613445378","#800080","legacy","legacy","legacy","0","congruent","uniform","1","undefined","1","h","0","0","0","118","118","0","118","0","118","0","0","0","118","118","118","118","Sun Sep 20 11:13:48 2020","600","The main experiment item","yes","FlankerTaskLab.osexp","/Users/Arianna/Desktop","no","sans","no","18","no","white","no","yes","768","legacy","38","79","/Users/Arianna/Desktop/AG-subject-1.csv","legacy","Lentiform Loewenfeld","3.3.3","0","h","NA","h","h","NA","h","398","NA","844","926","NA","398","2","legacy","1024","2","48000","-16","experiment","HHHHH","1","odd","4694","145396","NA","210779","201926","3808","NA","NA","211866","3823","144468","NA","211981","212381","211852","211981","Flanker Task Lab 2.1","98","50504","119","yes","1024"
"82.5","82.5","424.0833333333333","424.0833333333333","#800080","legacy","legacy","legacy","0","congruent","uniform","1","undefined","1","h","0","0","0","119","119","0","119","0","119","0","0","0","119","119","119","119","Sun Sep 20 11:13:48 2020","600","The main experiment item","yes","FlankerTaskLab.osexp","/Users/Arianna/Desktop","no","sans","no","18","no","white","no","yes","768","legacy","39","79","/Users/Arianna/Desktop/AG-subject-1.csv","legacy","Lentiform Loewenfeld","3.3.3","0","h","NA","h","h","NA","h","386","NA","844","926","NA","386","2","legacy","1024","2","48000","-16","experiment","HHHHH","1","odd","4694","145396","NA","212407","201926","3808","NA","NA","213498","3823","144468","NA","213614","214001","213484","213614","Flanker Task Lab 2.1","99","50890","120","yes","1024"
"82.64462809917356","82.64462809917356","423.53719008264466","423.53719008264466","#800080","legacy","legacy","legacy","0","congruent","uniform","1","undefined","1","h","0","0","0","120","120","0","120","0","120","0","0","0","120","120","120","120","Sun Sep 20 11:13:48 2020","600","The main experiment item","yes","FlankerTaskLab.osexp","/Users/Arianna/Desktop","no","sans","no","18","no","white","no","yes","768","legacy","40","79","/Users/Arianna/Desktop/AG-subject-1.csv","legacy","Lentiform Loewenfeld","3.3.3","0","h","NA","h","h","NA","h","358","NA","844","926","NA","358","2","legacy","1024","2","48000","-16","experiment","HHHHH","1","odd","4694","145396","NA","214028","201926","3808","NA","NA","215115","3823","144468","NA","215229","215589","215102","215229","Flanker Task Lab 2.1","100","51248","121","yes","1024"
"82.78688524590164","82.78688524590164","424.07377049180326","424.07377049180326","#800080","legacy","legacy","legacy","0","incongruent","uniform","1","undefined","1","s","0","0","0","121","121","0","121","0","121","0","0","0","121","121","121","121","Sun Sep 20 11:13:48 2020","600","The main experiment item","yes","FlankerTaskLab.osexp","/Users/Arianna/Desktop","no","sans","no","18","no","white","no","yes","768","legacy","41","79","/Users/Arianna/Desktop/AG-subject-1.csv","legacy","Lentiform Loewenfeld","3.3.3","0","s","NA","h","h","NA","s","489","NA","844","926","NA","489","2","legacy","1024","2","48000","-16","experiment","HHSHH","1","odd","4694","145396","NA","215614","201926","3808","NA","NA","216702","3823","144468","NA","216817","217308","216688","216817","Flanker Task Lab 2.1","101","51737","122","yes","1024"
"82.92682926829268","82.92682926829268","425.5691056910569","425.5691056910569","#800080","legacy","legacy","legacy","0","congruent","uniform","1","undefined","1","h","0","0","0","122","122","0","122","0","122","0","0","0","122","122","122","122","Sun Sep 20 11:13:48 2020","600","The main experiment item","yes","FlankerTaskLab.osexp","/Users/Arianna/Desktop","no","sans","no","18","no","white","no","yes","768","legacy","42","79","/Users/Arianna/Desktop/AG-subject-1.csv","legacy","Lentiform Loewenfeld","3.3.3","0","h","NA","h","h","NA","h","608","NA","844","926","NA","608","2","legacy","1024","2","48000","-16","experiment","HHHHH","1","odd","4694","145396","NA","217334","201926","3808","NA","NA","218421","3823","144468","NA","218536","219146","218407","218536","Flanker Task Lab 2.1","102","52345","123","yes","1024"
