acc,accuracy,average_response_time,avg_rt,background,bidi,canvas_backend,clock_backend,color_backend,compensation,condition,coordinates,correct,correct_instructions1,correct_keyboard_response,correct_response,count_Block1,count_Block2,count_Block3,count_ISI,count_errorFeedback,count_experiment,count_faster,count_finish,count_fixation,count_instructions1,count_instructions2,count_instructions3,count_keyboard_response,count_new_logger,count_sequence,count_stimulus,datetime,deadline,description,disable_garbage_collection,experiment_file,experiment_path,font_bold,font_family,font_italic,font_size,font_underline,foreground,form_clicks,fullscreen,height,keyboard_backend,live_row,live_row_Block1,logfile,mouse_backend,opensesame_codename,opensesame_version,repeat_cycle,response,response_finish,response_instructions1,response_instructions2,response_instructions3,response_keyboard_response,response_time,response_time_finish,response_time_instructions1,response_time_instructions2,response_time_instructions3,response_time_keyboard_response,round_decimals,sampler_backend,sound_buf_size,sound_channels,sound_freq,sound_sample_size,start,stimulus,subject_nr,subject_parity,time_Block1,time_Block2,time_Block3,time_ISI,time_errorFeedback,time_experiment,time_faster,time_finish,time_fixation,time_instructions1,time_instructions2,time_instructions3,time_keyboard_response,time_new_logger,time_sequence,time_stimulus,title,total_correct,total_response_time,total_responses,uniform_coordinates,width
0,0,1500,1500,black,no,legacy,legacy,legacy,0,incongruent,uniform,0,undefined,0,s,0,0,0,0,0,0,0,0,0,0,0,0,0,0,0,0,Tue Sep 24 11:41:14 2019,1500,The main experiment item,yes,FlankerTaskKBowman.osexp,/Users/KrisBow/Dropbox/GradSchoolTarleton/Fall2019/AdvQuant/Lab2,no,mono,no,18,no,white,no,yes,768,legacy,0,0,/Users/KrisBow/Dropbox/GradSchoolTarleton/Fall2019/AdvQuant/Lab2/KB-subject-3-F48.csv,legacy,Kafkaesque Koffka,3.2.6,0,None,NA,h,NA,NA,None,1500,NA,25129,NA,NA,1500,2,legacy,1024,2,48000,-16,experiment,HHSHH,3,odd,26445,NA,NA,NA,NA,1302,NA,NA,26538,1314,NA,NA,26649,28149,26528,26649,FlankerTaskKBowman,0,1500,1,yes,1024
50,50,1081,1081,black,no,legacy,legacy,legacy,0,congruent,uniform,1,undefined,1,s,0,0,0,1,1,0,1,0,1,0,0,0,1,1,1,1,Tue Sep 24 11:41:14 2019,1500,The main experiment item,yes,FlankerTaskKBowman.osexp,/Users/KrisBow/Dropbox/GradSchoolTarleton/Fall2019/AdvQuant/Lab2,no,mono,no,18,no,white,no,yes,768,legacy,1,1,/Users/KrisBow/Dropbox/GradSchoolTarleton/Fall2019/AdvQuant/Lab2/KB-subject-3-F48.csv,legacy,Kafkaesque Koffka,3.2.6,0,s,NA,h,NA,NA,s,662,NA,25129,NA,NA,662,2,legacy,1024,2,48000,-16,experiment,SSSSS,3,odd,26445,NA,NA,28677,28166,1302,NA,NA,29788,1314,NA,NA,29899,30563,29778,29899,FlankerTaskKBowman,1,2162,2,yes,1024
33.33333333,33.33333333,949.6666667,949.6666667,black,no,legacy,legacy,legacy,0,incongruent,uniform,0,undefined,0,s,0,0,0,2,2,0,2,0,2,0,0,0,2,2,2,2,Tue Sep 24 11:41:14 2019,1500,The main experiment item,yes,FlankerTaskKBowman.osexp,/Users/KrisBow/Dropbox/GradSchoolTarleton/Fall2019/AdvQuant/Lab2,no,mono,no,18,no,white,no,yes,768,legacy,2,2,/Users/KrisBow/Dropbox/GradSchoolTarleton/Fall2019/AdvQuant/Lab2/KB-subject-3-F48.csv,legacy,Kafkaesque Koffka,3.2.6,0,h,NA,h,NA,NA,h,687,NA,25129,NA,NA,687,2,legacy,1024,2,48000,-16,experiment,HHSHH,3,odd,26445,NA,NA,30576,28166,1302,NA,NA,31682,1314,NA,NA,31793,32481,31668,31793,FlankerTaskKBowman,1,2849,3,yes,1024
50,50,831.25,831.25,black,no,legacy,legacy,legacy,0,congruent,uniform,1,undefined,1,s,0,0,0,3,3,0,3,0,3,0,0,0,3,3,3,3,Tue Sep 24 11:41:14 2019,1500,The main experiment item,yes,FlankerTaskKBowman.osexp,/Users/KrisBow/Dropbox/GradSchoolTarleton/Fall2019/AdvQuant/Lab2,no,mono,no,18,no,white,no,yes,768,legacy,3,3,/Users/KrisBow/Dropbox/GradSchoolTarleton/Fall2019/AdvQuant/Lab2/KB-subject-3-F48.csv,legacy,Kafkaesque Koffka,3.2.6,0,s,NA,h,NA,NA,s,476,NA,25129,NA,NA,476,2,legacy,1024,2,48000,-16,experiment,SSSSS,3,odd,26445,NA,NA,33005,32494,1302,NA,NA,34107,1314,NA,NA,34218,34695,34095,34218,FlankerTaskKBowman,2,3325,4,yes,1024
60,60,772,772,black,no,legacy,legacy,legacy,0,congruent,uniform,1,undefined,1,s,0,0,0,4,4,0,4,0,4,0,0,0,4,4,4,4,Tue Sep 24 11:41:14 2019,1500,The main experiment item,yes,FlankerTaskKBowman.osexp,/Users/KrisBow/Dropbox/GradSchoolTarleton/Fall2019/AdvQuant/Lab2,no,mono,no,18,no,white,no,yes,768,legacy,4,4,/Users/KrisBow/Dropbox/GradSchoolTarleton/Fall2019/AdvQuant/Lab2/KB-subject-3-F48.csv,legacy,Kafkaesque Koffka,3.2.6,0,s,NA,h,NA,NA,s,535,NA,25129,NA,NA,535,2,legacy,1024,2,48000,-16,experiment,SSSSS,3,odd,26445,NA,NA,34708,32494,1302,NA,NA,35814,1314,NA,NA,35925,36461,35799,35925,FlankerTaskKBowman,3,3860,5,yes,1024
50,50,736.5,736.5,black,no,legacy,legacy,legacy,0,incongruent,uniform,0,undefined,0,h,0,0,0,5,5,0,5,0,5,0,0,0,5,5,5,5,Tue Sep 24 11:41:14 2019,1500,The main experiment item,yes,FlankerTaskKBowman.osexp,/Users/KrisBow/Dropbox/GradSchoolTarleton/Fall2019/AdvQuant/Lab2,no,mono,no,18,no,white,no,yes,768,legacy,5,5,/Users/KrisBow/Dropbox/GradSchoolTarleton/Fall2019/AdvQuant/Lab2/KB-subject-3-F48.csv,legacy,Kafkaesque Koffka,3.2.6,0,s,NA,h,NA,NA,s,559,NA,25129,NA,NA,559,2,legacy,1024,2,48000,-16,experiment,SSHSS,3,odd,26445,NA,NA,36474,32494,1302,NA,NA,37580,1314,NA,NA,37692,38252,37566,37692,FlankerTaskKBowman,3,4419,6,yes,1024
42.85714286,42.85714286,734.8571429,734.8571429,black,no,legacy,legacy,legacy,0,incongruent,uniform,0,undefined,0,s,0,0,0,6,6,0,6,0,6,0,0,0,6,6,6,6,Tue Sep 24 11:41:14 2019,1500,The main experiment item,yes,FlankerTaskKBowman.osexp,/Users/KrisBow/Dropbox/GradSchoolTarleton/Fall2019/AdvQuant/Lab2,no,mono,no,18,no,white,no,yes,768,legacy,6,6,/Users/KrisBow/Dropbox/GradSchoolTarleton/Fall2019/AdvQuant/Lab2/KB-subject-3-F48.csv,legacy,Kafkaesque Koffka,3.2.6,0,h,NA,h,NA,NA,h,725,NA,25129,NA,NA,725,2,legacy,1024,2,48000,-16,experiment,HHSHH,3,odd,26445,NA,NA,38777,38266,1302,NA,NA,39878,1314,NA,NA,39989,40715,39867,39988,FlankerTaskKBowman,3,5144,7,yes,1024
37.5,37.5,717.375,717.375,black,no,legacy,legacy,legacy,0,congruent,uniform,0,undefined,0,h,0,0,0,7,7,0,7,0,7,0,0,0,7,7,7,7,Tue Sep 24 11:41:14 2019,1500,The main experiment item,yes,FlankerTaskKBowman.osexp,/Users/KrisBow/Dropbox/GradSchoolTarleton/Fall2019/AdvQuant/Lab2,no,mono,no,18,no,white,no,yes,768,legacy,7,7,/Users/KrisBow/Dropbox/GradSchoolTarleton/Fall2019/AdvQuant/Lab2/KB-subject-3-F48.csv,legacy,Kafkaesque Koffka,3.2.6,0,s,NA,h,NA,NA,s,595,NA,25129,NA,NA,595,2,legacy,1024,2,48000,-16,experiment,HHHHH,3,odd,26445,NA,NA,41239,40728,1302,NA,NA,42339,1314,NA,NA,42450,43046,42329,42450,FlankerTaskKBowman,3,5739,8,yes,1024
44.44444444,44.44444444,694.7777778,694.7777778,black,no,legacy,legacy,legacy,0,congruent,uniform,1,undefined,1,s,0,0,0,8,8,0,8,0,8,0,0,0,8,8,8,8,Tue Sep 24 11:41:14 2019,1500,The main experiment item,yes,FlankerTaskKBowman.osexp,/Users/KrisBow/Dropbox/GradSchoolTarleton/Fall2019/AdvQuant/Lab2,no,mono,no,18,no,white,no,yes,768,legacy,8,8,/Users/KrisBow/Dropbox/GradSchoolTarleton/Fall2019/AdvQuant/Lab2/KB-subject-3-F48.csv,legacy,Kafkaesque Koffka,3.2.6,0,s,NA,h,NA,NA,s,514,NA,25129,NA,NA,514,2,legacy,1024,2,48000,-16,experiment,SSSSS,3,odd,26445,NA,NA,43570,43059,1302,NA,NA,44678,1314,NA,NA,44789,45304,44668,44789,FlankerTaskKBowman,4,6253,9,yes,1024
50,50,667.1,667.1,black,no,legacy,legacy,legacy,0,congruent,uniform,1,undefined,1,h,0,0,0,9,9,0,9,0,9,0,0,0,9,9,9,9,Tue Sep 24 11:41:14 2019,1500,The main experiment item,yes,FlankerTaskKBowman.osexp,/Users/KrisBow/Dropbox/GradSchoolTarleton/Fall2019/AdvQuant/Lab2,no,mono,no,18,no,white,no,yes,768,legacy,9,9,/Users/KrisBow/Dropbox/GradSchoolTarleton/Fall2019/AdvQuant/Lab2/KB-subject-3-F48.csv,legacy,Kafkaesque Koffka,3.2.6,0,h,NA,h,NA,NA,h,418,NA,25129,NA,NA,418,2,legacy,1024,2,48000,-16,experiment,HHHHH,3,odd,26445,NA,NA,45317,43059,1302,NA,NA,46429,1314,NA,NA,46540,46959,46414,46540,FlankerTaskKBowman,5,6671,10,yes,1024
54.54545455,54.54545455,645.7272727,645.7272727,black,no,legacy,legacy,legacy,0,congruent,uniform,1,undefined,1,s,0,0,0,10,10,0,10,0,10,0,0,0,10,10,10,10,Tue Sep 24 11:41:14 2019,1500,The main experiment item,yes,FlankerTaskKBowman.osexp,/Users/KrisBow/Dropbox/GradSchoolTarleton/Fall2019/AdvQuant/Lab2,no,mono,no,18,no,white,no,yes,768,legacy,10,10,/Users/KrisBow/Dropbox/GradSchoolTarleton/Fall2019/AdvQuant/Lab2/KB-subject-3-F48.csv,legacy,Kafkaesque Koffka,3.2.6,0,s,NA,h,NA,NA,s,432,NA,25129,NA,NA,432,2,legacy,1024,2,48000,-16,experiment,SSSSS,3,odd,26445,NA,NA,46972,43059,1302,NA,NA,48073,1314,NA,NA,48184,48617,48059,48183,FlankerTaskKBowman,6,7103,11,yes,1024
58.33333333,58.33333333,626.8333333,626.8333333,black,no,legacy,legacy,legacy,0,congruent,uniform,1,undefined,1,h,0,0,0,11,11,0,11,0,11,0,0,0,11,11,11,11,Tue Sep 24 11:41:14 2019,1500,The main experiment item,yes,FlankerTaskKBowman.osexp,/Users/KrisBow/Dropbox/GradSchoolTarleton/Fall2019/AdvQuant/Lab2,no,mono,no,18,no,white,no,yes,768,legacy,11,11,/Users/KrisBow/Dropbox/GradSchoolTarleton/Fall2019/AdvQuant/Lab2/KB-subject-3-F48.csv,legacy,Kafkaesque Koffka,3.2.6,0,h,NA,h,NA,NA,h,419,NA,25129,NA,NA,419,2,legacy,1024,2,48000,-16,experiment,HHHHH,3,odd,26445,NA,NA,48630,43059,1302,NA,NA,49733,1314,NA,NA,49846,50266,49721,49846,FlankerTaskKBowman,7,7522,12,yes,1024
53.84615385,53.84615385,606.3076923,606.3076923,black,no,legacy,legacy,legacy,0,congruent,uniform,0,undefined,0,h,0,0,0,12,12,0,12,0,12,0,0,0,12,12,12,12,Tue Sep 24 11:41:14 2019,1500,The main experiment item,yes,FlankerTaskKBowman.osexp,/Users/KrisBow/Dropbox/GradSchoolTarleton/Fall2019/AdvQuant/Lab2,no,mono,no,18,no,white,no,yes,768,legacy,12,12,/Users/KrisBow/Dropbox/GradSchoolTarleton/Fall2019/AdvQuant/Lab2/KB-subject-3-F48.csv,legacy,Kafkaesque Koffka,3.2.6,0,s,NA,h,NA,NA,s,360,NA,25129,NA,NA,360,2,legacy,1024,2,48000,-16,experiment,HHHHH,3,odd,26445,NA,NA,50279,43059,1302,NA,NA,51382,1314,NA,NA,51493,51854,51369,51493,FlankerTaskKBowman,7,7882,13,yes,1024
57.14285714,57.14285714,592.7857143,592.7857143,black,no,legacy,legacy,legacy,0,congruent,uniform,1,undefined,1,s,0,0,0,13,13,0,13,0,13,0,0,0,13,13,13,13,Tue Sep 24 11:41:14 2019,1500,The main experiment item,yes,FlankerTaskKBowman.osexp,/Users/KrisBow/Dropbox/GradSchoolTarleton/Fall2019/AdvQuant/Lab2,no,mono,no,18,no,white,no,yes,768,legacy,13,13,/Users/KrisBow/Dropbox/GradSchoolTarleton/Fall2019/AdvQuant/Lab2/KB-subject-3-F48.csv,legacy,Kafkaesque Koffka,3.2.6,0,s,NA,h,NA,NA,s,417,NA,25129,NA,NA,417,2,legacy,1024,2,48000,-16,experiment,SSSSS,3,odd,26445,NA,NA,52379,51867,1302,NA,NA,53479,1314,NA,NA,53589,54007,53469,53589,FlankerTaskKBowman,8,8299,14,yes,1024
53.33333333,53.33333333,586.8,586.8,black,no,legacy,legacy,legacy,0,incongruent,uniform,0,undefined,0,s,0,0,0,14,14,0,14,0,14,0,0,0,14,14,14,14,Tue Sep 24 11:41:14 2019,1500,The main experiment item,yes,FlankerTaskKBowman.osexp,/Users/KrisBow/Dropbox/GradSchoolTarleton/Fall2019/AdvQuant/Lab2,no,mono,no,18,no,white,no,yes,768,legacy,14,14,/Users/KrisBow/Dropbox/GradSchoolTarleton/Fall2019/AdvQuant/Lab2/KB-subject-3-F48.csv,legacy,Kafkaesque Koffka,3.2.6,0,h,NA,h,NA,NA,h,503,NA,25129,NA,NA,503,2,legacy,1024,2,48000,-16,experiment,HHSHH,3,odd,26445,NA,NA,54020,51867,1302,NA,NA,55123,1314,NA,NA,55234,55738,55110,55234,FlankerTaskKBowman,8,8802,15,yes,1024
56.25,56.25,582.3125,582.3125,black,no,legacy,legacy,legacy,0,congruent,uniform,1,undefined,1,h,0,0,0,15,15,0,15,0,15,0,0,0,15,15,15,15,Tue Sep 24 11:41:14 2019,1500,The main experiment item,yes,FlankerTaskKBowman.osexp,/Users/KrisBow/Dropbox/GradSchoolTarleton/Fall2019/AdvQuant/Lab2,no,mono,no,18,no,white,no,yes,768,legacy,15,15,/Users/KrisBow/Dropbox/GradSchoolTarleton/Fall2019/AdvQuant/Lab2/KB-subject-3-F48.csv,legacy,Kafkaesque Koffka,3.2.6,0,h,NA,h,NA,NA,h,515,NA,25129,NA,NA,515,2,legacy,1024,2,48000,-16,experiment,HHHHH,3,odd,26445,NA,NA,56262,55751,1302,NA,NA,57362,1314,NA,NA,57473,57989,57352,57473,FlankerTaskKBowman,9,9317,16,yes,1024
52.94117647,52.94117647,581.8823529,581.8823529,black,no,legacy,legacy,legacy,0,incongruent,uniform,0,undefined,0,h,0,0,0,16,16,0,16,0,16,0,0,0,16,16,16,16,Tue Sep 24 11:41:14 2019,1500,The main experiment item,yes,FlankerTaskKBowman.osexp,/Users/KrisBow/Dropbox/GradSchoolTarleton/Fall2019/AdvQuant/Lab2,no,mono,no,18,no,white,no,yes,768,legacy,16,16,/Users/KrisBow/Dropbox/GradSchoolTarleton/Fall2019/AdvQuant/Lab2/KB-subject-3-F48.csv,legacy,Kafkaesque Koffka,3.2.6,0,s,NA,h,NA,NA,s,575,NA,25129,NA,NA,575,2,legacy,1024,2,48000,-16,experiment,SSHSS,3,odd,26445,NA,NA,58001,55751,1302,NA,NA,59102,1314,NA,NA,59212,59788,59091,59212,FlankerTaskKBowman,9,9892,17,yes,1024
55.55555556,55.55555556,576.1111111,576.1111111,black,no,legacy,legacy,legacy,0,congruent,uniform,1,undefined,1,s,0,0,0,17,17,0,17,0,17,0,0,0,17,17,17,17,Tue Sep 24 11:41:14 2019,1500,The main experiment item,yes,FlankerTaskKBowman.osexp,/Users/KrisBow/Dropbox/GradSchoolTarleton/Fall2019/AdvQuant/Lab2,no,mono,no,18,no,white,no,yes,768,legacy,17,17,/Users/KrisBow/Dropbox/GradSchoolTarleton/Fall2019/AdvQuant/Lab2/KB-subject-3-F48.csv,legacy,Kafkaesque Koffka,3.2.6,0,s,NA,h,NA,NA,s,478,NA,25129,NA,NA,478,2,legacy,1024,2,48000,-16,experiment,SSSSS,3,odd,26445,NA,NA,60312,59801,1302,NA,NA,61412,1314,NA,NA,61522,62001,61402,61522,FlankerTaskKBowman,10,10370,18,yes,1024
57.89473684,57.89473684,571.5263158,571.5263158,black,no,legacy,legacy,legacy,0,congruent,uniform,1,undefined,1,h,0,0,0,18,18,0,18,0,18,0,0,0,18,18,18,18,Tue Sep 24 11:41:14 2019,1500,The main experiment item,yes,FlankerTaskKBowman.osexp,/Users/KrisBow/Dropbox/GradSchoolTarleton/Fall2019/AdvQuant/Lab2,no,mono,no,18,no,white,no,yes,768,legacy,18,18,/Users/KrisBow/Dropbox/GradSchoolTarleton/Fall2019/AdvQuant/Lab2/KB-subject-3-F48.csv,legacy,Kafkaesque Koffka,3.2.6,0,h,NA,h,NA,NA,h,489,NA,25129,NA,NA,489,2,legacy,1024,2,48000,-16,experiment,HHHHH,3,odd,26445,NA,NA,62013,59801,1302,NA,NA,63116,1314,NA,NA,63227,63717,63104,63226,FlankerTaskKBowman,11,10859,19,yes,1024
60,60,569.15,569.15,black,no,legacy,legacy,legacy,0,congruent,uniform,1,undefined,1,h,0,0,0,19,19,0,19,0,19,0,0,0,19,19,19,19,Tue Sep 24 11:41:14 2019,1500,The main experiment item,yes,FlankerTaskKBowman.osexp,/Users/KrisBow/Dropbox/GradSchoolTarleton/Fall2019/AdvQuant/Lab2,no,mono,no,18,no,white,no,yes,768,legacy,19,19,/Users/KrisBow/Dropbox/GradSchoolTarleton/Fall2019/AdvQuant/Lab2/KB-subject-3-F48.csv,legacy,Kafkaesque Koffka,3.2.6,0,h,NA,h,NA,NA,h,524,NA,25129,NA,NA,524,2,legacy,1024,2,48000,-16,experiment,HHHHH,3,odd,26445,NA,NA,63731,59801,1302,NA,NA,64833,1314,NA,NA,64944,65469,64821,64944,FlankerTaskKBowman,12,11383,20,yes,1024
61.9047619,61.9047619,563.9047619,563.9047619,black,no,legacy,legacy,legacy,0,congruent,uniform,1,undefined,1,h,0,0,0,20,20,0,20,0,20,0,0,0,20,20,20,20,Tue Sep 24 11:41:14 2019,1500,The main experiment item,yes,FlankerTaskKBowman.osexp,/Users/KrisBow/Dropbox/GradSchoolTarleton/Fall2019/AdvQuant/Lab2,no,mono,no,18,no,white,no,yes,768,legacy,20,20,/Users/KrisBow/Dropbox/GradSchoolTarleton/Fall2019/AdvQuant/Lab2/KB-subject-3-F48.csv,legacy,Kafkaesque Koffka,3.2.6,0,h,NA,h,NA,NA,h,459,NA,25129,NA,NA,459,2,legacy,1024,2,48000,-16,experiment,HHHHH,3,odd,26445,NA,NA,65482,59801,1302,NA,NA,66596,1314,NA,NA,66706,67166,66584,66705,FlankerTaskKBowman,13,11842,21,yes,1024
63.63636364,63.63636364,558.1363636,558.1363636,black,no,legacy,legacy,legacy,0,congruent,uniform,1,undefined,1,s,0,0,0,21,21,0,21,0,21,0,0,0,21,21,21,21,Tue Sep 24 11:41:14 2019,1500,The main experiment item,yes,FlankerTaskKBowman.osexp,/Users/KrisBow/Dropbox/GradSchoolTarleton/Fall2019/AdvQuant/Lab2,no,mono,no,18,no,white,no,yes,768,legacy,21,21,/Users/KrisBow/Dropbox/GradSchoolTarleton/Fall2019/AdvQuant/Lab2/KB-subject-3-F48.csv,legacy,Kafkaesque Koffka,3.2.6,0,s,NA,h,NA,NA,s,437,NA,25129,NA,NA,437,2,legacy,1024,2,48000,-16,experiment,SSSSS,3,odd,26445,NA,NA,67179,59801,1302,NA,NA,68280,1314,NA,NA,68391,68829,68269,68391,FlankerTaskKBowman,14,12279,22,yes,1024
65.2173913,65.2173913,554.3043478,554.3043478,black,no,legacy,legacy,legacy,0,congruent,uniform,1,undefined,1,s,0,0,0,22,22,0,22,0,22,0,0,0,22,22,22,22,Tue Sep 24 11:41:14 2019,1500,The main experiment item,yes,FlankerTaskKBowman.osexp,/Users/KrisBow/Dropbox/GradSchoolTarleton/Fall2019/AdvQuant/Lab2,no,mono,no,18,no,white,no,yes,768,legacy,22,22,/Users/KrisBow/Dropbox/GradSchoolTarleton/Fall2019/AdvQuant/Lab2/KB-subject-3-F48.csv,legacy,Kafkaesque Koffka,3.2.6,0,s,NA,h,NA,NA,s,470,NA,25129,NA,NA,470,2,legacy,1024,2,48000,-16,experiment,SSSSS,3,odd,26445,NA,NA,68842,59801,1302,NA,NA,69941,1314,NA,NA,70051,70522,69931,70051,FlankerTaskKBowman,15,12749,23,yes,1024
66.66666667,66.66666667,551.25,551.25,black,no,legacy,legacy,legacy,0,congruent,uniform,1,undefined,1,s,0,0,0,23,23,0,23,0,23,0,0,0,23,23,23,23,Tue Sep 24 11:41:14 2019,1500,The main experiment item,yes,FlankerTaskKBowman.osexp,/Users/KrisBow/Dropbox/GradSchoolTarleton/Fall2019/AdvQuant/Lab2,no,mono,no,18,no,white,no,yes,768,legacy,23,23,/Users/KrisBow/Dropbox/GradSchoolTarleton/Fall2019/AdvQuant/Lab2/KB-subject-3-F48.csv,legacy,Kafkaesque Koffka,3.2.6,0,s,NA,h,NA,NA,s,481,NA,25129,NA,NA,481,2,legacy,1024,2,48000,-16,experiment,SSSSS,3,odd,26445,NA,NA,70535,59801,1302,NA,NA,71636,1314,NA,NA,71747,72230,71625,71747,FlankerTaskKBowman,16,13230,24,yes,1024
64,64,546.52,546.52,black,no,legacy,legacy,legacy,0,incongruent,uniform,0,undefined,0,h,0,0,0,24,24,0,24,0,24,0,0,0,24,24,24,24,Tue Sep 24 11:41:14 2019,1500,The main experiment item,yes,FlankerTaskKBowman.osexp,/Users/KrisBow/Dropbox/GradSchoolTarleton/Fall2019/AdvQuant/Lab2,no,mono,no,18,no,white,no,yes,768,legacy,24,24,/Users/KrisBow/Dropbox/GradSchoolTarleton/Fall2019/AdvQuant/Lab2/KB-subject-3-F48.csv,legacy,Kafkaesque Koffka,3.2.6,0,s,NA,h,NA,NA,s,433,NA,25129,NA,NA,433,2,legacy,1024,2,48000,-16,experiment,SSHSS,3,odd,26445,NA,NA,72243,59801,1302,NA,NA,73343,1314,NA,NA,73454,73889,73333,73454,FlankerTaskKBowman,16,13663,25,yes,1024
61.53846154,61.53846154,545.3461538,545.3461538,black,no,legacy,legacy,legacy,0,incongruent,uniform,0,undefined,0,h,0,0,0,25,25,0,25,0,25,0,0,0,25,25,25,25,Tue Sep 24 11:41:14 2019,1500,The main experiment item,yes,FlankerTaskKBowman.osexp,/Users/KrisBow/Dropbox/GradSchoolTarleton/Fall2019/AdvQuant/Lab2,no,mono,no,18,no,white,no,yes,768,legacy,25,25,/Users/KrisBow/Dropbox/GradSchoolTarleton/Fall2019/AdvQuant/Lab2/KB-subject-3-F48.csv,legacy,Kafkaesque Koffka,3.2.6,0,s,NA,h,NA,NA,s,516,NA,25129,NA,NA,516,2,legacy,1024,2,48000,-16,experiment,SSHSS,3,odd,26445,NA,NA,74412,73901,1302,NA,NA,75512,1314,NA,NA,75624,76142,75503,75624,FlankerTaskKBowman,16,14179,26,yes,1024
59.25925926,59.25925926,539.6666667,539.6666667,black,no,legacy,legacy,legacy,0,incongruent,uniform,0,undefined,0,h,0,0,0,26,26,0,26,0,26,0,0,0,26,26,26,26,Tue Sep 24 11:41:14 2019,1500,The main experiment item,yes,FlankerTaskKBowman.osexp,/Users/KrisBow/Dropbox/GradSchoolTarleton/Fall2019/AdvQuant/Lab2,no,mono,no,18,no,white,no,yes,768,legacy,26,26,/Users/KrisBow/Dropbox/GradSchoolTarleton/Fall2019/AdvQuant/Lab2/KB-subject-3-F48.csv,legacy,Kafkaesque Koffka,3.2.6,0,s,NA,h,NA,NA,s,392,NA,25129,NA,NA,392,2,legacy,1024,2,48000,-16,experiment,SSHSS,3,odd,26445,NA,NA,76666,76154,1302,NA,NA,77766,1314,NA,NA,77877,78271,77756,77877,FlankerTaskKBowman,16,14571,27,yes,1024
60.71428571,60.71428571,540.4285714,540.4285714,black,no,legacy,legacy,legacy,0,incongruent,uniform,1,undefined,1,h,0,0,0,27,27,0,27,0,27,0,0,0,27,27,27,27,Tue Sep 24 11:41:14 2019,1500,The main experiment item,yes,FlankerTaskKBowman.osexp,/Users/KrisBow/Dropbox/GradSchoolTarleton/Fall2019/AdvQuant/Lab2,no,mono,no,18,no,white,no,yes,768,legacy,27,27,/Users/KrisBow/Dropbox/GradSchoolTarleton/Fall2019/AdvQuant/Lab2/KB-subject-3-F48.csv,legacy,Kafkaesque Koffka,3.2.6,0,h,NA,h,NA,NA,h,561,NA,25129,NA,NA,561,2,legacy,1024,2,48000,-16,experiment,SSHSS,3,odd,26445,NA,NA,78795,78284,1302,NA,NA,79896,1314,NA,NA,80006,80569,79886,80005,FlankerTaskKBowman,17,15132,28,yes,1024
58.62068966,58.62068966,539.2758621,539.2758621,black,no,legacy,legacy,legacy,0,incongruent,uniform,0,undefined,0,h,0,0,0,28,28,0,28,0,28,0,0,0,28,28,28,28,Tue Sep 24 11:41:14 2019,1500,The main experiment item,yes,FlankerTaskKBowman.osexp,/Users/KrisBow/Dropbox/GradSchoolTarleton/Fall2019/AdvQuant/Lab2,no,mono,no,18,no,white,no,yes,768,legacy,28,28,/Users/KrisBow/Dropbox/GradSchoolTarleton/Fall2019/AdvQuant/Lab2/KB-subject-3-F48.csv,legacy,Kafkaesque Koffka,3.2.6,0,s,NA,h,NA,NA,s,507,NA,25129,NA,NA,507,2,legacy,1024,2,48000,-16,experiment,SSHSS,3,odd,26445,NA,NA,80583,78284,1302,NA,NA,81684,1314,NA,NA,81794,82303,81673,81794,FlankerTaskKBowman,17,15639,29,yes,1024
60,60,536.1,536.1,black,no,legacy,legacy,legacy,0,congruent,uniform,1,undefined,1,h,0,0,0,29,29,0,29,0,29,0,0,0,29,29,29,29,Tue Sep 24 11:41:14 2019,1500,The main experiment item,yes,FlankerTaskKBowman.osexp,/Users/KrisBow/Dropbox/GradSchoolTarleton/Fall2019/AdvQuant/Lab2,no,mono,no,18,no,white,no,yes,768,legacy,29,29,/Users/KrisBow/Dropbox/GradSchoolTarleton/Fall2019/AdvQuant/Lab2/KB-subject-3-F48.csv,legacy,Kafkaesque Koffka,3.2.6,0,h,NA,h,NA,NA,h,444,NA,25129,NA,NA,444,2,legacy,1024,2,48000,-16,experiment,HHHHH,3,odd,26445,NA,NA,82827,82316,1302,NA,NA,83927,1314,NA,NA,84038,84484,83917,84038,FlankerTaskKBowman,18,16083,30,yes,1024
58.06451613,58.06451613,536.5483871,536.5483871,black,no,legacy,legacy,legacy,0,incongruent,uniform,0,undefined,0,h,0,0,0,30,30,0,30,0,30,0,0,0,30,30,30,30,Tue Sep 24 11:41:14 2019,1500,The main experiment item,yes,FlankerTaskKBowman.osexp,/Users/KrisBow/Dropbox/GradSchoolTarleton/Fall2019/AdvQuant/Lab2,no,mono,no,18,no,white,no,yes,768,legacy,30,30,/Users/KrisBow/Dropbox/GradSchoolTarleton/Fall2019/AdvQuant/Lab2/KB-subject-3-F48.csv,legacy,Kafkaesque Koffka,3.2.6,0,s,NA,h,NA,NA,s,550,NA,25129,NA,NA,550,2,legacy,1024,2,48000,-16,experiment,SSHSS,3,odd,26445,NA,NA,84497,82316,1302,NA,NA,85596,1314,NA,NA,85707,86259,85586,85707,FlankerTaskKBowman,18,16633,31,yes,1024
56.25,56.25,537.59375,537.59375,black,no,legacy,legacy,legacy,0,incongruent,uniform,0,undefined,0,s,0,0,0,31,31,0,31,0,31,0,0,0,31,31,31,31,Tue Sep 24 11:41:14 2019,1500,The main experiment item,yes,FlankerTaskKBowman.osexp,/Users/KrisBow/Dropbox/GradSchoolTarleton/Fall2019/AdvQuant/Lab2,no,mono,no,18,no,white,no,yes,768,legacy,31,31,/Users/KrisBow/Dropbox/GradSchoolTarleton/Fall2019/AdvQuant/Lab2/KB-subject-3-F48.csv,legacy,Kafkaesque Koffka,3.2.6,0,h,NA,h,NA,NA,h,570,NA,25129,NA,NA,570,2,legacy,1024,2,48000,-16,experiment,HHSHH,3,odd,26445,NA,NA,86782,86272,1302,NA,NA,87891,1314,NA,NA,88001,88573,87881,88001,FlankerTaskKBowman,18,17203,32,yes,1024
54.54545455,54.54545455,536.3030303,536.3030303,black,no,legacy,legacy,legacy,0,congruent,uniform,0,undefined,0,h,0,0,0,32,32,0,32,0,32,0,0,0,32,32,32,32,Tue Sep 24 11:41:14 2019,1500,The main experiment item,yes,FlankerTaskKBowman.osexp,/Users/KrisBow/Dropbox/GradSchoolTarleton/Fall2019/AdvQuant/Lab2,no,mono,no,18,no,white,no,yes,768,legacy,32,32,/Users/KrisBow/Dropbox/GradSchoolTarleton/Fall2019/AdvQuant/Lab2/KB-subject-3-F48.csv,legacy,Kafkaesque Koffka,3.2.6,0,s,NA,h,NA,NA,s,495,NA,25129,NA,NA,495,2,legacy,1024,2,48000,-16,experiment,HHHHH,3,odd,26445,NA,NA,89097,88586,1302,NA,NA,90197,1314,NA,NA,90309,90806,90187,90308,FlankerTaskKBowman,18,17698,33,yes,1024
52.94117647,52.94117647,535.7941176,535.7941176,black,no,legacy,legacy,legacy,0,incongruent,uniform,0,undefined,0,s,0,0,0,33,33,0,33,0,33,0,0,0,33,33,33,33,Tue Sep 24 11:41:14 2019,1500,The main experiment item,yes,FlankerTaskKBowman.osexp,/Users/KrisBow/Dropbox/GradSchoolTarleton/Fall2019/AdvQuant/Lab2,no,mono,no,18,no,white,no,yes,768,legacy,33,33,/Users/KrisBow/Dropbox/GradSchoolTarleton/Fall2019/AdvQuant/Lab2/KB-subject-3-F48.csv,legacy,Kafkaesque Koffka,3.2.6,0,h,NA,h,NA,NA,h,519,NA,25129,NA,NA,519,2,legacy,1024,2,48000,-16,experiment,HHSHH,3,odd,26445,NA,NA,91328,90818,1302,NA,NA,92428,1314,NA,NA,92539,93060,92418,92539,FlankerTaskKBowman,18,18217,34,yes,1024
54.28571429,54.28571429,541.2,541.2,black,no,legacy,legacy,legacy,0,congruent,uniform,1,undefined,1,h,0,0,0,34,34,0,34,0,34,0,0,0,34,34,34,34,Tue Sep 24 11:41:14 2019,1500,The main experiment item,yes,FlankerTaskKBowman.osexp,/Users/KrisBow/Dropbox/GradSchoolTarleton/Fall2019/AdvQuant/Lab2,no,mono,no,18,no,white,no,yes,768,legacy,34,34,/Users/KrisBow/Dropbox/GradSchoolTarleton/Fall2019/AdvQuant/Lab2/KB-subject-3-F48.csv,legacy,Kafkaesque Koffka,3.2.6,0,h,NA,h,NA,NA,h,725,NA,25129,NA,NA,725,2,legacy,1024,2,48000,-16,experiment,HHHHH,3,odd,26445,NA,NA,93583,93072,1302,NA,NA,94684,1314,NA,NA,94795,95522,94674,94795,FlankerTaskKBowman,19,18942,35,yes,1024
52.77777778,52.77777778,567.8333333,567.8333333,black,no,legacy,legacy,legacy,0,incongruent,uniform,0,undefined,0,s,0,0,0,35,35,0,35,0,35,0,0,0,35,35,35,35,Tue Sep 24 11:41:14 2019,1500,The main experiment item,yes,FlankerTaskKBowman.osexp,/Users/KrisBow/Dropbox/GradSchoolTarleton/Fall2019/AdvQuant/Lab2,no,mono,no,18,no,white,no,yes,768,legacy,35,35,/Users/KrisBow/Dropbox/GradSchoolTarleton/Fall2019/AdvQuant/Lab2/KB-subject-3-F48.csv,legacy,Kafkaesque Koffka,3.2.6,0,None,NA,h,NA,NA,None,1500,NA,25129,NA,NA,1500,2,legacy,1024,2,48000,-16,experiment,HHSHH,3,odd,26445,NA,NA,95538,93072,1302,NA,NA,96638,1314,NA,NA,96749,98249,96627,96749,FlankerTaskKBowman,19,20442,36,yes,1024
51.35135135,51.35135135,593.027027,593.027027,black,no,legacy,legacy,legacy,0,congruent,uniform,0,undefined,0,s,0,0,0,36,36,0,36,0,36,0,0,0,36,36,36,36,Tue Sep 24 11:41:14 2019,1500,The main experiment item,yes,FlankerTaskKBowman.osexp,/Users/KrisBow/Dropbox/GradSchoolTarleton/Fall2019/AdvQuant/Lab2,no,mono,no,18,no,white,no,yes,768,legacy,36,36,/Users/KrisBow/Dropbox/GradSchoolTarleton/Fall2019/AdvQuant/Lab2/KB-subject-3-F48.csv,legacy,Kafkaesque Koffka,3.2.6,0,None,NA,h,NA,NA,None,1500,NA,25129,NA,NA,1500,2,legacy,1024,2,48000,-16,experiment,SSSSS,3,odd,26445,NA,NA,98772,98262,1302,NA,NA,99872,1314,NA,NA,99983,101483,99861,99982,FlankerTaskKBowman,19,21942,37,yes,1024
50,50,616.8947368,616.8947368,black,no,legacy,legacy,legacy,0,incongruent,uniform,0,undefined,0,h,0,0,0,37,37,0,37,0,37,0,0,0,37,37,37,37,Tue Sep 24 11:41:14 2019,1500,The main experiment item,yes,FlankerTaskKBowman.osexp,/Users/KrisBow/Dropbox/GradSchoolTarleton/Fall2019/AdvQuant/Lab2,no,mono,no,18,no,white,no,yes,768,legacy,37,37,/Users/KrisBow/Dropbox/GradSchoolTarleton/Fall2019/AdvQuant/Lab2/KB-subject-3-F48.csv,legacy,Kafkaesque Koffka,3.2.6,0,None,NA,h,NA,NA,None,1500,NA,25129,NA,NA,1500,2,legacy,1024,2,48000,-16,experiment,SSHSS,3,odd,26445,NA,NA,102005,101496,1302,NA,NA,103106,1314,NA,NA,103216,104716,103095,103216,FlankerTaskKBowman,19,23442,38,yes,1024
48.71794872,48.71794872,639.5384615,639.5384615,black,no,legacy,legacy,legacy,0,congruent,uniform,0,undefined,0,s,0,0,0,38,38,0,38,0,38,0,0,0,38,38,38,38,Tue Sep 24 11:41:14 2019,1500,The main experiment item,yes,FlankerTaskKBowman.osexp,/Users/KrisBow/Dropbox/GradSchoolTarleton/Fall2019/AdvQuant/Lab2,no,mono,no,18,no,white,no,yes,768,legacy,38,38,/Users/KrisBow/Dropbox/GradSchoolTarleton/Fall2019/AdvQuant/Lab2/KB-subject-3-F48.csv,legacy,Kafkaesque Koffka,3.2.6,0,None,NA,h,NA,NA,None,1500,NA,25129,NA,NA,1500,2,legacy,1024,2,48000,-16,experiment,SSSSS,3,odd,26445,NA,NA,105241,104729,1302,NA,NA,106341,1314,NA,NA,106451,107951,106331,106451,FlankerTaskKBowman,19,24942,39,yes,1024
47.5,47.5,661.05,661.05,black,no,legacy,legacy,legacy,0,incongruent,uniform,0,undefined,0,h,0,0,0,39,39,0,39,0,39,0,0,0,39,39,39,39,Tue Sep 24 11:41:14 2019,1500,The main experiment item,yes,FlankerTaskKBowman.osexp,/Users/KrisBow/Dropbox/GradSchoolTarleton/Fall2019/AdvQuant/Lab2,no,mono,no,18,no,white,no,yes,768,legacy,39,39,/Users/KrisBow/Dropbox/GradSchoolTarleton/Fall2019/AdvQuant/Lab2/KB-subject-3-F48.csv,legacy,Kafkaesque Koffka,3.2.6,0,None,NA,h,NA,NA,None,1500,NA,25129,NA,NA,1500,2,legacy,1024,2,48000,-16,experiment,SSHSS,3,odd,26445,NA,NA,108474,107964,1302,NA,NA,109576,1314,NA,NA,109688,111188,109566,109688,FlankerTaskKBowman,19,26442,40,yes,1024
46.34146341,46.34146341,681.5121951,681.5121951,black,no,legacy,legacy,legacy,0,incongruent,uniform,0,undefined,0,h,0,0,0,40,40,0,40,0,40,0,0,0,40,40,40,40,Tue Sep 24 11:41:14 2019,1500,The main experiment item,yes,FlankerTaskKBowman.osexp,/Users/KrisBow/Dropbox/GradSchoolTarleton/Fall2019/AdvQuant/Lab2,no,mono,no,18,no,white,no,yes,768,legacy,40,40,/Users/KrisBow/Dropbox/GradSchoolTarleton/Fall2019/AdvQuant/Lab2/KB-subject-3-F48.csv,legacy,Kafkaesque Koffka,3.2.6,0,None,NA,h,NA,NA,None,1500,NA,25129,NA,NA,1500,2,legacy,1024,2,48000,-16,experiment,SSHSS,3,odd,26445,NA,NA,111712,111201,1302,NA,NA,112811,1314,NA,NA,112923,114423,112801,112922,FlankerTaskKBowman,19,27942,41,yes,1024
45.23809524,45.23809524,697.9761905,697.9761905,black,no,legacy,legacy,legacy,0,incongruent,uniform,0,undefined,0,h,0,0,0,41,41,0,41,0,41,0,0,0,41,41,41,41,Tue Sep 24 11:41:14 2019,1500,The main experiment item,yes,FlankerTaskKBowman.osexp,/Users/KrisBow/Dropbox/GradSchoolTarleton/Fall2019/AdvQuant/Lab2,no,mono,no,18,no,white,no,yes,768,legacy,41,41,/Users/KrisBow/Dropbox/GradSchoolTarleton/Fall2019/AdvQuant/Lab2/KB-subject-3-F48.csv,legacy,Kafkaesque Koffka,3.2.6,0,s,NA,h,NA,NA,s,1373,NA,25129,NA,NA,1373,2,legacy,1024,2,48000,-16,experiment,SSHSS,3,odd,26445,NA,NA,114947,114436,1302,NA,NA,116047,1314,NA,NA,116158,117532,116037,116157,FlankerTaskKBowman,19,29315,42,yes,1024
44.18604651,44.18604651,702.6046512,702.6046512,black,no,legacy,legacy,legacy,0,incongruent,uniform,0,undefined,0,s,0,0,0,42,42,0,42,0,42,0,0,0,42,42,42,42,Tue Sep 24 11:41:14 2019,1500,The main experiment item,yes,FlankerTaskKBowman.osexp,/Users/KrisBow/Dropbox/GradSchoolTarleton/Fall2019/AdvQuant/Lab2,no,mono,no,18,no,white,no,yes,768,legacy,42,42,/Users/KrisBow/Dropbox/GradSchoolTarleton/Fall2019/AdvQuant/Lab2/KB-subject-3-F48.csv,legacy,Kafkaesque Koffka,3.2.6,0,h,NA,h,NA,NA,h,897,NA,25129,NA,NA,897,2,legacy,1024,2,48000,-16,experiment,HHSHH,3,odd,26445,NA,NA,118056,117545,1302,NA,NA,119156,1314,NA,NA,119267,120166,119146,119266,FlankerTaskKBowman,19,30212,43,yes,1024
45.45454545,45.45454545,701.6818182,701.6818182,black,no,legacy,legacy,legacy,0,incongruent,uniform,1,undefined,1,h,0,0,0,43,43,0,43,0,43,0,0,0,43,43,43,43,Tue Sep 24 11:41:14 2019,1500,The main experiment item,yes,FlankerTaskKBowman.osexp,/Users/KrisBow/Dropbox/GradSchoolTarleton/Fall2019/AdvQuant/Lab2,no,mono,no,18,no,white,no,yes,768,legacy,43,43,/Users/KrisBow/Dropbox/GradSchoolTarleton/Fall2019/AdvQuant/Lab2/KB-subject-3-F48.csv,legacy,Kafkaesque Koffka,3.2.6,0,h,NA,h,NA,NA,h,662,NA,25129,NA,NA,662,2,legacy,1024,2,48000,-16,experiment,SSHSS,3,odd,26445,NA,NA,120690,120179,1302,NA,NA,121790,1314,NA,NA,121901,122565,121779,121901,FlankerTaskKBowman,20,30874,44,yes,1024
46.66666667,46.66666667,700.9777778,700.9777778,black,no,legacy,legacy,legacy,0,congruent,uniform,1,undefined,1,h,0,0,0,44,44,0,44,0,44,0,0,0,44,44,44,44,Tue Sep 24 11:41:14 2019,1500,The main experiment item,yes,FlankerTaskKBowman.osexp,/Users/KrisBow/Dropbox/GradSchoolTarleton/Fall2019/AdvQuant/Lab2,no,mono,no,18,no,white,no,yes,768,legacy,44,44,/Users/KrisBow/Dropbox/GradSchoolTarleton/Fall2019/AdvQuant/Lab2/KB-subject-3-F48.csv,legacy,Kafkaesque Koffka,3.2.6,0,h,NA,h,NA,NA,h,670,NA,25129,NA,NA,670,2,legacy,1024,2,48000,-16,experiment,HHHHH,3,odd,26445,NA,NA,122578,120179,1302,NA,NA,123680,1314,NA,NA,123790,124461,123669,123790,FlankerTaskKBowman,21,31544,45,yes,1024
47.82608696,47.82608696,695.5434783,695.5434783,black,no,legacy,legacy,legacy,0,congruent,uniform,1,undefined,1,h,0,0,0,45,45,0,45,0,45,0,0,0,45,45,45,45,Tue Sep 24 11:41:14 2019,1500,The main experiment item,yes,FlankerTaskKBowman.osexp,/Users/KrisBow/Dropbox/GradSchoolTarleton/Fall2019/AdvQuant/Lab2,no,mono,no,18,no,white,no,yes,768,legacy,45,45,/Users/KrisBow/Dropbox/GradSchoolTarleton/Fall2019/AdvQuant/Lab2/KB-subject-3-F48.csv,legacy,Kafkaesque Koffka,3.2.6,0,h,NA,h,NA,NA,h,451,NA,25129,NA,NA,451,2,legacy,1024,2,48000,-16,experiment,HHHHH,3,odd,26445,NA,NA,124474,120179,1302,NA,NA,125576,1314,NA,NA,125687,126139,125565,125687,FlankerTaskKBowman,22,31995,46,yes,1024
46.80851064,46.80851064,692.3617021,692.3617021,black,no,legacy,legacy,legacy,0,incongruent,uniform,0,undefined,0,s,0,0,0,46,46,0,46,0,46,0,0,0,46,46,46,46,Tue Sep 24 11:41:14 2019,1500,The main experiment item,yes,FlankerTaskKBowman.osexp,/Users/KrisBow/Dropbox/GradSchoolTarleton/Fall2019/AdvQuant/Lab2,no,mono,no,18,no,white,no,yes,768,legacy,46,46,/Users/KrisBow/Dropbox/GradSchoolTarleton/Fall2019/AdvQuant/Lab2/KB-subject-3-F48.csv,legacy,Kafkaesque Koffka,3.2.6,0,h,NA,h,NA,NA,h,546,NA,25129,NA,NA,546,2,legacy,1024,2,48000,-16,experiment,HHSHH,3,odd,26445,NA,NA,126152,120179,1302,NA,NA,127252,1314,NA,NA,127363,127910,127241,127362,FlankerTaskKBowman,22,32541,47,yes,1024
47.91666667,47.91666667,695.0625,695.0625,black,no,legacy,legacy,legacy,0,incongruent,uniform,1,undefined,1,s,0,0,0,47,47,0,47,0,47,0,0,0,47,47,47,47,Tue Sep 24 11:41:14 2019,1500,The main experiment item,yes,FlankerTaskKBowman.osexp,/Users/KrisBow/Dropbox/GradSchoolTarleton/Fall2019/AdvQuant/Lab2,no,mono,no,18,no,white,no,yes,768,legacy,47,47,/Users/KrisBow/Dropbox/GradSchoolTarleton/Fall2019/AdvQuant/Lab2/KB-subject-3-F48.csv,legacy,Kafkaesque Koffka,3.2.6,0,s,NA,h,NA,NA,s,822,NA,25129,NA,NA,822,2,legacy,1024,2,48000,-16,experiment,HHSHH,3,odd,26445,NA,NA,128434,127923,1302,NA,NA,129548,1314,NA,NA,129659,130483,129536,129659,FlankerTaskKBowman,23,33363,48,yes,1024
48.97959184,48.97959184,691.9387755,691.9387755,black,no,legacy,legacy,legacy,0,congruent,uniform,1,undefined,1,h,0,0,0,48,48,0,48,0,48,0,0,0,48,48,48,48,Tue Sep 24 11:41:14 2019,1500,The main experiment item,yes,FlankerTaskKBowman.osexp,/Users/KrisBow/Dropbox/GradSchoolTarleton/Fall2019/AdvQuant/Lab2,no,mono,no,18,no,white,no,yes,768,legacy,48,48,/Users/KrisBow/Dropbox/GradSchoolTarleton/Fall2019/AdvQuant/Lab2/KB-subject-3-F48.csv,legacy,Kafkaesque Koffka,3.2.6,0,h,NA,h,NA,NA,h,542,NA,25129,NA,NA,542,2,legacy,1024,2,48000,-16,experiment,HHHHH,3,odd,26445,NA,NA,130495,127923,1302,NA,NA,131595,1314,NA,NA,131707,132251,131585,131706,FlankerTaskKBowman,24,33905,49,yes,1024
50,50,688.4,688.4,black,no,legacy,legacy,legacy,0,incongruent,uniform,1,undefined,1,s,0,0,0,49,49,0,49,0,49,0,0,0,49,49,49,49,Tue Sep 24 11:41:14 2019,1500,The main experiment item,yes,FlankerTaskKBowman.osexp,/Users/KrisBow/Dropbox/GradSchoolTarleton/Fall2019/AdvQuant/Lab2,no,mono,no,18,no,white,no,yes,768,legacy,49,49,/Users/KrisBow/Dropbox/GradSchoolTarleton/Fall2019/AdvQuant/Lab2/KB-subject-3-F48.csv,legacy,Kafkaesque Koffka,3.2.6,0,s,NA,h,NA,NA,s,515,NA,25129,NA,NA,515,2,legacy,1024,2,48000,-16,experiment,HHSHH,3,odd,26445,NA,NA,132263,127923,1302,NA,NA,133363,1314,NA,NA,133475,133992,133353,133474,FlankerTaskKBowman,25,34420,50,yes,1024
50.98039216,50.98039216,682.9019608,682.9019608,black,no,legacy,legacy,legacy,0,congruent,uniform,1,undefined,1,h,0,0,0,50,50,0,50,0,50,0,0,0,50,50,50,50,Tue Sep 24 11:41:14 2019,1500,The main experiment item,yes,FlankerTaskKBowman.osexp,/Users/KrisBow/Dropbox/GradSchoolTarleton/Fall2019/AdvQuant/Lab2,no,mono,no,18,no,white,no,yes,768,legacy,50,50,/Users/KrisBow/Dropbox/GradSchoolTarleton/Fall2019/AdvQuant/Lab2/KB-subject-3-F48.csv,legacy,Kafkaesque Koffka,3.2.6,0,h,NA,h,NA,NA,h,408,NA,25129,NA,NA,408,2,legacy,1024,2,48000,-16,experiment,HHHHH,3,odd,26445,NA,NA,134004,127923,1302,NA,NA,135103,1314,NA,NA,135214,135624,135093,135214,FlankerTaskKBowman,26,34828,51,yes,1024
51.92307692,51.92307692,677.4807692,677.4807692,black,no,legacy,legacy,legacy,0,congruent,uniform,1,undefined,1,s,0,0,0,51,51,0,51,0,51,0,0,0,51,51,51,51,Tue Sep 24 11:41:14 2019,1500,The main experiment item,yes,FlankerTaskKBowman.osexp,/Users/KrisBow/Dropbox/GradSchoolTarleton/Fall2019/AdvQuant/Lab2,no,mono,no,18,no,white,no,yes,768,legacy,51,51,/Users/KrisBow/Dropbox/GradSchoolTarleton/Fall2019/AdvQuant/Lab2/KB-subject-3-F48.csv,legacy,Kafkaesque Koffka,3.2.6,0,s,NA,h,NA,NA,s,401,NA,25129,NA,NA,401,2,legacy,1024,2,48000,-16,experiment,SSSSS,3,odd,26445,NA,NA,135636,127923,1302,NA,NA,136736,1314,NA,NA,136847,137250,136726,136847,FlankerTaskKBowman,27,35229,52,yes,1024
52.83018868,52.83018868,674.4528302,674.4528302,black,no,legacy,legacy,legacy,0,congruent,uniform,1,undefined,1,s,0,0,0,52,52,0,52,0,52,0,0,0,52,52,52,52,Tue Sep 24 11:41:14 2019,1500,The main experiment item,yes,FlankerTaskKBowman.osexp,/Users/KrisBow/Dropbox/GradSchoolTarleton/Fall2019/AdvQuant/Lab2,no,mono,no,18,no,white,no,yes,768,legacy,52,52,/Users/KrisBow/Dropbox/GradSchoolTarleton/Fall2019/AdvQuant/Lab2/KB-subject-3-F48.csv,legacy,Kafkaesque Koffka,3.2.6,0,s,NA,h,NA,NA,s,517,NA,25129,NA,NA,517,2,legacy,1024,2,48000,-16,experiment,SSSSS,3,odd,26445,NA,NA,137262,127923,1302,NA,NA,138362,1314,NA,NA,138473,138992,138352,138472,FlankerTaskKBowman,28,35746,53,yes,1024
53.7037037,53.7037037,668.1666667,668.1666667,black,no,legacy,legacy,legacy,0,congruent,uniform,1,undefined,1,h,0,0,0,53,53,0,53,0,53,0,0,0,53,53,53,53,Tue Sep 24 11:41:14 2019,1500,The main experiment item,yes,FlankerTaskKBowman.osexp,/Users/KrisBow/Dropbox/GradSchoolTarleton/Fall2019/AdvQuant/Lab2,no,mono,no,18,no,white,no,yes,768,legacy,53,53,/Users/KrisBow/Dropbox/GradSchoolTarleton/Fall2019/AdvQuant/Lab2/KB-subject-3-F48.csv,legacy,Kafkaesque Koffka,3.2.6,0,h,NA,h,NA,NA,h,335,NA,25129,NA,NA,335,2,legacy,1024,2,48000,-16,experiment,HHHHH,3,odd,26445,NA,NA,139003,127923,1302,NA,NA,140103,1314,NA,NA,140214,140551,140093,140213,FlankerTaskKBowman,29,36081,54,yes,1024
54.54545455,54.54545455,666.0181818,666.0181818,black,no,legacy,legacy,legacy,0,incongruent,uniform,1,undefined,1,h,0,0,0,54,54,0,54,0,54,0,0,0,54,54,54,54,Tue Sep 24 11:41:14 2019,1500,The main experiment item,yes,FlankerTaskKBowman.osexp,/Users/KrisBow/Dropbox/GradSchoolTarleton/Fall2019/AdvQuant/Lab2,no,mono,no,18,no,white,no,yes,768,legacy,54,54,/Users/KrisBow/Dropbox/GradSchoolTarleton/Fall2019/AdvQuant/Lab2/KB-subject-3-F48.csv,legacy,Kafkaesque Koffka,3.2.6,0,h,NA,h,NA,NA,h,550,NA,25129,NA,NA,550,2,legacy,1024,2,48000,-16,experiment,SSHSS,3,odd,26445,NA,NA,140563,127923,1302,NA,NA,141665,1314,NA,NA,141776,142328,141654,141776,FlankerTaskKBowman,30,36631,55,yes,1024
53.57142857,53.57142857,663.9107143,663.9107143,black,no,legacy,legacy,legacy,0,incongruent,uniform,0,undefined,0,s,0,0,0,55,55,0,55,0,55,0,0,0,55,55,55,55,Tue Sep 24 11:41:14 2019,1500,The main experiment item,yes,FlankerTaskKBowman.osexp,/Users/KrisBow/Dropbox/GradSchoolTarleton/Fall2019/AdvQuant/Lab2,no,mono,no,18,no,white,no,yes,768,legacy,55,55,/Users/KrisBow/Dropbox/GradSchoolTarleton/Fall2019/AdvQuant/Lab2/KB-subject-3-F48.csv,legacy,Kafkaesque Koffka,3.2.6,0,h,NA,h,NA,NA,h,548,NA,25129,NA,NA,548,2,legacy,1024,2,48000,-16,experiment,HHSHH,3,odd,26445,NA,NA,142341,127923,1302,NA,NA,143441,1314,NA,NA,143552,144102,143431,143552,FlankerTaskKBowman,30,37179,56,yes,1024
54.38596491,54.38596491,666.4385965,666.4385965,black,no,legacy,legacy,legacy,0,incongruent,uniform,1,undefined,1,h,0,0,0,56,56,0,56,0,56,0,0,0,56,56,56,56,Tue Sep 24 11:41:14 2019,1500,The main experiment item,yes,FlankerTaskKBowman.osexp,/Users/KrisBow/Dropbox/GradSchoolTarleton/Fall2019/AdvQuant/Lab2,no,mono,no,18,no,white,no,yes,768,legacy,56,56,/Users/KrisBow/Dropbox/GradSchoolTarleton/Fall2019/AdvQuant/Lab2/KB-subject-3-F48.csv,legacy,Kafkaesque Koffka,3.2.6,0,h,NA,h,NA,NA,h,808,NA,25129,NA,NA,808,2,legacy,1024,2,48000,-16,experiment,SSHSS,3,odd,26445,NA,NA,144628,144114,1302,NA,NA,145730,1314,NA,NA,145840,146650,145719,145840,FlankerTaskKBowman,31,37987,57,yes,1024
55.17241379,55.17241379,661.6724138,661.6724138,black,no,legacy,legacy,legacy,0,congruent,uniform,1,undefined,1,s,0,0,0,57,57,0,57,0,57,0,0,0,57,57,57,57,Tue Sep 24 11:41:14 2019,1500,The main experiment item,yes,FlankerTaskKBowman.osexp,/Users/KrisBow/Dropbox/GradSchoolTarleton/Fall2019/AdvQuant/Lab2,no,mono,no,18,no,white,no,yes,768,legacy,57,57,/Users/KrisBow/Dropbox/GradSchoolTarleton/Fall2019/AdvQuant/Lab2/KB-subject-3-F48.csv,legacy,Kafkaesque Koffka,3.2.6,0,s,NA,h,NA,NA,s,390,NA,25129,NA,NA,390,2,legacy,1024,2,48000,-16,experiment,SSSSS,3,odd,26445,NA,NA,146663,144114,1302,NA,NA,147763,1314,NA,NA,147874,148266,147753,147873,FlankerTaskKBowman,32,38377,58,yes,1024
55.93220339,55.93220339,658.1186441,658.1186441,black,no,legacy,legacy,legacy,0,congruent,uniform,1,undefined,1,h,0,0,0,58,58,0,58,0,58,0,0,0,58,58,58,58,Tue Sep 24 11:41:14 2019,1500,The main experiment item,yes,FlankerTaskKBowman.osexp,/Users/KrisBow/Dropbox/GradSchoolTarleton/Fall2019/AdvQuant/Lab2,no,mono,no,18,no,white,no,yes,768,legacy,58,58,/Users/KrisBow/Dropbox/GradSchoolTarleton/Fall2019/AdvQuant/Lab2/KB-subject-3-F48.csv,legacy,Kafkaesque Koffka,3.2.6,0,h,NA,h,NA,NA,h,452,NA,25129,NA,NA,452,2,legacy,1024,2,48000,-16,experiment,HHHHH,3,odd,26445,NA,NA,148279,144114,1302,NA,NA,149379,1314,NA,NA,149490,149944,149369,149490,FlankerTaskKBowman,33,38829,59,yes,1024
56.66666667,56.66666667,657.25,657.25,black,no,legacy,legacy,legacy,0,incongruent,uniform,1,undefined,1,s,0,0,0,59,59,0,59,0,59,0,0,0,59,59,59,59,Tue Sep 24 11:41:14 2019,1500,The main experiment item,yes,FlankerTaskKBowman.osexp,/Users/KrisBow/Dropbox/GradSchoolTarleton/Fall2019/AdvQuant/Lab2,no,mono,no,18,no,white,no,yes,768,legacy,59,59,/Users/KrisBow/Dropbox/GradSchoolTarleton/Fall2019/AdvQuant/Lab2/KB-subject-3-F48.csv,legacy,Kafkaesque Koffka,3.2.6,0,s,NA,h,NA,NA,s,606,NA,25129,NA,NA,606,2,legacy,1024,2,48000,-16,experiment,HHSHH,3,odd,26445,NA,NA,149957,144114,1302,NA,NA,151057,1314,NA,NA,151168,151776,151047,151167,FlankerTaskKBowman,34,39435,60,yes,1024
55.73770492,55.73770492,653.1311475,653.1311475,black,no,legacy,legacy,legacy,0,incongruent,uniform,0,undefined,0,s,0,0,0,60,60,0,60,0,60,0,0,0,60,60,60,60,Tue Sep 24 11:41:14 2019,1500,The main experiment item,yes,FlankerTaskKBowman.osexp,/Users/KrisBow/Dropbox/GradSchoolTarleton/Fall2019/AdvQuant/Lab2,no,mono,no,18,no,white,no,yes,768,legacy,60,60,/Users/KrisBow/Dropbox/GradSchoolTarleton/Fall2019/AdvQuant/Lab2/KB-subject-3-F48.csv,legacy,Kafkaesque Koffka,3.2.6,0,h,NA,h,NA,NA,h,406,NA,25129,NA,NA,406,2,legacy,1024,2,48000,-16,experiment,HHSHH,3,odd,26445,NA,NA,151789,144114,1302,NA,NA,152889,1314,NA,NA,153000,153408,152878,153000,FlankerTaskKBowman,34,39841,61,yes,1024
56.4516129,56.4516129,651.7258065,651.7258065,black,no,legacy,legacy,legacy,0,incongruent,uniform,1,undefined,1,h,0,0,0,61,61,0,61,0,61,0,0,0,61,61,61,61,Tue Sep 24 11:41:14 2019,1500,The main experiment item,yes,FlankerTaskKBowman.osexp,/Users/KrisBow/Dropbox/GradSchoolTarleton/Fall2019/AdvQuant/Lab2,no,mono,no,18,no,white,no,yes,768,legacy,61,61,/Users/KrisBow/Dropbox/GradSchoolTarleton/Fall2019/AdvQuant/Lab2/KB-subject-3-F48.csv,legacy,Kafkaesque Koffka,3.2.6,0,h,NA,h,NA,NA,h,566,NA,25129,NA,NA,566,2,legacy,1024,2,48000,-16,experiment,SSHSS,3,odd,26445,NA,NA,153932,153420,1302,NA,NA,155030,1314,NA,NA,155142,155710,155020,155142,FlankerTaskKBowman,35,40407,62,yes,1024
57.14285714,57.14285714,648.8888889,648.8888889,black,no,legacy,legacy,legacy,0,incongruent,uniform,1,undefined,1,s,0,0,0,62,62,0,62,0,62,0,0,0,62,62,62,62,Tue Sep 24 11:41:14 2019,1500,The main experiment item,yes,FlankerTaskKBowman.osexp,/Users/KrisBow/Dropbox/GradSchoolTarleton/Fall2019/AdvQuant/Lab2,no,mono,no,18,no,white,no,yes,768,legacy,62,62,/Users/KrisBow/Dropbox/GradSchoolTarleton/Fall2019/AdvQuant/Lab2/KB-subject-3-F48.csv,legacy,Kafkaesque Koffka,3.2.6,0,s,NA,h,NA,NA,s,473,NA,25129,NA,NA,473,2,legacy,1024,2,48000,-16,experiment,HHSHH,3,odd,26445,NA,NA,155723,153420,1302,NA,NA,156824,1314,NA,NA,156935,157410,156814,156935,FlankerTaskKBowman,36,40880,63,yes,1024
57.8125,57.8125,648.171875,648.171875,black,no,legacy,legacy,legacy,0,congruent,uniform,1,undefined,1,h,0,0,0,63,63,0,63,0,63,0,0,0,63,63,63,63,Tue Sep 24 11:41:14 2019,1500,The main experiment item,yes,FlankerTaskKBowman.osexp,/Users/KrisBow/Dropbox/GradSchoolTarleton/Fall2019/AdvQuant/Lab2,no,mono,no,18,no,white,no,yes,768,legacy,63,63,/Users/KrisBow/Dropbox/GradSchoolTarleton/Fall2019/AdvQuant/Lab2/KB-subject-3-F48.csv,legacy,Kafkaesque Koffka,3.2.6,0,h,NA,h,NA,NA,h,603,NA,25129,NA,NA,603,2,legacy,1024,2,48000,-16,experiment,HHHHH,3,odd,26445,NA,NA,157422,153420,1302,NA,NA,158524,1314,NA,NA,158636,159241,158514,158636,FlankerTaskKBowman,37,41483,64,yes,1024
58.46153846,58.46153846,647.9076923,647.9076923,black,no,legacy,legacy,legacy,0,incongruent,uniform,1,undefined,1,h,0,0,0,64,64,0,64,0,64,0,0,0,64,64,64,64,Tue Sep 24 11:41:14 2019,1500,The main experiment item,yes,FlankerTaskKBowman.osexp,/Users/KrisBow/Dropbox/GradSchoolTarleton/Fall2019/AdvQuant/Lab2,no,mono,no,18,no,white,no,yes,768,legacy,64,64,/Users/KrisBow/Dropbox/GradSchoolTarleton/Fall2019/AdvQuant/Lab2/KB-subject-3-F48.csv,legacy,Kafkaesque Koffka,3.2.6,0,h,NA,h,NA,NA,h,631,NA,25129,NA,NA,631,2,legacy,1024,2,48000,-16,experiment,SSHSS,3,odd,26445,NA,NA,159254,153420,1302,NA,NA,160352,1314,NA,NA,160464,161097,160342,160464,FlankerTaskKBowman,38,42114,65,yes,1024
59.09090909,59.09090909,645.3181818,645.3181818,black,no,legacy,legacy,legacy,0,congruent,uniform,1,undefined,1,s,0,0,0,65,65,0,65,0,65,0,0,0,65,65,65,65,Tue Sep 24 11:41:14 2019,1500,The main experiment item,yes,FlankerTaskKBowman.osexp,/Users/KrisBow/Dropbox/GradSchoolTarleton/Fall2019/AdvQuant/Lab2,no,mono,no,18,no,white,no,yes,768,legacy,65,65,/Users/KrisBow/Dropbox/GradSchoolTarleton/Fall2019/AdvQuant/Lab2/KB-subject-3-F48.csv,legacy,Kafkaesque Koffka,3.2.6,0,s,NA,h,NA,NA,s,477,NA,25129,NA,NA,477,2,legacy,1024,2,48000,-16,experiment,SSSSS,3,odd,26445,NA,NA,161110,153420,1302,NA,NA,162210,1314,NA,NA,162321,162800,162200,162320,FlankerTaskKBowman,39,42591,66,yes,1024
59.70149254,59.70149254,642.8358209,642.8358209,black,no,legacy,legacy,legacy,0,incongruent,uniform,1,undefined,1,h,0,0,0,66,66,0,66,0,66,0,0,0,66,66,66,66,Tue Sep 24 11:41:14 2019,1500,The main experiment item,yes,FlankerTaskKBowman.osexp,/Users/KrisBow/Dropbox/GradSchoolTarleton/Fall2019/AdvQuant/Lab2,no,mono,no,18,no,white,no,yes,768,legacy,66,66,/Users/KrisBow/Dropbox/GradSchoolTarleton/Fall2019/AdvQuant/Lab2/KB-subject-3-F48.csv,legacy,Kafkaesque Koffka,3.2.6,0,h,NA,h,NA,NA,h,479,NA,25129,NA,NA,479,2,legacy,1024,2,48000,-16,experiment,SSHSS,3,odd,26445,NA,NA,162813,153420,1302,NA,NA,163913,1314,NA,NA,164023,164504,163902,164023,FlankerTaskKBowman,40,43070,67,yes,1024
60.29411765,60.29411765,640.3676471,640.3676471,black,no,legacy,legacy,legacy,0,incongruent,uniform,1,undefined,1,h,0,0,0,67,67,0,67,0,67,0,0,0,67,67,67,67,Tue Sep 24 11:41:14 2019,1500,The main experiment item,yes,FlankerTaskKBowman.osexp,/Users/KrisBow/Dropbox/GradSchoolTarleton/Fall2019/AdvQuant/Lab2,no,mono,no,18,no,white,no,yes,768,legacy,67,67,/Users/KrisBow/Dropbox/GradSchoolTarleton/Fall2019/AdvQuant/Lab2/KB-subject-3-F48.csv,legacy,Kafkaesque Koffka,3.2.6,0,h,NA,h,NA,NA,h,475,NA,25129,NA,NA,475,2,legacy,1024,2,48000,-16,experiment,SSHSS,3,odd,26445,NA,NA,164517,153420,1302,NA,NA,165617,1314,NA,NA,165728,166205,165607,165728,FlankerTaskKBowman,41,43545,68,yes,1024
60.86956522,60.86956522,639.7246377,639.7246377,black,no,legacy,legacy,legacy,0,incongruent,uniform,1,undefined,1,s,0,0,0,68,68,0,68,0,68,0,0,0,68,68,68,68,Tue Sep 24 11:41:14 2019,1500,The main experiment item,yes,FlankerTaskKBowman.osexp,/Users/KrisBow/Dropbox/GradSchoolTarleton/Fall2019/AdvQuant/Lab2,no,mono,no,18,no,white,no,yes,768,legacy,68,68,/Users/KrisBow/Dropbox/GradSchoolTarleton/Fall2019/AdvQuant/Lab2/KB-subject-3-F48.csv,legacy,Kafkaesque Koffka,3.2.6,0,s,NA,h,NA,NA,s,596,NA,25129,NA,NA,596,2,legacy,1024,2,48000,-16,experiment,HHSHH,3,odd,26445,NA,NA,166218,153420,1302,NA,NA,167317,1314,NA,NA,167428,168026,167307,167427,FlankerTaskKBowman,42,44141,69,yes,1024
61.42857143,61.42857143,637.4142857,637.4142857,black,no,legacy,legacy,legacy,0,congruent,uniform,1,undefined,1,s,0,0,0,69,69,0,69,0,69,0,0,0,69,69,69,69,Tue Sep 24 11:41:14 2019,1500,The main experiment item,yes,FlankerTaskKBowman.osexp,/Users/KrisBow/Dropbox/GradSchoolTarleton/Fall2019/AdvQuant/Lab2,no,mono,no,18,no,white,no,yes,768,legacy,69,69,/Users/KrisBow/Dropbox/GradSchoolTarleton/Fall2019/AdvQuant/Lab2/KB-subject-3-F48.csv,legacy,Kafkaesque Koffka,3.2.6,0,s,NA,h,NA,NA,s,478,NA,25129,NA,NA,478,2,legacy,1024,2,48000,-16,experiment,SSSSS,3,odd,26445,NA,NA,168039,153420,1302,NA,NA,169140,1314,NA,NA,169251,169731,169129,169251,FlankerTaskKBowman,43,44619,70,yes,1024
61.97183099,61.97183099,634.2535211,634.2535211,black,no,legacy,legacy,legacy,0,congruent,uniform,1,undefined,1,h,0,0,0,70,70,0,70,0,70,0,0,0,70,70,70,70,Tue Sep 24 11:41:14 2019,1500,The main experiment item,yes,FlankerTaskKBowman.osexp,/Users/KrisBow/Dropbox/GradSchoolTarleton/Fall2019/AdvQuant/Lab2,no,mono,no,18,no,white,no,yes,768,legacy,70,70,/Users/KrisBow/Dropbox/GradSchoolTarleton/Fall2019/AdvQuant/Lab2/KB-subject-3-F48.csv,legacy,Kafkaesque Koffka,3.2.6,0,h,NA,h,NA,NA,h,413,NA,25129,NA,NA,413,2,legacy,1024,2,48000,-16,experiment,HHHHH,3,odd,26445,NA,NA,169744,153420,1302,NA,NA,170853,1314,NA,NA,170965,171380,170840,170965,FlankerTaskKBowman,44,45032,71,yes,1024
62.5,62.5,632.3333333,632.3333333,black,no,legacy,legacy,legacy,0,incongruent,uniform,1,undefined,1,h,0,0,0,71,71,0,71,0,71,0,0,0,71,71,71,71,Tue Sep 24 11:41:14 2019,1500,The main experiment item,yes,FlankerTaskKBowman.osexp,/Users/KrisBow/Dropbox/GradSchoolTarleton/Fall2019/AdvQuant/Lab2,no,mono,no,18,no,white,no,yes,768,legacy,71,71,/Users/KrisBow/Dropbox/GradSchoolTarleton/Fall2019/AdvQuant/Lab2/KB-subject-3-F48.csv,legacy,Kafkaesque Koffka,3.2.6,0,h,NA,h,NA,NA,h,496,NA,25129,NA,NA,496,2,legacy,1024,2,48000,-16,experiment,SSHSS,3,odd,26445,NA,NA,171393,153420,1302,NA,NA,172493,1314,NA,NA,172603,173101,172482,172603,FlankerTaskKBowman,45,45528,72,yes,1024
61.64383562,61.64383562,630.1917808,630.1917808,black,no,legacy,legacy,legacy,0,incongruent,uniform,0,undefined,0,s,0,0,0,72,72,0,72,0,72,0,0,0,72,72,72,72,Tue Sep 24 11:41:14 2019,1500,The main experiment item,yes,FlankerTaskKBowman.osexp,/Users/KrisBow/Dropbox/GradSchoolTarleton/Fall2019/AdvQuant/Lab2,no,mono,no,18,no,white,no,yes,768,legacy,72,72,/Users/KrisBow/Dropbox/GradSchoolTarleton/Fall2019/AdvQuant/Lab2/KB-subject-3-F48.csv,legacy,Kafkaesque Koffka,3.2.6,0,h,NA,h,NA,NA,h,476,NA,25129,NA,NA,476,2,legacy,1024,2,48000,-16,experiment,HHSHH,3,odd,26445,NA,NA,173115,153420,1302,NA,NA,174215,1314,NA,NA,174326,174804,174204,174326,FlankerTaskKBowman,45,46004,73,yes,1024
62.16216216,62.16216216,630.1621622,630.1621622,black,no,legacy,legacy,legacy,0,incongruent,uniform,1,undefined,1,s,0,0,0,73,73,0,73,0,73,0,0,0,73,73,73,73,Tue Sep 24 11:41:14 2019,1500,The main experiment item,yes,FlankerTaskKBowman.osexp,/Users/KrisBow/Dropbox/GradSchoolTarleton/Fall2019/AdvQuant/Lab2,no,mono,no,18,no,white,no,yes,768,legacy,73,73,/Users/KrisBow/Dropbox/GradSchoolTarleton/Fall2019/AdvQuant/Lab2/KB-subject-3-F48.csv,legacy,Kafkaesque Koffka,3.2.6,0,s,NA,h,NA,NA,s,628,NA,25129,NA,NA,628,2,legacy,1024,2,48000,-16,experiment,HHSHH,3,odd,26445,NA,NA,175329,174816,1302,NA,NA,176428,1314,NA,NA,176539,177169,176418,176539,FlankerTaskKBowman,46,46632,74,yes,1024
62.66666667,62.66666667,628.0666667,628.0666667,black,no,legacy,legacy,legacy,0,incongruent,uniform,1,undefined,1,s,0,0,0,74,74,0,74,0,74,0,0,0,74,74,74,74,Tue Sep 24 11:41:14 2019,1500,The main experiment item,yes,FlankerTaskKBowman.osexp,/Users/KrisBow/Dropbox/GradSchoolTarleton/Fall2019/AdvQuant/Lab2,no,mono,no,18,no,white,no,yes,768,legacy,74,74,/Users/KrisBow/Dropbox/GradSchoolTarleton/Fall2019/AdvQuant/Lab2/KB-subject-3-F48.csv,legacy,Kafkaesque Koffka,3.2.6,0,s,NA,h,NA,NA,s,473,NA,25129,NA,NA,473,2,legacy,1024,2,48000,-16,experiment,HHSHH,3,odd,26445,NA,NA,177182,174816,1302,NA,NA,178281,1314,NA,NA,178392,178867,178271,178392,FlankerTaskKBowman,47,47105,75,yes,1024
63.15789474,63.15789474,626.0657895,626.0657895,black,no,legacy,legacy,legacy,0,congruent,uniform,1,undefined,1,s,0,0,0,75,75,0,75,0,75,0,0,0,75,75,75,75,Tue Sep 24 11:41:14 2019,1500,The main experiment item,yes,FlankerTaskKBowman.osexp,/Users/KrisBow/Dropbox/GradSchoolTarleton/Fall2019/AdvQuant/Lab2,no,mono,no,18,no,white,no,yes,768,legacy,75,75,/Users/KrisBow/Dropbox/GradSchoolTarleton/Fall2019/AdvQuant/Lab2/KB-subject-3-F48.csv,legacy,Kafkaesque Koffka,3.2.6,0,s,NA,h,NA,NA,s,476,NA,25129,NA,NA,476,2,legacy,1024,2,48000,-16,experiment,SSSSS,3,odd,26445,NA,NA,178880,174816,1302,NA,NA,179979,1314,NA,NA,180091,180569,179969,180090,FlankerTaskKBowman,48,47581,76,yes,1024
63.63636364,63.63636364,624.5454545,624.5454545,black,no,legacy,legacy,legacy,0,incongruent,uniform,1,undefined,1,s,0,0,0,76,76,0,76,0,76,0,0,0,76,76,76,76,Tue Sep 24 11:41:14 2019,1500,The main experiment item,yes,FlankerTaskKBowman.osexp,/Users/KrisBow/Dropbox/GradSchoolTarleton/Fall2019/AdvQuant/Lab2,no,mono,no,18,no,white,no,yes,768,legacy,76,76,/Users/KrisBow/Dropbox/GradSchoolTarleton/Fall2019/AdvQuant/Lab2/KB-subject-3-F48.csv,legacy,Kafkaesque Koffka,3.2.6,0,s,NA,h,NA,NA,s,509,NA,25129,NA,NA,509,2,legacy,1024,2,48000,-16,experiment,HHSHH,3,odd,26445,NA,NA,180582,174816,1302,NA,NA,181682,1314,NA,NA,181793,182304,181672,181793,FlankerTaskKBowman,49,48090,77,yes,1024
64.1025641,64.1025641,622.0897436,622.0897436,black,no,legacy,legacy,legacy,0,congruent,uniform,1,undefined,1,s,0,0,0,77,77,0,77,0,77,0,0,0,77,77,77,77,Tue Sep 24 11:41:14 2019,1500,The main experiment item,yes,FlankerTaskKBowman.osexp,/Users/KrisBow/Dropbox/GradSchoolTarleton/Fall2019/AdvQuant/Lab2,no,mono,no,18,no,white,no,yes,768,legacy,77,77,/Users/KrisBow/Dropbox/GradSchoolTarleton/Fall2019/AdvQuant/Lab2/KB-subject-3-F48.csv,legacy,Kafkaesque Koffka,3.2.6,0,s,NA,h,NA,NA,s,433,NA,25129,NA,NA,433,2,legacy,1024,2,48000,-16,experiment,SSSSS,3,odd,26445,NA,NA,182316,174816,1302,NA,NA,183416,1314,NA,NA,183529,183964,183406,183529,FlankerTaskKBowman,50,48523,78,yes,1024
64.55696203,64.55696203,620.4936709,620.4936709,black,no,legacy,legacy,legacy,0,congruent,uniform,1,undefined,1,s,0,0,0,78,78,0,78,0,78,0,0,0,78,78,78,78,Tue Sep 24 11:41:14 2019,1500,The main experiment item,yes,FlankerTaskKBowman.osexp,/Users/KrisBow/Dropbox/GradSchoolTarleton/Fall2019/AdvQuant/Lab2,no,mono,no,18,no,white,no,yes,768,legacy,78,78,/Users/KrisBow/Dropbox/GradSchoolTarleton/Fall2019/AdvQuant/Lab2/KB-subject-3-F48.csv,legacy,Kafkaesque Koffka,3.2.6,0,s,NA,h,NA,NA,s,496,NA,25129,NA,NA,496,2,legacy,1024,2,48000,-16,experiment,SSSSS,3,odd,26445,NA,NA,183977,174816,1302,NA,NA,185076,1314,NA,NA,185187,185685,185066,185187,FlankerTaskKBowman,51,49019,79,yes,1024
65,65,617.9375,617.9375,black,no,legacy,legacy,legacy,0,congruent,uniform,1,undefined,1,h,0,0,0,79,79,0,79,0,79,0,0,0,79,79,79,79,Tue Sep 24 11:41:14 2019,1500,The main experiment item,yes,FlankerTaskKBowman.osexp,/Users/KrisBow/Dropbox/GradSchoolTarleton/Fall2019/AdvQuant/Lab2,no,mono,no,18,no,white,no,yes,768,legacy,79,79,/Users/KrisBow/Dropbox/GradSchoolTarleton/Fall2019/AdvQuant/Lab2/KB-subject-3-F48.csv,legacy,Kafkaesque Koffka,3.2.6,0,h,NA,h,NA,NA,h,416,NA,25129,NA,NA,416,2,legacy,1024,2,48000,-16,experiment,HHHHH,3,odd,26445,NA,NA,185699,174816,1302,NA,NA,186799,1314,NA,NA,186910,187329,186789,186909,FlankerTaskKBowman,52,49435,80,yes,1024
64.19753086,64.19753086,616.6296296,616.6296296,black,no,legacy,legacy,legacy,0,incongruent,uniform,0,undefined,0,h,0,0,0,80,80,0,80,0,80,0,0,0,80,80,80,80,Tue Sep 24 11:41:14 2019,600,The main experiment item,yes,FlankerTaskKBowman.osexp,/Users/KrisBow/Dropbox/GradSchoolTarleton/Fall2019/AdvQuant/Lab2,no,mono,no,18,no,white,no,yes,768,legacy,0,79,/Users/KrisBow/Dropbox/GradSchoolTarleton/Fall2019/AdvQuant/Lab2/KB-subject-3-F48.csv,legacy,Kafkaesque Koffka,3.2.6,0,s,NA,h,h,NA,s,512,NA,25129,11880,NA,512,2,legacy,1024,2,48000,-16,experiment,SSHSS,3,odd,26445,200263,NA,187342,174816,1302,NA,NA,200345,1314,188381,NA,200456,200970,200335,200456,FlankerTaskKBowman,52,49947,81,yes,1024
64.63414634,64.63414634,615.5487805,615.5487805,black,no,legacy,legacy,legacy,0,incongruent,uniform,1,undefined,1,s,0,0,0,81,81,0,81,0,81,0,0,0,81,81,81,81,Tue Sep 24 11:41:14 2019,600,The main experiment item,yes,FlankerTaskKBowman.osexp,/Users/KrisBow/Dropbox/GradSchoolTarleton/Fall2019/AdvQuant/Lab2,no,mono,no,18,no,white,no,yes,768,legacy,1,79,/Users/KrisBow/Dropbox/GradSchoolTarleton/Fall2019/AdvQuant/Lab2/KB-subject-3-F48.csv,legacy,Kafkaesque Koffka,3.2.6,0,s,NA,h,h,NA,s,528,NA,25129,11880,NA,528,2,legacy,1024,2,48000,-16,experiment,HHSHH,3,odd,26445,200263,NA,201493,200983,1302,NA,NA,202595,1314,188381,NA,202706,203236,202585,202706,FlankerTaskKBowman,53,50475,82,yes,1024
65.06024096,65.06024096,613.1566265,613.1566265,black,no,legacy,legacy,legacy,0,congruent,uniform,1,undefined,1,h,0,0,0,82,82,0,82,0,82,0,0,0,82,82,82,82,Tue Sep 24 11:41:14 2019,600,The main experiment item,yes,FlankerTaskKBowman.osexp,/Users/KrisBow/Dropbox/GradSchoolTarleton/Fall2019/AdvQuant/Lab2,no,mono,no,18,no,white,no,yes,768,legacy,2,79,/Users/KrisBow/Dropbox/GradSchoolTarleton/Fall2019/AdvQuant/Lab2/KB-subject-3-F48.csv,legacy,Kafkaesque Koffka,3.2.6,0,h,NA,h,h,NA,h,417,NA,25129,11880,NA,417,2,legacy,1024,2,48000,-16,experiment,HHHHH,3,odd,26445,200263,NA,203249,200983,1302,NA,NA,204348,1314,188381,NA,204459,204878,204338,204459,FlankerTaskKBowman,54,50892,83,yes,1024
65.47619048,65.47619048,612.8214286,612.8214286,black,no,legacy,legacy,legacy,0,incongruent,uniform,1,undefined,1,s,0,0,0,83,83,0,83,0,83,0,0,0,83,83,83,83,Tue Sep 24 11:41:14 2019,600,The main experiment item,yes,FlankerTaskKBowman.osexp,/Users/KrisBow/Dropbox/GradSchoolTarleton/Fall2019/AdvQuant/Lab2,no,mono,no,18,no,white,no,yes,768,legacy,3,79,/Users/KrisBow/Dropbox/GradSchoolTarleton/Fall2019/AdvQuant/Lab2/KB-subject-3-F48.csv,legacy,Kafkaesque Koffka,3.2.6,0,s,NA,h,h,NA,s,585,NA,25129,11880,NA,585,2,legacy,1024,2,48000,-16,experiment,HHSHH,3,odd,26445,200263,NA,204891,200983,1302,NA,NA,205992,1314,188381,NA,206103,206690,205981,206102,FlankerTaskKBowman,55,51477,84,yes,1024
65.88235294,65.88235294,611.8823529,611.8823529,black,no,legacy,legacy,legacy,0,congruent,uniform,1,undefined,1,h,0,0,0,84,84,0,84,0,84,0,0,0,84,84,84,84,Tue Sep 24 11:41:14 2019,600,The main experiment item,yes,FlankerTaskKBowman.osexp,/Users/KrisBow/Dropbox/GradSchoolTarleton/Fall2019/AdvQuant/Lab2,no,mono,no,18,no,white,no,yes,768,legacy,4,79,/Users/KrisBow/Dropbox/GradSchoolTarleton/Fall2019/AdvQuant/Lab2/KB-subject-3-F48.csv,legacy,Kafkaesque Koffka,3.2.6,0,h,NA,h,h,NA,h,533,NA,25129,11880,NA,533,2,legacy,1024,2,48000,-16,experiment,HHHHH,3,odd,26445,200263,NA,206702,200983,1302,NA,NA,207803,1314,188381,NA,207913,208448,207793,207913,FlankerTaskKBowman,56,52010,85,yes,1024
66.27906977,66.27906977,610.9534884,610.9534884,black,no,legacy,legacy,legacy,0,incongruent,uniform,1,undefined,1,s,0,0,0,85,85,0,85,0,85,0,0,0,85,85,85,85,Tue Sep 24 11:41:14 2019,600,The main experiment item,yes,FlankerTaskKBowman.osexp,/Users/KrisBow/Dropbox/GradSchoolTarleton/Fall2019/AdvQuant/Lab2,no,mono,no,18,no,white,no,yes,768,legacy,5,79,/Users/KrisBow/Dropbox/GradSchoolTarleton/Fall2019/AdvQuant/Lab2/KB-subject-3-F48.csv,legacy,Kafkaesque Koffka,3.2.6,0,s,NA,h,h,NA,s,532,NA,25129,11880,NA,532,2,legacy,1024,2,48000,-16,experiment,HHSHH,3,odd,26445,200263,NA,208461,200983,1302,NA,NA,209561,1314,188381,NA,209672,210207,209551,209671,FlankerTaskKBowman,57,52542,86,yes,1024
66.66666667,66.66666667,608.7126437,608.7126437,black,no,legacy,legacy,legacy,0,incongruent,uniform,1,undefined,1,s,0,0,0,86,86,0,86,0,86,0,0,0,86,86,86,86,Tue Sep 24 11:41:14 2019,600,The main experiment item,yes,FlankerTaskKBowman.osexp,/Users/KrisBow/Dropbox/GradSchoolTarleton/Fall2019/AdvQuant/Lab2,no,mono,no,18,no,white,no,yes,768,legacy,6,79,/Users/KrisBow/Dropbox/GradSchoolTarleton/Fall2019/AdvQuant/Lab2/KB-subject-3-F48.csv,legacy,Kafkaesque Koffka,3.2.6,0,s,NA,h,h,NA,s,416,NA,25129,11880,NA,416,2,legacy,1024,2,48000,-16,experiment,HHSHH,3,odd,26445,200263,NA,210221,200983,1302,NA,NA,211321,1314,188381,NA,211432,211850,211311,211431,FlankerTaskKBowman,58,52958,87,yes,1024
67.04545455,67.04545455,607.1590909,607.1590909,black,no,legacy,legacy,legacy,0,incongruent,uniform,1,undefined,1,h,0,0,0,87,87,0,87,0,87,0,0,0,87,87,87,87,Tue Sep 24 11:41:14 2019,600,The main experiment item,yes,FlankerTaskKBowman.osexp,/Users/KrisBow/Dropbox/GradSchoolTarleton/Fall2019/AdvQuant/Lab2,no,mono,no,18,no,white,no,yes,768,legacy,7,79,/Users/KrisBow/Dropbox/GradSchoolTarleton/Fall2019/AdvQuant/Lab2/KB-subject-3-F48.csv,legacy,Kafkaesque Koffka,3.2.6,0,h,NA,h,h,NA,h,472,NA,25129,11880,NA,472,2,legacy,1024,2,48000,-16,experiment,SSHSS,3,odd,26445,200263,NA,211863,200983,1302,NA,NA,212971,1314,188381,NA,213081,213558,212961,213081,FlankerTaskKBowman,59,53430,88,yes,1024
67.41573034,67.41573034,605.5730337,605.5730337,black,no,legacy,legacy,legacy,0,congruent,uniform,1,undefined,1,h,0,0,0,88,88,0,88,0,88,0,0,0,88,88,88,88,Tue Sep 24 11:41:14 2019,600,The main experiment item,yes,FlankerTaskKBowman.osexp,/Users/KrisBow/Dropbox/GradSchoolTarleton/Fall2019/AdvQuant/Lab2,no,mono,no,18,no,white,no,yes,768,legacy,8,79,/Users/KrisBow/Dropbox/GradSchoolTarleton/Fall2019/AdvQuant/Lab2/KB-subject-3-F48.csv,legacy,Kafkaesque Koffka,3.2.6,0,h,NA,h,h,NA,h,466,NA,25129,11880,NA,466,2,legacy,1024,2,48000,-16,experiment,HHHHH,3,odd,26445,200263,NA,213585,200983,1302,NA,NA,214694,1314,188381,NA,214805,215273,214684,214805,FlankerTaskKBowman,60,53896,89,yes,1024
67.77777778,67.77777778,604.0888889,604.0888889,black,no,legacy,legacy,legacy,0,congruent,uniform,1,undefined,1,h,0,0,0,89,89,0,89,0,89,0,0,0,89,89,89,89,Tue Sep 24 11:41:14 2019,600,The main experiment item,yes,FlankerTaskKBowman.osexp,/Users/KrisBow/Dropbox/GradSchoolTarleton/Fall2019/AdvQuant/Lab2,no,mono,no,18,no,white,no,yes,768,legacy,9,79,/Users/KrisBow/Dropbox/GradSchoolTarleton/Fall2019/AdvQuant/Lab2/KB-subject-3-F48.csv,legacy,Kafkaesque Koffka,3.2.6,0,h,NA,h,h,NA,h,472,NA,25129,11880,NA,472,2,legacy,1024,2,48000,-16,experiment,HHHHH,3,odd,26445,200263,NA,215286,200983,1302,NA,NA,216387,1314,188381,NA,216497,216971,216376,216497,FlankerTaskKBowman,61,54368,90,yes,1024
68.13186813,68.13186813,603.2967033,603.2967033,black,no,legacy,legacy,legacy,0,incongruent,uniform,1,undefined,1,h,0,0,0,90,90,0,90,0,90,0,0,0,90,90,90,90,Tue Sep 24 11:41:14 2019,600,The main experiment item,yes,FlankerTaskKBowman.osexp,/Users/KrisBow/Dropbox/GradSchoolTarleton/Fall2019/AdvQuant/Lab2,no,mono,no,18,no,white,no,yes,768,legacy,10,79,/Users/KrisBow/Dropbox/GradSchoolTarleton/Fall2019/AdvQuant/Lab2/KB-subject-3-F48.csv,legacy,Kafkaesque Koffka,3.2.6,0,h,NA,h,h,NA,h,532,NA,25129,11880,NA,532,2,legacy,1024,2,48000,-16,experiment,SSHSS,3,odd,26445,200263,NA,216983,200983,1302,NA,NA,218081,1314,188381,NA,218192,218726,218071,218192,FlankerTaskKBowman,62,54900,91,yes,1024
68.47826087,68.47826087,602,602,black,no,legacy,legacy,legacy,0,congruent,uniform,1,undefined,1,h,0,0,0,91,91,0,91,0,91,0,0,0,91,91,91,91,Tue Sep 24 11:41:14 2019,600,The main experiment item,yes,FlankerTaskKBowman.osexp,/Users/KrisBow/Dropbox/GradSchoolTarleton/Fall2019/AdvQuant/Lab2,no,mono,no,18,no,white,no,yes,768,legacy,11,79,/Users/KrisBow/Dropbox/GradSchoolTarleton/Fall2019/AdvQuant/Lab2/KB-subject-3-F48.csv,legacy,Kafkaesque Koffka,3.2.6,0,h,NA,h,h,NA,h,484,NA,25129,11880,NA,484,2,legacy,1024,2,48000,-16,experiment,HHHHH,3,odd,26445,200263,NA,218739,200983,1302,NA,NA,219840,1314,188381,NA,219951,220437,219830,219950,FlankerTaskKBowman,63,55384,92,yes,1024
68.8172043,68.8172043,599.7634409,599.7634409,black,no,legacy,legacy,legacy,0,congruent,uniform,1,undefined,1,s,0,0,0,92,92,0,92,0,92,0,0,0,92,92,92,92,Tue Sep 24 11:41:14 2019,600,The main experiment item,yes,FlankerTaskKBowman.osexp,/Users/KrisBow/Dropbox/GradSchoolTarleton/Fall2019/AdvQuant/Lab2,no,mono,no,18,no,white,no,yes,768,legacy,12,79,/Users/KrisBow/Dropbox/GradSchoolTarleton/Fall2019/AdvQuant/Lab2/KB-subject-3-F48.csv,legacy,Kafkaesque Koffka,3.2.6,0,s,NA,h,h,NA,s,394,NA,25129,11880,NA,394,2,legacy,1024,2,48000,-16,experiment,SSSSS,3,odd,26445,200263,NA,220449,200983,1302,NA,NA,221550,1314,188381,NA,221662,222058,221539,221662,FlankerTaskKBowman,64,55778,93,yes,1024
69.14893617,69.14893617,598.8297872,598.8297872,black,no,legacy,legacy,legacy,0,incongruent,uniform,1,undefined,1,h,0,0,0,93,93,0,93,0,93,0,0,0,93,93,93,93,Tue Sep 24 11:41:14 2019,600,The main experiment item,yes,FlankerTaskKBowman.osexp,/Users/KrisBow/Dropbox/GradSchoolTarleton/Fall2019/AdvQuant/Lab2,no,mono,no,18,no,white,no,yes,768,legacy,13,79,/Users/KrisBow/Dropbox/GradSchoolTarleton/Fall2019/AdvQuant/Lab2/KB-subject-3-F48.csv,legacy,Kafkaesque Koffka,3.2.6,0,h,NA,h,h,NA,h,512,NA,25129,11880,NA,512,2,legacy,1024,2,48000,-16,experiment,SSHSS,3,odd,26445,200263,NA,222071,200983,1302,NA,NA,223171,1314,188381,NA,223282,223796,223161,223282,FlankerTaskKBowman,65,56290,94,yes,1024
69.47368421,69.47368421,598.1473684,598.1473684,black,no,legacy,legacy,legacy,0,incongruent,uniform,1,undefined,1,s,0,0,0,94,94,0,94,0,94,0,0,0,94,94,94,94,Tue Sep 24 11:41:14 2019,600,The main experiment item,yes,FlankerTaskKBowman.osexp,/Users/KrisBow/Dropbox/GradSchoolTarleton/Fall2019/AdvQuant/Lab2,no,mono,no,18,no,white,no,yes,768,legacy,14,79,/Users/KrisBow/Dropbox/GradSchoolTarleton/Fall2019/AdvQuant/Lab2/KB-subject-3-F48.csv,legacy,Kafkaesque Koffka,3.2.6,0,s,NA,h,h,NA,s,534,NA,25129,11880,NA,534,2,legacy,1024,2,48000,-16,experiment,HHSHH,3,odd,26445,200263,NA,223808,200983,1302,NA,NA,224908,1314,188381,NA,225019,225555,224898,225019,FlankerTaskKBowman,66,56824,95,yes,1024
69.79166667,69.79166667,597.0520833,597.0520833,black,no,legacy,legacy,legacy,0,incongruent,uniform,1,undefined,1,h,0,0,0,95,95,0,95,0,95,0,0,0,95,95,95,95,Tue Sep 24 11:41:14 2019,600,The main experiment item,yes,FlankerTaskKBowman.osexp,/Users/KrisBow/Dropbox/GradSchoolTarleton/Fall2019/AdvQuant/Lab2,no,mono,no,18,no,white,no,yes,768,legacy,15,79,/Users/KrisBow/Dropbox/GradSchoolTarleton/Fall2019/AdvQuant/Lab2/KB-subject-3-F48.csv,legacy,Kafkaesque Koffka,3.2.6,0,h,NA,h,h,NA,h,493,NA,25129,11880,NA,493,2,legacy,1024,2,48000,-16,experiment,SSHSS,3,odd,26445,200263,NA,225567,200983,1302,NA,NA,226675,1314,188381,NA,226785,227280,226664,226785,FlankerTaskKBowman,67,57317,96,yes,1024
69.07216495,69.07216495,595.6597938,595.6597938,black,no,legacy,legacy,legacy,0,incongruent,uniform,0,undefined,0,h,0,0,0,96,96,0,96,0,96,0,0,0,96,96,96,96,Tue Sep 24 11:41:14 2019,600,The main experiment item,yes,FlankerTaskKBowman.osexp,/Users/KrisBow/Dropbox/GradSchoolTarleton/Fall2019/AdvQuant/Lab2,no,mono,no,18,no,white,no,yes,768,legacy,16,79,/Users/KrisBow/Dropbox/GradSchoolTarleton/Fall2019/AdvQuant/Lab2/KB-subject-3-F48.csv,legacy,Kafkaesque Koffka,3.2.6,0,s,NA,h,h,NA,s,462,NA,25129,11880,NA,462,2,legacy,1024,2,48000,-16,experiment,SSHSS,3,odd,26445,200263,NA,227292,200983,1302,NA,NA,228392,1314,188381,NA,228502,228966,228382,228502,FlankerTaskKBowman,67,57779,97,yes,1024
69.3877551,69.3877551,594.122449,594.122449,black,no,legacy,legacy,legacy,0,congruent,uniform,1,undefined,1,h,0,0,0,97,97,0,97,0,97,0,0,0,97,97,97,97,Tue Sep 24 11:41:14 2019,600,The main experiment item,yes,FlankerTaskKBowman.osexp,/Users/KrisBow/Dropbox/GradSchoolTarleton/Fall2019/AdvQuant/Lab2,no,mono,no,18,no,white,no,yes,768,legacy,17,79,/Users/KrisBow/Dropbox/GradSchoolTarleton/Fall2019/AdvQuant/Lab2/KB-subject-3-F48.csv,legacy,Kafkaesque Koffka,3.2.6,0,h,NA,h,h,NA,h,445,NA,25129,11880,NA,445,2,legacy,1024,2,48000,-16,experiment,HHHHH,3,odd,26445,200263,NA,229489,228978,1302,NA,NA,230589,1314,188381,NA,230701,231148,230579,230701,FlankerTaskKBowman,68,58224,98,yes,1024
69.6969697,69.6969697,591.9393939,591.9393939,black,no,legacy,legacy,legacy,0,congruent,uniform,1,undefined,1,h,0,0,0,98,98,0,98,0,98,0,0,0,98,98,98,98,Tue Sep 24 11:41:14 2019,600,The main experiment item,yes,FlankerTaskKBowman.osexp,/Users/KrisBow/Dropbox/GradSchoolTarleton/Fall2019/AdvQuant/Lab2,no,mono,no,18,no,white,no,yes,768,legacy,18,79,/Users/KrisBow/Dropbox/GradSchoolTarleton/Fall2019/AdvQuant/Lab2/KB-subject-3-F48.csv,legacy,Kafkaesque Koffka,3.2.6,0,h,NA,h,h,NA,h,378,NA,25129,11880,NA,378,2,legacy,1024,2,48000,-16,experiment,HHHHH,3,odd,26445,200263,NA,231161,228978,1302,NA,NA,232261,1314,188381,NA,232372,232752,232251,232371,FlankerTaskKBowman,69,58602,99,yes,1024
70,70,591.24,591.24,black,no,legacy,legacy,legacy,0,incongruent,uniform,1,undefined,1,h,0,0,0,99,99,0,99,0,99,0,0,0,99,99,99,99,Tue Sep 24 11:41:14 2019,600,The main experiment item,yes,FlankerTaskKBowman.osexp,/Users/KrisBow/Dropbox/GradSchoolTarleton/Fall2019/AdvQuant/Lab2,no,mono,no,18,no,white,no,yes,768,legacy,19,79,/Users/KrisBow/Dropbox/GradSchoolTarleton/Fall2019/AdvQuant/Lab2/KB-subject-3-F48.csv,legacy,Kafkaesque Koffka,3.2.6,0,h,NA,h,h,NA,h,522,NA,25129,11880,NA,522,2,legacy,1024,2,48000,-16,experiment,SSHSS,3,odd,26445,200263,NA,232764,228978,1302,NA,NA,233864,1314,188381,NA,233974,234498,233854,233974,FlankerTaskKBowman,70,59124,100,yes,1024
70.2970297,70.2970297,589.3960396,589.3960396,black,no,legacy,legacy,legacy,0,congruent,uniform,1,undefined,1,s,0,0,0,100,100,0,100,0,100,0,0,0,100,100,100,100,Tue Sep 24 11:41:14 2019,600,The main experiment item,yes,FlankerTaskKBowman.osexp,/Users/KrisBow/Dropbox/GradSchoolTarleton/Fall2019/AdvQuant/Lab2,no,mono,no,18,no,white,no,yes,768,legacy,20,79,/Users/KrisBow/Dropbox/GradSchoolTarleton/Fall2019/AdvQuant/Lab2/KB-subject-3-F48.csv,legacy,Kafkaesque Koffka,3.2.6,0,s,NA,h,h,NA,s,405,NA,25129,11880,NA,405,2,legacy,1024,2,48000,-16,experiment,SSSSS,3,odd,26445,200263,NA,234511,228978,1302,NA,NA,235610,1314,188381,NA,235722,236129,235600,235721,FlankerTaskKBowman,71,59529,101,yes,1024
70.58823529,70.58823529,588.5098039,588.5098039,black,no,legacy,legacy,legacy,0,incongruent,uniform,1,undefined,1,s,0,0,0,101,101,0,101,0,101,0,0,0,101,101,101,101,Tue Sep 24 11:41:14 2019,600,The main experiment item,yes,FlankerTaskKBowman.osexp,/Users/KrisBow/Dropbox/GradSchoolTarleton/Fall2019/AdvQuant/Lab2,no,mono,no,18,no,white,no,yes,768,legacy,21,79,/Users/KrisBow/Dropbox/GradSchoolTarleton/Fall2019/AdvQuant/Lab2/KB-subject-3-F48.csv,legacy,Kafkaesque Koffka,3.2.6,0,s,NA,h,h,NA,s,499,NA,25129,11880,NA,499,2,legacy,1024,2,48000,-16,experiment,HHSHH,3,odd,26445,200263,NA,236142,228978,1302,NA,NA,237242,1314,188381,NA,237353,237855,237232,237353,FlankerTaskKBowman,72,60028,102,yes,1024
70.87378641,70.87378641,587.6990291,587.6990291,black,no,legacy,legacy,legacy,0,congruent,uniform,1,undefined,1,s,0,0,0,102,102,0,102,0,102,0,0,0,102,102,102,102,Tue Sep 24 11:41:14 2019,600,The main experiment item,yes,FlankerTaskKBowman.osexp,/Users/KrisBow/Dropbox/GradSchoolTarleton/Fall2019/AdvQuant/Lab2,no,mono,no,18,no,white,no,yes,768,legacy,22,79,/Users/KrisBow/Dropbox/GradSchoolTarleton/Fall2019/AdvQuant/Lab2/KB-subject-3-F48.csv,legacy,Kafkaesque Koffka,3.2.6,0,s,NA,h,h,NA,s,505,NA,25129,11880,NA,505,2,legacy,1024,2,48000,-16,experiment,SSSSS,3,odd,26445,200263,NA,237867,228978,1302,NA,NA,238966,1314,188381,NA,239078,239585,238956,239077,FlankerTaskKBowman,73,60533,103,yes,1024
71.15384615,71.15384615,586.8269231,586.8269231,black,no,legacy,legacy,legacy,0,incongruent,uniform,1,undefined,1,s,0,0,0,103,103,0,103,0,103,0,0,0,103,103,103,103,Tue Sep 24 11:41:14 2019,600,The main experiment item,yes,FlankerTaskKBowman.osexp,/Users/KrisBow/Dropbox/GradSchoolTarleton/Fall2019/AdvQuant/Lab2,no,mono,no,18,no,white,no,yes,768,legacy,23,79,/Users/KrisBow/Dropbox/GradSchoolTarleton/Fall2019/AdvQuant/Lab2/KB-subject-3-F48.csv,legacy,Kafkaesque Koffka,3.2.6,0,s,NA,h,h,NA,s,497,NA,25129,11880,NA,497,2,legacy,1024,2,48000,-16,experiment,HHSHH,3,odd,26445,200263,NA,239598,228978,1302,NA,NA,240709,1314,188381,NA,240819,241319,240699,240819,FlankerTaskKBowman,74,61030,104,yes,1024
71.42857143,71.42857143,586.0095238,586.0095238,black,no,legacy,legacy,legacy,0,incongruent,uniform,1,undefined,1,s,0,0,0,104,104,0,104,0,104,0,0,0,104,104,104,104,Tue Sep 24 11:41:14 2019,600,The main experiment item,yes,FlankerTaskKBowman.osexp,/Users/KrisBow/Dropbox/GradSchoolTarleton/Fall2019/AdvQuant/Lab2,no,mono,no,18,no,white,no,yes,768,legacy,24,79,/Users/KrisBow/Dropbox/GradSchoolTarleton/Fall2019/AdvQuant/Lab2/KB-subject-3-F48.csv,legacy,Kafkaesque Koffka,3.2.6,0,s,NA,h,h,NA,s,501,NA,25129,11880,NA,501,2,legacy,1024,2,48000,-16,experiment,HHSHH,3,odd,26445,200263,NA,241332,228978,1302,NA,NA,242432,1314,188381,NA,242543,243047,242422,242543,FlankerTaskKBowman,75,61531,105,yes,1024
71.69811321,71.69811321,585.3584906,585.3584906,black,no,legacy,legacy,legacy,0,incongruent,uniform,1,undefined,1,s,0,0,0,105,105,0,105,0,105,0,0,0,105,105,105,105,Tue Sep 24 11:41:14 2019,600,The main experiment item,yes,FlankerTaskKBowman.osexp,/Users/KrisBow/Dropbox/GradSchoolTarleton/Fall2019/AdvQuant/Lab2,no,mono,no,18,no,white,no,yes,768,legacy,25,79,/Users/KrisBow/Dropbox/GradSchoolTarleton/Fall2019/AdvQuant/Lab2/KB-subject-3-F48.csv,legacy,Kafkaesque Koffka,3.2.6,0,s,NA,h,h,NA,s,517,NA,25129,11880,NA,517,2,legacy,1024,2,48000,-16,experiment,HHSHH,3,odd,26445,200263,NA,243059,228978,1302,NA,NA,244159,1314,188381,NA,244270,244790,244149,244269,FlankerTaskKBowman,76,62048,106,yes,1024
71.96261682,71.96261682,584.0841122,584.0841122,black,no,legacy,legacy,legacy,0,congruent,uniform,1,undefined,1,s,0,0,0,106,106,0,106,0,106,0,0,0,106,106,106,106,Tue Sep 24 11:41:14 2019,600,The main experiment item,yes,FlankerTaskKBowman.osexp,/Users/KrisBow/Dropbox/GradSchoolTarleton/Fall2019/AdvQuant/Lab2,no,mono,no,18,no,white,no,yes,768,legacy,26,79,/Users/KrisBow/Dropbox/GradSchoolTarleton/Fall2019/AdvQuant/Lab2/KB-subject-3-F48.csv,legacy,Kafkaesque Koffka,3.2.6,0,s,NA,h,h,NA,s,449,NA,25129,11880,NA,449,2,legacy,1024,2,48000,-16,experiment,SSSSS,3,odd,26445,200263,NA,244802,228978,1302,NA,NA,245901,1314,188381,NA,246012,246464,245891,246012,FlankerTaskKBowman,77,62497,107,yes,1024
72.22222222,72.22222222,582.5277778,582.5277778,black,no,legacy,legacy,legacy,0,congruent,uniform,1,undefined,1,h,0,0,0,107,107,0,107,0,107,0,0,0,107,107,107,107,Tue Sep 24 11:41:14 2019,600,The main experiment item,yes,FlankerTaskKBowman.osexp,/Users/KrisBow/Dropbox/GradSchoolTarleton/Fall2019/AdvQuant/Lab2,no,mono,no,18,no,white,no,yes,768,legacy,27,79,/Users/KrisBow/Dropbox/GradSchoolTarleton/Fall2019/AdvQuant/Lab2/KB-subject-3-F48.csv,legacy,Kafkaesque Koffka,3.2.6,0,h,NA,h,h,NA,h,416,NA,25129,11880,NA,416,2,legacy,1024,2,48000,-16,experiment,HHHHH,3,odd,26445,200263,NA,246476,228978,1302,NA,NA,247576,1314,188381,NA,247687,248106,247566,247687,FlankerTaskKBowman,78,62913,108,yes,1024
72.47706422,72.47706422,581.0550459,581.0550459,black,no,legacy,legacy,legacy,0,congruent,uniform,1,undefined,1,s,0,0,0,108,108,0,108,0,108,0,0,0,108,108,108,108,Tue Sep 24 11:41:14 2019,600,The main experiment item,yes,FlankerTaskKBowman.osexp,/Users/KrisBow/Dropbox/GradSchoolTarleton/Fall2019/AdvQuant/Lab2,no,mono,no,18,no,white,no,yes,768,legacy,28,79,/Users/KrisBow/Dropbox/GradSchoolTarleton/Fall2019/AdvQuant/Lab2/KB-subject-3-F48.csv,legacy,Kafkaesque Koffka,3.2.6,0,s,NA,h,h,NA,s,422,NA,25129,11880,NA,422,2,legacy,1024,2,48000,-16,experiment,SSSSS,3,odd,26445,200263,NA,248118,228978,1302,NA,NA,249217,1314,188381,NA,249328,249752,249207,249328,FlankerTaskKBowman,79,63335,109,yes,1024
72.72727273,72.72727273,579.8636364,579.8636364,black,no,legacy,legacy,legacy,0,incongruent,uniform,1,undefined,1,h,0,0,0,109,109,0,109,0,109,0,0,0,109,109,109,109,Tue Sep 24 11:41:14 2019,600,The main experiment item,yes,FlankerTaskKBowman.osexp,/Users/KrisBow/Dropbox/GradSchoolTarleton/Fall2019/AdvQuant/Lab2,no,mono,no,18,no,white,no,yes,768,legacy,29,79,/Users/KrisBow/Dropbox/GradSchoolTarleton/Fall2019/AdvQuant/Lab2/KB-subject-3-F48.csv,legacy,Kafkaesque Koffka,3.2.6,0,h,NA,h,h,NA,h,450,NA,25129,11880,NA,450,2,legacy,1024,2,48000,-16,experiment,SSHSS,3,odd,26445,200263,NA,249765,228978,1302,NA,NA,250865,1314,188381,NA,250976,251429,250855,250976,FlankerTaskKBowman,80,63785,110,yes,1024
72.97297297,72.97297297,579.3603604,579.3603604,black,no,legacy,legacy,legacy,0,incongruent,uniform,1,undefined,1,s,0,0,0,110,110,0,110,0,110,0,0,0,110,110,110,110,Tue Sep 24 11:41:14 2019,600,The main experiment item,yes,FlankerTaskKBowman.osexp,/Users/KrisBow/Dropbox/GradSchoolTarleton/Fall2019/AdvQuant/Lab2,no,mono,no,18,no,white,no,yes,768,legacy,30,79,/Users/KrisBow/Dropbox/GradSchoolTarleton/Fall2019/AdvQuant/Lab2/KB-subject-3-F48.csv,legacy,Kafkaesque Koffka,3.2.6,0,s,NA,h,h,NA,s,524,NA,25129,11880,NA,524,2,legacy,1024,2,48000,-16,experiment,HHSHH,3,odd,26445,200263,NA,251441,228978,1302,NA,NA,252540,1314,188381,NA,252652,253179,252530,252651,FlankerTaskKBowman,81,64309,111,yes,1024
73.21428571,73.21428571,578.5803571,578.5803571,black,no,legacy,legacy,legacy,0,congruent,uniform,1,undefined,1,h,0,0,0,111,111,0,111,0,111,0,0,0,111,111,111,111,Tue Sep 24 11:41:14 2019,600,The main experiment item,yes,FlankerTaskKBowman.osexp,/Users/KrisBow/Dropbox/GradSchoolTarleton/Fall2019/AdvQuant/Lab2,no,mono,no,18,no,white,no,yes,768,legacy,31,79,/Users/KrisBow/Dropbox/GradSchoolTarleton/Fall2019/AdvQuant/Lab2/KB-subject-3-F48.csv,legacy,Kafkaesque Koffka,3.2.6,0,h,NA,h,h,NA,h,492,NA,25129,11880,NA,492,2,legacy,1024,2,48000,-16,experiment,HHHHH,3,odd,26445,200263,NA,253191,228978,1302,NA,NA,254308,1314,188381,NA,254419,254914,254297,254419,FlankerTaskKBowman,82,64801,112,yes,1024
73.45132743,73.45132743,577.9823009,577.9823009,black,no,legacy,legacy,legacy,0,congruent,uniform,1,undefined,1,h,0,0,0,112,112,0,112,0,112,0,0,0,112,112,112,112,Tue Sep 24 11:41:14 2019,600,The main experiment item,yes,FlankerTaskKBowman.osexp,/Users/KrisBow/Dropbox/GradSchoolTarleton/Fall2019/AdvQuant/Lab2,no,mono,no,18,no,white,no,yes,768,legacy,32,79,/Users/KrisBow/Dropbox/GradSchoolTarleton/Fall2019/AdvQuant/Lab2/KB-subject-3-F48.csv,legacy,Kafkaesque Koffka,3.2.6,0,h,NA,h,h,NA,h,511,NA,25129,11880,NA,511,2,legacy,1024,2,48000,-16,experiment,HHHHH,3,odd,26445,200263,NA,254927,228978,1302,NA,NA,256025,1314,188381,NA,256136,256650,256015,256136,FlankerTaskKBowman,83,65312,113,yes,1024
73.68421053,73.68421053,577.4824561,577.4824561,black,no,legacy,legacy,legacy,0,congruent,uniform,1,undefined,1,s,0,0,0,113,113,0,113,0,113,0,0,0,113,113,113,113,Tue Sep 24 11:41:14 2019,600,The main experiment item,yes,FlankerTaskKBowman.osexp,/Users/KrisBow/Dropbox/GradSchoolTarleton/Fall2019/AdvQuant/Lab2,no,mono,no,18,no,white,no,yes,768,legacy,33,79,/Users/KrisBow/Dropbox/GradSchoolTarleton/Fall2019/AdvQuant/Lab2/KB-subject-3-F48.csv,legacy,Kafkaesque Koffka,3.2.6,0,s,NA,h,h,NA,s,521,NA,25129,11880,NA,521,2,legacy,1024,2,48000,-16,experiment,SSSSS,3,odd,26445,200263,NA,256664,228978,1302,NA,NA,257765,1314,188381,NA,257876,258400,257754,257875,FlankerTaskKBowman,84,65833,114,yes,1024
73.91304348,73.91304348,576.7478261,576.7478261,black,no,legacy,legacy,legacy,0,incongruent,uniform,1,undefined,1,h,0,0,0,114,114,0,114,0,114,0,0,0,114,114,114,114,Tue Sep 24 11:41:14 2019,600,The main experiment item,yes,FlankerTaskKBowman.osexp,/Users/KrisBow/Dropbox/GradSchoolTarleton/Fall2019/AdvQuant/Lab2,no,mono,no,18,no,white,no,yes,768,legacy,34,79,/Users/KrisBow/Dropbox/GradSchoolTarleton/Fall2019/AdvQuant/Lab2/KB-subject-3-F48.csv,legacy,Kafkaesque Koffka,3.2.6,0,h,NA,h,h,NA,h,493,NA,25129,11880,NA,493,2,legacy,1024,2,48000,-16,experiment,SSHSS,3,odd,26445,200263,NA,258413,228978,1302,NA,NA,259512,1314,188381,NA,259624,260119,259502,259623,FlankerTaskKBowman,85,66326,115,yes,1024
74.13793103,74.13793103,576.5517241,576.5517241,black,no,legacy,legacy,legacy,0,incongruent,uniform,1,undefined,1,s,0,0,0,115,115,0,115,0,115,0,0,0,115,115,115,115,Tue Sep 24 11:41:14 2019,600,The main experiment item,yes,FlankerTaskKBowman.osexp,/Users/KrisBow/Dropbox/GradSchoolTarleton/Fall2019/AdvQuant/Lab2,no,mono,no,18,no,white,no,yes,768,legacy,35,79,/Users/KrisBow/Dropbox/GradSchoolTarleton/Fall2019/AdvQuant/Lab2/KB-subject-3-F48.csv,legacy,Kafkaesque Koffka,3.2.6,0,s,NA,h,h,NA,s,554,NA,25129,11880,NA,554,2,legacy,1024,2,48000,-16,experiment,HHSHH,3,odd,26445,200263,NA,260133,228978,1302,NA,NA,261233,1314,188381,NA,261344,261900,261223,261344,FlankerTaskKBowman,86,66880,116,yes,1024
74.35897436,74.35897436,575.8034188,575.8034188,black,no,legacy,legacy,legacy,0,congruent,uniform,1,undefined,1,s,0,0,0,116,116,0,116,0,116,0,0,0,116,116,116,116,Tue Sep 24 11:41:14 2019,600,The main experiment item,yes,FlankerTaskKBowman.osexp,/Users/KrisBow/Dropbox/GradSchoolTarleton/Fall2019/AdvQuant/Lab2,no,mono,no,18,no,white,no,yes,768,legacy,36,79,/Users/KrisBow/Dropbox/GradSchoolTarleton/Fall2019/AdvQuant/Lab2/KB-subject-3-F48.csv,legacy,Kafkaesque Koffka,3.2.6,0,s,NA,h,h,NA,s,489,NA,25129,11880,NA,489,2,legacy,1024,2,48000,-16,experiment,SSSSS,3,odd,26445,200263,NA,261913,228978,1302,NA,NA,263011,1314,188381,NA,263122,263614,263001,263121,FlankerTaskKBowman,87,67369,117,yes,1024
74.57627119,74.57627119,575.6355932,575.6355932,black,no,legacy,legacy,legacy,0,incongruent,uniform,1,undefined,1,s,0,0,0,117,117,0,117,0,117,0,0,0,117,117,117,117,Tue Sep 24 11:41:14 2019,600,The main experiment item,yes,FlankerTaskKBowman.osexp,/Users/KrisBow/Dropbox/GradSchoolTarleton/Fall2019/AdvQuant/Lab2,no,mono,no,18,no,white,no,yes,768,legacy,37,79,/Users/KrisBow/Dropbox/GradSchoolTarleton/Fall2019/AdvQuant/Lab2/KB-subject-3-F48.csv,legacy,Kafkaesque Koffka,3.2.6,0,s,NA,h,h,NA,s,556,NA,25129,11880,NA,556,2,legacy,1024,2,48000,-16,experiment,HHSHH,3,odd,26445,200263,NA,263626,228978,1302,NA,NA,264728,1314,188381,NA,264839,265397,264718,264838,FlankerTaskKBowman,88,67925,118,yes,1024
74.78991597,74.78991597,575.2016807,575.2016807,black,no,legacy,legacy,legacy,0,congruent,uniform,1,undefined,1,s,0,0,0,118,118,0,118,0,118,0,0,0,118,118,118,118,Tue Sep 24 11:41:14 2019,600,The main experiment item,yes,FlankerTaskKBowman.osexp,/Users/KrisBow/Dropbox/GradSchoolTarleton/Fall2019/AdvQuant/Lab2,no,mono,no,18,no,white,no,yes,768,legacy,38,79,/Users/KrisBow/Dropbox/GradSchoolTarleton/Fall2019/AdvQuant/Lab2/KB-subject-3-F48.csv,legacy,Kafkaesque Koffka,3.2.6,0,s,NA,h,h,NA,s,524,NA,25129,11880,NA,524,2,legacy,1024,2,48000,-16,experiment,SSSSS,3,odd,26445,200263,NA,265410,228978,1302,NA,NA,266510,1314,188381,NA,266620,267146,266500,266620,FlankerTaskKBowman,89,68449,119,yes,1024
75,75,575.6583333,575.6583333,black,no,legacy,legacy,legacy,0,incongruent,uniform,1,undefined,1,s,0,0,0,119,119,0,119,0,119,0,0,0,119,119,119,119,Tue Sep 24 11:41:14 2019,600,The main experiment item,yes,FlankerTaskKBowman.osexp,/Users/KrisBow/Dropbox/GradSchoolTarleton/Fall2019/AdvQuant/Lab2,no,mono,no,18,no,white,no,yes,768,legacy,39,79,/Users/KrisBow/Dropbox/GradSchoolTarleton/Fall2019/AdvQuant/Lab2/KB-subject-3-F48.csv,legacy,Kafkaesque Koffka,3.2.6,0,s,NA,h,h,NA,s,630,NA,25129,11880,NA,630,2,legacy,1024,2,48000,-16,experiment,HHSHH,3,odd,26445,200263,NA,267159,228978,1302,NA,NA,268261,1314,188381,NA,268372,269004,268250,268372,FlankerTaskKBowman,90,69079,120,yes,1024
75.20661157,75.20661157,576.4297521,576.4297521,black,no,legacy,legacy,legacy,0,incongruent,uniform,1,undefined,1,h,0,0,0,120,120,0,120,0,120,0,0,0,120,120,120,120,Tue Sep 24 11:41:14 2019,600,The main experiment item,yes,FlankerTaskKBowman.osexp,/Users/KrisBow/Dropbox/GradSchoolTarleton/Fall2019/AdvQuant/Lab2,no,mono,no,18,no,white,no,yes,768,legacy,40,79,/Users/KrisBow/Dropbox/GradSchoolTarleton/Fall2019/AdvQuant/Lab2/KB-subject-3-F48.csv,legacy,Kafkaesque Koffka,3.2.6,0,h,NA,h,h,NA,h,669,NA,25129,11880,NA,669,2,legacy,1024,2,48000,-16,experiment,SSHSS,3,odd,26445,200263,NA,269527,228978,1302,269017,NA,270626,1314,188381,NA,270737,271408,270616,270737,FlankerTaskKBowman,91,69748,121,yes,1024
75.40983607,75.40983607,575.2704918,575.2704918,black,no,legacy,legacy,legacy,0,congruent,uniform,1,undefined,1,h,0,0,0,121,121,0,121,0,121,0,0,0,121,121,121,121,Tue Sep 24 11:41:14 2019,600,The main experiment item,yes,FlankerTaskKBowman.osexp,/Users/KrisBow/Dropbox/GradSchoolTarleton/Fall2019/AdvQuant/Lab2,no,mono,no,18,no,white,no,yes,768,legacy,41,79,/Users/KrisBow/Dropbox/GradSchoolTarleton/Fall2019/AdvQuant/Lab2/KB-subject-3-F48.csv,legacy,Kafkaesque Koffka,3.2.6,0,h,NA,h,h,NA,h,435,NA,25129,11880,NA,435,2,legacy,1024,2,48000,-16,experiment,HHHHH,3,odd,26445,200263,NA,271932,228978,1302,271421,NA,273032,1314,188381,NA,273142,273579,273022,273142,FlankerTaskKBowman,92,70183,122,yes,1024
75.6097561,75.6097561,574.1626016,574.1626016,black,no,legacy,legacy,legacy,0,congruent,uniform,1,undefined,1,s,0,0,0,122,122,0,122,0,122,0,0,0,122,122,122,122,Tue Sep 24 11:41:14 2019,600,The main experiment item,yes,FlankerTaskKBowman.osexp,/Users/KrisBow/Dropbox/GradSchoolTarleton/Fall2019/AdvQuant/Lab2,no,mono,no,18,no,white,no,yes,768,legacy,42,79,/Users/KrisBow/Dropbox/GradSchoolTarleton/Fall2019/AdvQuant/Lab2/KB-subject-3-F48.csv,legacy,Kafkaesque Koffka,3.2.6,0,s,NA,h,h,NA,s,439,NA,25129,11880,NA,439,2,legacy,1024,2,48000,-16,experiment,SSSSS,3,odd,26445,200263,NA,273597,228978,1302,271421,NA,274709,1314,188381,NA,274819,275260,274697,274819,FlankerTaskKBowman,93,70622,123,yes,1024
75.80645161,75.80645161,573.6854839,573.6854839,black,no,legacy,legacy,legacy,0,incongruent,uniform,1,undefined,1,h,0,0,0,123,123,0,123,0,123,0,0,0,123,123,123,123,Tue Sep 24 11:41:14 2019,600,The main experiment item,yes,FlankerTaskKBowman.osexp,/Users/KrisBow/Dropbox/GradSchoolTarleton/Fall2019/AdvQuant/Lab2,no,mono,no,18,no,white,no,yes,768,legacy,43,79,/Users/KrisBow/Dropbox/GradSchoolTarleton/Fall2019/AdvQuant/Lab2/KB-subject-3-F48.csv,legacy,Kafkaesque Koffka,3.2.6,0,h,NA,h,h,NA,h,515,NA,25129,11880,NA,515,2,legacy,1024,2,48000,-16,experiment,SSHSS,3,odd,26445,200263,NA,275273,228978,1302,271421,NA,276373,1314,188381,NA,276484,277000,276363,276484,FlankerTaskKBowman,94,71137,124,yes,1024
76,76,572.736,572.736,black,no,legacy,legacy,legacy,0,congruent,uniform,1,undefined,1,s,0,0,0,124,124,0,124,0,124,0,0,0,124,124,124,124,Tue Sep 24 11:41:14 2019,600,The main experiment item,yes,FlankerTaskKBowman.osexp,/Users/KrisBow/Dropbox/GradSchoolTarleton/Fall2019/AdvQuant/Lab2,no,mono,no,18,no,white,no,yes,768,legacy,44,79,/Users/KrisBow/Dropbox/GradSchoolTarleton/Fall2019/AdvQuant/Lab2/KB-subject-3-F48.csv,legacy,Kafkaesque Koffka,3.2.6,0,s,NA,h,h,NA,s,455,NA,25129,11880,NA,455,2,legacy,1024,2,48000,-16,experiment,SSSSS,3,odd,26445,200263,NA,277013,228978,1302,271421,NA,278112,1314,188381,NA,278223,278680,278102,278223,FlankerTaskKBowman,95,71592,125,yes,1024
76.19047619,76.19047619,571.1111111,571.1111111,black,no,legacy,legacy,legacy,0,incongruent,uniform,1,undefined,1,h,0,0,0,125,125,0,125,0,125,0,0,0,125,125,125,125,Tue Sep 24 11:41:14 2019,600,The main experiment item,yes,FlankerTaskKBowman.osexp,/Users/KrisBow/Dropbox/GradSchoolTarleton/Fall2019/AdvQuant/Lab2,no,mono,no,18,no,white,no,yes,768,legacy,45,79,/Users/KrisBow/Dropbox/GradSchoolTarleton/Fall2019/AdvQuant/Lab2/KB-subject-3-F48.csv,legacy,Kafkaesque Koffka,3.2.6,0,h,NA,h,h,NA,h,368,NA,25129,11880,NA,368,2,legacy,1024,2,48000,-16,experiment,SSHSS,3,odd,26445,200263,NA,278693,228978,1302,271421,NA,279794,1314,188381,NA,279905,280276,279783,279904,FlankerTaskKBowman,96,71960,126,yes,1024
75.59055118,75.59055118,570.5826772,570.5826772,black,no,legacy,legacy,legacy,0,incongruent,uniform,0,undefined,0,s,0,0,0,126,126,0,126,0,126,0,0,0,126,126,126,126,Tue Sep 24 11:41:14 2019,600,The main experiment item,yes,FlankerTaskKBowman.osexp,/Users/KrisBow/Dropbox/GradSchoolTarleton/Fall2019/AdvQuant/Lab2,no,mono,no,18,no,white,no,yes,768,legacy,46,79,/Users/KrisBow/Dropbox/GradSchoolTarleton/Fall2019/AdvQuant/Lab2/KB-subject-3-F48.csv,legacy,Kafkaesque Koffka,3.2.6,0,h,NA,h,h,NA,h,504,NA,25129,11880,NA,504,2,legacy,1024,2,48000,-16,experiment,HHSHH,3,odd,26445,200263,NA,280288,228978,1302,271421,NA,281388,1314,188381,NA,281499,282005,281378,281499,FlankerTaskKBowman,96,72464,127,yes,1024
75.78125,75.78125,570.375,570.375,black,no,legacy,legacy,legacy,0,congruent,uniform,1,undefined,1,s,0,0,0,127,127,0,127,0,127,0,0,0,127,127,127,127,Tue Sep 24 11:41:14 2019,600,The main experiment item,yes,FlankerTaskKBowman.osexp,/Users/KrisBow/Dropbox/GradSchoolTarleton/Fall2019/AdvQuant/Lab2,no,mono,no,18,no,white,no,yes,768,legacy,47,79,/Users/KrisBow/Dropbox/GradSchoolTarleton/Fall2019/AdvQuant/Lab2/KB-subject-3-F48.csv,legacy,Kafkaesque Koffka,3.2.6,0,s,NA,h,h,NA,s,544,NA,25129,11880,NA,544,2,legacy,1024,2,48000,-16,experiment,SSSSS,3,odd,26445,200263,NA,282529,282018,1302,271421,NA,283629,1314,188381,NA,283740,284286,283619,283740,FlankerTaskKBowman,97,73008,128,yes,1024
75.96899225,75.96899225,569.2713178,569.2713178,black,no,legacy,legacy,legacy,0,congruent,uniform,1,undefined,1,s,0,0,0,128,128,0,128,0,128,0,0,0,128,128,128,128,Tue Sep 24 11:41:14 2019,600,The main experiment item,yes,FlankerTaskKBowman.osexp,/Users/KrisBow/Dropbox/GradSchoolTarleton/Fall2019/AdvQuant/Lab2,no,mono,no,18,no,white,no,yes,768,legacy,48,79,/Users/KrisBow/Dropbox/GradSchoolTarleton/Fall2019/AdvQuant/Lab2/KB-subject-3-F48.csv,legacy,Kafkaesque Koffka,3.2.6,0,s,NA,h,h,NA,s,428,NA,25129,11880,NA,428,2,legacy,1024,2,48000,-16,experiment,SSSSS,3,odd,26445,200263,NA,284300,282018,1302,271421,NA,285400,1314,188381,NA,285510,285941,285389,285510,FlankerTaskKBowman,98,73436,129,yes,1024
76.15384615,76.15384615,568.5230769,568.5230769,black,no,legacy,legacy,legacy,0,incongruent,uniform,1,undefined,1,h,0,0,0,129,129,0,129,0,129,0,0,0,129,129,129,129,Tue Sep 24 11:41:14 2019,600,The main experiment item,yes,FlankerTaskKBowman.osexp,/Users/KrisBow/Dropbox/GradSchoolTarleton/Fall2019/AdvQuant/Lab2,no,mono,no,18,no,white,no,yes,768,legacy,49,79,/Users/KrisBow/Dropbox/GradSchoolTarleton/Fall2019/AdvQuant/Lab2/KB-subject-3-F48.csv,legacy,Kafkaesque Koffka,3.2.6,0,h,NA,h,h,NA,h,472,NA,25129,11880,NA,472,2,legacy,1024,2,48000,-16,experiment,SSHSS,3,odd,26445,200263,NA,285956,282018,1302,271421,NA,287056,1314,188381,NA,287167,287641,287046,287166,FlankerTaskKBowman,99,73908,130,yes,1024
76.33587786,76.33587786,567.6793893,567.6793893,black,no,legacy,legacy,legacy,0,congruent,uniform,1,undefined,1,h,0,0,0,130,130,0,130,0,130,0,0,0,130,130,130,130,Tue Sep 24 11:41:14 2019,600,The main experiment item,yes,FlankerTaskKBowman.osexp,/Users/KrisBow/Dropbox/GradSchoolTarleton/Fall2019/AdvQuant/Lab2,no,mono,no,18,no,white,no,yes,768,legacy,50,79,/Users/KrisBow/Dropbox/GradSchoolTarleton/Fall2019/AdvQuant/Lab2/KB-subject-3-F48.csv,legacy,Kafkaesque Koffka,3.2.6,0,h,NA,h,h,NA,h,458,NA,25129,11880,NA,458,2,legacy,1024,2,48000,-16,experiment,HHHHH,3,odd,26445,200263,NA,287653,282018,1302,271421,NA,288754,1314,188381,NA,288866,289326,288744,288865,FlankerTaskKBowman,100,74366,131,yes,1024
75.75757576,75.75757576,566.7121212,566.7121212,black,no,legacy,legacy,legacy,0,incongruent,uniform,0,undefined,0,s,0,0,0,131,131,0,131,0,131,0,0,0,131,131,131,131,Tue Sep 24 11:41:14 2019,600,The main experiment item,yes,FlankerTaskKBowman.osexp,/Users/KrisBow/Dropbox/GradSchoolTarleton/Fall2019/AdvQuant/Lab2,no,mono,no,18,no,white,no,yes,768,legacy,51,79,/Users/KrisBow/Dropbox/GradSchoolTarleton/Fall2019/AdvQuant/Lab2/KB-subject-3-F48.csv,legacy,Kafkaesque Koffka,3.2.6,0,h,NA,h,h,NA,h,440,NA,25129,11880,NA,440,2,legacy,1024,2,48000,-16,experiment,HHSHH,3,odd,26445,200263,NA,289339,282018,1302,271421,NA,290440,1314,188381,NA,290550,290992,290430,290550,FlankerTaskKBowman,100,74806,132,yes,1024
75.93984962,75.93984962,566.1954887,566.1954887,black,no,legacy,legacy,legacy,0,incongruent,uniform,1,undefined,1,h,0,0,0,132,132,0,132,0,132,0,0,0,132,132,132,132,Tue Sep 24 11:41:14 2019,600,The main experiment item,yes,FlankerTaskKBowman.osexp,/Users/KrisBow/Dropbox/GradSchoolTarleton/Fall2019/AdvQuant/Lab2,no,mono,no,18,no,white,no,yes,768,legacy,52,79,/Users/KrisBow/Dropbox/GradSchoolTarleton/Fall2019/AdvQuant/Lab2/KB-subject-3-F48.csv,legacy,Kafkaesque Koffka,3.2.6,0,h,NA,h,h,NA,h,498,NA,25129,11880,NA,498,2,legacy,1024,2,48000,-16,experiment,SSHSS,3,odd,26445,200263,NA,291515,291004,1302,271421,NA,292614,1314,188381,NA,292724,293224,292604,292724,FlankerTaskKBowman,101,75304,133,yes,1024
76.11940299,76.11940299,565.6119403,565.6119403,black,no,legacy,legacy,legacy,0,congruent,uniform,1,undefined,1,h,0,0,0,133,133,0,133,0,133,0,0,0,133,133,133,133,Tue Sep 24 11:41:14 2019,600,The main experiment item,yes,FlankerTaskKBowman.osexp,/Users/KrisBow/Dropbox/GradSchoolTarleton/Fall2019/AdvQuant/Lab2,no,mono,no,18,no,white,no,yes,768,legacy,53,79,/Users/KrisBow/Dropbox/GradSchoolTarleton/Fall2019/AdvQuant/Lab2/KB-subject-3-F48.csv,legacy,Kafkaesque Koffka,3.2.6,0,h,NA,h,h,NA,h,488,NA,25129,11880,NA,488,2,legacy,1024,2,48000,-16,experiment,HHHHH,3,odd,26445,200263,NA,293237,291004,1302,271421,NA,294337,1314,188381,NA,294448,294938,294327,294447,FlankerTaskKBowman,102,75792,134,yes,1024
76.2962963,76.2962963,566,566,black,no,legacy,legacy,legacy,0,incongruent,uniform,1,undefined,1,h,0,0,0,134,134,0,134,0,134,0,0,0,134,134,134,134,Tue Sep 24 11:41:14 2019,600,The main experiment item,yes,FlankerTaskKBowman.osexp,/Users/KrisBow/Dropbox/GradSchoolTarleton/Fall2019/AdvQuant/Lab2,no,mono,no,18,no,white,no,yes,768,legacy,54,79,/Users/KrisBow/Dropbox/GradSchoolTarleton/Fall2019/AdvQuant/Lab2/KB-subject-3-F48.csv,legacy,Kafkaesque Koffka,3.2.6,0,h,NA,h,h,NA,h,618,NA,25129,11880,NA,618,2,legacy,1024,2,48000,-16,experiment,SSHSS,3,odd,26445,200263,NA,294951,291004,1302,271421,NA,296051,1314,188381,NA,296162,296782,296041,296162,FlankerTaskKBowman,103,76410,135,yes,1024
76.47058824,76.47058824,564.5882353,564.5882353,black,no,legacy,legacy,legacy,0,congruent,uniform,1,undefined,1,h,0,0,0,135,135,0,135,0,135,0,0,0,135,135,135,135,Tue Sep 24 11:41:14 2019,600,The main experiment item,yes,FlankerTaskKBowman.osexp,/Users/KrisBow/Dropbox/GradSchoolTarleton/Fall2019/AdvQuant/Lab2,no,mono,no,18,no,white,no,yes,768,legacy,55,79,/Users/KrisBow/Dropbox/GradSchoolTarleton/Fall2019/AdvQuant/Lab2/KB-subject-3-F48.csv,legacy,Kafkaesque Koffka,3.2.6,0,h,NA,h,h,NA,h,374,NA,25129,11880,NA,374,2,legacy,1024,2,48000,-16,experiment,HHHHH,3,odd,26445,200263,NA,297305,291004,1302,296795,NA,298405,1314,188381,NA,298515,298892,298395,298515,FlankerTaskKBowman,104,76784,136,yes,1024
76.64233577,76.64233577,563.6569343,563.6569343,black,no,legacy,legacy,legacy,0,congruent,uniform,1,undefined,1,s,0,0,0,136,136,0,136,0,136,0,0,0,136,136,136,136,Tue Sep 24 11:41:14 2019,600,The main experiment item,yes,FlankerTaskKBowman.osexp,/Users/KrisBow/Dropbox/GradSchoolTarleton/Fall2019/AdvQuant/Lab2,no,mono,no,18,no,white,no,yes,768,legacy,56,79,/Users/KrisBow/Dropbox/GradSchoolTarleton/Fall2019/AdvQuant/Lab2/KB-subject-3-F48.csv,legacy,Kafkaesque Koffka,3.2.6,0,s,NA,h,h,NA,s,437,NA,25129,11880,NA,437,2,legacy,1024,2,48000,-16,experiment,SSSSS,3,odd,26445,200263,NA,298904,291004,1302,296795,NA,300009,1314,188381,NA,300120,300559,299999,300120,FlankerTaskKBowman,105,77221,137,yes,1024
76.8115942,76.8115942,562.9782609,562.9782609,black,no,legacy,legacy,legacy,0,incongruent,uniform,1,undefined,1,h,0,0,0,137,137,0,137,0,137,0,0,0,137,137,137,137,Tue Sep 24 11:41:14 2019,600,The main experiment item,yes,FlankerTaskKBowman.osexp,/Users/KrisBow/Dropbox/GradSchoolTarleton/Fall2019/AdvQuant/Lab2,no,mono,no,18,no,white,no,yes,768,legacy,57,79,/Users/KrisBow/Dropbox/GradSchoolTarleton/Fall2019/AdvQuant/Lab2/KB-subject-3-F48.csv,legacy,Kafkaesque Koffka,3.2.6,0,h,NA,h,h,NA,h,470,NA,25129,11880,NA,470,2,legacy,1024,2,48000,-16,experiment,SSHSS,3,odd,26445,200263,NA,300572,291004,1302,296795,NA,301673,1314,188381,NA,301784,302257,301663,301784,FlankerTaskKBowman,106,77691,138,yes,1024
76.97841727,76.97841727,563,563,black,no,legacy,legacy,legacy,0,incongruent,uniform,1,undefined,1,s,0,0,0,138,138,0,138,0,138,0,0,0,138,138,138,138,Tue Sep 24 11:41:14 2019,600,The main experiment item,yes,FlankerTaskKBowman.osexp,/Users/KrisBow/Dropbox/GradSchoolTarleton/Fall2019/AdvQuant/Lab2,no,mono,no,18,no,white,no,yes,768,legacy,58,79,/Users/KrisBow/Dropbox/GradSchoolTarleton/Fall2019/AdvQuant/Lab2/KB-subject-3-F48.csv,legacy,Kafkaesque Koffka,3.2.6,0,s,NA,h,h,NA,s,566,NA,25129,11880,NA,566,2,legacy,1024,2,48000,-16,experiment,HHSHH,3,odd,26445,200263,NA,302270,291004,1302,296795,NA,303369,1314,188381,NA,303480,304049,303359,303480,FlankerTaskKBowman,107,78257,139,yes,1024
77.14285714,77.14285714,562.05,562.05,black,no,legacy,legacy,legacy,0,congruent,uniform,1,undefined,1,h,0,0,0,139,139,0,139,0,139,0,0,0,139,139,139,139,Tue Sep 24 11:41:14 2019,600,The main experiment item,yes,FlankerTaskKBowman.osexp,/Users/KrisBow/Dropbox/GradSchoolTarleton/Fall2019/AdvQuant/Lab2,no,mono,no,18,no,white,no,yes,768,legacy,59,79,/Users/KrisBow/Dropbox/GradSchoolTarleton/Fall2019/AdvQuant/Lab2/KB-subject-3-F48.csv,legacy,Kafkaesque Koffka,3.2.6,0,h,NA,h,h,NA,h,430,NA,25129,11880,NA,430,2,legacy,1024,2,48000,-16,experiment,HHHHH,3,odd,26445,200263,NA,304062,291004,1302,296795,NA,305161,1314,188381,NA,305273,305706,305151,305272,FlankerTaskKBowman,108,78687,140,yes,1024
77.30496454,77.30496454,561.3049645,561.3049645,black,no,legacy,legacy,legacy,0,congruent,uniform,1,undefined,1,h,0,0,0,140,140,0,140,0,140,0,0,0,140,140,140,140,Tue Sep 24 11:41:14 2019,600,The main experiment item,yes,FlankerTaskKBowman.osexp,/Users/KrisBow/Dropbox/GradSchoolTarleton/Fall2019/AdvQuant/Lab2,no,mono,no,18,no,white,no,yes,768,legacy,60,79,/Users/KrisBow/Dropbox/GradSchoolTarleton/Fall2019/AdvQuant/Lab2/KB-subject-3-F48.csv,legacy,Kafkaesque Koffka,3.2.6,0,h,NA,h,h,NA,h,457,NA,25129,11880,NA,457,2,legacy,1024,2,48000,-16,experiment,HHHHH,3,odd,26445,200263,NA,305718,291004,1302,296795,NA,306818,1314,188381,NA,306929,307389,306808,306928,FlankerTaskKBowman,109,79144,141,yes,1024
77.46478873,77.46478873,560.6056338,560.6056338,black,no,legacy,legacy,legacy,0,congruent,uniform,1,undefined,1,h,0,0,0,141,141,0,141,0,141,0,0,0,141,141,141,141,Tue Sep 24 11:41:14 2019,600,The main experiment item,yes,FlankerTaskKBowman.osexp,/Users/KrisBow/Dropbox/GradSchoolTarleton/Fall2019/AdvQuant/Lab2,no,mono,no,18,no,white,no,yes,768,legacy,61,79,/Users/KrisBow/Dropbox/GradSchoolTarleton/Fall2019/AdvQuant/Lab2/KB-subject-3-F48.csv,legacy,Kafkaesque Koffka,3.2.6,0,h,NA,h,h,NA,h,462,NA,25129,11880,NA,462,2,legacy,1024,2,48000,-16,experiment,HHHHH,3,odd,26445,200263,NA,307401,291004,1302,296795,NA,308502,1314,188381,NA,308613,309078,308491,308612,FlankerTaskKBowman,110,79606,142,yes,1024
77.62237762,77.62237762,559.5244755,559.5244755,black,no,legacy,legacy,legacy,0,congruent,uniform,1,undefined,1,s,0,0,0,142,142,0,142,0,142,0,0,0,142,142,142,142,Tue Sep 24 11:41:14 2019,600,The main experiment item,yes,FlankerTaskKBowman.osexp,/Users/KrisBow/Dropbox/GradSchoolTarleton/Fall2019/AdvQuant/Lab2,no,mono,no,18,no,white,no,yes,768,legacy,62,79,/Users/KrisBow/Dropbox/GradSchoolTarleton/Fall2019/AdvQuant/Lab2/KB-subject-3-F48.csv,legacy,Kafkaesque Koffka,3.2.6,0,s,NA,h,h,NA,s,406,NA,25129,11880,NA,406,2,legacy,1024,2,48000,-16,experiment,SSSSS,3,odd,26445,200263,NA,309091,291004,1302,296795,NA,310192,1314,188381,NA,310302,310711,310182,310302,FlankerTaskKBowman,111,80012,143,yes,1024
77.77777778,77.77777778,558.7777778,558.7777778,black,no,legacy,legacy,legacy,0,congruent,uniform,1,undefined,1,s,0,0,0,143,143,0,143,0,143,0,0,0,143,143,143,143,Tue Sep 24 11:41:14 2019,600,The main experiment item,yes,FlankerTaskKBowman.osexp,/Users/KrisBow/Dropbox/GradSchoolTarleton/Fall2019/AdvQuant/Lab2,no,mono,no,18,no,white,no,yes,768,legacy,63,79,/Users/KrisBow/Dropbox/GradSchoolTarleton/Fall2019/AdvQuant/Lab2/KB-subject-3-F48.csv,legacy,Kafkaesque Koffka,3.2.6,0,s,NA,h,h,NA,s,452,NA,25129,11880,NA,452,2,legacy,1024,2,48000,-16,experiment,SSSSS,3,odd,26445,200263,NA,310724,291004,1302,296795,NA,311824,1314,188381,NA,311935,312390,311814,311935,FlankerTaskKBowman,112,80464,144,yes,1024
