acc,accuracy,average_response_time,avg_rt,background,canvas_backend,clock_backend,color_backend,compensation,condition,coordinates,correct,correct_instructions1,correct_keyboard_response,correct_response,count_Block1,count_Block2,count_Block3,count_ISI,count_errorFeedback,count_experiment,count_faster,count_finish,count_fixation,count_instructions1,count_instructions3,count_instrutions2,count_keyboard_response,count_logger,count_sequence,count_stimulus,datetime,deadline,description,disable_garbage_collection,experiment_file,experiment_path,font_bold,font_family,font_italic,font_size,font_underline,foreground,form_clicks,fullscreen,height,keyboard_backend,live_row,live_row_Block1,logfile,mouse_backend,opensesame_codename,opensesame_version,repeat_cycle,response,response_finish,response_instructions1,response_instructions3,response_instrutions2,response_keyboard_response,response_time,response_time_finish,response_time_instructions1,response_time_instructions3,response_time_instrutions2,response_time_keyboard_response,round_decimals,sampler_backend,sound_buf_size,sound_channels,sound_freq,sound_sample_size,start,stimulus,subject_nr,subject_parity,time_Block1,time_Block2,time_Block3,time_ISI,time_errorFeedback,time_experiment,time_faster,time_finish,time_fixation,time_instructions1,time_instructions3,time_instrutions2,time_keyboard_response,time_logger,time_sequence,time_stimulus,title,total_correct,total_response_time,total_responses,uniform_coordinates,width
100,100,534,534,black,legacy,legacy,legacy,0,incongruent,uniform,1,undefined,1,h,0,0,0,0,0,0,0,0,0,0,0,0,0,0,0,0,Sun Sep 24 12:55:52 2023,1500,The main experiment item,yes,Flankertask.osexp,/Users/Thingtwo/Desktop,no,mono,no,18,no,white,no,yes,768,legacy,0,0,/Users/Thingtwo/Desktop/NC-subject-3.csv,legacy,Lentiform Loewenfeld,3.3.14,0,h,NA,s,NA,NA,h,534,NA,3097,NA,NA,534,2,legacy,1024,2,48000,-16,experiment,SSHSS,3,odd,5187,NA,NA,NA,NA,2061,NA,NA,5216,2082,NA,NA,5322,5856,5212,5322,New experiment,1,534,1,yes,1024
100,100,437.5,437.5,black,legacy,legacy,legacy,0,congruent,uniform,1,undefined,1,s,0,0,0,1,1,0,1,0,1,0,0,0,1,1,1,1,Sun Sep 24 12:55:52 2023,1500,The main experiment item,yes,Flankertask.osexp,/Users/Thingtwo/Desktop,no,mono,no,18,no,white,no,yes,768,legacy,1,1,/Users/Thingtwo/Desktop/NC-subject-3.csv,legacy,Lentiform Loewenfeld,3.3.14,0,s,NA,s,NA,NA,s,341,NA,3097,NA,NA,341,2,legacy,1024,2,48000,-16,experiment,SSSSS,3,odd,5187,NA,NA,5862,NA,2061,NA,NA,6920,2082,NA,NA,7026,7367,6914,7026,New experiment,2,875,2,yes,1024
100,100,422.3333333,422.3333333,black,legacy,legacy,legacy,0,incongruent,uniform,1,undefined,1,h,0,0,0,2,2,0,2,0,2,0,0,0,2,2,2,2,Sun Sep 24 12:55:52 2023,1500,The main experiment item,yes,Flankertask.osexp,/Users/Thingtwo/Desktop,no,mono,no,18,no,white,no,yes,768,legacy,2,2,/Users/Thingtwo/Desktop/NC-subject-3.csv,legacy,Lentiform Loewenfeld,3.3.14,0,h,NA,s,NA,NA,h,392,NA,3097,NA,NA,392,2,legacy,1024,2,48000,-16,experiment,SSHSS,3,odd,5187,NA,NA,7372,NA,2061,NA,NA,8428,2082,NA,NA,8535,8927,8422,8535,New experiment,3,1267,3,yes,1024
100,100,424.5,424.5,black,legacy,legacy,legacy,0,incongruent,uniform,1,undefined,1,s,0,0,0,3,3,0,3,0,3,0,0,0,3,3,3,3,Sun Sep 24 12:55:52 2023,1500,The main experiment item,yes,Flankertask.osexp,/Users/Thingtwo/Desktop,no,mono,no,18,no,white,no,yes,768,legacy,3,3,/Users/Thingtwo/Desktop/NC-subject-3.csv,legacy,Lentiform Loewenfeld,3.3.14,0,s,NA,s,NA,NA,s,431,NA,3097,NA,NA,431,2,legacy,1024,2,48000,-16,experiment,HHSHH,3,odd,5187,NA,NA,8933,NA,2061,NA,NA,9989,2082,NA,NA,10095,10526,9983,10095,New experiment,4,1698,4,yes,1024
80,80,416.4,416.4,black,legacy,legacy,legacy,0,incongruent,uniform,0,undefined,0,s,0,0,0,4,4,0,4,0,4,0,0,0,4,4,4,4,Sun Sep 24 12:55:52 2023,1500,The main experiment item,yes,Flankertask.osexp,/Users/Thingtwo/Desktop,no,mono,no,18,no,white,no,yes,768,legacy,4,4,/Users/Thingtwo/Desktop/NC-subject-3.csv,legacy,Lentiform Loewenfeld,3.3.14,0,h,NA,s,NA,NA,h,384,NA,3097,NA,NA,384,2,legacy,1024,2,48000,-16,experiment,HHSHH,3,odd,5187,NA,NA,10531,NA,2061,NA,NA,11580,2082,NA,NA,11687,12071,11574,11686,New experiment,4,2082,5,yes,1024
83.33333333,83.33333333,430.1666667,430.1666667,black,legacy,legacy,legacy,0,congruent,uniform,1,undefined,1,s,0,0,0,5,5,0,5,0,5,0,0,0,5,5,5,5,Sun Sep 24 12:55:52 2023,1500,The main experiment item,yes,Flankertask.osexp,/Users/Thingtwo/Desktop,no,mono,no,18,no,white,no,yes,768,legacy,5,5,/Users/Thingtwo/Desktop/NC-subject-3.csv,legacy,Lentiform Loewenfeld,3.3.14,0,s,NA,s,NA,NA,s,499,NA,3097,NA,NA,499,2,legacy,1024,2,48000,-16,experiment,SSSSS,3,odd,5187,NA,NA,12586,12076,2061,NA,NA,13639,2082,NA,NA,13746,14250,13630,13746,New experiment,5,2581,6,yes,1024
85.71428571,85.71428571,428.8571429,428.8571429,black,legacy,legacy,legacy,0,incongruent,uniform,1,undefined,1,s,0,0,0,6,6,0,6,0,6,0,0,0,6,6,6,6,Sun Sep 24 12:55:52 2023,1500,The main experiment item,yes,Flankertask.osexp,/Users/Thingtwo/Desktop,no,mono,no,18,no,white,no,yes,768,legacy,6,6,/Users/Thingtwo/Desktop/NC-subject-3.csv,legacy,Lentiform Loewenfeld,3.3.14,0,s,NA,s,NA,NA,s,421,NA,3097,NA,NA,421,2,legacy,1024,2,48000,-16,experiment,HHSHH,3,odd,5187,NA,NA,14255,12076,2061,NA,NA,15306,2082,NA,NA,15413,15834,15297,15413,New experiment,6,3002,7,yes,1024
75,75,412.875,412.875,black,legacy,legacy,legacy,0,congruent,uniform,0,undefined,0,h,0,0,0,7,7,0,7,0,7,0,0,0,7,7,7,7,Sun Sep 24 12:55:52 2023,1500,The main experiment item,yes,Flankertask.osexp,/Users/Thingtwo/Desktop,no,mono,no,18,no,white,no,yes,768,legacy,7,7,/Users/Thingtwo/Desktop/NC-subject-3.csv,legacy,Lentiform Loewenfeld,3.3.14,0,s,NA,s,NA,NA,s,301,NA,3097,NA,NA,301,2,legacy,1024,2,48000,-16,experiment,HHHHH,3,odd,5187,NA,NA,15839,12076,2061,NA,NA,16887,2082,NA,NA,16993,17295,16881,16993,New experiment,6,3303,8,yes,1024
77.77777778,77.77777778,409.2222222,409.2222222,black,legacy,legacy,legacy,0,incongruent,uniform,1,undefined,1,s,0,0,0,8,8,0,8,0,8,0,0,0,8,8,8,8,Sun Sep 24 12:55:52 2023,1500,The main experiment item,yes,Flankertask.osexp,/Users/Thingtwo/Desktop,no,mono,no,18,no,white,no,yes,768,legacy,8,8,/Users/Thingtwo/Desktop/NC-subject-3.csv,legacy,Lentiform Loewenfeld,3.3.14,0,s,NA,s,NA,NA,s,380,NA,3097,NA,NA,380,2,legacy,1024,2,48000,-16,experiment,HHSHH,3,odd,5187,NA,NA,17811,17300,2061,NA,NA,18862,2082,NA,NA,18970,19350,18855,18969,New experiment,7,3683,9,yes,1024
80,80,405.4,405.4,black,legacy,legacy,legacy,0,congruent,uniform,1,undefined,1,h,0,0,0,9,9,0,9,0,9,0,0,0,9,9,9,9,Sun Sep 24 12:55:52 2023,1500,The main experiment item,yes,Flankertask.osexp,/Users/Thingtwo/Desktop,no,mono,no,18,no,white,no,yes,768,legacy,9,9,/Users/Thingtwo/Desktop/NC-subject-3.csv,legacy,Lentiform Loewenfeld,3.3.14,0,h,NA,s,NA,NA,h,371,NA,3097,NA,NA,371,2,legacy,1024,2,48000,-16,experiment,HHHHH,3,odd,5187,NA,NA,19355,17300,2061,NA,NA,20404,2082,NA,NA,20510,20881,20397,20510,New experiment,8,4054,10,yes,1024
81.81818182,81.81818182,401.1818182,401.1818182,black,legacy,legacy,legacy,0,congruent,uniform,1,undefined,1,s,0,0,0,10,10,0,10,0,10,0,0,0,10,10,10,10,Sun Sep 24 12:55:52 2023,1500,The main experiment item,yes,Flankertask.osexp,/Users/Thingtwo/Desktop,no,mono,no,18,no,white,no,yes,768,legacy,10,10,/Users/Thingtwo/Desktop/NC-subject-3.csv,legacy,Lentiform Loewenfeld,3.3.14,0,s,NA,s,NA,NA,s,359,NA,3097,NA,NA,359,2,legacy,1024,2,48000,-16,experiment,SSSSS,3,odd,5187,NA,NA,20886,17300,2061,NA,NA,21935,2082,NA,NA,22042,22401,21928,22042,New experiment,9,4413,11,yes,1024
83.33333333,83.33333333,402.3333333,402.3333333,black,legacy,legacy,legacy,0,congruent,uniform,1,undefined,1,s,0,0,0,11,11,0,11,0,11,0,0,0,11,11,11,11,Sun Sep 24 12:55:52 2023,1500,The main experiment item,yes,Flankertask.osexp,/Users/Thingtwo/Desktop,no,mono,no,18,no,white,no,yes,768,legacy,11,11,/Users/Thingtwo/Desktop/NC-subject-3.csv,legacy,Lentiform Loewenfeld,3.3.14,0,s,NA,s,NA,NA,s,415,NA,3097,NA,NA,415,2,legacy,1024,2,48000,-16,experiment,SSSSS,3,odd,5187,NA,NA,22406,17300,2061,NA,NA,23458,2082,NA,NA,23564,23979,23449,23564,New experiment,10,4828,12,yes,1024
84.61538462,84.61538462,410.7692308,410.7692308,black,legacy,legacy,legacy,0,incongruent,uniform,1,undefined,1,h,0,0,0,12,12,0,12,0,12,0,0,0,12,12,12,12,Sun Sep 24 12:55:52 2023,1500,The main experiment item,yes,Flankertask.osexp,/Users/Thingtwo/Desktop,no,mono,no,18,no,white,no,yes,768,legacy,12,12,/Users/Thingtwo/Desktop/NC-subject-3.csv,legacy,Lentiform Loewenfeld,3.3.14,0,h,NA,s,NA,NA,h,512,NA,3097,NA,NA,512,2,legacy,1024,2,48000,-16,experiment,SSHSS,3,odd,5187,NA,NA,23984,17300,2061,NA,NA,25033,2082,NA,NA,25140,25652,25027,25140,New experiment,11,5340,13,yes,1024
78.57142857,78.57142857,400.1428571,400.1428571,black,legacy,legacy,legacy,0,congruent,uniform,0,undefined,0,h,0,0,0,13,13,0,13,0,13,0,0,0,13,13,13,13,Sun Sep 24 12:55:52 2023,1500,The main experiment item,yes,Flankertask.osexp,/Users/Thingtwo/Desktop,no,mono,no,18,no,white,no,yes,768,legacy,13,13,/Users/Thingtwo/Desktop/NC-subject-3.csv,legacy,Lentiform Loewenfeld,3.3.14,0,s,NA,s,NA,NA,s,262,NA,3097,NA,NA,262,2,legacy,1024,2,48000,-16,experiment,HHHHH,3,odd,5187,NA,NA,25657,17300,2061,NA,NA,26705,2082,NA,NA,26811,27074,26699,26811,New experiment,11,5602,14,yes,1024
80,80,402.2666667,402.2666667,black,legacy,legacy,legacy,0,incongruent,uniform,1,undefined,1,h,0,0,0,14,14,0,14,0,14,0,0,0,14,14,14,14,Sun Sep 24 12:55:52 2023,1500,The main experiment item,yes,Flankertask.osexp,/Users/Thingtwo/Desktop,no,mono,no,18,no,white,no,yes,768,legacy,14,14,/Users/Thingtwo/Desktop/NC-subject-3.csv,legacy,Lentiform Loewenfeld,3.3.14,0,h,NA,s,NA,NA,h,432,NA,3097,NA,NA,432,2,legacy,1024,2,48000,-16,experiment,SSHSS,3,odd,5187,NA,NA,27589,27079,2061,NA,NA,28637,2082,NA,NA,28743,29176,28631,28743,New experiment,12,6034,15,yes,1024
81.25,81.25,400.25,400.25,black,legacy,legacy,legacy,0,incongruent,uniform,1,undefined,1,h,0,0,0,15,15,0,15,0,15,0,0,0,15,15,15,15,Sun Sep 24 12:55:52 2023,1500,The main experiment item,yes,Flankertask.osexp,/Users/Thingtwo/Desktop,no,mono,no,18,no,white,no,yes,768,legacy,15,15,/Users/Thingtwo/Desktop/NC-subject-3.csv,legacy,Lentiform Loewenfeld,3.3.14,0,h,NA,s,NA,NA,h,370,NA,3097,NA,NA,370,2,legacy,1024,2,48000,-16,experiment,SSHSS,3,odd,5187,NA,NA,29181,27079,2061,NA,NA,30230,2082,NA,NA,30337,30707,30224,30336,New experiment,13,6404,16,yes,1024
82.35294118,82.35294118,395.4117647,395.4117647,black,legacy,legacy,legacy,0,incongruent,uniform,1,undefined,1,h,0,0,0,16,16,0,16,0,16,0,0,0,16,16,16,16,Sun Sep 24 12:55:52 2023,1500,The main experiment item,yes,Flankertask.osexp,/Users/Thingtwo/Desktop,no,mono,no,18,no,white,no,yes,768,legacy,16,16,/Users/Thingtwo/Desktop/NC-subject-3.csv,legacy,Lentiform Loewenfeld,3.3.14,0,h,NA,s,NA,NA,h,318,NA,3097,NA,NA,318,2,legacy,1024,2,48000,-16,experiment,SSHSS,3,odd,5187,NA,NA,30712,27079,2061,NA,NA,31760,2082,NA,NA,31867,32185,31755,31867,New experiment,14,6722,17,yes,1024
83.33333333,83.33333333,392.4444444,392.4444444,black,legacy,legacy,legacy,0,congruent,uniform,1,undefined,1,h,0,0,0,17,17,0,17,0,17,0,0,0,17,17,17,17,Sun Sep 24 12:55:52 2023,1500,The main experiment item,yes,Flankertask.osexp,/Users/Thingtwo/Desktop,no,mono,no,18,no,white,no,yes,768,legacy,17,17,/Users/Thingtwo/Desktop/NC-subject-3.csv,legacy,Lentiform Loewenfeld,3.3.14,0,h,NA,s,NA,NA,h,342,NA,3097,NA,NA,342,2,legacy,1024,2,48000,-16,experiment,HHHHH,3,odd,5187,NA,NA,32190,27079,2061,NA,NA,33238,2082,NA,NA,33345,33687,33232,33345,New experiment,15,7064,18,yes,1024
84.21052632,84.21052632,391.3684211,391.3684211,black,legacy,legacy,legacy,0,incongruent,uniform,1,undefined,1,s,0,0,0,18,18,0,18,0,18,0,0,0,18,18,18,18,Sun Sep 24 12:55:52 2023,1500,The main experiment item,yes,Flankertask.osexp,/Users/Thingtwo/Desktop,no,mono,no,18,no,white,no,yes,768,legacy,18,18,/Users/Thingtwo/Desktop/NC-subject-3.csv,legacy,Lentiform Loewenfeld,3.3.14,0,s,NA,s,NA,NA,s,372,NA,3097,NA,NA,372,2,legacy,1024,2,48000,-16,experiment,HHSHH,3,odd,5187,NA,NA,33692,27079,2061,NA,NA,34740,2082,NA,NA,34847,35220,34734,34847,New experiment,16,7436,19,yes,1024
85,85,388.85,388.85,black,legacy,legacy,legacy,0,congruent,uniform,1,undefined,1,h,0,0,0,19,19,0,19,0,19,0,0,0,19,19,19,19,Sun Sep 24 12:55:52 2023,1500,The main experiment item,yes,Flankertask.osexp,/Users/Thingtwo/Desktop,no,mono,no,18,no,white,no,yes,768,legacy,19,19,/Users/Thingtwo/Desktop/NC-subject-3.csv,legacy,Lentiform Loewenfeld,3.3.14,0,h,NA,s,NA,NA,h,341,NA,3097,NA,NA,341,2,legacy,1024,2,48000,-16,experiment,HHHHH,3,odd,5187,NA,NA,35225,27079,2061,NA,NA,36273,2082,NA,NA,36379,36720,36267,36379,New experiment,17,7777,20,yes,1024
85.71428571,85.71428571,386.1428571,386.1428571,black,legacy,legacy,legacy,0,congruent,uniform,1,undefined,1,h,0,0,0,20,20,0,20,0,20,0,0,0,20,20,20,20,Sun Sep 24 12:55:52 2023,1500,The main experiment item,yes,Flankertask.osexp,/Users/Thingtwo/Desktop,no,mono,no,18,no,white,no,yes,768,legacy,20,20,/Users/Thingtwo/Desktop/NC-subject-3.csv,legacy,Lentiform Loewenfeld,3.3.14,0,h,NA,s,NA,NA,h,332,NA,3097,NA,NA,332,2,legacy,1024,2,48000,-16,experiment,HHHHH,3,odd,5187,NA,NA,36725,27079,2061,NA,NA,37773,2082,NA,NA,37880,38212,37768,37880,New experiment,18,8109,21,yes,1024
86.36363636,86.36363636,392.6363636,392.6363636,black,legacy,legacy,legacy,0,congruent,uniform,1,undefined,1,s,0,0,0,21,21,0,21,0,21,0,0,0,21,21,21,21,Sun Sep 24 12:55:52 2023,1500,The main experiment item,yes,Flankertask.osexp,/Users/Thingtwo/Desktop,no,mono,no,18,no,white,no,yes,768,legacy,21,21,/Users/Thingtwo/Desktop/NC-subject-3.csv,legacy,Lentiform Loewenfeld,3.3.14,0,s,NA,s,NA,NA,s,529,NA,3097,NA,NA,529,2,legacy,1024,2,48000,-16,experiment,SSSSS,3,odd,5187,NA,NA,38217,27079,2061,NA,NA,39265,2082,NA,NA,39371,39900,39259,39371,New experiment,19,8638,22,yes,1024
86.95652174,86.95652174,389,389,black,legacy,legacy,legacy,0,congruent,uniform,1,undefined,1,s,0,0,0,22,22,0,22,0,22,0,0,0,22,22,22,22,Sun Sep 24 12:55:52 2023,1500,The main experiment item,yes,Flankertask.osexp,/Users/Thingtwo/Desktop,no,mono,no,18,no,white,no,yes,768,legacy,22,22,/Users/Thingtwo/Desktop/NC-subject-3.csv,legacy,Lentiform Loewenfeld,3.3.14,0,s,NA,s,NA,NA,s,309,NA,3097,NA,NA,309,2,legacy,1024,2,48000,-16,experiment,SSSSS,3,odd,5187,NA,NA,39905,27079,2061,NA,NA,40954,2082,NA,NA,41061,41370,40949,41061,New experiment,20,8947,23,yes,1024
87.5,87.5,392.8333333,392.8333333,black,legacy,legacy,legacy,0,incongruent,uniform,1,undefined,1,s,0,0,0,23,23,0,23,0,23,0,0,0,23,23,23,23,Sun Sep 24 12:55:52 2023,1500,The main experiment item,yes,Flankertask.osexp,/Users/Thingtwo/Desktop,no,mono,no,18,no,white,no,yes,768,legacy,23,23,/Users/Thingtwo/Desktop/NC-subject-3.csv,legacy,Lentiform Loewenfeld,3.3.14,0,s,NA,s,NA,NA,s,481,NA,3097,NA,NA,481,2,legacy,1024,2,48000,-16,experiment,HHSHH,3,odd,5187,NA,NA,41375,27079,2061,NA,NA,42425,2082,NA,NA,42531,43012,42420,42531,New experiment,21,9428,24,yes,1024
88,88,389.8,389.8,black,legacy,legacy,legacy,0,incongruent,uniform,1,undefined,1,s,0,0,0,24,24,0,24,0,24,0,0,0,24,24,24,24,Sun Sep 24 12:55:52 2023,1500,The main experiment item,yes,Flankertask.osexp,/Users/Thingtwo/Desktop,no,mono,no,18,no,white,no,yes,768,legacy,24,24,/Users/Thingtwo/Desktop/NC-subject-3.csv,legacy,Lentiform Loewenfeld,3.3.14,0,s,NA,s,NA,NA,s,317,NA,3097,NA,NA,317,2,legacy,1024,2,48000,-16,experiment,HHSHH,3,odd,5187,NA,NA,43017,27079,2061,NA,NA,44064,2082,NA,NA,44170,44487,44058,44170,New experiment,22,9745,25,yes,1024
88.46153846,88.46153846,386.6153846,386.6153846,black,legacy,legacy,legacy,0,congruent,uniform,1,undefined,1,h,0,0,0,25,25,0,25,0,25,0,0,0,25,25,25,25,Sun Sep 24 12:55:52 2023,1500,The main experiment item,yes,Flankertask.osexp,/Users/Thingtwo/Desktop,no,mono,no,18,no,white,no,yes,768,legacy,25,25,/Users/Thingtwo/Desktop/NC-subject-3.csv,legacy,Lentiform Loewenfeld,3.3.14,0,h,NA,s,NA,NA,h,307,NA,3097,NA,NA,307,2,legacy,1024,2,48000,-16,experiment,HHHHH,3,odd,5187,NA,NA,44492,27079,2061,NA,NA,45540,2082,NA,NA,45646,45953,45535,45646,New experiment,23,10052,26,yes,1024
88.88888889,88.88888889,385.5555556,385.5555556,black,legacy,legacy,legacy,0,incongruent,uniform,1,undefined,1,h,0,0,0,26,26,0,26,0,26,0,0,0,26,26,26,26,Sun Sep 24 12:55:52 2023,1500,The main experiment item,yes,Flankertask.osexp,/Users/Thingtwo/Desktop,no,mono,no,18,no,white,no,yes,768,legacy,26,26,/Users/Thingtwo/Desktop/NC-subject-3.csv,legacy,Lentiform Loewenfeld,3.3.14,0,h,NA,s,NA,NA,h,358,NA,3097,NA,NA,358,2,legacy,1024,2,48000,-16,experiment,SSHSS,3,odd,5187,NA,NA,45958,27079,2061,NA,NA,47003,2082,NA,NA,47109,47468,46998,47109,New experiment,24,10410,27,yes,1024
89.28571429,89.28571429,384.5714286,384.5714286,black,legacy,legacy,legacy,0,congruent,uniform,1,undefined,1,h,0,0,0,27,27,0,27,0,27,0,0,0,27,27,27,27,Sun Sep 24 12:55:52 2023,1500,The main experiment item,yes,Flankertask.osexp,/Users/Thingtwo/Desktop,no,mono,no,18,no,white,no,yes,768,legacy,27,27,/Users/Thingtwo/Desktop/NC-subject-3.csv,legacy,Lentiform Loewenfeld,3.3.14,0,h,NA,s,NA,NA,h,358,NA,3097,NA,NA,358,2,legacy,1024,2,48000,-16,experiment,HHHHH,3,odd,5187,NA,NA,47472,27079,2061,NA,NA,48522,2082,NA,NA,48628,48987,48516,48628,New experiment,25,10768,28,yes,1024
89.65517241,89.65517241,381.6896552,381.6896552,black,legacy,legacy,legacy,0,congruent,uniform,1,undefined,1,h,0,0,0,28,28,0,28,0,28,0,0,0,28,28,28,28,Sun Sep 24 12:55:52 2023,1500,The main experiment item,yes,Flankertask.osexp,/Users/Thingtwo/Desktop,no,mono,no,18,no,white,no,yes,768,legacy,28,28,/Users/Thingtwo/Desktop/NC-subject-3.csv,legacy,Lentiform Loewenfeld,3.3.14,0,h,NA,s,NA,NA,h,301,NA,3097,NA,NA,301,2,legacy,1024,2,48000,-16,experiment,HHHHH,3,odd,5187,NA,NA,48992,27079,2061,NA,NA,50040,2082,NA,NA,50147,50449,50034,50147,New experiment,26,11069,29,yes,1024
90,90,378.3666667,378.3666667,black,legacy,legacy,legacy,0,incongruent,uniform,1,undefined,1,h,0,0,0,29,29,0,29,0,29,0,0,0,29,29,29,29,Sun Sep 24 12:55:52 2023,1500,The main experiment item,yes,Flankertask.osexp,/Users/Thingtwo/Desktop,no,mono,no,18,no,white,no,yes,768,legacy,29,29,/Users/Thingtwo/Desktop/NC-subject-3.csv,legacy,Lentiform Loewenfeld,3.3.14,0,h,NA,s,NA,NA,h,282,NA,3097,NA,NA,282,2,legacy,1024,2,48000,-16,experiment,SSHSS,3,odd,5187,NA,NA,50454,27079,2061,NA,NA,51501,2082,NA,NA,51607,51889,51496,51607,New experiment,27,11351,30,yes,1024
90.32258065,90.32258065,376.8387097,376.8387097,black,legacy,legacy,legacy,0,congruent,uniform,1,undefined,1,s,0,0,0,30,30,0,30,0,30,0,0,0,30,30,30,30,Sun Sep 24 12:55:52 2023,1500,The main experiment item,yes,Flankertask.osexp,/Users/Thingtwo/Desktop,no,mono,no,18,no,white,no,yes,768,legacy,30,30,/Users/Thingtwo/Desktop/NC-subject-3.csv,legacy,Lentiform Loewenfeld,3.3.14,0,s,NA,s,NA,NA,s,331,NA,3097,NA,NA,331,2,legacy,1024,2,48000,-16,experiment,SSSSS,3,odd,5187,NA,NA,51894,27079,2061,NA,NA,52942,2082,NA,NA,53049,53381,52937,53048,New experiment,28,11682,31,yes,1024
90.625,90.625,375.1875,375.1875,black,legacy,legacy,legacy,0,congruent,uniform,1,undefined,1,s,0,0,0,31,31,0,31,0,31,0,0,0,31,31,31,31,Sun Sep 24 12:55:52 2023,1500,The main experiment item,yes,Flankertask.osexp,/Users/Thingtwo/Desktop,no,mono,no,18,no,white,no,yes,768,legacy,31,31,/Users/Thingtwo/Desktop/NC-subject-3.csv,legacy,Lentiform Loewenfeld,3.3.14,0,s,NA,s,NA,NA,s,324,NA,3097,NA,NA,324,2,legacy,1024,2,48000,-16,experiment,SSSSS,3,odd,5187,NA,NA,53386,27079,2061,NA,NA,54434,2082,NA,NA,54541,54866,54429,54541,New experiment,29,12006,32,yes,1024
90.90909091,90.90909091,373.4848485,373.4848485,black,legacy,legacy,legacy,0,congruent,uniform,1,undefined,1,h,0,0,0,32,32,0,32,0,32,0,0,0,32,32,32,32,Sun Sep 24 12:55:52 2023,1500,The main experiment item,yes,Flankertask.osexp,/Users/Thingtwo/Desktop,no,mono,no,18,no,white,no,yes,768,legacy,32,32,/Users/Thingtwo/Desktop/NC-subject-3.csv,legacy,Lentiform Loewenfeld,3.3.14,0,h,NA,s,NA,NA,h,319,NA,3097,NA,NA,319,2,legacy,1024,2,48000,-16,experiment,HHHHH,3,odd,5187,NA,NA,54870,27079,2061,NA,NA,55920,2082,NA,NA,56026,56345,55914,56026,New experiment,30,12325,33,yes,1024
91.17647059,91.17647059,372.5294118,372.5294118,black,legacy,legacy,legacy,0,congruent,uniform,1,undefined,1,s,0,0,0,33,33,0,33,0,33,0,0,0,33,33,33,33,Sun Sep 24 12:55:52 2023,1500,The main experiment item,yes,Flankertask.osexp,/Users/Thingtwo/Desktop,no,mono,no,18,no,white,no,yes,768,legacy,33,33,/Users/Thingtwo/Desktop/NC-subject-3.csv,legacy,Lentiform Loewenfeld,3.3.14,0,s,NA,s,NA,NA,s,341,NA,3097,NA,NA,341,2,legacy,1024,2,48000,-16,experiment,SSSSS,3,odd,5187,NA,NA,56350,27079,2061,NA,NA,57398,2082,NA,NA,57504,57846,57392,57504,New experiment,31,12666,34,yes,1024
91.42857143,91.42857143,376.2285714,376.2285714,black,legacy,legacy,legacy,0,incongruent,uniform,1,undefined,1,h,0,0,0,34,34,0,34,0,34,0,0,0,34,34,34,34,Sun Sep 24 12:55:52 2023,1500,The main experiment item,yes,Flankertask.osexp,/Users/Thingtwo/Desktop,no,mono,no,18,no,white,no,yes,768,legacy,34,34,/Users/Thingtwo/Desktop/NC-subject-3.csv,legacy,Lentiform Loewenfeld,3.3.14,0,h,NA,s,NA,NA,h,502,NA,3097,NA,NA,502,2,legacy,1024,2,48000,-16,experiment,SSHSS,3,odd,5187,NA,NA,57851,27079,2061,NA,NA,58898,2082,NA,NA,59005,59508,58893,59004,New experiment,32,13168,35,yes,1024
88.88888889,88.88888889,374.1388889,374.1388889,black,legacy,legacy,legacy,0,congruent,uniform,0,undefined,0,h,0,0,0,35,35,0,35,0,35,0,0,0,35,35,35,35,Sun Sep 24 12:55:52 2023,1500,The main experiment item,yes,Flankertask.osexp,/Users/Thingtwo/Desktop,no,mono,no,18,no,white,no,yes,768,legacy,35,35,/Users/Thingtwo/Desktop/NC-subject-3.csv,legacy,Lentiform Loewenfeld,3.3.14,0,s,NA,s,NA,NA,s,301,NA,3097,NA,NA,301,2,legacy,1024,2,48000,-16,experiment,HHHHH,3,odd,5187,NA,NA,59513,27079,2061,NA,NA,60556,2082,NA,NA,60662,60963,60552,60662,New experiment,32,13469,36,yes,1024
89.18918919,89.18918919,373.9189189,373.9189189,black,legacy,legacy,legacy,0,congruent,uniform,1,undefined,1,h,0,0,0,36,36,0,36,0,36,0,0,0,36,36,36,36,Sun Sep 24 12:55:52 2023,1500,The main experiment item,yes,Flankertask.osexp,/Users/Thingtwo/Desktop,no,mono,no,18,no,white,no,yes,768,legacy,36,36,/Users/Thingtwo/Desktop/NC-subject-3.csv,legacy,Lentiform Loewenfeld,3.3.14,0,h,NA,s,NA,NA,h,366,NA,3097,NA,NA,366,2,legacy,1024,2,48000,-16,experiment,HHHHH,3,odd,5187,NA,NA,61477,60968,2061,NA,NA,62525,2082,NA,NA,62632,62999,62520,62631,New experiment,33,13835,37,yes,1024
89.47368421,89.47368421,372.8684211,372.8684211,black,legacy,legacy,legacy,0,congruent,uniform,1,undefined,1,h,0,0,0,37,37,0,37,0,37,0,0,0,37,37,37,37,Sun Sep 24 12:55:52 2023,1500,The main experiment item,yes,Flankertask.osexp,/Users/Thingtwo/Desktop,no,mono,no,18,no,white,no,yes,768,legacy,37,37,/Users/Thingtwo/Desktop/NC-subject-3.csv,legacy,Lentiform Loewenfeld,3.3.14,0,h,NA,s,NA,NA,h,334,NA,3097,NA,NA,334,2,legacy,1024,2,48000,-16,experiment,HHHHH,3,odd,5187,NA,NA,63004,60968,2061,NA,NA,64053,2082,NA,NA,64159,64494,64048,64159,New experiment,34,14169,38,yes,1024
87.17948718,87.17948718,373.974359,373.974359,black,legacy,legacy,legacy,0,incongruent,uniform,0,undefined,0,h,0,0,0,38,38,0,38,0,38,0,0,0,38,38,38,38,Sun Sep 24 12:55:52 2023,1500,The main experiment item,yes,Flankertask.osexp,/Users/Thingtwo/Desktop,no,mono,no,18,no,white,no,yes,768,legacy,38,38,/Users/Thingtwo/Desktop/NC-subject-3.csv,legacy,Lentiform Loewenfeld,3.3.14,0,s,NA,s,NA,NA,s,416,NA,3097,NA,NA,416,2,legacy,1024,2,48000,-16,experiment,SSHSS,3,odd,5187,NA,NA,64499,60968,2061,NA,NA,65548,2082,NA,NA,65654,66070,65543,65654,New experiment,34,14585,39,yes,1024
87.5,87.5,373.575,373.575,black,legacy,legacy,legacy,0,congruent,uniform,1,undefined,1,s,0,0,0,39,39,0,39,0,39,0,0,0,39,39,39,39,Sun Sep 24 12:55:52 2023,1500,The main experiment item,yes,Flankertask.osexp,/Users/Thingtwo/Desktop,no,mono,no,18,no,white,no,yes,768,legacy,39,39,/Users/Thingtwo/Desktop/NC-subject-3.csv,legacy,Lentiform Loewenfeld,3.3.14,0,s,NA,s,NA,NA,s,358,NA,3097,NA,NA,358,2,legacy,1024,2,48000,-16,experiment,SSSSS,3,odd,5187,NA,NA,66584,66075,2061,NA,NA,67633,2082,NA,NA,67740,68098,67628,67740,New experiment,35,14943,40,yes,1024
87.80487805,87.80487805,373.8536585,373.8536585,black,legacy,legacy,legacy,0,congruent,uniform,1,undefined,1,s,0,0,0,40,40,0,40,0,40,0,0,0,40,40,40,40,Sun Sep 24 12:55:52 2023,1500,The main experiment item,yes,Flankertask.osexp,/Users/Thingtwo/Desktop,no,mono,no,18,no,white,no,yes,768,legacy,40,40,/Users/Thingtwo/Desktop/NC-subject-3.csv,legacy,Lentiform Loewenfeld,3.3.14,0,s,NA,s,NA,NA,s,385,NA,3097,NA,NA,385,2,legacy,1024,2,48000,-16,experiment,SSSSS,3,odd,5187,NA,NA,68103,66075,2061,NA,NA,69148,2082,NA,NA,69254,69640,69143,69254,New experiment,36,15328,41,yes,1024
88.0952381,88.0952381,377.9047619,377.9047619,black,legacy,legacy,legacy,0,incongruent,uniform,1,undefined,1,h,0,0,0,41,41,0,41,0,41,0,0,0,41,41,41,41,Sun Sep 24 12:55:52 2023,1500,The main experiment item,yes,Flankertask.osexp,/Users/Thingtwo/Desktop,no,mono,no,18,no,white,no,yes,768,legacy,41,41,/Users/Thingtwo/Desktop/NC-subject-3.csv,legacy,Lentiform Loewenfeld,3.3.14,0,h,NA,s,NA,NA,h,544,NA,3097,NA,NA,544,2,legacy,1024,2,48000,-16,experiment,SSHSS,3,odd,5187,NA,NA,69645,66075,2061,NA,NA,70693,2082,NA,NA,70799,71343,70688,70799,New experiment,37,15872,42,yes,1024
88.37209302,88.37209302,378.2325581,378.2325581,black,legacy,legacy,legacy,0,incongruent,uniform,1,undefined,1,s,0,0,0,42,42,0,42,0,42,0,0,0,42,42,42,42,Sun Sep 24 12:55:52 2023,1500,The main experiment item,yes,Flankertask.osexp,/Users/Thingtwo/Desktop,no,mono,no,18,no,white,no,yes,768,legacy,42,42,/Users/Thingtwo/Desktop/NC-subject-3.csv,legacy,Lentiform Loewenfeld,3.3.14,0,s,NA,s,NA,NA,s,392,NA,3097,NA,NA,392,2,legacy,1024,2,48000,-16,experiment,HHSHH,3,odd,5187,NA,NA,71348,66075,2061,NA,NA,72397,2082,NA,NA,72503,72896,72391,72503,New experiment,38,16264,43,yes,1024
88.63636364,88.63636364,378.0454545,378.0454545,black,legacy,legacy,legacy,0,incongruent,uniform,1,undefined,1,h,0,0,0,43,43,0,43,0,43,0,0,0,43,43,43,43,Sun Sep 24 12:55:52 2023,1500,The main experiment item,yes,Flankertask.osexp,/Users/Thingtwo/Desktop,no,mono,no,18,no,white,no,yes,768,legacy,43,43,/Users/Thingtwo/Desktop/NC-subject-3.csv,legacy,Lentiform Loewenfeld,3.3.14,0,h,NA,s,NA,NA,h,370,NA,3097,NA,NA,370,2,legacy,1024,2,48000,-16,experiment,SSHSS,3,odd,5187,NA,NA,72901,66075,2061,NA,NA,73948,2082,NA,NA,74054,74424,73942,74054,New experiment,39,16634,44,yes,1024
88.88888889,88.88888889,378.2,378.2,black,legacy,legacy,legacy,0,incongruent,uniform,1,undefined,1,s,0,0,0,44,44,0,44,0,44,0,0,0,44,44,44,44,Sun Sep 24 12:55:52 2023,1500,The main experiment item,yes,Flankertask.osexp,/Users/Thingtwo/Desktop,no,mono,no,18,no,white,no,yes,768,legacy,44,44,/Users/Thingtwo/Desktop/NC-subject-3.csv,legacy,Lentiform Loewenfeld,3.3.14,0,s,NA,s,NA,NA,s,385,NA,3097,NA,NA,385,2,legacy,1024,2,48000,-16,experiment,HHSHH,3,odd,5187,NA,NA,74429,66075,2061,NA,NA,75477,2082,NA,NA,75583,75968,75471,75583,New experiment,40,17019,45,yes,1024
89.13043478,89.13043478,377.9130435,377.9130435,black,legacy,legacy,legacy,0,congruent,uniform,1,undefined,1,h,0,0,0,45,45,0,45,0,45,0,0,0,45,45,45,45,Sun Sep 24 12:55:52 2023,1500,The main experiment item,yes,Flankertask.osexp,/Users/Thingtwo/Desktop,no,mono,no,18,no,white,no,yes,768,legacy,45,45,/Users/Thingtwo/Desktop/NC-subject-3.csv,legacy,Lentiform Loewenfeld,3.3.14,0,h,NA,s,NA,NA,h,365,NA,3097,NA,NA,365,2,legacy,1024,2,48000,-16,experiment,HHHHH,3,odd,5187,NA,NA,75973,66075,2061,NA,NA,77020,2082,NA,NA,77126,77492,77014,77126,New experiment,41,17384,46,yes,1024
87.23404255,87.23404255,376.7659574,376.7659574,black,legacy,legacy,legacy,0,incongruent,uniform,0,undefined,0,s,0,0,0,46,46,0,46,0,46,0,0,0,46,46,46,46,Sun Sep 24 12:55:52 2023,1500,The main experiment item,yes,Flankertask.osexp,/Users/Thingtwo/Desktop,no,mono,no,18,no,white,no,yes,768,legacy,46,46,/Users/Thingtwo/Desktop/NC-subject-3.csv,legacy,Lentiform Loewenfeld,3.3.14,0,h,NA,s,NA,NA,h,324,NA,3097,NA,NA,324,2,legacy,1024,2,48000,-16,experiment,HHSHH,3,odd,5187,NA,NA,77496,66075,2061,NA,NA,78544,2082,NA,NA,78650,78975,78539,78650,New experiment,41,17708,47,yes,1024
87.5,87.5,375.3541667,375.3541667,black,legacy,legacy,legacy,0,congruent,uniform,1,undefined,1,s,0,0,0,47,47,0,47,0,47,0,0,0,47,47,47,47,Sun Sep 24 12:55:52 2023,1500,The main experiment item,yes,Flankertask.osexp,/Users/Thingtwo/Desktop,no,mono,no,18,no,white,no,yes,768,legacy,47,47,/Users/Thingtwo/Desktop/NC-subject-3.csv,legacy,Lentiform Loewenfeld,3.3.14,0,s,NA,s,NA,NA,s,309,NA,3097,NA,NA,309,2,legacy,1024,2,48000,-16,experiment,SSSSS,3,odd,5187,NA,NA,79488,78979,2061,NA,NA,80537,2082,NA,NA,80643,80953,80532,80643,New experiment,42,18017,48,yes,1024
87.75510204,87.75510204,375.6530612,375.6530612,black,legacy,legacy,legacy,0,congruent,uniform,1,undefined,1,h,0,0,0,48,48,0,48,0,48,0,0,0,48,48,48,48,Sun Sep 24 12:55:52 2023,1500,The main experiment item,yes,Flankertask.osexp,/Users/Thingtwo/Desktop,no,mono,no,18,no,white,no,yes,768,legacy,48,48,/Users/Thingtwo/Desktop/NC-subject-3.csv,legacy,Lentiform Loewenfeld,3.3.14,0,h,NA,s,NA,NA,h,390,NA,3097,NA,NA,390,2,legacy,1024,2,48000,-16,experiment,HHHHH,3,odd,5187,NA,NA,80958,78979,2061,NA,NA,82006,2082,NA,NA,82113,82503,82000,82113,New experiment,43,18407,49,yes,1024
88,88,375.58,375.58,black,legacy,legacy,legacy,0,incongruent,uniform,1,undefined,1,s,0,0,0,49,49,0,49,0,49,0,0,0,49,49,49,49,Sun Sep 24 12:55:52 2023,1500,The main experiment item,yes,Flankertask.osexp,/Users/Thingtwo/Desktop,no,mono,no,18,no,white,no,yes,768,legacy,49,49,/Users/Thingtwo/Desktop/NC-subject-3.csv,legacy,Lentiform Loewenfeld,3.3.14,0,s,NA,s,NA,NA,s,372,NA,3097,NA,NA,372,2,legacy,1024,2,48000,-16,experiment,HHSHH,3,odd,5187,NA,NA,82508,78979,2061,NA,NA,83557,2082,NA,NA,83663,84036,83552,83663,New experiment,44,18779,50,yes,1024
86.2745098,86.2745098,374,374,black,legacy,legacy,legacy,0,congruent,uniform,0,undefined,0,h,0,0,0,50,50,0,50,0,50,0,0,0,50,50,50,50,Sun Sep 24 12:55:52 2023,1500,The main experiment item,yes,Flankertask.osexp,/Users/Thingtwo/Desktop,no,mono,no,18,no,white,no,yes,768,legacy,50,50,/Users/Thingtwo/Desktop/NC-subject-3.csv,legacy,Lentiform Loewenfeld,3.3.14,0,s,NA,s,NA,NA,s,295,NA,3097,NA,NA,295,2,legacy,1024,2,48000,-16,experiment,HHHHH,3,odd,5187,NA,NA,84041,78979,2061,NA,NA,85089,2082,NA,NA,85195,85491,85084,85195,New experiment,44,19074,51,yes,1024
86.53846154,86.53846154,374.2115385,374.2115385,black,legacy,legacy,legacy,0,congruent,uniform,1,undefined,1,s,0,0,0,51,51,0,51,0,51,0,0,0,51,51,51,51,Sun Sep 24 12:55:52 2023,1500,The main experiment item,yes,Flankertask.osexp,/Users/Thingtwo/Desktop,no,mono,no,18,no,white,no,yes,768,legacy,51,51,/Users/Thingtwo/Desktop/NC-subject-3.csv,legacy,Lentiform Loewenfeld,3.3.14,0,s,NA,s,NA,NA,s,385,NA,3097,NA,NA,385,2,legacy,1024,2,48000,-16,experiment,SSSSS,3,odd,5187,NA,NA,86004,85495,2061,NA,NA,87051,2082,NA,NA,87157,87543,87046,87157,New experiment,45,19459,52,yes,1024
84.90566038,84.90566038,373.8679245,373.8679245,black,legacy,legacy,legacy,0,incongruent,uniform,0,undefined,0,s,0,0,0,52,52,0,52,0,52,0,0,0,52,52,52,52,Sun Sep 24 12:55:52 2023,1500,The main experiment item,yes,Flankertask.osexp,/Users/Thingtwo/Desktop,no,mono,no,18,no,white,no,yes,768,legacy,52,52,/Users/Thingtwo/Desktop/NC-subject-3.csv,legacy,Lentiform Loewenfeld,3.3.14,0,h,NA,s,NA,NA,h,356,NA,3097,NA,NA,356,2,legacy,1024,2,48000,-16,experiment,HHSHH,3,odd,5187,NA,NA,87547,85495,2061,NA,NA,88594,2082,NA,NA,88700,89057,88589,88700,New experiment,45,19815,53,yes,1024
85.18518519,85.18518519,376.6666667,376.6666667,black,legacy,legacy,legacy,0,incongruent,uniform,1,undefined,1,s,0,0,0,53,53,0,53,0,53,0,0,0,53,53,53,53,Sun Sep 24 12:55:52 2023,1500,The main experiment item,yes,Flankertask.osexp,/Users/Thingtwo/Desktop,no,mono,no,18,no,white,no,yes,768,legacy,53,53,/Users/Thingtwo/Desktop/NC-subject-3.csv,legacy,Lentiform Loewenfeld,3.3.14,0,s,NA,s,NA,NA,s,525,NA,3097,NA,NA,525,2,legacy,1024,2,48000,-16,experiment,HHSHH,3,odd,5187,NA,NA,89570,89061,2061,NA,NA,90618,2082,NA,NA,90725,91250,90613,90724,New experiment,46,20340,54,yes,1024
85.45454545,85.45454545,376.8363636,376.8363636,black,legacy,legacy,legacy,0,incongruent,uniform,1,undefined,1,h,0,0,0,54,54,0,54,0,54,0,0,0,54,54,54,54,Sun Sep 24 12:55:52 2023,1500,The main experiment item,yes,Flankertask.osexp,/Users/Thingtwo/Desktop,no,mono,no,18,no,white,no,yes,768,legacy,54,54,/Users/Thingtwo/Desktop/NC-subject-3.csv,legacy,Lentiform Loewenfeld,3.3.14,0,h,NA,s,NA,NA,h,386,NA,3097,NA,NA,386,2,legacy,1024,2,48000,-16,experiment,SSHSS,3,odd,5187,NA,NA,91255,89061,2061,NA,NA,92301,2082,NA,NA,92407,92793,92295,92407,New experiment,47,20726,55,yes,1024
85.71428571,85.71428571,376.7678571,376.7678571,black,legacy,legacy,legacy,0,incongruent,uniform,1,undefined,1,h,0,0,0,55,55,0,55,0,55,0,0,0,55,55,55,55,Sun Sep 24 12:55:52 2023,1500,The main experiment item,yes,Flankertask.osexp,/Users/Thingtwo/Desktop,no,mono,no,18,no,white,no,yes,768,legacy,55,55,/Users/Thingtwo/Desktop/NC-subject-3.csv,legacy,Lentiform Loewenfeld,3.3.14,0,h,NA,s,NA,NA,h,373,NA,3097,NA,NA,373,2,legacy,1024,2,48000,-16,experiment,SSHSS,3,odd,5187,NA,NA,92798,89061,2061,NA,NA,93846,2082,NA,NA,93952,94325,93841,93952,New experiment,48,21099,56,yes,1024
85.96491228,85.96491228,375.4385965,375.4385965,black,legacy,legacy,legacy,0,congruent,uniform,1,undefined,1,s,0,0,0,56,56,0,56,0,56,0,0,0,56,56,56,56,Sun Sep 24 12:55:52 2023,1500,The main experiment item,yes,Flankertask.osexp,/Users/Thingtwo/Desktop,no,mono,no,18,no,white,no,yes,768,legacy,56,56,/Users/Thingtwo/Desktop/NC-subject-3.csv,legacy,Lentiform Loewenfeld,3.3.14,0,s,NA,s,NA,NA,s,301,NA,3097,NA,NA,301,2,legacy,1024,2,48000,-16,experiment,SSSSS,3,odd,5187,NA,NA,94330,89061,2061,NA,NA,95376,2082,NA,NA,95482,95784,95371,95482,New experiment,49,21400,57,yes,1024
84.48275862,84.48275862,373.5689655,373.5689655,black,legacy,legacy,legacy,0,incongruent,uniform,0,undefined,0,h,0,0,0,57,57,0,57,0,57,0,0,0,57,57,57,57,Sun Sep 24 12:55:52 2023,1500,The main experiment item,yes,Flankertask.osexp,/Users/Thingtwo/Desktop,no,mono,no,18,no,white,no,yes,768,legacy,57,57,/Users/Thingtwo/Desktop/NC-subject-3.csv,legacy,Lentiform Loewenfeld,3.3.14,0,s,NA,s,NA,NA,s,267,NA,3097,NA,NA,267,2,legacy,1024,2,48000,-16,experiment,SSHSS,3,odd,5187,NA,NA,95789,89061,2061,NA,NA,96838,2082,NA,NA,96944,97212,96833,96944,New experiment,49,21667,58,yes,1024
84.74576271,84.74576271,374.0508475,374.0508475,black,legacy,legacy,legacy,0,congruent,uniform,1,undefined,1,s,0,0,0,58,58,0,58,0,58,0,0,0,58,58,58,58,Sun Sep 24 12:55:52 2023,1500,The main experiment item,yes,Flankertask.osexp,/Users/Thingtwo/Desktop,no,mono,no,18,no,white,no,yes,768,legacy,58,58,/Users/Thingtwo/Desktop/NC-subject-3.csv,legacy,Lentiform Loewenfeld,3.3.14,0,s,NA,s,NA,NA,s,402,NA,3097,NA,NA,402,2,legacy,1024,2,48000,-16,experiment,SSSSS,3,odd,5187,NA,NA,97725,97216,2061,NA,NA,98773,2082,NA,NA,98879,99282,98768,98879,New experiment,50,22069,59,yes,1024
85,85,373.4666667,373.4666667,black,legacy,legacy,legacy,0,incongruent,uniform,1,undefined,1,s,0,0,0,59,59,0,59,0,59,0,0,0,59,59,59,59,Sun Sep 24 12:55:52 2023,1500,The main experiment item,yes,Flankertask.osexp,/Users/Thingtwo/Desktop,no,mono,no,18,no,white,no,yes,768,legacy,59,59,/Users/Thingtwo/Desktop/NC-subject-3.csv,legacy,Lentiform Loewenfeld,3.3.14,0,s,NA,s,NA,NA,s,339,NA,3097,NA,NA,339,2,legacy,1024,2,48000,-16,experiment,HHSHH,3,odd,5187,NA,NA,99286,97216,2061,NA,NA,100335,2082,NA,NA,100442,100782,100329,100441,New experiment,51,22408,60,yes,1024
85.24590164,85.24590164,372.2459016,372.2459016,black,legacy,legacy,legacy,0,congruent,uniform,1,undefined,1,s,0,0,0,60,60,0,60,0,60,0,0,0,60,60,60,60,Sun Sep 24 12:55:52 2023,1500,The main experiment item,yes,Flankertask.osexp,/Users/Thingtwo/Desktop,no,mono,no,18,no,white,no,yes,768,legacy,60,60,/Users/Thingtwo/Desktop/NC-subject-3.csv,legacy,Lentiform Loewenfeld,3.3.14,0,s,NA,s,NA,NA,s,299,NA,3097,NA,NA,299,2,legacy,1024,2,48000,-16,experiment,SSSSS,3,odd,5187,NA,NA,100786,97216,2061,NA,NA,101833,2082,NA,NA,101939,102239,101827,101939,New experiment,52,22707,61,yes,1024
85.48387097,85.48387097,370.2741935,370.2741935,black,legacy,legacy,legacy,0,congruent,uniform,1,undefined,1,s,0,0,0,61,61,0,61,0,61,0,0,0,61,61,61,61,Sun Sep 24 12:55:52 2023,1500,The main experiment item,yes,Flankertask.osexp,/Users/Thingtwo/Desktop,no,mono,no,18,no,white,no,yes,768,legacy,61,61,/Users/Thingtwo/Desktop/NC-subject-3.csv,legacy,Lentiform Loewenfeld,3.3.14,0,s,NA,s,NA,NA,s,250,NA,3097,NA,NA,250,2,legacy,1024,2,48000,-16,experiment,SSSSS,3,odd,5187,NA,NA,102244,97216,2061,NA,NA,103290,2082,NA,NA,103397,103648,103284,103396,New experiment,53,22957,62,yes,1024
85.71428571,85.71428571,370.3968254,370.3968254,black,legacy,legacy,legacy,0,incongruent,uniform,1,undefined,1,h,0,0,0,62,62,0,62,0,62,0,0,0,62,62,62,62,Sun Sep 24 12:55:52 2023,1500,The main experiment item,yes,Flankertask.osexp,/Users/Thingtwo/Desktop,no,mono,no,18,no,white,no,yes,768,legacy,62,62,/Users/Thingtwo/Desktop/NC-subject-3.csv,legacy,Lentiform Loewenfeld,3.3.14,0,h,NA,s,NA,NA,h,378,NA,3097,NA,NA,378,2,legacy,1024,2,48000,-16,experiment,SSHSS,3,odd,5187,NA,NA,103653,97216,2061,NA,NA,104699,2082,NA,NA,104806,105184,104694,104805,New experiment,54,23335,63,yes,1024
85.9375,85.9375,369.28125,369.28125,black,legacy,legacy,legacy,0,congruent,uniform,1,undefined,1,s,0,0,0,63,63,0,63,0,63,0,0,0,63,63,63,63,Sun Sep 24 12:55:52 2023,1500,The main experiment item,yes,Flankertask.osexp,/Users/Thingtwo/Desktop,no,mono,no,18,no,white,no,yes,768,legacy,63,63,/Users/Thingtwo/Desktop/NC-subject-3.csv,legacy,Lentiform Loewenfeld,3.3.14,0,s,NA,s,NA,NA,s,299,NA,3097,NA,NA,299,2,legacy,1024,2,48000,-16,experiment,SSSSS,3,odd,5187,NA,NA,105189,97216,2061,NA,NA,106236,2082,NA,NA,106342,106641,106230,106342,New experiment,55,23634,64,yes,1024
84.61538462,84.61538462,367.6615385,367.6615385,black,legacy,legacy,legacy,0,congruent,uniform,0,undefined,0,h,0,0,0,64,64,0,64,0,64,0,0,0,64,64,64,64,Sun Sep 24 12:55:52 2023,1500,The main experiment item,yes,Flankertask.osexp,/Users/Thingtwo/Desktop,no,mono,no,18,no,white,no,yes,768,legacy,64,64,/Users/Thingtwo/Desktop/NC-subject-3.csv,legacy,Lentiform Loewenfeld,3.3.14,0,s,NA,s,NA,NA,s,264,NA,3097,NA,NA,264,2,legacy,1024,2,48000,-16,experiment,HHHHH,3,odd,5187,NA,NA,106646,97216,2061,NA,NA,107695,2082,NA,NA,107802,108067,107690,107802,New experiment,55,23898,65,yes,1024
84.84848485,84.84848485,368.0151515,368.0151515,black,legacy,legacy,legacy,0,congruent,uniform,1,undefined,1,h,0,0,0,65,65,0,65,0,65,0,0,0,65,65,65,65,Sun Sep 24 12:55:52 2023,1500,The main experiment item,yes,Flankertask.osexp,/Users/Thingtwo/Desktop,no,mono,no,18,no,white,no,yes,768,legacy,65,65,/Users/Thingtwo/Desktop/NC-subject-3.csv,legacy,Lentiform Loewenfeld,3.3.14,0,h,NA,s,NA,NA,h,391,NA,3097,NA,NA,391,2,legacy,1024,2,48000,-16,experiment,HHHHH,3,odd,5187,NA,NA,108580,108071,2061,NA,NA,109628,2082,NA,NA,109735,110126,109623,109734,New experiment,56,24289,66,yes,1024
85.07462687,85.07462687,368.9253731,368.9253731,black,legacy,legacy,legacy,0,incongruent,uniform,1,undefined,1,s,0,0,0,66,66,0,66,0,66,0,0,0,66,66,66,66,Sun Sep 24 12:55:52 2023,1500,The main experiment item,yes,Flankertask.osexp,/Users/Thingtwo/Desktop,no,mono,no,18,no,white,no,yes,768,legacy,66,66,/Users/Thingtwo/Desktop/NC-subject-3.csv,legacy,Lentiform Loewenfeld,3.3.14,0,s,NA,s,NA,NA,s,429,NA,3097,NA,NA,429,2,legacy,1024,2,48000,-16,experiment,HHSHH,3,odd,5187,NA,NA,110131,108071,2061,NA,NA,111180,2082,NA,NA,111286,111716,111174,111286,New experiment,57,24718,67,yes,1024
85.29411765,85.29411765,369.3970588,369.3970588,black,legacy,legacy,legacy,0,incongruent,uniform,1,undefined,1,h,0,0,0,67,67,0,67,0,67,0,0,0,67,67,67,67,Sun Sep 24 12:55:52 2023,1500,The main experiment item,yes,Flankertask.osexp,/Users/Thingtwo/Desktop,no,mono,no,18,no,white,no,yes,768,legacy,67,67,/Users/Thingtwo/Desktop/NC-subject-3.csv,legacy,Lentiform Loewenfeld,3.3.14,0,h,NA,s,NA,NA,h,401,NA,3097,NA,NA,401,2,legacy,1024,2,48000,-16,experiment,SSHSS,3,odd,5187,NA,NA,111720,108071,2061,NA,NA,112769,2082,NA,NA,112876,113278,112763,112875,New experiment,58,25119,68,yes,1024
85.50724638,85.50724638,369.4202899,369.4202899,black,legacy,legacy,legacy,0,congruent,uniform,1,undefined,1,s,0,0,0,68,68,0,68,0,68,0,0,0,68,68,68,68,Sun Sep 24 12:55:52 2023,1500,The main experiment item,yes,Flankertask.osexp,/Users/Thingtwo/Desktop,no,mono,no,18,no,white,no,yes,768,legacy,68,68,/Users/Thingtwo/Desktop/NC-subject-3.csv,legacy,Lentiform Loewenfeld,3.3.14,0,s,NA,s,NA,NA,s,371,NA,3097,NA,NA,371,2,legacy,1024,2,48000,-16,experiment,SSSSS,3,odd,5187,NA,NA,113283,108071,2061,NA,NA,114331,2082,NA,NA,114437,114808,114325,114437,New experiment,59,25490,69,yes,1024
85.71428571,85.71428571,370.2857143,370.2857143,black,legacy,legacy,legacy,0,incongruent,uniform,1,undefined,1,s,0,0,0,69,69,0,69,0,69,0,0,0,69,69,69,69,Sun Sep 24 12:55:52 2023,1500,The main experiment item,yes,Flankertask.osexp,/Users/Thingtwo/Desktop,no,mono,no,18,no,white,no,yes,768,legacy,69,69,/Users/Thingtwo/Desktop/NC-subject-3.csv,legacy,Lentiform Loewenfeld,3.3.14,0,s,NA,s,NA,NA,s,430,NA,3097,NA,NA,430,2,legacy,1024,2,48000,-16,experiment,HHSHH,3,odd,5187,NA,NA,114813,108071,2061,NA,NA,115861,2082,NA,NA,115967,116398,115856,115967,New experiment,60,25920,70,yes,1024
85.91549296,85.91549296,370,370,black,legacy,legacy,legacy,0,incongruent,uniform,1,undefined,1,s,0,0,0,70,70,0,70,0,70,0,0,0,70,70,70,70,Sun Sep 24 12:55:52 2023,1500,The main experiment item,yes,Flankertask.osexp,/Users/Thingtwo/Desktop,no,mono,no,18,no,white,no,yes,768,legacy,70,70,/Users/Thingtwo/Desktop/NC-subject-3.csv,legacy,Lentiform Loewenfeld,3.3.14,0,s,NA,s,NA,NA,s,350,NA,3097,NA,NA,350,2,legacy,1024,2,48000,-16,experiment,HHSHH,3,odd,5187,NA,NA,116403,108071,2061,NA,NA,117451,2082,NA,NA,117558,117909,117446,117557,New experiment,61,26270,71,yes,1024
86.11111111,86.11111111,369.5138889,369.5138889,black,legacy,legacy,legacy,0,congruent,uniform,1,undefined,1,h,0,0,0,71,71,0,71,0,71,0,0,0,71,71,71,71,Sun Sep 24 12:55:52 2023,1500,The main experiment item,yes,Flankertask.osexp,/Users/Thingtwo/Desktop,no,mono,no,18,no,white,no,yes,768,legacy,71,71,/Users/Thingtwo/Desktop/NC-subject-3.csv,legacy,Lentiform Loewenfeld,3.3.14,0,h,NA,s,NA,NA,h,335,NA,3097,NA,NA,335,2,legacy,1024,2,48000,-16,experiment,HHHHH,3,odd,5187,NA,NA,117913,108071,2061,NA,NA,118960,2082,NA,NA,119067,119403,118955,119066,New experiment,62,26605,72,yes,1024
86.30136986,86.30136986,369.7123288,369.7123288,black,legacy,legacy,legacy,0,incongruent,uniform,1,undefined,1,s,0,0,0,72,72,0,72,0,72,0,0,0,72,72,72,72,Sun Sep 24 12:55:52 2023,1500,The main experiment item,yes,Flankertask.osexp,/Users/Thingtwo/Desktop,no,mono,no,18,no,white,no,yes,768,legacy,72,72,/Users/Thingtwo/Desktop/NC-subject-3.csv,legacy,Lentiform Loewenfeld,3.3.14,0,s,NA,s,NA,NA,s,384,NA,3097,NA,NA,384,2,legacy,1024,2,48000,-16,experiment,HHSHH,3,odd,5187,NA,NA,119408,108071,2061,NA,NA,120453,2082,NA,NA,120560,120945,120448,120560,New experiment,63,26989,73,yes,1024
86.48648649,86.48648649,370.5,370.5,black,legacy,legacy,legacy,0,incongruent,uniform,1,undefined,1,h,0,0,0,73,73,0,73,0,73,0,0,0,73,73,73,73,Sun Sep 24 12:55:52 2023,1500,The main experiment item,yes,Flankertask.osexp,/Users/Thingtwo/Desktop,no,mono,no,18,no,white,no,yes,768,legacy,73,73,/Users/Thingtwo/Desktop/NC-subject-3.csv,legacy,Lentiform Loewenfeld,3.3.14,0,h,NA,s,NA,NA,h,428,NA,3097,NA,NA,428,2,legacy,1024,2,48000,-16,experiment,SSHSS,3,odd,5187,NA,NA,120950,108071,2061,NA,NA,121998,2082,NA,NA,122104,122532,121992,122104,New experiment,64,27417,74,yes,1024
86.66666667,86.66666667,370.8133333,370.8133333,black,legacy,legacy,legacy,0,congruent,uniform,1,undefined,1,s,0,0,0,74,74,0,74,0,74,0,0,0,74,74,74,74,Sun Sep 24 12:55:52 2023,1500,The main experiment item,yes,Flankertask.osexp,/Users/Thingtwo/Desktop,no,mono,no,18,no,white,no,yes,768,legacy,74,74,/Users/Thingtwo/Desktop/NC-subject-3.csv,legacy,Lentiform Loewenfeld,3.3.14,0,s,NA,s,NA,NA,s,394,NA,3097,NA,NA,394,2,legacy,1024,2,48000,-16,experiment,SSSSS,3,odd,5187,NA,NA,122537,108071,2061,NA,NA,123585,2082,NA,NA,123692,124086,123579,123692,New experiment,65,27811,75,yes,1024
86.84210526,86.84210526,370.7631579,370.7631579,black,legacy,legacy,legacy,0,incongruent,uniform,1,undefined,1,s,0,0,0,75,75,0,75,0,75,0,0,0,75,75,75,75,Sun Sep 24 12:55:52 2023,1500,The main experiment item,yes,Flankertask.osexp,/Users/Thingtwo/Desktop,no,mono,no,18,no,white,no,yes,768,legacy,75,75,/Users/Thingtwo/Desktop/NC-subject-3.csv,legacy,Lentiform Loewenfeld,3.3.14,0,s,NA,s,NA,NA,s,367,NA,3097,NA,NA,367,2,legacy,1024,2,48000,-16,experiment,HHSHH,3,odd,5187,NA,NA,124091,108071,2061,NA,NA,125141,2082,NA,NA,125247,125615,125135,125247,New experiment,66,28178,76,yes,1024
87.01298701,87.01298701,369.7532468,369.7532468,black,legacy,legacy,legacy,0,incongruent,uniform,1,undefined,1,s,0,0,0,76,76,0,76,0,76,0,0,0,76,76,76,76,Sun Sep 24 12:55:52 2023,1500,The main experiment item,yes,Flankertask.osexp,/Users/Thingtwo/Desktop,no,mono,no,18,no,white,no,yes,768,legacy,76,76,/Users/Thingtwo/Desktop/NC-subject-3.csv,legacy,Lentiform Loewenfeld,3.3.14,0,s,NA,s,NA,NA,s,293,NA,3097,NA,NA,293,2,legacy,1024,2,48000,-16,experiment,HHSHH,3,odd,5187,NA,NA,125620,108071,2061,NA,NA,126668,2082,NA,NA,126774,127067,126662,126774,New experiment,67,28471,77,yes,1024
87.17948718,87.17948718,370.0641026,370.0641026,black,legacy,legacy,legacy,0,incongruent,uniform,1,undefined,1,h,0,0,0,77,77,0,77,0,77,0,0,0,77,77,77,77,Sun Sep 24 12:55:52 2023,1500,The main experiment item,yes,Flankertask.osexp,/Users/Thingtwo/Desktop,no,mono,no,18,no,white,no,yes,768,legacy,77,77,/Users/Thingtwo/Desktop/NC-subject-3.csv,legacy,Lentiform Loewenfeld,3.3.14,0,h,NA,s,NA,NA,h,394,NA,3097,NA,NA,394,2,legacy,1024,2,48000,-16,experiment,SSHSS,3,odd,5187,NA,NA,127072,108071,2061,NA,NA,128119,2082,NA,NA,128225,128620,128113,128225,New experiment,68,28865,78,yes,1024
87.34177215,87.34177215,370.9746835,370.9746835,black,legacy,legacy,legacy,0,congruent,uniform,1,undefined,1,h,0,0,0,78,78,0,78,0,78,0,0,0,78,78,78,78,Sun Sep 24 12:55:52 2023,1500,The main experiment item,yes,Flankertask.osexp,/Users/Thingtwo/Desktop,no,mono,no,18,no,white,no,yes,768,legacy,78,78,/Users/Thingtwo/Desktop/NC-subject-3.csv,legacy,Lentiform Loewenfeld,3.3.14,0,h,NA,s,NA,NA,h,442,NA,3097,NA,NA,442,2,legacy,1024,2,48000,-16,experiment,HHHHH,3,odd,5187,NA,NA,128625,108071,2061,NA,NA,129674,2082,NA,NA,129780,130222,129668,129780,New experiment,69,29307,79,yes,1024
87.5,87.5,370.5,370.5,black,legacy,legacy,legacy,0,incongruent,uniform,1,undefined,1,h,0,0,0,79,79,0,79,0,79,0,0,0,79,79,79,79,Sun Sep 24 12:55:52 2023,1500,The main experiment item,yes,Flankertask.osexp,/Users/Thingtwo/Desktop,no,mono,no,18,no,white,no,yes,768,legacy,79,79,/Users/Thingtwo/Desktop/NC-subject-3.csv,legacy,Lentiform Loewenfeld,3.3.14,0,h,NA,s,NA,NA,h,333,NA,3097,NA,NA,333,2,legacy,1024,2,48000,-16,experiment,SSHSS,3,odd,5187,NA,NA,130227,108071,2061,NA,NA,131277,2082,NA,NA,131384,131718,131271,131384,New experiment,70,29640,80,yes,1024
87.65432099,87.65432099,372.3333333,372.3333333,black,legacy,legacy,legacy,0,incongruent,uniform,1,undefined,1,h,0,0,0,80,80,0,80,0,80,0,0,0,80,80,80,80,Sun Sep 24 12:55:52 2023,600,The main experiment item,yes,Flankertask.osexp,/Users/Thingtwo/Desktop,no,mono,no,18,no,white,no,yes,768,legacy,0,79,/Users/Thingtwo/Desktop/NC-subject-3.csv,legacy,Lentiform Loewenfeld,3.3.14,0,h,NA,s,NA,h,h,519,NA,3097,NA,636231,519,2,legacy,1024,2,48000,-16,experiment,SSHSS,3,odd,5187,768981,NA,131722,108071,2061,NA,NA,769003,2082,NA,132749,769108,769628,768999,769108,New experiment,71,30159,81,yes,1024
87.80487805,87.80487805,371.2073171,371.2073171,black,legacy,legacy,legacy,0,congruent,uniform,1,undefined,1,s,0,0,0,81,81,0,81,0,81,0,0,0,81,81,81,81,Sun Sep 24 12:55:52 2023,600,The main experiment item,yes,Flankertask.osexp,/Users/Thingtwo/Desktop,no,mono,no,18,no,white,no,yes,768,legacy,1,79,/Users/Thingtwo/Desktop/NC-subject-3.csv,legacy,Lentiform Loewenfeld,3.3.14,0,s,NA,s,NA,h,s,280,NA,3097,NA,636231,280,2,legacy,1024,2,48000,-16,experiment,SSSSS,3,odd,5187,768981,NA,769633,108071,2061,NA,NA,770682,2082,NA,132749,770789,771070,770676,770788,New experiment,72,30439,82,yes,1024
87.95180723,87.95180723,378.939759,378.939759,black,legacy,legacy,legacy,0,incongruent,uniform,1,undefined,1,s,0,0,0,82,82,0,82,0,82,0,0,0,82,82,82,82,Sun Sep 24 12:55:52 2023,600,The main experiment item,yes,Flankertask.osexp,/Users/Thingtwo/Desktop,no,mono,no,18,no,white,no,yes,768,legacy,2,79,/Users/Thingtwo/Desktop/NC-subject-3.csv,legacy,Lentiform Loewenfeld,3.3.14,0,s,NA,s,NA,h,s,1013,NA,3097,NA,636231,1013,2,legacy,1024,2,48000,-16,experiment,HHSHH,3,odd,5187,768981,NA,771075,108071,2061,NA,NA,772123,2082,NA,132749,772229,773243,772117,772229,New experiment,73,31452,83,yes,1024
88.0952381,88.0952381,379.3333333,379.3333333,black,legacy,legacy,legacy,0,congruent,uniform,1,undefined,1,h,0,0,0,83,83,0,83,0,83,0,0,0,83,83,83,83,Sun Sep 24 12:55:52 2023,600,The main experiment item,yes,Flankertask.osexp,/Users/Thingtwo/Desktop,no,mono,no,18,no,white,no,yes,768,legacy,3,79,/Users/Thingtwo/Desktop/NC-subject-3.csv,legacy,Lentiform Loewenfeld,3.3.14,0,h,NA,s,NA,h,h,412,NA,3097,NA,636231,412,2,legacy,1024,2,48000,-16,experiment,HHHHH,3,odd,5187,768981,NA,773757,108071,2061,773248,NA,774806,2082,NA,132749,774913,775326,774801,774912,New experiment,74,31864,84,yes,1024
88.23529412,88.23529412,379.3411765,379.3411765,black,legacy,legacy,legacy,0,congruent,uniform,1,undefined,1,h,0,0,0,84,84,0,84,0,84,0,0,0,84,84,84,84,Sun Sep 24 12:55:52 2023,600,The main experiment item,yes,Flankertask.osexp,/Users/Thingtwo/Desktop,no,mono,no,18,no,white,no,yes,768,legacy,4,79,/Users/Thingtwo/Desktop/NC-subject-3.csv,legacy,Lentiform Loewenfeld,3.3.14,0,h,NA,s,NA,h,h,380,NA,3097,NA,636231,380,2,legacy,1024,2,48000,-16,experiment,HHHHH,3,odd,5187,768981,NA,775330,108071,2061,773248,NA,776378,2082,NA,132749,776485,776866,776372,776484,New experiment,75,32244,85,yes,1024
88.37209302,88.37209302,379.6511628,379.6511628,black,legacy,legacy,legacy,0,incongruent,uniform,1,undefined,1,s,0,0,0,85,85,0,85,0,85,0,0,0,85,85,85,85,Sun Sep 24 12:55:52 2023,600,The main experiment item,yes,Flankertask.osexp,/Users/Thingtwo/Desktop,no,mono,no,18,no,white,no,yes,768,legacy,5,79,/Users/Thingtwo/Desktop/NC-subject-3.csv,legacy,Lentiform Loewenfeld,3.3.14,0,s,NA,s,NA,h,s,406,NA,3097,NA,636231,406,2,legacy,1024,2,48000,-16,experiment,HHSHH,3,odd,5187,768981,NA,776871,108071,2061,773248,NA,777918,2082,NA,132749,778024,778431,777912,778024,New experiment,76,32650,86,yes,1024
88.50574713,88.50574713,378.908046,378.908046,black,legacy,legacy,legacy,0,congruent,uniform,1,undefined,1,s,0,0,0,86,86,0,86,0,86,0,0,0,86,86,86,86,Sun Sep 24 12:55:52 2023,600,The main experiment item,yes,Flankertask.osexp,/Users/Thingtwo/Desktop,no,mono,no,18,no,white,no,yes,768,legacy,6,79,/Users/Thingtwo/Desktop/NC-subject-3.csv,legacy,Lentiform Loewenfeld,3.3.14,0,s,NA,s,NA,h,s,315,NA,3097,NA,636231,315,2,legacy,1024,2,48000,-16,experiment,SSSSS,3,odd,5187,768981,NA,778436,108071,2061,773248,NA,779484,2082,NA,132749,779591,779907,779478,779591,New experiment,77,32965,87,yes,1024
88.63636364,88.63636364,378.8977273,378.8977273,black,legacy,legacy,legacy,0,incongruent,uniform,1,undefined,1,h,0,0,0,87,87,0,87,0,87,0,0,0,87,87,87,87,Sun Sep 24 12:55:52 2023,600,The main experiment item,yes,Flankertask.osexp,/Users/Thingtwo/Desktop,no,mono,no,18,no,white,no,yes,768,legacy,7,79,/Users/Thingtwo/Desktop/NC-subject-3.csv,legacy,Lentiform Loewenfeld,3.3.14,0,h,NA,s,NA,h,h,378,NA,3097,NA,636231,378,2,legacy,1024,2,48000,-16,experiment,SSHSS,3,odd,5187,768981,NA,779913,108071,2061,773248,NA,780961,2082,NA,132749,781068,781447,780955,781068,New experiment,78,33343,88,yes,1024
88.76404494,88.76404494,378.0674157,378.0674157,black,legacy,legacy,legacy,0,congruent,uniform,1,undefined,1,s,0,0,0,88,88,0,88,0,88,0,0,0,88,88,88,88,Sun Sep 24 12:55:52 2023,600,The main experiment item,yes,Flankertask.osexp,/Users/Thingtwo/Desktop,no,mono,no,18,no,white,no,yes,768,legacy,8,79,/Users/Thingtwo/Desktop/NC-subject-3.csv,legacy,Lentiform Loewenfeld,3.3.14,0,s,NA,s,NA,h,s,305,NA,3097,NA,636231,305,2,legacy,1024,2,48000,-16,experiment,SSSSS,3,odd,5187,768981,NA,781452,108071,2061,773248,NA,782501,2082,NA,132749,782607,782912,782494,782607,New experiment,79,33648,89,yes,1024
88.88888889,88.88888889,377.1222222,377.1222222,black,legacy,legacy,legacy,0,congruent,uniform,1,undefined,1,s,0,0,0,89,89,0,89,0,89,0,0,0,89,89,89,89,Sun Sep 24 12:55:52 2023,600,The main experiment item,yes,Flankertask.osexp,/Users/Thingtwo/Desktop,no,mono,no,18,no,white,no,yes,768,legacy,9,79,/Users/Thingtwo/Desktop/NC-subject-3.csv,legacy,Lentiform Loewenfeld,3.3.14,0,s,NA,s,NA,h,s,293,NA,3097,NA,636231,293,2,legacy,1024,2,48000,-16,experiment,SSSSS,3,odd,5187,768981,NA,782917,108071,2061,773248,NA,783965,2082,NA,132749,784071,784365,783959,784071,New experiment,80,33941,90,yes,1024
89.01098901,89.01098901,375.5824176,375.5824176,black,legacy,legacy,legacy,0,congruent,uniform,1,undefined,1,h,0,0,0,90,90,0,90,0,90,0,0,0,90,90,90,90,Sun Sep 24 12:55:52 2023,600,The main experiment item,yes,Flankertask.osexp,/Users/Thingtwo/Desktop,no,mono,no,18,no,white,no,yes,768,legacy,10,79,/Users/Thingtwo/Desktop/NC-subject-3.csv,legacy,Lentiform Loewenfeld,3.3.14,0,h,NA,s,NA,h,h,237,NA,3097,NA,636231,237,2,legacy,1024,2,48000,-16,experiment,HHHHH,3,odd,5187,768981,NA,784370,108071,2061,773248,NA,785419,2082,NA,132749,785525,785763,785414,785525,New experiment,81,34178,91,yes,1024
89.13043478,89.13043478,374.6195652,374.6195652,black,legacy,legacy,legacy,0,incongruent,uniform,1,undefined,1,h,0,0,0,91,91,0,91,0,91,0,0,0,91,91,91,91,Sun Sep 24 12:55:52 2023,600,The main experiment item,yes,Flankertask.osexp,/Users/Thingtwo/Desktop,no,mono,no,18,no,white,no,yes,768,legacy,11,79,/Users/Thingtwo/Desktop/NC-subject-3.csv,legacy,Lentiform Loewenfeld,3.3.14,0,h,NA,s,NA,h,h,287,NA,3097,NA,636231,287,2,legacy,1024,2,48000,-16,experiment,SSHSS,3,odd,5187,768981,NA,785768,108071,2061,773248,NA,786817,2082,NA,132749,786923,787211,786811,786923,New experiment,82,34465,92,yes,1024
89.24731183,89.24731183,373.9892473,373.9892473,black,legacy,legacy,legacy,0,incongruent,uniform,1,undefined,1,s,0,0,0,92,92,0,92,0,92,0,0,0,92,92,92,92,Sun Sep 24 12:55:52 2023,600,The main experiment item,yes,Flankertask.osexp,/Users/Thingtwo/Desktop,no,mono,no,18,no,white,no,yes,768,legacy,12,79,/Users/Thingtwo/Desktop/NC-subject-3.csv,legacy,Lentiform Loewenfeld,3.3.14,0,s,NA,s,NA,h,s,316,NA,3097,NA,636231,316,2,legacy,1024,2,48000,-16,experiment,HHSHH,3,odd,5187,768981,NA,787215,108071,2061,773248,NA,788264,2082,NA,132749,788370,788687,788258,788370,New experiment,83,34781,93,yes,1024
89.36170213,89.36170213,373.2021277,373.2021277,black,legacy,legacy,legacy,0,incongruent,uniform,1,undefined,1,h,0,0,0,93,93,0,93,0,93,0,0,0,93,93,93,93,Sun Sep 24 12:55:52 2023,600,The main experiment item,yes,Flankertask.osexp,/Users/Thingtwo/Desktop,no,mono,no,18,no,white,no,yes,768,legacy,13,79,/Users/Thingtwo/Desktop/NC-subject-3.csv,legacy,Lentiform Loewenfeld,3.3.14,0,h,NA,s,NA,h,h,300,NA,3097,NA,636231,300,2,legacy,1024,2,48000,-16,experiment,SSHSS,3,odd,5187,768981,NA,788692,108071,2061,773248,NA,789739,2082,NA,132749,789845,790146,789733,789845,New experiment,84,35081,94,yes,1024
89.47368421,89.47368421,372.0421053,372.0421053,black,legacy,legacy,legacy,0,incongruent,uniform,1,undefined,1,s,0,0,0,94,94,0,94,0,94,0,0,0,94,94,94,94,Sun Sep 24 12:55:52 2023,600,The main experiment item,yes,Flankertask.osexp,/Users/Thingtwo/Desktop,no,mono,no,18,no,white,no,yes,768,legacy,14,79,/Users/Thingtwo/Desktop/NC-subject-3.csv,legacy,Lentiform Loewenfeld,3.3.14,0,s,NA,s,NA,h,s,263,NA,3097,NA,636231,263,2,legacy,1024,2,48000,-16,experiment,HHSHH,3,odd,5187,768981,NA,790150,108071,2061,773248,NA,791200,2082,NA,132749,791307,791571,791194,791307,New experiment,85,35344,95,yes,1024
89.58333333,89.58333333,371.6770833,371.6770833,black,legacy,legacy,legacy,0,congruent,uniform,1,undefined,1,s,0,0,0,95,95,0,95,0,95,0,0,0,95,95,95,95,Sun Sep 24 12:55:52 2023,600,The main experiment item,yes,Flankertask.osexp,/Users/Thingtwo/Desktop,no,mono,no,18,no,white,no,yes,768,legacy,15,79,/Users/Thingtwo/Desktop/NC-subject-3.csv,legacy,Lentiform Loewenfeld,3.3.14,0,s,NA,s,NA,h,s,337,NA,3097,NA,636231,337,2,legacy,1024,2,48000,-16,experiment,SSSSS,3,odd,5187,768981,NA,791575,108071,2061,773248,NA,792623,2082,NA,132749,792730,793068,792618,792729,New experiment,86,35681,96,yes,1024
89.69072165,89.69072165,371.0618557,371.0618557,black,legacy,legacy,legacy,0,congruent,uniform,1,undefined,1,h,0,0,0,96,96,0,96,0,96,0,0,0,96,96,96,96,Sun Sep 24 12:55:52 2023,600,The main experiment item,yes,Flankertask.osexp,/Users/Thingtwo/Desktop,no,mono,no,18,no,white,no,yes,768,legacy,16,79,/Users/Thingtwo/Desktop/NC-subject-3.csv,legacy,Lentiform Loewenfeld,3.3.14,0,h,NA,s,NA,h,h,312,NA,3097,NA,636231,312,2,legacy,1024,2,48000,-16,experiment,HHHHH,3,odd,5187,768981,NA,793072,108071,2061,773248,NA,794119,2082,NA,132749,794225,794538,794114,794225,New experiment,87,35993,97,yes,1024
89.79591837,89.79591837,370.5204082,370.5204082,black,legacy,legacy,legacy,0,congruent,uniform,1,undefined,1,h,0,0,0,97,97,0,97,0,97,0,0,0,97,97,97,97,Sun Sep 24 12:55:52 2023,600,The main experiment item,yes,Flankertask.osexp,/Users/Thingtwo/Desktop,no,mono,no,18,no,white,no,yes,768,legacy,17,79,/Users/Thingtwo/Desktop/NC-subject-3.csv,legacy,Lentiform Loewenfeld,3.3.14,0,h,NA,s,NA,h,h,318,NA,3097,NA,636231,318,2,legacy,1024,2,48000,-16,experiment,HHHHH,3,odd,5187,768981,NA,794543,108071,2061,773248,NA,795591,2082,NA,132749,795697,796016,795585,795697,New experiment,88,36311,98,yes,1024
89.8989899,89.8989899,369.7777778,369.7777778,black,legacy,legacy,legacy,0,incongruent,uniform,1,undefined,1,s,0,0,0,98,98,0,98,0,98,0,0,0,98,98,98,98,Sun Sep 24 12:55:52 2023,600,The main experiment item,yes,Flankertask.osexp,/Users/Thingtwo/Desktop,no,mono,no,18,no,white,no,yes,768,legacy,18,79,/Users/Thingtwo/Desktop/NC-subject-3.csv,legacy,Lentiform Loewenfeld,3.3.14,0,s,NA,s,NA,h,s,297,NA,3097,NA,636231,297,2,legacy,1024,2,48000,-16,experiment,HHSHH,3,odd,5187,768981,NA,796021,108071,2061,773248,NA,797068,2082,NA,132749,797174,797472,797062,797174,New experiment,89,36608,99,yes,1024
89,89,370.01,370.01,black,legacy,legacy,legacy,0,incongruent,uniform,0,undefined,0,s,0,0,0,99,99,0,99,0,99,0,0,0,99,99,99,99,Sun Sep 24 12:55:52 2023,600,The main experiment item,yes,Flankertask.osexp,/Users/Thingtwo/Desktop,no,mono,no,18,no,white,no,yes,768,legacy,19,79,/Users/Thingtwo/Desktop/NC-subject-3.csv,legacy,Lentiform Loewenfeld,3.3.14,0,h,NA,s,NA,h,h,393,NA,3097,NA,636231,393,2,legacy,1024,2,48000,-16,experiment,HHSHH,3,odd,5187,768981,NA,797477,108071,2061,773248,NA,798525,2082,NA,132749,798631,799024,798520,798631,New experiment,89,37001,100,yes,1024
89.10891089,89.10891089,368.9207921,368.9207921,black,legacy,legacy,legacy,0,congruent,uniform,1,undefined,1,s,0,0,0,100,100,0,100,0,100,0,0,0,100,100,100,100,Sun Sep 24 12:55:52 2023,600,The main experiment item,yes,Flankertask.osexp,/Users/Thingtwo/Desktop,no,mono,no,18,no,white,no,yes,768,legacy,20,79,/Users/Thingtwo/Desktop/NC-subject-3.csv,legacy,Lentiform Loewenfeld,3.3.14,0,s,NA,s,NA,h,s,260,NA,3097,NA,636231,260,2,legacy,1024,2,48000,-16,experiment,SSSSS,3,odd,5187,768981,NA,799538,799029,2061,773248,NA,800585,2082,NA,132749,800691,800952,800579,800691,New experiment,90,37261,101,yes,1024
89.21568627,89.21568627,368.6764706,368.6764706,black,legacy,legacy,legacy,0,congruent,uniform,1,undefined,1,s,0,0,0,101,101,0,101,0,101,0,0,0,101,101,101,101,Sun Sep 24 12:55:52 2023,600,The main experiment item,yes,Flankertask.osexp,/Users/Thingtwo/Desktop,no,mono,no,18,no,white,no,yes,768,legacy,21,79,/Users/Thingtwo/Desktop/NC-subject-3.csv,legacy,Lentiform Loewenfeld,3.3.14,0,s,NA,s,NA,h,s,344,NA,3097,NA,636231,344,2,legacy,1024,2,48000,-16,experiment,SSSSS,3,odd,5187,768981,NA,800957,799029,2061,773248,NA,802005,2082,NA,132749,802112,802457,802000,802111,New experiment,91,37605,102,yes,1024
88.34951456,88.34951456,369.0194175,369.0194175,black,legacy,legacy,legacy,0,incongruent,uniform,0,undefined,0,s,0,0,0,102,102,0,102,0,102,0,0,0,102,102,102,102,Sun Sep 24 12:55:52 2023,600,The main experiment item,yes,Flankertask.osexp,/Users/Thingtwo/Desktop,no,mono,no,18,no,white,no,yes,768,legacy,22,79,/Users/Thingtwo/Desktop/NC-subject-3.csv,legacy,Lentiform Loewenfeld,3.3.14,0,h,NA,s,NA,h,h,404,NA,3097,NA,636231,404,2,legacy,1024,2,48000,-16,experiment,HHSHH,3,odd,5187,768981,NA,802462,799029,2061,773248,NA,803510,2082,NA,132749,803617,804022,803505,803617,New experiment,91,38009,103,yes,1024
88.46153846,88.46153846,368.7980769,368.7980769,black,legacy,legacy,legacy,0,incongruent,uniform,1,undefined,1,s,0,0,0,103,103,0,103,0,103,0,0,0,103,103,103,103,Sun Sep 24 12:55:52 2023,600,The main experiment item,yes,Flankertask.osexp,/Users/Thingtwo/Desktop,no,mono,no,18,no,white,no,yes,768,legacy,23,79,/Users/Thingtwo/Desktop/NC-subject-3.csv,legacy,Lentiform Loewenfeld,3.3.14,0,s,NA,s,NA,h,s,346,NA,3097,NA,636231,346,2,legacy,1024,2,48000,-16,experiment,HHSHH,3,odd,5187,768981,NA,804536,804027,2061,773248,NA,805585,2082,NA,132749,805691,806037,805579,805691,New experiment,92,38355,104,yes,1024
88.57142857,88.57142857,368.3047619,368.3047619,black,legacy,legacy,legacy,0,incongruent,uniform,1,undefined,1,h,0,0,0,104,104,0,104,0,104,0,0,0,104,104,104,104,Sun Sep 24 12:55:52 2023,600,The main experiment item,yes,Flankertask.osexp,/Users/Thingtwo/Desktop,no,mono,no,18,no,white,no,yes,768,legacy,24,79,/Users/Thingtwo/Desktop/NC-subject-3.csv,legacy,Lentiform Loewenfeld,3.3.14,0,h,NA,s,NA,h,h,317,NA,3097,NA,636231,317,2,legacy,1024,2,48000,-16,experiment,SSHSS,3,odd,5187,768981,NA,806042,804027,2061,773248,NA,807090,2082,NA,132749,807197,807515,807085,807197,New experiment,93,38672,105,yes,1024
88.67924528,88.67924528,368.009434,368.009434,black,legacy,legacy,legacy,0,congruent,uniform,1,undefined,1,s,0,0,0,105,105,0,105,0,105,0,0,0,105,105,105,105,Sun Sep 24 12:55:52 2023,600,The main experiment item,yes,Flankertask.osexp,/Users/Thingtwo/Desktop,no,mono,no,18,no,white,no,yes,768,legacy,25,79,/Users/Thingtwo/Desktop/NC-subject-3.csv,legacy,Lentiform Loewenfeld,3.3.14,0,s,NA,s,NA,h,s,337,NA,3097,NA,636231,337,2,legacy,1024,2,48000,-16,experiment,SSSSS,3,odd,5187,768981,NA,807520,804027,2061,773248,NA,808566,2082,NA,132749,808673,809011,808560,808672,New experiment,94,39009,106,yes,1024
88.78504673,88.78504673,370.5514019,370.5514019,black,legacy,legacy,legacy,0,congruent,uniform,1,undefined,1,h,0,0,0,106,106,0,106,0,106,0,0,0,106,106,106,106,Sun Sep 24 12:55:52 2023,600,The main experiment item,yes,Flankertask.osexp,/Users/Thingtwo/Desktop,no,mono,no,18,no,white,no,yes,768,legacy,26,79,/Users/Thingtwo/Desktop/NC-subject-3.csv,legacy,Lentiform Loewenfeld,3.3.14,0,h,NA,s,NA,h,h,640,NA,3097,NA,636231,640,2,legacy,1024,2,48000,-16,experiment,HHHHH,3,odd,5187,768981,NA,809016,804027,2061,773248,NA,810062,2082,NA,132749,810168,810809,810057,810168,New experiment,95,39649,107,yes,1024
88.88888889,88.88888889,370.6666667,370.6666667,black,legacy,legacy,legacy,0,congruent,uniform,1,undefined,1,h,0,0,0,107,107,0,107,0,107,0,0,0,107,107,107,107,Sun Sep 24 12:55:52 2023,600,The main experiment item,yes,Flankertask.osexp,/Users/Thingtwo/Desktop,no,mono,no,18,no,white,no,yes,768,legacy,27,79,/Users/Thingtwo/Desktop/NC-subject-3.csv,legacy,Lentiform Loewenfeld,3.3.14,0,h,NA,s,NA,h,h,383,NA,3097,NA,636231,383,2,legacy,1024,2,48000,-16,experiment,HHHHH,3,odd,5187,768981,NA,811323,804027,2061,810814,NA,812371,2082,NA,132749,812478,812862,812366,812477,New experiment,96,40032,108,yes,1024
88.99082569,88.99082569,370.1926606,370.1926606,black,legacy,legacy,legacy,0,congruent,uniform,1,undefined,1,h,0,0,0,108,108,0,108,0,108,0,0,0,108,108,108,108,Sun Sep 24 12:55:52 2023,600,The main experiment item,yes,Flankertask.osexp,/Users/Thingtwo/Desktop,no,mono,no,18,no,white,no,yes,768,legacy,28,79,/Users/Thingtwo/Desktop/NC-subject-3.csv,legacy,Lentiform Loewenfeld,3.3.14,0,h,NA,s,NA,h,h,319,NA,3097,NA,636231,319,2,legacy,1024,2,48000,-16,experiment,HHHHH,3,odd,5187,768981,NA,812867,804027,2061,810814,NA,813915,2082,NA,132749,814021,814341,813909,814021,New experiment,97,40351,109,yes,1024
89.09090909,89.09090909,369.3454545,369.3454545,black,legacy,legacy,legacy,0,incongruent,uniform,1,undefined,1,h,0,0,0,109,109,0,109,0,109,0,0,0,109,109,109,109,Sun Sep 24 12:55:52 2023,600,The main experiment item,yes,Flankertask.osexp,/Users/Thingtwo/Desktop,no,mono,no,18,no,white,no,yes,768,legacy,29,79,/Users/Thingtwo/Desktop/NC-subject-3.csv,legacy,Lentiform Loewenfeld,3.3.14,0,h,NA,s,NA,h,h,277,NA,3097,NA,636231,277,2,legacy,1024,2,48000,-16,experiment,SSHSS,3,odd,5187,768981,NA,814346,804027,2061,810814,NA,815393,2082,NA,132749,815499,815777,815387,815499,New experiment,98,40628,110,yes,1024
89.18918919,89.18918919,369.7477477,369.7477477,black,legacy,legacy,legacy,0,incongruent,uniform,1,undefined,1,s,0,0,0,110,110,0,110,0,110,0,0,0,110,110,110,110,Sun Sep 24 12:55:52 2023,600,The main experiment item,yes,Flankertask.osexp,/Users/Thingtwo/Desktop,no,mono,no,18,no,white,no,yes,768,legacy,30,79,/Users/Thingtwo/Desktop/NC-subject-3.csv,legacy,Lentiform Loewenfeld,3.3.14,0,s,NA,s,NA,h,s,414,NA,3097,NA,636231,414,2,legacy,1024,2,48000,-16,experiment,HHSHH,3,odd,5187,768981,NA,815781,804027,2061,810814,NA,816830,2082,NA,132749,816936,817351,816824,816936,New experiment,99,41042,111,yes,1024
89.28571429,89.28571429,369.8125,369.8125,black,legacy,legacy,legacy,0,incongruent,uniform,1,undefined,1,h,0,0,0,111,111,0,111,0,111,0,0,0,111,111,111,111,Sun Sep 24 12:55:52 2023,600,The main experiment item,yes,Flankertask.osexp,/Users/Thingtwo/Desktop,no,mono,no,18,no,white,no,yes,768,legacy,31,79,/Users/Thingtwo/Desktop/NC-subject-3.csv,legacy,Lentiform Loewenfeld,3.3.14,0,h,NA,s,NA,h,h,377,NA,3097,NA,636231,377,2,legacy,1024,2,48000,-16,experiment,SSHSS,3,odd,5187,768981,NA,817356,804027,2061,810814,NA,818402,2082,NA,132749,818508,818886,818396,818508,New experiment,100,41419,112,yes,1024
89.38053097,89.38053097,369.8141593,369.8141593,black,legacy,legacy,legacy,0,congruent,uniform,1,undefined,1,s,0,0,0,112,112,0,112,0,112,0,0,0,112,112,112,112,Sun Sep 24 12:55:52 2023,600,The main experiment item,yes,Flankertask.osexp,/Users/Thingtwo/Desktop,no,mono,no,18,no,white,no,yes,768,legacy,32,79,/Users/Thingtwo/Desktop/NC-subject-3.csv,legacy,Lentiform Loewenfeld,3.3.14,0,s,NA,s,NA,h,s,370,NA,3097,NA,636231,370,2,legacy,1024,2,48000,-16,experiment,SSSSS,3,odd,5187,768981,NA,818891,804027,2061,810814,NA,819937,2082,NA,132749,820043,820414,819931,820043,New experiment,101,41789,113,yes,1024
89.47368421,89.47368421,369.6491228,369.6491228,black,legacy,legacy,legacy,0,congruent,uniform,1,undefined,1,s,0,0,0,113,113,0,113,0,113,0,0,0,113,113,113,113,Sun Sep 24 12:55:52 2023,600,The main experiment item,yes,Flankertask.osexp,/Users/Thingtwo/Desktop,no,mono,no,18,no,white,no,yes,768,legacy,33,79,/Users/Thingtwo/Desktop/NC-subject-3.csv,legacy,Lentiform Loewenfeld,3.3.14,0,s,NA,s,NA,h,s,351,NA,3097,NA,636231,351,2,legacy,1024,2,48000,-16,experiment,SSSSS,3,odd,5187,768981,NA,820419,804027,2061,810814,NA,821470,2082,NA,132749,821577,821929,821463,821577,New experiment,102,42140,114,yes,1024
88.69565217,88.69565217,369.8434783,369.8434783,black,legacy,legacy,legacy,0,incongruent,uniform,0,undefined,0,s,0,0,0,114,114,0,114,0,114,0,0,0,114,114,114,114,Sun Sep 24 12:55:52 2023,600,The main experiment item,yes,Flankertask.osexp,/Users/Thingtwo/Desktop,no,mono,no,18,no,white,no,yes,768,legacy,34,79,/Users/Thingtwo/Desktop/NC-subject-3.csv,legacy,Lentiform Loewenfeld,3.3.14,0,h,NA,s,NA,h,h,392,NA,3097,NA,636231,392,2,legacy,1024,2,48000,-16,experiment,HHSHH,3,odd,5187,768981,NA,821934,804027,2061,810814,NA,822982,2082,NA,132749,823089,823481,822976,823088,New experiment,102,42532,115,yes,1024
88.79310345,88.79310345,369.5431034,369.5431034,black,legacy,legacy,legacy,0,congruent,uniform,1,undefined,1,h,0,0,0,115,115,0,115,0,115,0,0,0,115,115,115,115,Sun Sep 24 12:55:52 2023,600,The main experiment item,yes,Flankertask.osexp,/Users/Thingtwo/Desktop,no,mono,no,18,no,white,no,yes,768,legacy,35,79,/Users/Thingtwo/Desktop/NC-subject-3.csv,legacy,Lentiform Loewenfeld,3.3.14,0,h,NA,s,NA,h,h,335,NA,3097,NA,636231,335,2,legacy,1024,2,48000,-16,experiment,HHHHH,3,odd,5187,768981,NA,823996,823486,2061,810814,NA,825046,2082,NA,132749,825153,825489,825039,825153,New experiment,103,42867,116,yes,1024
88.88888889,88.88888889,369.3504274,369.3504274,black,legacy,legacy,legacy,0,congruent,uniform,1,undefined,1,h,0,0,0,116,116,0,116,0,116,0,0,0,116,116,116,116,Sun Sep 24 12:55:52 2023,600,The main experiment item,yes,Flankertask.osexp,/Users/Thingtwo/Desktop,no,mono,no,18,no,white,no,yes,768,legacy,36,79,/Users/Thingtwo/Desktop/NC-subject-3.csv,legacy,Lentiform Loewenfeld,3.3.14,0,h,NA,s,NA,h,h,347,NA,3097,NA,636231,347,2,legacy,1024,2,48000,-16,experiment,HHHHH,3,odd,5187,768981,NA,825494,823486,2061,810814,NA,826542,2082,NA,132749,826648,826996,826537,826648,New experiment,104,43214,117,yes,1024
88.98305085,88.98305085,369.5677966,369.5677966,black,legacy,legacy,legacy,0,incongruent,uniform,1,undefined,1,s,0,0,0,117,117,0,117,0,117,0,0,0,117,117,117,117,Sun Sep 24 12:55:52 2023,600,The main experiment item,yes,Flankertask.osexp,/Users/Thingtwo/Desktop,no,mono,no,18,no,white,no,yes,768,legacy,37,79,/Users/Thingtwo/Desktop/NC-subject-3.csv,legacy,Lentiform Loewenfeld,3.3.14,0,s,NA,s,NA,h,s,395,NA,3097,NA,636231,395,2,legacy,1024,2,48000,-16,experiment,HHSHH,3,odd,5187,768981,NA,827001,823486,2061,810814,NA,828050,2082,NA,132749,828157,828553,828044,828156,New experiment,105,43609,118,yes,1024
89.07563025,89.07563025,369.5210084,369.5210084,black,legacy,legacy,legacy,0,congruent,uniform,1,undefined,1,s,0,0,0,118,118,0,118,0,118,0,0,0,118,118,118,118,Sun Sep 24 12:55:52 2023,600,The main experiment item,yes,Flankertask.osexp,/Users/Thingtwo/Desktop,no,mono,no,18,no,white,no,yes,768,legacy,38,79,/Users/Thingtwo/Desktop/NC-subject-3.csv,legacy,Lentiform Loewenfeld,3.3.14,0,s,NA,s,NA,h,s,364,NA,3097,NA,636231,364,2,legacy,1024,2,48000,-16,experiment,SSSSS,3,odd,5187,768981,NA,828557,823486,2061,810814,NA,829607,2082,NA,132749,829713,830078,829601,829713,New experiment,106,43973,119,yes,1024
89.16666667,89.16666667,369.6916667,369.6916667,black,legacy,legacy,legacy,0,incongruent,uniform,1,undefined,1,h,0,0,0,119,119,0,119,0,119,0,0,0,119,119,119,119,Sun Sep 24 12:55:52 2023,600,The main experiment item,yes,Flankertask.osexp,/Users/Thingtwo/Desktop,no,mono,no,18,no,white,no,yes,768,legacy,39,79,/Users/Thingtwo/Desktop/NC-subject-3.csv,legacy,Lentiform Loewenfeld,3.3.14,0,h,NA,s,NA,h,h,390,NA,3097,NA,636231,390,2,legacy,1024,2,48000,-16,experiment,SSHSS,3,odd,5187,768981,NA,830083,823486,2061,810814,NA,831130,2082,NA,132749,831236,831627,831125,831236,New experiment,107,44363,120,yes,1024
89.25619835,89.25619835,369.6033058,369.6033058,black,legacy,legacy,legacy,0,congruent,uniform,1,undefined,1,s,0,0,0,120,120,0,120,0,120,0,0,0,120,120,120,120,Sun Sep 24 12:55:52 2023,600,The main experiment item,yes,Flankertask.osexp,/Users/Thingtwo/Desktop,no,mono,no,18,no,white,no,yes,768,legacy,40,79,/Users/Thingtwo/Desktop/NC-subject-3.csv,legacy,Lentiform Loewenfeld,3.3.14,0,s,NA,s,NA,h,s,359,NA,3097,NA,636231,359,2,legacy,1024,2,48000,-16,experiment,SSSSS,3,odd,5187,768981,NA,831632,823486,2061,810814,NA,832680,2082,NA,132749,832787,833147,832674,832787,New experiment,108,44722,121,yes,1024
89.3442623,89.3442623,369.3114754,369.3114754,black,legacy,legacy,legacy,0,congruent,uniform,1,undefined,1,h,0,0,0,121,121,0,121,0,121,0,0,0,121,121,121,121,Sun Sep 24 12:55:52 2023,600,The main experiment item,yes,Flankertask.osexp,/Users/Thingtwo/Desktop,no,mono,no,18,no,white,no,yes,768,legacy,41,79,/Users/Thingtwo/Desktop/NC-subject-3.csv,legacy,Lentiform Loewenfeld,3.3.14,0,h,NA,s,NA,h,h,334,NA,3097,NA,636231,334,2,legacy,1024,2,48000,-16,experiment,HHHHH,3,odd,5187,768981,NA,833151,823486,2061,810814,NA,834199,2082,NA,132749,834306,834641,834194,834306,New experiment,109,45056,122,yes,1024
89.43089431,89.43089431,369.504065,369.504065,black,legacy,legacy,legacy,0,incongruent,uniform,1,undefined,1,h,0,0,0,122,122,0,122,0,122,0,0,0,122,122,122,122,Sun Sep 24 12:55:52 2023,600,The main experiment item,yes,Flankertask.osexp,/Users/Thingtwo/Desktop,no,mono,no,18,no,white,no,yes,768,legacy,42,79,/Users/Thingtwo/Desktop/NC-subject-3.csv,legacy,Lentiform Loewenfeld,3.3.14,0,h,NA,s,NA,h,h,393,NA,3097,NA,636231,393,2,legacy,1024,2,48000,-16,experiment,SSHSS,3,odd,5187,768981,NA,834646,823486,2061,810814,NA,835695,2082,NA,132749,835802,836196,835690,835801,New experiment,110,45449,123,yes,1024
89.51612903,89.51612903,369.1209677,369.1209677,black,legacy,legacy,legacy,0,congruent,uniform,1,undefined,1,s,0,0,0,123,123,0,123,0,123,0,0,0,123,123,123,123,Sun Sep 24 12:55:52 2023,600,The main experiment item,yes,Flankertask.osexp,/Users/Thingtwo/Desktop,no,mono,no,18,no,white,no,yes,768,legacy,43,79,/Users/Thingtwo/Desktop/NC-subject-3.csv,legacy,Lentiform Loewenfeld,3.3.14,0,s,NA,s,NA,h,s,322,NA,3097,NA,636231,322,2,legacy,1024,2,48000,-16,experiment,SSSSS,3,odd,5187,768981,NA,836200,823486,2061,810814,NA,837249,2082,NA,132749,837355,837678,837243,837355,New experiment,111,45771,124,yes,1024
89.6,89.6,369.112,369.112,black,legacy,legacy,legacy,0,incongruent,uniform,1,undefined,1,h,0,0,0,124,124,0,124,0,124,0,0,0,124,124,124,124,Sun Sep 24 12:55:52 2023,600,The main experiment item,yes,Flankertask.osexp,/Users/Thingtwo/Desktop,no,mono,no,18,no,white,no,yes,768,legacy,44,79,/Users/Thingtwo/Desktop/NC-subject-3.csv,legacy,Lentiform Loewenfeld,3.3.14,0,h,NA,s,NA,h,h,368,NA,3097,NA,636231,368,2,legacy,1024,2,48000,-16,experiment,SSHSS,3,odd,5187,768981,NA,837683,823486,2061,810814,NA,838731,2082,NA,132749,838837,839206,838725,838837,New experiment,112,46139,125,yes,1024
89.68253968,89.68253968,368.6904762,368.6904762,black,legacy,legacy,legacy,0,congruent,uniform,1,undefined,1,s,0,0,0,125,125,0,125,0,125,0,0,0,125,125,125,125,Sun Sep 24 12:55:52 2023,600,The main experiment item,yes,Flankertask.osexp,/Users/Thingtwo/Desktop,no,mono,no,18,no,white,no,yes,768,legacy,45,79,/Users/Thingtwo/Desktop/NC-subject-3.csv,legacy,Lentiform Loewenfeld,3.3.14,0,s,NA,s,NA,h,s,316,NA,3097,NA,636231,316,2,legacy,1024,2,48000,-16,experiment,SSSSS,3,odd,5187,768981,NA,839211,823486,2061,810814,NA,840258,2082,NA,132749,840365,840681,840253,840365,New experiment,113,46455,126,yes,1024
89.76377953,89.76377953,368.4566929,368.4566929,black,legacy,legacy,legacy,0,congruent,uniform,1,undefined,1,s,0,0,0,126,126,0,126,0,126,0,0,0,126,126,126,126,Sun Sep 24 12:55:52 2023,600,The main experiment item,yes,Flankertask.osexp,/Users/Thingtwo/Desktop,no,mono,no,18,no,white,no,yes,768,legacy,46,79,/Users/Thingtwo/Desktop/NC-subject-3.csv,legacy,Lentiform Loewenfeld,3.3.14,0,s,NA,s,NA,h,s,339,NA,3097,NA,636231,339,2,legacy,1024,2,48000,-16,experiment,SSSSS,3,odd,5187,768981,NA,840686,823486,2061,810814,NA,841733,2082,NA,132749,841839,842179,841727,841839,New experiment,114,46794,127,yes,1024
89.84375,89.84375,368.6171875,368.6171875,black,legacy,legacy,legacy,0,incongruent,uniform,1,undefined,1,h,0,0,0,127,127,0,127,0,127,0,0,0,127,127,127,127,Sun Sep 24 12:55:52 2023,600,The main experiment item,yes,Flankertask.osexp,/Users/Thingtwo/Desktop,no,mono,no,18,no,white,no,yes,768,legacy,47,79,/Users/Thingtwo/Desktop/NC-subject-3.csv,legacy,Lentiform Loewenfeld,3.3.14,0,h,NA,s,NA,h,h,389,NA,3097,NA,636231,389,2,legacy,1024,2,48000,-16,experiment,SSHSS,3,odd,5187,768981,NA,842183,823486,2061,810814,NA,843230,2082,NA,132749,843337,843727,843224,843336,New experiment,115,47183,128,yes,1024
89.92248062,89.92248062,368.7596899,368.7596899,black,legacy,legacy,legacy,0,incongruent,uniform,1,undefined,1,h,0,0,0,128,128,0,128,0,128,0,0,0,128,128,128,128,Sun Sep 24 12:55:52 2023,600,The main experiment item,yes,Flankertask.osexp,/Users/Thingtwo/Desktop,no,mono,no,18,no,white,no,yes,768,legacy,48,79,/Users/Thingtwo/Desktop/NC-subject-3.csv,legacy,Lentiform Loewenfeld,3.3.14,0,h,NA,s,NA,h,h,387,NA,3097,NA,636231,387,2,legacy,1024,2,48000,-16,experiment,SSHSS,3,odd,5187,768981,NA,843732,823486,2061,810814,NA,844770,2082,NA,132749,844874,845262,844765,844874,New experiment,116,47570,129,yes,1024
90,90,368.6076923,368.6076923,black,legacy,legacy,legacy,0,congruent,uniform,1,undefined,1,s,0,0,0,129,129,0,129,0,129,0,0,0,129,129,129,129,Sun Sep 24 12:55:52 2023,600,The main experiment item,yes,Flankertask.osexp,/Users/Thingtwo/Desktop,no,mono,no,18,no,white,no,yes,768,legacy,49,79,/Users/Thingtwo/Desktop/NC-subject-3.csv,legacy,Lentiform Loewenfeld,3.3.14,0,s,NA,s,NA,h,s,349,NA,3097,NA,636231,349,2,legacy,1024,2,48000,-16,experiment,SSSSS,3,odd,5187,768981,NA,845267,823486,2061,810814,NA,846314,2082,NA,132749,846421,846771,846309,846421,New experiment,117,47919,130,yes,1024
90.07633588,90.07633588,368.0610687,368.0610687,black,legacy,legacy,legacy,0,congruent,uniform,1,undefined,1,h,0,0,0,130,130,0,130,0,130,0,0,0,130,130,130,130,Sun Sep 24 12:55:52 2023,600,The main experiment item,yes,Flankertask.osexp,/Users/Thingtwo/Desktop,no,mono,no,18,no,white,no,yes,768,legacy,50,79,/Users/Thingtwo/Desktop/NC-subject-3.csv,legacy,Lentiform Loewenfeld,3.3.14,0,h,NA,s,NA,h,h,297,NA,3097,NA,636231,297,2,legacy,1024,2,48000,-16,experiment,HHHHH,3,odd,5187,768981,NA,846776,823486,2061,810814,NA,847825,2082,NA,132749,847932,848230,847819,847932,New experiment,118,48216,131,yes,1024
90.15151515,90.15151515,368.3484848,368.3484848,black,legacy,legacy,legacy,0,congruent,uniform,1,undefined,1,h,0,0,0,131,131,0,131,0,131,0,0,0,131,131,131,131,Sun Sep 24 12:55:52 2023,600,The main experiment item,yes,Flankertask.osexp,/Users/Thingtwo/Desktop,no,mono,no,18,no,white,no,yes,768,legacy,51,79,/Users/Thingtwo/Desktop/NC-subject-3.csv,legacy,Lentiform Loewenfeld,3.3.14,0,h,NA,s,NA,h,h,406,NA,3097,NA,636231,406,2,legacy,1024,2,48000,-16,experiment,HHHHH,3,odd,5187,768981,NA,848235,823486,2061,810814,NA,849284,2082,NA,132749,849391,849798,849278,849390,New experiment,119,48622,132,yes,1024
90.22556391,90.22556391,368.4210526,368.4210526,black,legacy,legacy,legacy,0,congruent,uniform,1,undefined,1,s,0,0,0,132,132,0,132,0,132,0,0,0,132,132,132,132,Sun Sep 24 12:55:52 2023,600,The main experiment item,yes,Flankertask.osexp,/Users/Thingtwo/Desktop,no,mono,no,18,no,white,no,yes,768,legacy,52,79,/Users/Thingtwo/Desktop/NC-subject-3.csv,legacy,Lentiform Loewenfeld,3.3.14,0,s,NA,s,NA,h,s,378,NA,3097,NA,636231,378,2,legacy,1024,2,48000,-16,experiment,SSSSS,3,odd,5187,768981,NA,849803,823486,2061,810814,NA,850851,2082,NA,132749,850957,851336,850845,850957,New experiment,120,49000,133,yes,1024
90.29850746,90.29850746,367.9402985,367.9402985,black,legacy,legacy,legacy,0,incongruent,uniform,1,undefined,1,h,0,0,0,133,133,0,133,0,133,0,0,0,133,133,133,133,Sun Sep 24 12:55:52 2023,600,The main experiment item,yes,Flankertask.osexp,/Users/Thingtwo/Desktop,no,mono,no,18,no,white,no,yes,768,legacy,53,79,/Users/Thingtwo/Desktop/NC-subject-3.csv,legacy,Lentiform Loewenfeld,3.3.14,0,h,NA,s,NA,h,h,304,NA,3097,NA,636231,304,2,legacy,1024,2,48000,-16,experiment,SSHSS,3,odd,5187,768981,NA,851341,823486,2061,810814,NA,852389,2082,NA,132749,852495,852800,852383,852495,New experiment,121,49304,134,yes,1024
90.37037037,90.37037037,367.2222222,367.2222222,black,legacy,legacy,legacy,0,congruent,uniform,1,undefined,1,s,0,0,0,134,134,0,134,0,134,0,0,0,134,134,134,134,Sun Sep 24 12:55:52 2023,600,The main experiment item,yes,Flankertask.osexp,/Users/Thingtwo/Desktop,no,mono,no,18,no,white,no,yes,768,legacy,54,79,/Users/Thingtwo/Desktop/NC-subject-3.csv,legacy,Lentiform Loewenfeld,3.3.14,0,s,NA,s,NA,h,s,271,NA,3097,NA,636231,271,2,legacy,1024,2,48000,-16,experiment,SSSSS,3,odd,5187,768981,NA,852805,823486,2061,810814,NA,853853,2082,NA,132749,853960,854232,853847,853960,New experiment,122,49575,135,yes,1024
90.44117647,90.44117647,367.8676471,367.8676471,black,legacy,legacy,legacy,0,incongruent,uniform,1,undefined,1,h,0,0,0,135,135,0,135,0,135,0,0,0,135,135,135,135,Sun Sep 24 12:55:52 2023,600,The main experiment item,yes,Flankertask.osexp,/Users/Thingtwo/Desktop,no,mono,no,18,no,white,no,yes,768,legacy,55,79,/Users/Thingtwo/Desktop/NC-subject-3.csv,legacy,Lentiform Loewenfeld,3.3.14,0,h,NA,s,NA,h,h,455,NA,3097,NA,636231,455,2,legacy,1024,2,48000,-16,experiment,SSHSS,3,odd,5187,768981,NA,854237,823486,2061,810814,NA,855286,2082,NA,132749,855393,855848,855280,855392,New experiment,123,50030,136,yes,1024
90.51094891,90.51094891,368.2262774,368.2262774,black,legacy,legacy,legacy,0,incongruent,uniform,1,undefined,1,s,0,0,0,136,136,0,136,0,136,0,0,0,136,136,136,136,Sun Sep 24 12:55:52 2023,600,The main experiment item,yes,Flankertask.osexp,/Users/Thingtwo/Desktop,no,mono,no,18,no,white,no,yes,768,legacy,56,79,/Users/Thingtwo/Desktop/NC-subject-3.csv,legacy,Lentiform Loewenfeld,3.3.14,0,s,NA,s,NA,h,s,417,NA,3097,NA,636231,417,2,legacy,1024,2,48000,-16,experiment,HHSHH,3,odd,5187,768981,NA,855853,823486,2061,810814,NA,856901,2082,NA,132749,857008,857426,856896,857007,New experiment,124,50447,137,yes,1024
90.57971014,90.57971014,368.2898551,368.2898551,black,legacy,legacy,legacy,0,incongruent,uniform,1,undefined,1,h,0,0,0,137,137,0,137,0,137,0,0,0,137,137,137,137,Sun Sep 24 12:55:52 2023,600,The main experiment item,yes,Flankertask.osexp,/Users/Thingtwo/Desktop,no,mono,no,18,no,white,no,yes,768,legacy,57,79,/Users/Thingtwo/Desktop/NC-subject-3.csv,legacy,Lentiform Loewenfeld,3.3.14,0,h,NA,s,NA,h,h,377,NA,3097,NA,636231,377,2,legacy,1024,2,48000,-16,experiment,SSHSS,3,odd,5187,768981,NA,857431,823486,2061,810814,NA,858478,2082,NA,132749,858584,858961,858473,858584,New experiment,125,50824,138,yes,1024
90.64748201,90.64748201,369.4604317,369.4604317,black,legacy,legacy,legacy,0,congruent,uniform,1,undefined,1,h,0,0,0,138,138,0,138,0,138,0,0,0,138,138,138,138,Sun Sep 24 12:55:52 2023,600,The main experiment item,yes,Flankertask.osexp,/Users/Thingtwo/Desktop,no,mono,no,18,no,white,no,yes,768,legacy,58,79,/Users/Thingtwo/Desktop/NC-subject-3.csv,legacy,Lentiform Loewenfeld,3.3.14,0,h,NA,s,NA,h,h,531,NA,3097,NA,636231,531,2,legacy,1024,2,48000,-16,experiment,HHHHH,3,odd,5187,768981,NA,858966,823486,2061,810814,NA,860015,2082,NA,132749,860121,860653,860009,860121,New experiment,126,51355,139,yes,1024
90.71428571,90.71428571,369.8428571,369.8428571,black,legacy,legacy,legacy,0,incongruent,uniform,1,undefined,1,s,0,0,0,139,139,0,139,0,139,0,0,0,139,139,139,139,Sun Sep 24 12:55:52 2023,600,The main experiment item,yes,Flankertask.osexp,/Users/Thingtwo/Desktop,no,mono,no,18,no,white,no,yes,768,legacy,59,79,/Users/Thingtwo/Desktop/NC-subject-3.csv,legacy,Lentiform Loewenfeld,3.3.14,0,s,NA,s,NA,h,s,423,NA,3097,NA,636231,423,2,legacy,1024,2,48000,-16,experiment,HHSHH,3,odd,5187,768981,NA,860658,823486,2061,810814,NA,861707,2082,NA,132749,861813,862237,861701,861813,New experiment,127,51778,140,yes,1024
90.78014184,90.78014184,369.3333333,369.3333333,black,legacy,legacy,legacy,0,incongruent,uniform,1,undefined,1,h,0,0,0,140,140,0,140,0,140,0,0,0,140,140,140,140,Sun Sep 24 12:55:52 2023,600,The main experiment item,yes,Flankertask.osexp,/Users/Thingtwo/Desktop,no,mono,no,18,no,white,no,yes,768,legacy,60,79,/Users/Thingtwo/Desktop/NC-subject-3.csv,legacy,Lentiform Loewenfeld,3.3.14,0,h,NA,s,NA,h,h,298,NA,3097,NA,636231,298,2,legacy,1024,2,48000,-16,experiment,SSHSS,3,odd,5187,768981,NA,862242,823486,2061,810814,NA,863289,2082,NA,132749,863395,863694,863283,863395,New experiment,128,52076,141,yes,1024
90.14084507,90.14084507,368.8450704,368.8450704,black,legacy,legacy,legacy,0,congruent,uniform,0,undefined,0,h,0,0,0,141,141,0,141,0,141,0,0,0,141,141,141,141,Sun Sep 24 12:55:52 2023,600,The main experiment item,yes,Flankertask.osexp,/Users/Thingtwo/Desktop,no,mono,no,18,no,white,no,yes,768,legacy,61,79,/Users/Thingtwo/Desktop/NC-subject-3.csv,legacy,Lentiform Loewenfeld,3.3.14,0,s,NA,s,NA,h,s,300,NA,3097,NA,636231,300,2,legacy,1024,2,48000,-16,experiment,HHHHH,3,odd,5187,768981,NA,863699,823486,2061,810814,NA,864746,2082,NA,132749,864852,865153,864741,864852,New experiment,128,52376,142,yes,1024
90.20979021,90.20979021,368.8811189,368.8811189,black,legacy,legacy,legacy,0,incongruent,uniform,1,undefined,1,s,0,0,0,142,142,0,142,0,142,0,0,0,142,142,142,142,Sun Sep 24 12:55:52 2023,600,The main experiment item,yes,Flankertask.osexp,/Users/Thingtwo/Desktop,no,mono,no,18,no,white,no,yes,768,legacy,62,79,/Users/Thingtwo/Desktop/NC-subject-3.csv,legacy,Lentiform Loewenfeld,3.3.14,0,s,NA,s,NA,h,s,374,NA,3097,NA,636231,374,2,legacy,1024,2,48000,-16,experiment,HHSHH,3,odd,5187,768981,NA,865667,865158,2061,810814,NA,866715,2082,NA,132749,866821,867196,866710,866821,New experiment,129,52750,143,yes,1024
90.27777778,90.27777778,368.4583333,368.4583333,black,legacy,legacy,legacy,0,incongruent,uniform,1,undefined,1,h,0,0,0,143,143,0,143,0,143,0,0,0,143,143,143,143,Sun Sep 24 12:55:52 2023,600,The main experiment item,yes,Flankertask.osexp,/Users/Thingtwo/Desktop,no,mono,no,18,no,white,no,yes,768,legacy,63,79,/Users/Thingtwo/Desktop/NC-subject-3.csv,legacy,Lentiform Loewenfeld,3.3.14,0,h,NA,s,NA,h,h,308,NA,3097,NA,636231,308,2,legacy,1024,2,48000,-16,experiment,SSHSS,3,odd,5187,768981,NA,867201,865158,2061,810814,NA,868247,2082,NA,132749,868353,868662,868242,868353,New experiment,130,53058,144,yes,1024
90.34482759,90.34482759,367.9103448,367.9103448,black,legacy,legacy,legacy,0,incongruent,uniform,1,undefined,1,s,0,0,0,144,144,0,144,0,144,0,0,0,144,144,144,144,Sun Sep 24 12:55:52 2023,600,The main experiment item,yes,Flankertask.osexp,/Users/Thingtwo/Desktop,no,mono,no,18,no,white,no,yes,768,legacy,64,79,/Users/Thingtwo/Desktop/NC-subject-3.csv,legacy,Lentiform Loewenfeld,3.3.14,0,s,NA,s,NA,h,s,289,NA,3097,NA,636231,289,2,legacy,1024,2,48000,-16,experiment,HHSHH,3,odd,5187,768981,NA,868667,865158,2061,810814,NA,869714,2082,NA,132749,869820,870110,869708,869820,New experiment,131,53347,145,yes,1024
90.4109589,90.4109589,367.8424658,367.8424658,black,legacy,legacy,legacy,0,incongruent,uniform,1,undefined,1,s,0,0,0,145,145,0,145,0,145,0,0,0,145,145,145,145,Sun Sep 24 12:55:52 2023,600,The main experiment item,yes,Flankertask.osexp,/Users/Thingtwo/Desktop,no,mono,no,18,no,white,no,yes,768,legacy,65,79,/Users/Thingtwo/Desktop/NC-subject-3.csv,legacy,Lentiform Loewenfeld,3.3.14,0,s,NA,s,NA,h,s,358,NA,3097,NA,636231,358,2,legacy,1024,2,48000,-16,experiment,HHSHH,3,odd,5187,768981,NA,870115,865158,2061,810814,NA,871163,2082,NA,132749,871269,871628,871157,871269,New experiment,132,53705,146,yes,1024
90.47619048,90.47619048,367.5034014,367.5034014,black,legacy,legacy,legacy,0,congruent,uniform,1,undefined,1,s,0,0,0,146,146,0,146,0,146,0,0,0,146,146,146,146,Sun Sep 24 12:55:52 2023,600,The main experiment item,yes,Flankertask.osexp,/Users/Thingtwo/Desktop,no,mono,no,18,no,white,no,yes,768,legacy,66,79,/Users/Thingtwo/Desktop/NC-subject-3.csv,legacy,Lentiform Loewenfeld,3.3.14,0,s,NA,s,NA,h,s,318,NA,3097,NA,636231,318,2,legacy,1024,2,48000,-16,experiment,SSSSS,3,odd,5187,768981,NA,871633,865158,2061,810814,NA,872682,2082,NA,132749,872790,873109,872677,872789,New experiment,133,54023,147,yes,1024
90.54054054,90.54054054,367,367,black,legacy,legacy,legacy,0,congruent,uniform,1,undefined,1,h,0,0,0,147,147,0,147,0,147,0,0,0,147,147,147,147,Sun Sep 24 12:55:52 2023,600,The main experiment item,yes,Flankertask.osexp,/Users/Thingtwo/Desktop,no,mono,no,18,no,white,no,yes,768,legacy,67,79,/Users/Thingtwo/Desktop/NC-subject-3.csv,legacy,Lentiform Loewenfeld,3.3.14,0,h,NA,s,NA,h,h,293,NA,3097,NA,636231,293,2,legacy,1024,2,48000,-16,experiment,HHHHH,3,odd,5187,768981,NA,873113,865158,2061,810814,NA,874162,2082,NA,132749,874269,874563,874157,874269,New experiment,134,54316,148,yes,1024
89.93288591,89.93288591,366.4295302,366.4295302,black,legacy,legacy,legacy,0,incongruent,uniform,0,undefined,0,h,0,0,0,148,148,0,148,0,148,0,0,0,148,148,148,148,Sun Sep 24 12:55:52 2023,600,The main experiment item,yes,Flankertask.osexp,/Users/Thingtwo/Desktop,no,mono,no,18,no,white,no,yes,768,legacy,68,79,/Users/Thingtwo/Desktop/NC-subject-3.csv,legacy,Lentiform Loewenfeld,3.3.14,0,s,NA,s,NA,h,s,282,NA,3097,NA,636231,282,2,legacy,1024,2,48000,-16,experiment,SSHSS,3,odd,5187,768981,NA,874568,865158,2061,810814,NA,875617,2082,NA,132749,875723,876006,875611,875723,New experiment,134,54598,149,yes,1024
90,90,367.06,367.06,black,legacy,legacy,legacy,0,incongruent,uniform,1,undefined,1,h,0,0,0,149,149,0,149,0,149,0,0,0,149,149,149,149,Sun Sep 24 12:55:52 2023,600,The main experiment item,yes,Flankertask.osexp,/Users/Thingtwo/Desktop,no,mono,no,18,no,white,no,yes,768,legacy,69,79,/Users/Thingtwo/Desktop/NC-subject-3.csv,legacy,Lentiform Loewenfeld,3.3.14,0,h,NA,s,NA,h,h,461,NA,3097,NA,636231,461,2,legacy,1024,2,48000,-16,experiment,SSHSS,3,odd,5187,768981,NA,876519,876010,2061,810814,NA,877565,2082,NA,132749,877671,878132,877560,877671,New experiment,135,55059,150,yes,1024
90.06622517,90.06622517,366.9403974,366.9403974,black,legacy,legacy,legacy,0,incongruent,uniform,1,undefined,1,s,0,0,0,150,150,0,150,0,150,0,0,0,150,150,150,150,Sun Sep 24 12:55:52 2023,600,The main experiment item,yes,Flankertask.osexp,/Users/Thingtwo/Desktop,no,mono,no,18,no,white,no,yes,768,legacy,70,79,/Users/Thingtwo/Desktop/NC-subject-3.csv,legacy,Lentiform Loewenfeld,3.3.14,0,s,NA,s,NA,h,s,349,NA,3097,NA,636231,349,2,legacy,1024,2,48000,-16,experiment,HHSHH,3,odd,5187,768981,NA,878137,876010,2061,810814,NA,879185,2082,NA,132749,879291,879641,879179,879291,New experiment,136,55408,151,yes,1024
90.13157895,90.13157895,366.9934211,366.9934211,black,legacy,legacy,legacy,0,incongruent,uniform,1,undefined,1,s,0,0,0,151,151,0,151,0,151,0,0,0,151,151,151,151,Sun Sep 24 12:55:52 2023,600,The main experiment item,yes,Flankertask.osexp,/Users/Thingtwo/Desktop,no,mono,no,18,no,white,no,yes,768,legacy,71,79,/Users/Thingtwo/Desktop/NC-subject-3.csv,legacy,Lentiform Loewenfeld,3.3.14,0,s,NA,s,NA,h,s,375,NA,3097,NA,636231,375,2,legacy,1024,2,48000,-16,experiment,HHSHH,3,odd,5187,768981,NA,879646,876010,2061,810814,NA,880693,2082,NA,132749,880800,881176,880688,880799,New experiment,137,55783,152,yes,1024
90.19607843,90.19607843,367.1699346,367.1699346,black,legacy,legacy,legacy,0,congruent,uniform,1,undefined,1,s,0,0,0,152,152,0,152,0,152,0,0,0,152,152,152,152,Sun Sep 24 12:55:52 2023,600,The main experiment item,yes,Flankertask.osexp,/Users/Thingtwo/Desktop,no,mono,no,18,no,white,no,yes,768,legacy,72,79,/Users/Thingtwo/Desktop/NC-subject-3.csv,legacy,Lentiform Loewenfeld,3.3.14,0,s,NA,s,NA,h,s,394,NA,3097,NA,636231,394,2,legacy,1024,2,48000,-16,experiment,SSSSS,3,odd,5187,768981,NA,881181,876010,2061,810814,NA,882227,2082,NA,132749,882333,882727,882221,882333,New experiment,138,56177,153,yes,1024
89.61038961,89.61038961,366.6038961,366.6038961,black,legacy,legacy,legacy,0,congruent,uniform,0,undefined,0,h,0,0,0,153,153,0,153,0,153,0,0,0,153,153,153,153,Sun Sep 24 12:55:52 2023,600,The main experiment item,yes,Flankertask.osexp,/Users/Thingtwo/Desktop,no,mono,no,18,no,white,no,yes,768,legacy,73,79,/Users/Thingtwo/Desktop/NC-subject-3.csv,legacy,Lentiform Loewenfeld,3.3.14,0,s,NA,s,NA,h,s,280,NA,3097,NA,636231,280,2,legacy,1024,2,48000,-16,experiment,HHHHH,3,odd,5187,768981,NA,882732,876010,2061,810814,NA,883781,2082,NA,132749,883887,884168,883775,883887,New experiment,138,56457,154,yes,1024
89.67741935,89.67741935,366.083871,366.083871,black,legacy,legacy,legacy,0,incongruent,uniform,1,undefined,1,s,0,0,0,154,154,0,154,0,154,0,0,0,154,154,154,154,Sun Sep 24 12:55:52 2023,600,The main experiment item,yes,Flankertask.osexp,/Users/Thingtwo/Desktop,no,mono,no,18,no,white,no,yes,768,legacy,74,79,/Users/Thingtwo/Desktop/NC-subject-3.csv,legacy,Lentiform Loewenfeld,3.3.14,0,s,NA,s,NA,h,s,286,NA,3097,NA,636231,286,2,legacy,1024,2,48000,-16,experiment,HHSHH,3,odd,5187,768981,NA,884682,884173,2061,810814,NA,885729,2082,NA,132749,885835,886122,885724,885835,New experiment,139,56743,155,yes,1024
89.74358974,89.74358974,366.2692308,366.2692308,black,legacy,legacy,legacy,0,congruent,uniform,1,undefined,1,h,0,0,0,155,155,0,155,0,155,0,0,0,155,155,155,155,Sun Sep 24 12:55:52 2023,600,The main experiment item,yes,Flankertask.osexp,/Users/Thingtwo/Desktop,no,mono,no,18,no,white,no,yes,768,legacy,75,79,/Users/Thingtwo/Desktop/NC-subject-3.csv,legacy,Lentiform Loewenfeld,3.3.14,0,h,NA,s,NA,h,h,395,NA,3097,NA,636231,395,2,legacy,1024,2,48000,-16,experiment,HHHHH,3,odd,5187,768981,NA,886127,884173,2061,810814,NA,887171,2082,NA,132749,887278,887674,887166,887278,New experiment,140,57138,156,yes,1024
89.8089172,89.8089172,366.2356688,366.2356688,black,legacy,legacy,legacy,0,congruent,uniform,1,undefined,1,h,0,0,0,156,156,0,156,0,156,0,0,0,156,156,156,156,Sun Sep 24 12:55:52 2023,600,The main experiment item,yes,Flankertask.osexp,/Users/Thingtwo/Desktop,no,mono,no,18,no,white,no,yes,768,legacy,76,79,/Users/Thingtwo/Desktop/NC-subject-3.csv,legacy,Lentiform Loewenfeld,3.3.14,0,h,NA,s,NA,h,h,361,NA,3097,NA,636231,361,2,legacy,1024,2,48000,-16,experiment,HHHHH,3,odd,5187,768981,NA,887679,884173,2061,810814,NA,888727,2082,NA,132749,888833,889195,888722,888833,New experiment,141,57499,157,yes,1024
89.87341772,89.87341772,366.5506329,366.5506329,black,legacy,legacy,legacy,0,incongruent,uniform,1,undefined,1,s,0,0,0,157,157,0,157,0,157,0,0,0,157,157,157,157,Sun Sep 24 12:55:52 2023,600,The main experiment item,yes,Flankertask.osexp,/Users/Thingtwo/Desktop,no,mono,no,18,no,white,no,yes,768,legacy,77,79,/Users/Thingtwo/Desktop/NC-subject-3.csv,legacy,Lentiform Loewenfeld,3.3.14,0,s,NA,s,NA,h,s,416,NA,3097,NA,636231,416,2,legacy,1024,2,48000,-16,experiment,HHSHH,3,odd,5187,768981,NA,889200,884173,2061,810814,NA,890247,2082,NA,132749,890353,890770,890241,890353,New experiment,142,57915,158,yes,1024
89.93710692,89.93710692,366.3396226,366.3396226,black,legacy,legacy,legacy,0,congruent,uniform,1,undefined,1,h,0,0,0,158,158,0,158,0,158,0,0,0,158,158,158,158,Sun Sep 24 12:55:52 2023,600,The main experiment item,yes,Flankertask.osexp,/Users/Thingtwo/Desktop,no,mono,no,18,no,white,no,yes,768,legacy,78,79,/Users/Thingtwo/Desktop/NC-subject-3.csv,legacy,Lentiform Loewenfeld,3.3.14,0,h,NA,s,NA,h,h,333,NA,3097,NA,636231,333,2,legacy,1024,2,48000,-16,experiment,HHHHH,3,odd,5187,768981,NA,890775,884173,2061,810814,NA,891822,2082,NA,132749,891929,892263,891817,891928,New experiment,143,58248,159,yes,1024
90,90,366.4875,366.4875,black,legacy,legacy,legacy,0,incongruent,uniform,1,undefined,1,h,0,0,0,159,159,0,159,0,159,0,0,0,159,159,159,159,Sun Sep 24 12:55:52 2023,600,The main experiment item,yes,Flankertask.osexp,/Users/Thingtwo/Desktop,no,mono,no,18,no,white,no,yes,768,legacy,79,79,/Users/Thingtwo/Desktop/NC-subject-3.csv,legacy,Lentiform Loewenfeld,3.3.14,0,h,NA,s,NA,h,h,390,NA,3097,NA,636231,390,2,legacy,1024,2,48000,-16,experiment,SSHSS,3,odd,5187,768981,NA,892268,884173,2061,810814,NA,893316,2082,NA,132749,893422,893813,893311,893422,New experiment,144,58638,160,yes,1024
90.0621118,90.0621118,367.3043478,367.3043478,black,legacy,legacy,legacy,0,incongruent,uniform,1,undefined,1,h,0,0,0,160,160,0,160,0,160,0,0,0,160,160,160,160,Sun Sep 24 12:55:52 2023,300,The main experiment item,yes,Flankertask.osexp,/Users/Thingtwo/Desktop,no,mono,no,18,no,white,no,yes,768,legacy,0,79,/Users/Thingtwo/Desktop/NC-subject-3.csv,legacy,Lentiform Loewenfeld,3.3.14,0,h,NA,s,space,h,h,498,NA,3097,297285,636231,498,2,legacy,1024,2,48000,-16,experiment,SSHSS,3,odd,5187,768981,1192133,893818,884173,2061,810814,NA,1192158,2082,894847,132749,1192262,1192761,1192154,1192262,New experiment,145,59136,161,yes,1024
90.12345679,90.12345679,366.7469136,366.7469136,black,legacy,legacy,legacy,0,congruent,uniform,1,undefined,1,h,0,0,0,161,161,0,161,0,161,0,0,0,161,161,161,161,Sun Sep 24 12:55:52 2023,300,The main experiment item,yes,Flankertask.osexp,/Users/Thingtwo/Desktop,no,mono,no,18,no,white,no,yes,768,legacy,1,79,/Users/Thingtwo/Desktop/NC-subject-3.csv,legacy,Lentiform Loewenfeld,3.3.14,0,h,NA,s,space,h,h,277,NA,3097,297285,636231,277,2,legacy,1024,2,48000,-16,experiment,HHHHH,3,odd,5187,768981,1192133,1193277,884173,2061,1192767,NA,1194327,2082,894847,132749,1194434,1194712,1194321,1194434,New experiment,146,59413,162,yes,1024
89.57055215,89.57055215,365.6319018,365.6319018,black,legacy,legacy,legacy,0,congruent,uniform,0,undefined,0,h,0,0,0,162,162,0,162,0,162,0,0,0,162,162,162,162,Sun Sep 24 12:55:52 2023,300,The main experiment item,yes,Flankertask.osexp,/Users/Thingtwo/Desktop,no,mono,no,18,no,white,no,yes,768,legacy,2,79,/Users/Thingtwo/Desktop/NC-subject-3.csv,legacy,Lentiform Loewenfeld,3.3.14,0,s,NA,s,space,h,s,185,NA,3097,297285,636231,185,2,legacy,1024,2,48000,-16,experiment,HHHHH,3,odd,5187,768981,1192133,1194717,884173,2061,1192767,NA,1195768,2082,894847,132749,1195875,1196061,1195761,1195875,New experiment,146,59598,163,yes,1024
89.63414634,89.63414634,364.3109756,364.3109756,black,legacy,legacy,legacy,0,congruent,uniform,1,undefined,1,s,0,0,0,163,163,0,163,0,163,0,0,0,163,163,163,163,Sun Sep 24 12:55:52 2023,300,The main experiment item,yes,Flankertask.osexp,/Users/Thingtwo/Desktop,no,mono,no,18,no,white,no,yes,768,legacy,3,79,/Users/Thingtwo/Desktop/NC-subject-3.csv,legacy,Lentiform Loewenfeld,3.3.14,0,s,NA,s,space,h,s,149,NA,3097,297285,636231,149,2,legacy,1024,2,48000,-16,experiment,SSSSS,3,odd,5187,768981,1192133,1196575,1196066,2061,1192767,NA,1197622,2082,894847,132749,1197728,1197878,1197617,1197728,New experiment,147,59747,164,yes,1024
89.09090909,89.09090909,363.5454545,363.5454545,black,legacy,legacy,legacy,0,congruent,uniform,0,undefined,0,h,0,0,0,164,164,0,164,0,164,0,0,0,164,164,164,164,Sun Sep 24 12:55:52 2023,300,The main experiment item,yes,Flankertask.osexp,/Users/Thingtwo/Desktop,no,mono,no,18,no,white,no,yes,768,legacy,4,79,/Users/Thingtwo/Desktop/NC-subject-3.csv,legacy,Lentiform Loewenfeld,3.3.14,0,s,NA,s,space,h,s,238,NA,3097,297285,636231,238,2,legacy,1024,2,48000,-16,experiment,HHHHH,3,odd,5187,768981,1192133,1197883,1196066,2061,1192767,NA,1198933,2082,894847,132749,1199040,1199279,1198927,1199040,New experiment,147,59985,165,yes,1024
88.55421687,88.55421687,362.0542169,362.0542169,black,legacy,legacy,legacy,0,congruent,uniform,0,undefined,0,s,0,0,0,165,165,0,165,0,165,0,0,0,165,165,165,165,Sun Sep 24 12:55:52 2023,300,The main experiment item,yes,Flankertask.osexp,/Users/Thingtwo/Desktop,no,mono,no,18,no,white,no,yes,768,legacy,5,79,/Users/Thingtwo/Desktop/NC-subject-3.csv,legacy,Lentiform Loewenfeld,3.3.14,0,h,NA,s,space,h,h,116,NA,3097,297285,636231,116,2,legacy,1024,2,48000,-16,experiment,SSSSS,3,odd,5187,768981,1192133,1199793,1199284,2061,1192767,NA,1200841,2082,894847,132749,1200948,1201065,1200835,1200948,New experiment,147,60101,166,yes,1024
88.62275449,88.62275449,361.8862275,361.8862275,black,legacy,legacy,legacy,0,congruent,uniform,1,undefined,1,s,0,0,0,166,166,0,166,0,166,0,0,0,166,166,166,166,Sun Sep 24 12:55:52 2023,300,The main experiment item,yes,Flankertask.osexp,/Users/Thingtwo/Desktop,no,mono,no,18,no,white,no,yes,768,legacy,6,79,/Users/Thingtwo/Desktop/NC-subject-3.csv,legacy,Lentiform Loewenfeld,3.3.14,0,s,NA,s,space,h,s,334,NA,3097,297285,636231,334,2,legacy,1024,2,48000,-16,experiment,SSSSS,3,odd,5187,768981,1192133,1201579,1201070,2061,1192767,NA,1202629,2082,894847,132749,1202736,1203071,1202623,1202735,New experiment,148,60435,167,yes,1024
