"acc","accuracy","average_response_time","avg_rt","background","canvas_backend","clock_backend","color_backend","compensation","condition","coordinates","correct","correct_instructions1","correct_keyboard_response","correct_response","count_Block1","count_Block2","count_Block3","count_Finish","count_ISI","count_Instructions2","count_errorFeedback","count_experiment","count_faster","count_fixation","count_instructions1","count_instructions3","count_keyboard_response","count_logger","count_sequence","count_stimulus","datetime","deadline","description","disable_garbage_collection","experiment_file","experiment_path","font_bold","font_family","font_italic","font_size","font_underline","foreground","form_clicks","fullscreen","height","keyboard_backend","live_row","live_row_Block1","logfile","mouse_backend","opensesame_codename","opensesame_version","repeat_cycle","response","response_Finish","response_Instructions2","response_errorFeedback","response_faster","response_instructions1","response_instructions3","response_keyboard_response","response_time","response_time_Finish","response_time_Instructions2","response_time_errorFeedback","response_time_faster","response_time_instructions1","response_time_instructions3","response_time_keyboard_response","round_decimals","sampler_backend","sound_buf_size","sound_channels","sound_freq","sound_sample_size","start","stimulus","subject_nr","subject_parity","time_Block1","time_Block2","time_Block3","time_Finish","time_ISI","time_Instructions2","time_errorFeedback","time_experiment","time_faster","time_fixation","time_instructions1","time_instructions3","time_keyboard_response","time_logger","time_sequence","time_stimulus","title","total_correct","total_response_time","total_responses","uniform_coordinates","width"
"0","0","1500","1500","black","legacy","legacy","legacy","0","congruent","uniform","0","undefined","0","s","0","0","0","0","0","0","0","0","0","0","0","0","0","0","0","0","Sun Sep 27 11:24:24 2020","1500","The main experiment item","yes","FlankerTask.osexp","/Users/shelia/Desktop","no","mono","no","18","no","white","no","yes","768","legacy","0","0","/Users/shelia/Desktop/ST-subject-2.csv","legacy","Lentiform Loewenfeld","3.3.3","0","None","NA","NA","NA","NA","return","NA","None","1500","NA","NA","NA","NA","2596","NA","1500","2","legacy","1024","2","48000","-16","experiment","SSSSS","2","even","5272","NA","NA","NA","NA","NA","NA","2649","NA","5331","2666","NA","5452","6952","5317","5452","Flanker Task","0","1500","1","yes","1024"
"50","50","1344","1344","black","legacy","legacy","legacy","0","congruent","uniform","1","undefined","1","h","0","0","0","0","1","0","1","0","1","1","0","0","1","1","1","1","Sun Sep 27 11:24:24 2020","1500","The main experiment item","yes","FlankerTask.osexp","/Users/shelia/Desktop","no","mono","no","18","no","white","no","yes","768","legacy","1","1","/Users/shelia/Desktop/ST-subject-2.csv","legacy","Lentiform Loewenfeld","3.3.3","0","h","NA","NA","return","return","return","NA","h","1188","NA","NA","8258","1367","2596","NA","1188","2","legacy","1024","2","48000","-16","experiment","HHHHH","2","even","5272","NA","NA","NA","16622","NA","6969","2649","15241","17714","2666","NA","17834","19025","17701","17834","Flanker Task","1","2688","2","yes","1024"
"33.333333333333336","33.333333333333336","1396","1396","black","legacy","legacy","legacy","0","incongruent","uniform","0","undefined","0","h","0","0","0","0","2","0","2","0","2","2","0","0","2","2","2","2","Sun Sep 27 11:24:24 2020","1500","The main experiment item","yes","FlankerTask.osexp","/Users/shelia/Desktop","no","mono","no","18","no","white","no","yes","768","legacy","2","2","/Users/shelia/Desktop/ST-subject-2.csv","legacy","Lentiform Loewenfeld","3.3.3","0","None","NA","NA","return","return","return","NA","None","1500","NA","NA","8258","1367","2596","NA","1500","2","legacy","1024","2","48000","-16","experiment","SSHSS","2","even","5272","NA","NA","NA","19040","NA","6969","2649","15241","20111","2666","NA","20232","21732","20099","20232","Flanker Task","1","4188","3","yes","1024"
"50","50","1290.5","1290.5","black","legacy","legacy","legacy","0","congruent","uniform","1","undefined","1","h","0","0","0","0","3","0","3","0","3","3","0","0","3","3","3","3","Sun Sep 27 11:24:24 2020","1500","The main experiment item","yes","FlankerTask.osexp","/Users/shelia/Desktop","no","mono","no","18","no","white","no","yes","768","legacy","3","3","/Users/shelia/Desktop/ST-subject-2.csv","legacy","Lentiform Loewenfeld","3.3.3","0","h","NA","NA","return","return","return","NA","h","974","NA","NA","6501","4537","2596","NA","974","2","legacy","1024","2","48000","-16","experiment","HHHHH","2","even","5272","NA","NA","NA","32812","NA","21746","2649","28261","33879","2666","NA","34000","34975","33866","34000","Flanker Task","2","5162","4","yes","1024"
"60","60","1238.8","1238.8","black","legacy","legacy","legacy","0","congruent","uniform","1","undefined","1","s","0","0","0","0","4","0","4","0","4","4","0","0","4","4","4","4","Sun Sep 27 11:24:24 2020","1500","The main experiment item","yes","FlankerTask.osexp","/Users/shelia/Desktop","no","mono","no","18","no","white","no","yes","768","legacy","4","4","/Users/shelia/Desktop/ST-subject-2.csv","legacy","Lentiform Loewenfeld","3.3.3","0","s","NA","NA","return","return","return","NA","s","1032","NA","NA","6501","4537","2596","NA","1032","2","legacy","1024","2","48000","-16","experiment","SSSSS","2","even","5272","NA","NA","NA","34989","NA","21746","2649","28261","36059","2666","NA","36179","37212","36046","36179","Flanker Task","3","6194","5","yes","1024"
"66.66666666666667","66.66666666666667","1186.6666666666667","1186.6666666666667","black","legacy","legacy","legacy","0","congruent","uniform","1","undefined","1","s","0","0","0","0","5","0","5","0","5","5","0","0","5","5","5","5","Sun Sep 27 11:24:24 2020","1500","The main experiment item","yes","FlankerTask.osexp","/Users/shelia/Desktop","no","mono","no","18","no","white","no","yes","768","legacy","5","5","/Users/shelia/Desktop/ST-subject-2.csv","legacy","Lentiform Loewenfeld","3.3.3","0","s","NA","NA","return","return","return","NA","s","926","NA","NA","6501","4537","2596","NA","926","2","legacy","1024","2","48000","-16","experiment","SSSSS","2","even","5272","NA","NA","NA","37226","NA","21746","2649","28261","38298","2666","NA","38421","39348","38283","38421","Flanker Task","4","7120","6","yes","1024"
"71.42857142857143","71.42857142857143","1151.857142857143","1151.857142857143","black","legacy","legacy","legacy","0","incongruent","uniform","1","undefined","1","h","0","0","0","0","6","0","6","0","6","6","0","0","6","6","6","6","Sun Sep 27 11:24:24 2020","1500","The main experiment item","yes","FlankerTask.osexp","/Users/shelia/Desktop","no","mono","no","18","no","white","no","yes","768","legacy","6","6","/Users/shelia/Desktop/ST-subject-2.csv","legacy","Lentiform Loewenfeld","3.3.3","0","h","NA","NA","return","return","return","NA","h","943","NA","NA","6501","4537","2596","NA","943","2","legacy","1024","2","48000","-16","experiment","SSHSS","2","even","5272","NA","NA","NA","39364","NA","21746","2649","28261","40435","2666","NA","40555","41499","40422","40555","Flanker Task","5","8063","7","yes","1024"
"75","75","1120.25","1120.25","black","legacy","legacy","legacy","0","incongruent","uniform","1","undefined","1","h","0","0","0","0","7","0","7","0","7","7","0","0","7","7","7","7","Sun Sep 27 11:24:24 2020","1500","The main experiment item","yes","FlankerTask.osexp","/Users/shelia/Desktop","no","mono","no","18","no","white","no","yes","768","legacy","7","7","/Users/shelia/Desktop/ST-subject-2.csv","legacy","Lentiform Loewenfeld","3.3.3","0","h","NA","NA","return","return","return","NA","h","899","NA","NA","6501","4537","2596","NA","899","2","legacy","1024","2","48000","-16","experiment","SSHSS","2","even","5272","NA","NA","NA","41515","NA","21746","2649","28261","42587","2666","NA","42709","43609","42573","42709","Flanker Task","6","8962","8","yes","1024"
"77.77777777777777","77.77777777777777","1092","1092","black","legacy","legacy","legacy","0","congruent","uniform","1","undefined","1","s","0","0","0","0","8","0","8","0","8","8","0","0","8","8","8","8","Sun Sep 27 11:24:24 2020","1500","The main experiment item","yes","FlankerTask.osexp","/Users/shelia/Desktop","no","mono","no","18","no","white","no","yes","768","legacy","8","8","/Users/shelia/Desktop/ST-subject-2.csv","legacy","Lentiform Loewenfeld","3.3.3","0","s","NA","NA","return","return","return","NA","s","866","NA","NA","6501","4537","2596","NA","866","2","legacy","1024","2","48000","-16","experiment","SSSSS","2","even","5272","NA","NA","NA","43623","NA","21746","2649","28261","44694","2666","NA","44815","45682","44680","44815","Flanker Task","7","9828","9","yes","1024"
"80","80","1046.6","1046.6","black","legacy","legacy","legacy","0","congruent","uniform","1","undefined","1","h","0","0","0","0","9","0","9","0","9","9","0","0","9","9","9","9","Sun Sep 27 11:24:24 2020","1500","The main experiment item","yes","FlankerTask.osexp","/Users/shelia/Desktop","no","mono","no","18","no","white","no","yes","768","legacy","9","9","/Users/shelia/Desktop/ST-subject-2.csv","legacy","Lentiform Loewenfeld","3.3.3","0","h","NA","NA","return","return","return","NA","h","638","NA","NA","6501","4537","2596","NA","638","2","legacy","1024","2","48000","-16","experiment","HHHHH","2","even","5272","NA","NA","NA","45698","NA","21746","2649","28261","46766","2666","NA","46887","47526","46753","46887","Flanker Task","8","10466","10","yes","1024"
"81.81818181818181","81.81818181818181","1068.3636363636363","1068.3636363636363","black","legacy","legacy","legacy","0","incogruent","uniform","1","undefined","1","s","0","0","0","0","10","0","10","0","10","10","0","0","10","10","10","10","Sun Sep 27 11:24:24 2020","1500","The main experiment item","yes","FlankerTask.osexp","/Users/shelia/Desktop","no","mono","no","18","no","white","no","yes","768","legacy","10","10","/Users/shelia/Desktop/ST-subject-2.csv","legacy","Lentiform Loewenfeld","3.3.3","0","s","NA","NA","return","return","return","NA","s","1286","NA","NA","6501","4537","2596","NA","1286","2","legacy","1024","2","48000","-16","experiment","HHSHH","2","even","5272","NA","NA","NA","47540","NA","21746","2649","28261","48611","2666","NA","48731","50018","48598","48731","Flanker Task","9","11752","11","yes","1024"
"75","75","1104.3333333333333","1104.3333333333333","black","legacy","legacy","legacy","0","congruent","uniform","0","undefined","0","h","0","0","0","0","11","0","11","0","11","11","0","0","11","11","11","11","Sun Sep 27 11:24:24 2020","1500","The main experiment item","yes","FlankerTask.osexp","/Users/shelia/Desktop","no","mono","no","18","no","white","no","yes","768","legacy","11","11","/Users/shelia/Desktop/ST-subject-2.csv","legacy","Lentiform Loewenfeld","3.3.3","0","None","NA","NA","return","return","return","NA","None","1500","NA","NA","6501","4537","2596","NA","1500","2","legacy","1024","2","48000","-16","experiment","HHHHH","2","even","5272","NA","NA","NA","50034","NA","21746","2649","28261","51101","2666","NA","51222","52722","51088","51221","Flanker Task","9","13252","12","yes","1024"
"76.92307692307692","76.92307692307692","1068.5384615384614","1068.5384615384614","black","legacy","legacy","legacy","0","incogruent","uniform","1","undefined","1","s","0","0","0","0","12","0","12","0","12","12","0","0","12","12","12","12","Sun Sep 27 11:24:24 2020","1500","The main experiment item","yes","FlankerTask.osexp","/Users/shelia/Desktop","no","mono","no","18","no","white","no","yes","768","legacy","12","12","/Users/shelia/Desktop/ST-subject-2.csv","legacy","Lentiform Loewenfeld","3.3.3","0","s","NA","NA","h","return","return","NA","s","639","NA","NA","251","4537","2596","NA","639","2","legacy","1024","2","48000","-16","experiment","HHSHH","2","even","5272","NA","NA","NA","53001","NA","52737","2649","28261","54072","2666","NA","54193","54833","54058","54193","Flanker Task","10","13891","13","yes","1024"
"78.57142857142857","78.57142857142857","1046.7857142857142","1046.7857142857142","black","legacy","legacy","legacy","0","incogruent","uniform","1","undefined","1","s","0","0","0","0","13","0","13","0","13","13","0","0","13","13","13","13","Sun Sep 27 11:24:24 2020","1500","The main experiment item","yes","FlankerTask.osexp","/Users/shelia/Desktop","no","mono","no","18","no","white","no","yes","768","legacy","13","13","/Users/shelia/Desktop/ST-subject-2.csv","legacy","Lentiform Loewenfeld","3.3.3","0","s","NA","NA","h","return","return","NA","s","764","NA","NA","251","4537","2596","NA","764","2","legacy","1024","2","48000","-16","experiment","HHSHH","2","even","5272","NA","NA","NA","54851","NA","52737","2649","28261","55922","2666","NA","56043","56808","55909","56042","Flanker Task","11","14655","14","yes","1024"
"80","80","1019.2","1019.2","black","legacy","legacy","legacy","0","incogruent","uniform","1","undefined","1","s","0","0","0","0","14","0","14","0","14","14","0","0","14","14","14","14","Sun Sep 27 11:24:24 2020","1500","The main experiment item","yes","FlankerTask.osexp","/Users/shelia/Desktop","no","mono","no","18","no","white","no","yes","768","legacy","14","14","/Users/shelia/Desktop/ST-subject-2.csv","legacy","Lentiform Loewenfeld","3.3.3","0","s","NA","NA","h","return","return","NA","s","633","NA","NA","251","4537","2596","NA","633","2","legacy","1024","2","48000","-16","experiment","HHSHH","2","even","5272","NA","NA","NA","56823","NA","52737","2649","28261","57892","2666","NA","58012","58646","57879","58012","Flanker Task","12","15288","15","yes","1024"
"81.25","81.25","993.1875","993.1875","black","legacy","legacy","legacy","0","congruent","uniform","1","undefined","1","s","0","0","0","0","15","0","15","0","15","15","0","0","15","15","15","15","Sun Sep 27 11:24:24 2020","1500","The main experiment item","yes","FlankerTask.osexp","/Users/shelia/Desktop","no","mono","no","18","no","white","no","yes","768","legacy","15","15","/Users/shelia/Desktop/ST-subject-2.csv","legacy","Lentiform Loewenfeld","3.3.3","0","s","NA","NA","h","return","return","NA","s","603","NA","NA","251","4537","2596","NA","603","2","legacy","1024","2","48000","-16","experiment","SSSSS","2","even","5272","NA","NA","NA","58661","NA","52737","2649","28261","59731","2666","NA","59852","60456","59718","59852","Flanker Task","13","15891","16","yes","1024"
"82.3529411764706","82.3529411764706","976.2352941176471","976.2352941176471","black","legacy","legacy","legacy","0","incongruent","uniform","1","undefined","1","h","0","0","0","0","16","0","16","0","16","16","0","0","16","16","16","16","Sun Sep 27 11:24:24 2020","1500","The main experiment item","yes","FlankerTask.osexp","/Users/shelia/Desktop","no","mono","no","18","no","white","no","yes","768","legacy","16","16","/Users/shelia/Desktop/ST-subject-2.csv","legacy","Lentiform Loewenfeld","3.3.3","0","h","NA","NA","h","return","return","NA","h","705","NA","NA","251","4537","2596","NA","705","2","legacy","1024","2","48000","-16","experiment","SSHSS","2","even","5272","NA","NA","NA","60472","NA","52737","2649","28261","61540","2666","NA","61661","62367","61527","61661","Flanker Task","14","16596","17","yes","1024"
"83.33333333333333","83.33333333333333","966.8888888888889","966.8888888888889","black","legacy","legacy","legacy","0","congruent","uniform","1","undefined","1","h","0","0","0","0","17","0","17","0","17","17","0","0","17","17","17","17","Sun Sep 27 11:24:24 2020","1500","The main experiment item","yes","FlankerTask.osexp","/Users/shelia/Desktop","no","mono","no","18","no","white","no","yes","768","legacy","17","17","/Users/shelia/Desktop/ST-subject-2.csv","legacy","Lentiform Loewenfeld","3.3.3","0","h","NA","NA","h","return","return","NA","h","808","NA","NA","251","4537","2596","NA","808","2","legacy","1024","2","48000","-16","experiment","HHHHH","2","even","5272","NA","NA","NA","62382","NA","52737","2649","28261","63453","2666","NA","63574","64383","63440","63574","Flanker Task","15","17404","18","yes","1024"
"84.21052631578948","84.21052631578948","977.2631578947369","977.2631578947369","black","legacy","legacy","legacy","0","incongruent","uniform","1","undefined","1","h","0","0","0","0","18","0","18","0","18","18","0","0","18","18","18","18","Sun Sep 27 11:24:24 2020","1500","The main experiment item","yes","FlankerTask.osexp","/Users/shelia/Desktop","no","mono","no","18","no","white","no","yes","768","legacy","18","18","/Users/shelia/Desktop/ST-subject-2.csv","legacy","Lentiform Loewenfeld","3.3.3","0","h","NA","NA","h","return","return","NA","h","1164","NA","NA","251","4537","2596","NA","1164","2","legacy","1024","2","48000","-16","experiment","SSHSS","2","even","5272","NA","NA","NA","64399","NA","52737","2649","28261","65468","2666","NA","65587","66752","65455","65587","Flanker Task","16","18568","19","yes","1024"
"85","85","966.95","966.95","black","legacy","legacy","legacy","0","incogruent","uniform","1","undefined","1","s","0","0","0","0","19","0","19","0","19","19","0","0","19","19","19","19","Sun Sep 27 11:24:24 2020","1500","The main experiment item","yes","FlankerTask.osexp","/Users/shelia/Desktop","no","mono","no","18","no","white","no","yes","768","legacy","19","19","/Users/shelia/Desktop/ST-subject-2.csv","legacy","Lentiform Loewenfeld","3.3.3","0","s","NA","NA","h","return","return","NA","s","771","NA","NA","251","4537","2596","NA","771","2","legacy","1024","2","48000","-16","experiment","HHSHH","2","even","5272","NA","NA","NA","66768","NA","52737","2649","28261","67837","2666","NA","67958","68730","67824","67958","Flanker Task","17","19339","20","yes","1024"
"85.71428571428571","85.71428571428571","948.6190476190476","948.6190476190476","black","legacy","legacy","legacy","0","incogruent","uniform","1","undefined","1","s","0","0","0","0","20","0","20","0","20","20","0","0","20","20","20","20","Sun Sep 27 11:24:24 2020","1500","The main experiment item","yes","FlankerTask.osexp","/Users/shelia/Desktop","no","mono","no","18","no","white","no","yes","768","legacy","20","20","/Users/shelia/Desktop/ST-subject-2.csv","legacy","Lentiform Loewenfeld","3.3.3","0","s","NA","NA","h","return","return","NA","s","582","NA","NA","251","4537","2596","NA","582","2","legacy","1024","2","48000","-16","experiment","HHSHH","2","even","5272","NA","NA","NA","68744","NA","52737","2649","28261","69812","2666","NA","69933","70516","69799","69933","Flanker Task","18","19921","21","yes","1024"
"86.36363636363636","86.36363636363636","932.1363636363636","932.1363636363636","black","legacy","legacy","legacy","0","incogruent","uniform","1","undefined","1","s","0","0","0","0","21","0","21","0","21","21","0","0","21","21","21","21","Sun Sep 27 11:24:24 2020","1500","The main experiment item","yes","FlankerTask.osexp","/Users/shelia/Desktop","no","mono","no","18","no","white","no","yes","768","legacy","21","21","/Users/shelia/Desktop/ST-subject-2.csv","legacy","Lentiform Loewenfeld","3.3.3","0","s","NA","NA","h","return","return","NA","s","586","NA","NA","251","4537","2596","NA","586","2","legacy","1024","2","48000","-16","experiment","HHSHH","2","even","5272","NA","NA","NA","70531","NA","52737","2649","28261","71599","2666","NA","71720","72307","71586","71720","Flanker Task","19","20507","22","yes","1024"
"86.95652173913044","86.95652173913044","917.3478260869565","917.3478260869565","black","legacy","legacy","legacy","0","incogruent","uniform","1","undefined","1","s","0","0","0","0","22","0","22","0","22","22","0","0","22","22","22","22","Sun Sep 27 11:24:24 2020","1500","The main experiment item","yes","FlankerTask.osexp","/Users/shelia/Desktop","no","mono","no","18","no","white","no","yes","768","legacy","22","22","/Users/shelia/Desktop/ST-subject-2.csv","legacy","Lentiform Loewenfeld","3.3.3","0","s","NA","NA","h","return","return","NA","s","592","NA","NA","251","4537","2596","NA","592","2","legacy","1024","2","48000","-16","experiment","HHSHH","2","even","5272","NA","NA","NA","72323","NA","52737","2649","28261","73391","2666","NA","73510","74103","73378","73510","Flanker Task","20","21099","23","yes","1024"
"87.5","87.5","902.5833333333334","902.5833333333334","black","legacy","legacy","legacy","0","congruent","uniform","1","undefined","1","h","0","0","0","0","23","0","23","0","23","23","0","0","23","23","23","23","Sun Sep 27 11:24:24 2020","1500","The main experiment item","yes","FlankerTask.osexp","/Users/shelia/Desktop","no","mono","no","18","no","white","no","yes","768","legacy","23","23","/Users/shelia/Desktop/ST-subject-2.csv","legacy","Lentiform Loewenfeld","3.3.3","0","h","NA","NA","h","return","return","NA","h","563","NA","NA","251","4537","2596","NA","563","2","legacy","1024","2","48000","-16","experiment","HHHHH","2","even","5272","NA","NA","NA","74118","NA","52737","2649","28261","75189","2666","NA","75310","75874","75175","75310","Flanker Task","21","21662","24","yes","1024"
"88","88","886.12","886.12","black","legacy","legacy","legacy","0","congruent","uniform","1","undefined","1","s","0","0","0","0","24","0","24","0","24","24","0","0","24","24","24","24","Sun Sep 27 11:24:24 2020","1500","The main experiment item","yes","FlankerTask.osexp","/Users/shelia/Desktop","no","mono","no","18","no","white","no","yes","768","legacy","24","24","/Users/shelia/Desktop/ST-subject-2.csv","legacy","Lentiform Loewenfeld","3.3.3","0","s","NA","NA","h","return","return","NA","s","491","NA","NA","251","4537","2596","NA","491","2","legacy","1024","2","48000","-16","experiment","SSSSS","2","even","5272","NA","NA","NA","75888","NA","52737","2649","28261","76959","2666","NA","77079","77570","76946","77079","Flanker Task","22","22153","25","yes","1024"
"84.61538461538461","84.61538461538461","909.7307692307693","909.7307692307693","black","legacy","legacy","legacy","0","incogruent","uniform","0","undefined","0","s","0","0","0","0","25","0","25","0","25","25","0","0","25","25","25","25","Sun Sep 27 11:24:24 2020","1500","The main experiment item","yes","FlankerTask.osexp","/Users/shelia/Desktop","no","mono","no","18","no","white","no","yes","768","legacy","25","25","/Users/shelia/Desktop/ST-subject-2.csv","legacy","Lentiform Loewenfeld","3.3.3","0","None","NA","NA","h","return","return","NA","None","1500","NA","NA","251","4537","2596","NA","1500","2","legacy","1024","2","48000","-16","experiment","HHSHH","2","even","5272","NA","NA","NA","77586","NA","52737","2649","28261","78656","2666","NA","78777","80277","78643","78777","Flanker Task","22","23653","26","yes","1024"
"81.48148148148148","81.48148148148148","927.4814814814815","927.4814814814815","black","legacy","legacy","legacy","0","incongruent","uniform","0","undefined","0","h","0","0","0","0","26","0","26","0","26","26","0","0","26","26","26","26","Sun Sep 27 11:24:24 2020","1500","The main experiment item","yes","FlankerTask.osexp","/Users/shelia/Desktop","no","mono","no","18","no","white","no","yes","768","legacy","26","26","/Users/shelia/Desktop/ST-subject-2.csv","legacy","Lentiform Loewenfeld","3.3.3","0","s","NA","NA","h","return","return","NA","s","1389","NA","NA","4","4537","2596","NA","1389","2","legacy","1024","2","48000","-16","experiment","SSHSS","2","even","5272","NA","NA","NA","80311","NA","80292","2649","28261","81378","2666","NA","81500","82890","81365","81500","Flanker Task","22","25042","27","yes","1024"
"82.14285714285714","82.14285714285714","920.2857142857143","920.2857142857143","black","legacy","legacy","legacy","0","congruent","uniform","1","undefined","1","h","0","0","0","0","27","0","27","0","27","27","0","0","27","27","27","27","Sun Sep 27 11:24:24 2020","1500","The main experiment item","yes","FlankerTask.osexp","/Users/shelia/Desktop","no","mono","no","18","no","white","no","yes","768","legacy","27","27","/Users/shelia/Desktop/ST-subject-2.csv","legacy","Lentiform Loewenfeld","3.3.3","0","h","NA","NA","h","h","return","NA","h","726","NA","NA","1824","747","2596","NA","726","2","legacy","1024","2","48000","-16","experiment","HHHHH","2","even","5272","NA","NA","NA","85505","NA","82905","2649","84743","86575","2666","NA","86697","87424","86562","86696","Flanker Task","23","25768","28","yes","1024"
"82.75862068965517","82.75862068965517","908.3793103448276","908.3793103448276","black","legacy","legacy","legacy","0","congruent","uniform","1","undefined","1","h","0","0","0","0","28","0","28","0","28","28","0","0","28","28","28","28","Sun Sep 27 11:24:24 2020","1500","The main experiment item","yes","FlankerTask.osexp","/Users/shelia/Desktop","no","mono","no","18","no","white","no","yes","768","legacy","28","28","/Users/shelia/Desktop/ST-subject-2.csv","legacy","Lentiform Loewenfeld","3.3.3","0","h","NA","NA","h","h","return","NA","h","575","NA","NA","1824","747","2596","NA","575","2","legacy","1024","2","48000","-16","experiment","HHHHH","2","even","5272","NA","NA","NA","87440","NA","82905","2649","84743","88507","2666","NA","88628","89204","88492","88628","Flanker Task","24","26343","29","yes","1024"
"83.33333333333333","83.33333333333333","912.8666666666667","912.8666666666667","black","legacy","legacy","legacy","0","congruent","uniform","1","undefined","1","s","0","0","0","0","29","0","29","0","29","29","0","0","29","29","29","29","Sun Sep 27 11:24:24 2020","1500","The main experiment item","yes","FlankerTask.osexp","/Users/shelia/Desktop","no","mono","no","18","no","white","no","yes","768","legacy","29","29","/Users/shelia/Desktop/ST-subject-2.csv","legacy","Lentiform Loewenfeld","3.3.3","0","s","NA","NA","h","h","return","NA","s","1043","NA","NA","1824","747","2596","NA","1043","2","legacy","1024","2","48000","-16","experiment","SSSSS","2","even","5272","NA","NA","NA","89220","NA","82905","2649","84743","90281","2666","NA","90403","91447","90268","90403","Flanker Task","25","27386","30","yes","1024"
"83.87096774193549","83.87096774193549","909.3870967741935","909.3870967741935","black","legacy","legacy","legacy","0","congruent","uniform","1","undefined","1","s","0","0","0","0","30","0","30","0","30","30","0","0","30","30","30","30","Sun Sep 27 11:24:24 2020","1500","The main experiment item","yes","FlankerTask.osexp","/Users/shelia/Desktop","no","mono","no","18","no","white","no","yes","768","legacy","30","30","/Users/shelia/Desktop/ST-subject-2.csv","legacy","Lentiform Loewenfeld","3.3.3","0","s","NA","NA","h","h","return","NA","s","805","NA","NA","1824","747","2596","NA","805","2","legacy","1024","2","48000","-16","experiment","SSSSS","2","even","5272","NA","NA","NA","91462","NA","82905","2649","84743","92531","2666","NA","92652","93458","92518","92652","Flanker Task","26","28191","31","yes","1024"
"84.375","84.375","907.40625","907.40625","black","legacy","legacy","legacy","0","incogruent","uniform","1","undefined","1","s","0","0","0","0","31","0","31","0","31","31","0","0","31","31","31","31","Sun Sep 27 11:24:24 2020","1500","The main experiment item","yes","FlankerTask.osexp","/Users/shelia/Desktop","no","mono","no","18","no","white","no","yes","768","legacy","31","31","/Users/shelia/Desktop/ST-subject-2.csv","legacy","Lentiform Loewenfeld","3.3.3","0","s","NA","NA","h","h","return","NA","s","846","NA","NA","1824","747","2596","NA","846","2","legacy","1024","2","48000","-16","experiment","HHSHH","2","even","5272","NA","NA","NA","93472","NA","82905","2649","84743","94543","2666","NA","94664","95511","94530","94664","Flanker Task","27","29037","32","yes","1024"
"84.84848484848484","84.84848484848484","903.2424242424242","903.2424242424242","black","legacy","legacy","legacy","0","congruent","uniform","1","undefined","1","h","0","0","0","0","32","0","32","0","32","32","0","0","32","32","32","32","Sun Sep 27 11:24:24 2020","1500","The main experiment item","yes","FlankerTask.osexp","/Users/shelia/Desktop","no","mono","no","18","no","white","no","yes","768","legacy","32","32","/Users/shelia/Desktop/ST-subject-2.csv","legacy","Lentiform Loewenfeld","3.3.3","0","h","NA","NA","h","h","return","NA","h","770","NA","NA","1824","747","2596","NA","770","2","legacy","1024","2","48000","-16","experiment","HHHHH","2","even","5272","NA","NA","NA","95525","NA","82905","2649","84743","96592","2666","NA","96712","97483","96580","96712","Flanker Task","28","29807","33","yes","1024"
"85.29411764705883","85.29411764705883","902.5","902.5","black","legacy","legacy","legacy","0","incongruent","uniform","1","undefined","1","h","0","0","0","0","33","0","33","0","33","33","0","0","33","33","33","33","Sun Sep 27 11:24:24 2020","1500","The main experiment item","yes","FlankerTask.osexp","/Users/shelia/Desktop","no","mono","no","18","no","white","no","yes","768","legacy","33","33","/Users/shelia/Desktop/ST-subject-2.csv","legacy","Lentiform Loewenfeld","3.3.3","0","h","NA","NA","h","h","return","NA","h","878","NA","NA","1824","747","2596","NA","878","2","legacy","1024","2","48000","-16","experiment","SSHSS","2","even","5272","NA","NA","NA","97498","NA","82905","2649","84743","98568","2666","NA","98689","99569","98554","98689","Flanker Task","29","30685","34","yes","1024"
"85.71428571428571","85.71428571428571","903.6571428571428","903.6571428571428","black","legacy","legacy","legacy","0","incogruent","uniform","1","undefined","1","s","0","0","0","0","34","0","34","0","34","34","0","0","34","34","34","34","Sun Sep 27 11:24:24 2020","1500","The main experiment item","yes","FlankerTask.osexp","/Users/shelia/Desktop","no","mono","no","18","no","white","no","yes","768","legacy","34","34","/Users/shelia/Desktop/ST-subject-2.csv","legacy","Lentiform Loewenfeld","3.3.3","0","s","NA","NA","h","h","return","NA","s","943","NA","NA","1824","747","2596","NA","943","2","legacy","1024","2","48000","-16","experiment","HHSHH","2","even","5272","NA","NA","NA","99583","NA","82905","2649","84743","100653","2666","NA","100772","101716","100640","100772","Flanker Task","30","31628","35","yes","1024"
"86.11111111111111","86.11111111111111","898.8333333333334","898.8333333333334","black","legacy","legacy","legacy","0","congruent","uniform","1","undefined","1","h","0","0","0","0","35","0","35","0","35","35","0","0","35","35","35","35","Sun Sep 27 11:24:24 2020","1500","The main experiment item","yes","FlankerTask.osexp","/Users/shelia/Desktop","no","mono","no","18","no","white","no","yes","768","legacy","35","35","/Users/shelia/Desktop/ST-subject-2.csv","legacy","Lentiform Loewenfeld","3.3.3","0","h","NA","NA","h","h","return","NA","h","730","NA","NA","1824","747","2596","NA","730","2","legacy","1024","2","48000","-16","experiment","HHHHH","2","even","5272","NA","NA","NA","101731","NA","82905","2649","84743","102801","2666","NA","102921","103652","102788","102921","Flanker Task","31","32358","36","yes","1024"
"86.48648648648648","86.48648648648648","907.6486486486486","907.6486486486486","black","legacy","legacy","legacy","0","incongruent","uniform","1","undefined","1","h","0","0","0","0","36","0","36","0","36","36","0","0","36","36","36","36","Sun Sep 27 11:24:24 2020","1500","The main experiment item","yes","FlankerTask.osexp","/Users/shelia/Desktop","no","mono","no","18","no","white","no","yes","768","legacy","36","36","/Users/shelia/Desktop/ST-subject-2.csv","legacy","Lentiform Loewenfeld","3.3.3","0","h","NA","NA","h","h","return","NA","h","1225","NA","NA","1824","747","2596","NA","1225","2","legacy","1024","2","48000","-16","experiment","SSHSS","2","even","5272","NA","NA","NA","103668","NA","82905","2649","84743","104734","2666","NA","104856","106082","104722","104855","Flanker Task","32","33583","37","yes","1024"
"84.21052631578948","84.21052631578948","923.2368421052631","923.2368421052631","black","legacy","legacy","legacy","0","incongruent","uniform","0","undefined","0","h","0","0","0","0","37","0","37","0","37","37","0","0","37","37","37","37","Sun Sep 27 11:24:24 2020","1500","The main experiment item","yes","FlankerTask.osexp","/Users/shelia/Desktop","no","mono","no","18","no","white","no","yes","768","legacy","37","37","/Users/shelia/Desktop/ST-subject-2.csv","legacy","Lentiform Loewenfeld","3.3.3","0","None","NA","NA","h","h","return","NA","None","1500","NA","NA","1824","747","2596","NA","1500","2","legacy","1024","2","48000","-16","experiment","SSHSS","2","even","5272","NA","NA","NA","106097","NA","82905","2649","84743","107167","2666","NA","107288","108788","107154","107288","Flanker Task","32","35083","38","yes","1024"
"84.61538461538461","84.61538461538461","924.3076923076923","924.3076923076923","black","legacy","legacy","legacy","0","incongruent","uniform","1","undefined","1","h","0","0","0","0","38","0","38","0","38","38","0","0","38","38","38","38","Sun Sep 27 11:24:24 2020","1500","The main experiment item","yes","FlankerTask.osexp","/Users/shelia/Desktop","no","mono","no","18","no","white","no","yes","768","legacy","38","38","/Users/shelia/Desktop/ST-subject-2.csv","legacy","Lentiform Loewenfeld","3.3.3","0","h","NA","NA","h","h","return","NA","h","965","NA","NA","16","747","2596","NA","965","2","legacy","1024","2","48000","-16","experiment","SSHSS","2","even","5272","NA","NA","NA","108832","NA","108802","2649","84743","109900","2666","NA","110020","110986","109887","110019","Flanker Task","33","36048","39","yes","1024"
"82.5","82.5","915.2","915.2","black","legacy","legacy","legacy","0","congruent","uniform","0","undefined","0","s","0","0","0","0","39","0","39","0","39","39","0","0","39","39","39","39","Sun Sep 27 11:24:24 2020","1500","The main experiment item","yes","FlankerTask.osexp","/Users/shelia/Desktop","no","mono","no","18","no","white","no","yes","768","legacy","39","39","/Users/shelia/Desktop/ST-subject-2.csv","legacy","Lentiform Loewenfeld","3.3.3","0","h","NA","NA","h","h","return","NA","h","560","NA","NA","16","747","2596","NA","560","2","legacy","1024","2","48000","-16","experiment","SSSSS","2","even","5272","NA","NA","NA","111000","NA","108802","2649","84743","112066","2666","NA","112187","112748","112053","112187","Flanker Task","33","36608","40","yes","1024"
"82.92682926829268","82.92682926829268","916.7560975609756","916.7560975609756","black","legacy","legacy","legacy","0","incogruent","uniform","1","undefined","1","s","0","0","0","0","40","0","40","0","40","40","0","0","40","40","40","40","Sun Sep 27 11:24:24 2020","1500","The main experiment item","yes","FlankerTask.osexp","/Users/shelia/Desktop","no","mono","no","18","no","white","no","yes","768","legacy","40","40","/Users/shelia/Desktop/ST-subject-2.csv","legacy","Lentiform Loewenfeld","3.3.3","0","s","NA","NA","h","h","return","NA","s","979","NA","NA","1562","3506","2596","NA","979","2","legacy","1024","2","48000","-16","experiment","HHSHH","2","even","5272","NA","NA","NA","117859","NA","112763","2649","114339","118929","2666","NA","119049","120029","118916","119049","Flanker Task","34","37587","41","yes","1024"
"83.33333333333333","83.33333333333333","913.6428571428571","913.6428571428571","black","legacy","legacy","legacy","0","congruent","uniform","1","undefined","1","h","0","0","0","0","41","0","41","0","41","41","0","0","41","41","41","41","Sun Sep 27 11:24:24 2020","1500","The main experiment item","yes","FlankerTask.osexp","/Users/shelia/Desktop","no","mono","no","18","no","white","no","yes","768","legacy","41","41","/Users/shelia/Desktop/ST-subject-2.csv","legacy","Lentiform Loewenfeld","3.3.3","0","h","NA","NA","h","h","return","NA","h","786","NA","NA","1562","3506","2596","NA","786","2","legacy","1024","2","48000","-16","experiment","HHHHH","2","even","5272","NA","NA","NA","120044","NA","112763","2649","114339","121112","2666","NA","121232","122019","121099","121232","Flanker Task","35","38373","42","yes","1024"
"83.72093023255815","83.72093023255815","910.4418604651163","910.4418604651163","black","legacy","legacy","legacy","0","congruent","uniform","1","undefined","1","s","0","0","0","0","42","0","42","0","42","42","0","0","42","42","42","42","Sun Sep 27 11:24:24 2020","1500","The main experiment item","yes","FlankerTask.osexp","/Users/shelia/Desktop","no","mono","no","18","no","white","no","yes","768","legacy","42","42","/Users/shelia/Desktop/ST-subject-2.csv","legacy","Lentiform Loewenfeld","3.3.3","0","s","NA","NA","h","h","return","NA","s","776","NA","NA","1562","3506","2596","NA","776","2","legacy","1024","2","48000","-16","experiment","SSSSS","2","even","5272","NA","NA","NA","122033","NA","112763","2649","114339","123101","2666","NA","123221","123998","123088","123221","Flanker Task","36","39149","43","yes","1024"
"81.81818181818181","81.81818181818181","923.8409090909091","923.8409090909091","black","legacy","legacy","legacy","0","incongruent","uniform","0","undefined","0","h","0","0","0","0","43","0","43","0","43","43","0","0","43","43","43","43","Sun Sep 27 11:24:24 2020","1500","The main experiment item","yes","FlankerTask.osexp","/Users/shelia/Desktop","no","mono","no","18","no","white","no","yes","768","legacy","43","43","/Users/shelia/Desktop/ST-subject-2.csv","legacy","Lentiform Loewenfeld","3.3.3","0","None","NA","NA","h","h","return","NA","None","1500","NA","NA","1562","3506","2596","NA","1500","2","legacy","1024","2","48000","-16","experiment","SSHSS","2","even","5272","NA","NA","NA","124012","NA","112763","2649","114339","125082","2666","NA","125201","126701","125069","125201","Flanker Task","36","40649","44","yes","1024"
"82.22222222222223","82.22222222222223","914.7777777777778","914.7777777777778","black","legacy","legacy","legacy","0","congruent","uniform","1","undefined","1","h","0","0","0","0","44","0","44","0","44","44","0","0","44","44","44","44","Sun Sep 27 11:24:24 2020","1500","The main experiment item","yes","FlankerTask.osexp","/Users/shelia/Desktop","no","mono","no","18","no","white","no","yes","768","legacy","44","44","/Users/shelia/Desktop/ST-subject-2.csv","legacy","Lentiform Loewenfeld","3.3.3","0","h","NA","NA","h","h","return","NA","h","516","NA","NA","4635","754","2596","NA","516","2","legacy","1024","2","48000","-16","experiment","HHHHH","2","even","5272","NA","NA","NA","132133","NA","126716","2649","131365","133203","2666","NA","133323","133841","133189","133323","Flanker Task","37","41165","45","yes","1024"
"82.6086956521739","82.6086956521739","910.8478260869565","910.8478260869565","black","legacy","legacy","legacy","0","incongruent","uniform","1","undefined","1","h","0","0","0","0","45","0","45","0","45","45","0","0","45","45","45","45","Sun Sep 27 11:24:24 2020","1500","The main experiment item","yes","FlankerTask.osexp","/Users/shelia/Desktop","no","mono","no","18","no","white","no","yes","768","legacy","45","45","/Users/shelia/Desktop/ST-subject-2.csv","legacy","Lentiform Loewenfeld","3.3.3","0","h","NA","NA","h","h","return","NA","h","734","NA","NA","4635","754","2596","NA","734","2","legacy","1024","2","48000","-16","experiment","SSHSS","2","even","5272","NA","NA","NA","133856","NA","126716","2649","131365","134927","2666","NA","135047","135782","134913","135047","Flanker Task","38","41899","46","yes","1024"
"82.97872340425532","82.97872340425532","903.6170212765958","903.6170212765958","black","legacy","legacy","legacy","0","congruent","uniform","1","undefined","1","s","0","0","0","0","46","0","46","0","46","46","0","0","46","46","46","46","Sun Sep 27 11:24:24 2020","1500","The main experiment item","yes","FlankerTask.osexp","/Users/shelia/Desktop","no","mono","no","18","no","white","no","yes","768","legacy","46","46","/Users/shelia/Desktop/ST-subject-2.csv","legacy","Lentiform Loewenfeld","3.3.3","0","s","NA","NA","h","h","return","NA","s","571","NA","NA","4635","754","2596","NA","571","2","legacy","1024","2","48000","-16","experiment","SSSSS","2","even","5272","NA","NA","NA","135798","NA","126716","2649","131365","136869","2666","NA","136990","137563","136855","136989","Flanker Task","39","42470","47","yes","1024"
"81.25","81.25","902.3125","902.3125","black","legacy","legacy","legacy","0","incogruent","uniform","0","undefined","0","s","0","0","0","0","47","0","47","0","47","47","0","0","47","47","47","47","Sun Sep 27 11:24:24 2020","1500","The main experiment item","yes","FlankerTask.osexp","/Users/shelia/Desktop","no","mono","no","18","no","white","no","yes","768","legacy","47","47","/Users/shelia/Desktop/ST-subject-2.csv","legacy","Lentiform Loewenfeld","3.3.3","0","h","NA","NA","h","h","return","NA","h","841","NA","NA","4635","754","2596","NA","841","2","legacy","1024","2","48000","-16","experiment","HHSHH","2","even","5272","NA","NA","NA","137578","NA","126716","2649","131365","138649","2666","NA","138770","139613","138636","138770","Flanker Task","39","43311","48","yes","1024"
"81.63265306122449","81.63265306122449","899.9591836734694","899.9591836734694","black","legacy","legacy","legacy","0","incogruent","uniform","1","undefined","1","s","0","0","0","0","48","0","48","0","48","48","0","0","48","48","48","48","Sun Sep 27 11:24:24 2020","1500","The main experiment item","yes","FlankerTask.osexp","/Users/shelia/Desktop","no","mono","no","18","no","white","no","yes","768","legacy","48","48","/Users/shelia/Desktop/ST-subject-2.csv","legacy","Lentiform Loewenfeld","3.3.3","0","s","NA","NA","h","h","return","NA","s","787","NA","NA","649","754","2596","NA","787","2","legacy","1024","2","48000","-16","experiment","HHSHH","2","even","5272","NA","NA","NA","140291","NA","139627","2649","131365","141360","2666","NA","141481","142269","141346","141481","Flanker Task","40","44098","49","yes","1024"
"82","82","884.78","884.78","black","legacy","legacy","legacy","0","congruent","uniform","1","undefined","1","h","0","0","0","0","49","0","49","0","49","49","0","0","49","49","49","49","Sun Sep 27 11:24:24 2020","1500","The main experiment item","yes","FlankerTask.osexp","/Users/shelia/Desktop","no","mono","no","18","no","white","no","yes","768","legacy","49","49","/Users/shelia/Desktop/ST-subject-2.csv","legacy","Lentiform Loewenfeld","3.3.3","0","h","NA","NA","h","h","return","NA","h","141","NA","NA","649","754","2596","NA","141","2","legacy","1024","2","48000","-16","experiment","HHHHH","2","even","5272","NA","NA","NA","142284","NA","139627","2649","131365","143353","2666","NA","143474","143616","143339","143474","Flanker Task","41","44239","50","yes","1024"
"82.3529411764706","82.3529411764706","874.8627450980392","874.8627450980392","black","legacy","legacy","legacy","0","incogruent","uniform","1","undefined","1","s","0","0","0","0","50","0","50","0","50","50","0","0","50","50","50","50","Sun Sep 27 11:24:24 2020","1500","The main experiment item","yes","FlankerTask.osexp","/Users/shelia/Desktop","no","mono","no","18","no","white","no","yes","768","legacy","50","50","/Users/shelia/Desktop/ST-subject-2.csv","legacy","Lentiform Loewenfeld","3.3.3","0","s","NA","NA","h","h","return","NA","s","379","NA","NA","649","754","2596","NA","379","2","legacy","1024","2","48000","-16","experiment","HHSHH","2","even","5272","NA","NA","NA","143632","NA","139627","2649","131365","144703","2666","NA","144824","145204","144690","144823","Flanker Task","42","44618","51","yes","1024"
"82.6923076923077","82.6923076923077","863.3076923076923","863.3076923076923","black","legacy","legacy","legacy","0","congruent","uniform","1","undefined","1","s","0","0","0","0","51","0","51","0","51","51","0","0","51","51","51","51","Sun Sep 27 11:24:24 2020","1500","The main experiment item","yes","FlankerTask.osexp","/Users/shelia/Desktop","no","mono","no","18","no","white","no","yes","768","legacy","51","51","/Users/shelia/Desktop/ST-subject-2.csv","legacy","Lentiform Loewenfeld","3.3.3","0","s","NA","NA","h","h","return","NA","s","274","NA","NA","649","754","2596","NA","274","2","legacy","1024","2","48000","-16","experiment","SSSSS","2","even","5272","NA","NA","NA","145219","NA","139627","2649","131365","146289","2666","NA","146410","146685","146276","146410","Flanker Task","43","44892","52","yes","1024"
"83.01886792452831","83.01886792452831","849.3396226415094","849.3396226415094","black","legacy","legacy","legacy","0","incogruent","uniform","1","undefined","1","s","0","0","0","0","52","0","52","0","52","52","0","0","52","52","52","52","Sun Sep 27 11:24:24 2020","1500","The main experiment item","yes","FlankerTask.osexp","/Users/shelia/Desktop","no","mono","no","18","no","white","no","yes","768","legacy","52","52","/Users/shelia/Desktop/ST-subject-2.csv","legacy","Lentiform Loewenfeld","3.3.3","0","s","NA","NA","h","h","return","NA","s","123","NA","NA","649","754","2596","NA","123","2","legacy","1024","2","48000","-16","experiment","HHSHH","2","even","5272","NA","NA","NA","146699","NA","139627","2649","131365","147769","2666","NA","147890","148014","147757","147890","Flanker Task","44","45015","53","yes","1024"
"81.48148148148148","81.48148148148148","835.4629629629629","835.4629629629629","black","legacy","legacy","legacy","0","congruent","uniform","0","undefined","0","h","0","0","0","0","53","0","53","0","53","53","0","0","53","53","53","53","Sun Sep 27 11:24:24 2020","1500","The main experiment item","yes","FlankerTask.osexp","/Users/shelia/Desktop","no","mono","no","18","no","white","no","yes","768","legacy","53","53","/Users/shelia/Desktop/ST-subject-2.csv","legacy","Lentiform Loewenfeld","3.3.3","0","s","NA","NA","h","h","return","NA","s","100","NA","NA","649","754","2596","NA","100","2","legacy","1024","2","48000","-16","experiment","HHHHH","2","even","5272","NA","NA","NA","148029","NA","139627","2649","131365","149096","2666","NA","149217","149318","149083","149217","Flanker Task","44","45115","54","yes","1024"
"80","80","826.1818181818181","826.1818181818181","black","legacy","legacy","legacy","0","congruent","uniform","0","undefined","0","s","0","0","0","0","54","0","54","0","54","54","0","0","54","54","54","54","Sun Sep 27 11:24:24 2020","1500","The main experiment item","yes","FlankerTask.osexp","/Users/shelia/Desktop","no","mono","no","18","no","white","no","yes","768","legacy","54","54","/Users/shelia/Desktop/ST-subject-2.csv","legacy","Lentiform Loewenfeld","3.3.3","0","h","NA","NA","h","h","return","NA","h","325","NA","NA","881","754","2596","NA","325","2","legacy","1024","2","48000","-16","experiment","SSSSS","2","even","5272","NA","NA","NA","150227","NA","149332","2649","131365","151297","2666","NA","151418","151744","151284","151418","Flanker Task","44","45440","55","yes","1024"
"80.35714285714286","80.35714285714286","815.5535714285714","815.5535714285714","black","legacy","legacy","legacy","0","incongruent","uniform","1","undefined","1","h","0","0","0","0","55","0","55","0","55","55","0","0","55","55","55","55","Sun Sep 27 11:24:24 2020","1500","The main experiment item","yes","FlankerTask.osexp","/Users/shelia/Desktop","no","mono","no","18","no","white","no","yes","768","legacy","55","55","/Users/shelia/Desktop/ST-subject-2.csv","legacy","Lentiform Loewenfeld","3.3.3","0","h","NA","NA","s","s","return","NA","h","231","NA","NA","1746","1006","2596","NA","231","2","legacy","1024","2","48000","-16","experiment","SSHSS","2","even","5272","NA","NA","NA","154540","NA","151759","2649","153519","155608","2666","NA","155729","155962","155596","155729","Flanker Task","45","45671","56","yes","1024"
"80.70175438596492","80.70175438596492","816.1754385964912","816.1754385964912","black","legacy","legacy","legacy","0","congruent","uniform","1","undefined","1","h","0","0","0","0","56","0","56","0","56","56","0","0","56","56","56","56","Sun Sep 27 11:24:24 2020","1500","The main experiment item","yes","FlankerTask.osexp","/Users/shelia/Desktop","no","mono","no","18","no","white","no","yes","768","legacy","56","56","/Users/shelia/Desktop/ST-subject-2.csv","legacy","Lentiform Loewenfeld","3.3.3","0","h","NA","NA","s","s","return","NA","h","851","NA","NA","1746","1006","2596","NA","851","2","legacy","1024","2","48000","-16","experiment","HHHHH","2","even","5272","NA","NA","NA","155977","NA","151759","2649","153519","157046","2666","NA","157167","158020","157033","157167","Flanker Task","46","46522","57","yes","1024"
"79.3103448275862","79.3103448275862","807.9655172413793","807.9655172413793","black","legacy","legacy","legacy","0","incongruent","uniform","0","undefined","0","h","0","0","0","0","57","0","57","0","57","57","0","0","57","57","57","57","Sun Sep 27 11:24:24 2020","1500","The main experiment item","yes","FlankerTask.osexp","/Users/shelia/Desktop","no","mono","no","18","no","white","no","yes","768","legacy","57","57","/Users/shelia/Desktop/ST-subject-2.csv","legacy","Lentiform Loewenfeld","3.3.3","0","s","NA","NA","s","s","return","NA","s","340","NA","NA","1746","1006","2596","NA","340","2","legacy","1024","2","48000","-16","experiment","SSHSS","2","even","5272","NA","NA","NA","158034","NA","151759","2649","153519","159105","2666","NA","159226","159567","159092","159226","Flanker Task","46","46862","58","yes","1024"
"79.66101694915254","79.66101694915254","801.457627118644","801.457627118644","black","legacy","legacy","legacy","0","incogruent","uniform","1","undefined","1","s","0","0","0","0","58","0","58","0","58","58","0","0","58","58","58","58","Sun Sep 27 11:24:24 2020","1500","The main experiment item","yes","FlankerTask.osexp","/Users/shelia/Desktop","no","mono","no","18","no","white","no","yes","768","legacy","58","58","/Users/shelia/Desktop/ST-subject-2.csv","legacy","Lentiform Loewenfeld","3.3.3","0","s","NA","NA","s","h","return","NA","s","424","NA","NA","1595","395","2596","NA","424","2","legacy","1024","2","48000","-16","experiment","HHSHH","2","even","5272","NA","NA","NA","161600","NA","159582","2649","161191","162668","2666","NA","162789","163214","162655","162788","Flanker Task","47","47286","59","yes","1024"
"80","80","801.1666666666666","801.1666666666666","black","legacy","legacy","legacy","0","congruent","uniform","1","undefined","1","s","0","0","0","0","59","0","59","0","59","59","0","0","59","59","59","59","Sun Sep 27 11:24:24 2020","1500","The main experiment item","yes","FlankerTask.osexp","/Users/shelia/Desktop","no","mono","no","18","no","white","no","yes","768","legacy","59","59","/Users/shelia/Desktop/ST-subject-2.csv","legacy","Lentiform Loewenfeld","3.3.3","0","s","NA","NA","s","h","return","NA","s","784","NA","NA","1595","395","2596","NA","784","2","legacy","1024","2","48000","-16","experiment","SSSSS","2","even","5272","NA","NA","NA","163229","NA","159582","2649","161191","164297","2666","NA","164418","165203","164283","164418","Flanker Task","48","48070","60","yes","1024"
"80.32786885245902","80.32786885245902","800.311475409836","800.311475409836","black","legacy","legacy","legacy","0","congruent","uniform","1","undefined","1","h","0","0","0","0","60","0","60","0","60","60","0","0","60","60","60","60","Sun Sep 27 11:24:24 2020","1500","The main experiment item","yes","FlankerTask.osexp","/Users/shelia/Desktop","no","mono","no","18","no","white","no","yes","768","legacy","60","60","/Users/shelia/Desktop/ST-subject-2.csv","legacy","Lentiform Loewenfeld","3.3.3","0","h","NA","NA","s","h","return","NA","h","749","NA","NA","1595","395","2596","NA","749","2","legacy","1024","2","48000","-16","experiment","HHHHH","2","even","5272","NA","NA","NA","165218","NA","159582","2649","161191","166288","2666","NA","166410","167160","166275","166410","Flanker Task","49","48819","61","yes","1024"
"80.64516129032258","80.64516129032258","802.258064516129","802.258064516129","black","legacy","legacy","legacy","0","incongruent","uniform","1","undefined","1","h","0","0","0","0","61","0","61","0","61","61","0","0","61","61","61","61","Sun Sep 27 11:24:24 2020","1500","The main experiment item","yes","FlankerTask.osexp","/Users/shelia/Desktop","no","mono","no","18","no","white","no","yes","768","legacy","61","61","/Users/shelia/Desktop/ST-subject-2.csv","legacy","Lentiform Loewenfeld","3.3.3","0","h","NA","NA","s","h","return","NA","h","921","NA","NA","1595","395","2596","NA","921","2","legacy","1024","2","48000","-16","experiment","SSHSS","2","even","5272","NA","NA","NA","167175","NA","159582","2649","161191","168246","2666","NA","168366","169288","168233","168366","Flanker Task","50","49740","62","yes","1024"
"80.95238095238095","80.95238095238095","809.968253968254","809.968253968254","black","legacy","legacy","legacy","0","congruent","uniform","1","undefined","1","s","0","0","0","0","62","0","62","0","62","62","0","0","62","62","62","62","Sun Sep 27 11:24:24 2020","1500","The main experiment item","yes","FlankerTask.osexp","/Users/shelia/Desktop","no","mono","no","18","no","white","no","yes","768","legacy","62","62","/Users/shelia/Desktop/ST-subject-2.csv","legacy","Lentiform Loewenfeld","3.3.3","0","s","NA","NA","s","h","return","NA","s","1288","NA","NA","1595","395","2596","NA","1288","2","legacy","1024","2","48000","-16","experiment","SSSSS","2","even","5272","NA","NA","NA","169303","NA","159582","2649","161191","170371","2666","NA","170492","171781","170358","170492","Flanker Task","51","51028","63","yes","1024"
"81.25","81.25","807.25","807.25","black","legacy","legacy","legacy","0","congruent","uniform","1","undefined","1","h","0","0","0","0","63","0","63","0","63","63","0","0","63","63","63","63","Sun Sep 27 11:24:24 2020","1500","The main experiment item","yes","FlankerTask.osexp","/Users/shelia/Desktop","no","mono","no","18","no","white","no","yes","768","legacy","63","63","/Users/shelia/Desktop/ST-subject-2.csv","legacy","Lentiform Loewenfeld","3.3.3","0","h","NA","NA","s","h","return","NA","h","636","NA","NA","1595","395","2596","NA","636","2","legacy","1024","2","48000","-16","experiment","HHHHH","2","even","5272","NA","NA","NA","171795","NA","159582","2649","161191","172862","2666","NA","172982","173619","172850","172982","Flanker Task","52","51664","64","yes","1024"
"81.53846153846153","81.53846153846153","809.4769230769231","809.4769230769231","black","legacy","legacy","legacy","0","congruent","uniform","1","undefined","1","h","0","0","0","0","64","0","64","0","64","64","0","0","64","64","64","64","Sun Sep 27 11:24:24 2020","1500","The main experiment item","yes","FlankerTask.osexp","/Users/shelia/Desktop","no","mono","no","18","no","white","no","yes","768","legacy","64","64","/Users/shelia/Desktop/ST-subject-2.csv","legacy","Lentiform Loewenfeld","3.3.3","0","h","NA","NA","s","h","return","NA","h","952","NA","NA","1595","395","2596","NA","952","2","legacy","1024","2","48000","-16","experiment","HHHHH","2","even","5272","NA","NA","NA","173634","NA","159582","2649","161191","174705","2666","NA","174826","175779","174692","174826","Flanker Task","53","52616","65","yes","1024"
"81.81818181818181","81.81818181818181","808.5757575757576","808.5757575757576","black","legacy","legacy","legacy","0","incogruent","uniform","1","undefined","1","s","0","0","0","0","65","0","65","0","65","65","0","0","65","65","65","65","Sun Sep 27 11:24:24 2020","1500","The main experiment item","yes","FlankerTask.osexp","/Users/shelia/Desktop","no","mono","no","18","no","white","no","yes","768","legacy","65","65","/Users/shelia/Desktop/ST-subject-2.csv","legacy","Lentiform Loewenfeld","3.3.3","0","s","NA","NA","s","h","return","NA","s","750","NA","NA","1595","395","2596","NA","750","2","legacy","1024","2","48000","-16","experiment","HHSHH","2","even","5272","NA","NA","NA","175794","NA","159582","2649","161191","176862","2666","NA","176983","177735","176848","176983","Flanker Task","54","53366","66","yes","1024"
"82.08955223880596","82.08955223880596","813.6268656716418","813.6268656716418","black","legacy","legacy","legacy","0","incongruent","uniform","1","undefined","1","h","0","0","0","0","66","0","66","0","66","66","0","0","66","66","66","66","Sun Sep 27 11:24:24 2020","1500","The main experiment item","yes","FlankerTask.osexp","/Users/shelia/Desktop","no","mono","no","18","no","white","no","yes","768","legacy","66","66","/Users/shelia/Desktop/ST-subject-2.csv","legacy","Lentiform Loewenfeld","3.3.3","0","h","NA","NA","s","h","return","NA","h","1147","NA","NA","1595","395","2596","NA","1147","2","legacy","1024","2","48000","-16","experiment","SSHSS","2","even","5272","NA","NA","NA","177750","NA","159582","2649","161191","178817","2666","NA","178939","180088","178805","178939","Flanker Task","55","54513","67","yes","1024"
"82.3529411764706","82.3529411764706","817.5147058823529","817.5147058823529","black","legacy","legacy","legacy","0","incogruent","uniform","1","undefined","1","s","0","0","0","0","67","0","67","0","67","67","0","0","67","67","67","67","Sun Sep 27 11:24:24 2020","1500","The main experiment item","yes","FlankerTask.osexp","/Users/shelia/Desktop","no","mono","no","18","no","white","no","yes","768","legacy","67","67","/Users/shelia/Desktop/ST-subject-2.csv","legacy","Lentiform Loewenfeld","3.3.3","0","s","NA","NA","s","h","return","NA","s","1078","NA","NA","1595","395","2596","NA","1078","2","legacy","1024","2","48000","-16","experiment","HHSHH","2","even","5272","NA","NA","NA","180102","NA","159582","2649","161191","181171","2666","NA","181292","182371","181158","181292","Flanker Task","56","55591","68","yes","1024"
"82.6086956521739","82.6086956521739","820.4347826086956","820.4347826086956","black","legacy","legacy","legacy","0","congruent","uniform","1","undefined","1","s","0","0","0","0","68","0","68","0","68","68","0","0","68","68","68","68","Sun Sep 27 11:24:24 2020","1500","The main experiment item","yes","FlankerTask.osexp","/Users/shelia/Desktop","no","mono","no","18","no","white","no","yes","768","legacy","68","68","/Users/shelia/Desktop/ST-subject-2.csv","legacy","Lentiform Loewenfeld","3.3.3","0","s","NA","NA","s","h","return","NA","s","1019","NA","NA","1595","395","2596","NA","1019","2","legacy","1024","2","48000","-16","experiment","SSSSS","2","even","5272","NA","NA","NA","182385","NA","159582","2649","161191","183454","2666","NA","183575","184595","183441","183575","Flanker Task","57","56610","69","yes","1024"
"82.85714285714286","82.85714285714286","818.1","818.1","black","legacy","legacy","legacy","0","congruent","uniform","1","undefined","1","s","0","0","0","0","69","0","69","0","69","69","0","0","69","69","69","69","Sun Sep 27 11:24:24 2020","1500","The main experiment item","yes","FlankerTask.osexp","/Users/shelia/Desktop","no","mono","no","18","no","white","no","yes","768","legacy","69","69","/Users/shelia/Desktop/ST-subject-2.csv","legacy","Lentiform Loewenfeld","3.3.3","0","s","NA","NA","s","h","return","NA","s","657","NA","NA","1595","395","2596","NA","657","2","legacy","1024","2","48000","-16","experiment","SSSSS","2","even","5272","NA","NA","NA","184610","NA","159582","2649","161191","185680","2666","NA","185801","186459","185666","185800","Flanker Task","58","57267","70","yes","1024"
"83.09859154929578","83.09859154929578","813.169014084507","813.169014084507","black","legacy","legacy","legacy","0","congruent","uniform","1","undefined","1","s","0","0","0","0","70","0","70","0","70","70","0","0","70","70","70","70","Sun Sep 27 11:24:24 2020","1500","The main experiment item","yes","FlankerTask.osexp","/Users/shelia/Desktop","no","mono","no","18","no","white","no","yes","768","legacy","70","70","/Users/shelia/Desktop/ST-subject-2.csv","legacy","Lentiform Loewenfeld","3.3.3","0","s","NA","NA","s","h","return","NA","s","468","NA","NA","1595","395","2596","NA","468","2","legacy","1024","2","48000","-16","experiment","SSSSS","2","even","5272","NA","NA","NA","186475","NA","159582","2649","161191","187546","2666","NA","187667","188136","187533","187667","Flanker Task","59","57735","71","yes","1024"
"81.94444444444444","81.94444444444444","807.1388888888889","807.1388888888889","black","legacy","legacy","legacy","0","incongruent","uniform","0","undefined","0","h","0","0","0","0","71","0","71","0","71","71","0","0","71","71","71","71","Sun Sep 27 11:24:24 2020","1500","The main experiment item","yes","FlankerTask.osexp","/Users/shelia/Desktop","no","mono","no","18","no","white","no","yes","768","legacy","71","71","/Users/shelia/Desktop/ST-subject-2.csv","legacy","Lentiform Loewenfeld","3.3.3","0","s","NA","NA","s","h","return","NA","s","379","NA","NA","1595","395","2596","NA","379","2","legacy","1024","2","48000","-16","experiment","SSHSS","2","even","5272","NA","NA","NA","188151","NA","159582","2649","161191","189218","2666","NA","189338","189718","189206","189338","Flanker Task","59","58114","72","yes","1024"
"82.1917808219178","82.1917808219178","805.8630136986301","805.8630136986301","black","legacy","legacy","legacy","0","congruent","uniform","1","undefined","1","h","0","0","0","0","72","0","72","0","72","72","0","0","72","72","72","72","Sun Sep 27 11:24:24 2020","1500","The main experiment item","yes","FlankerTask.osexp","/Users/shelia/Desktop","no","mono","no","18","no","white","no","yes","768","legacy","72","72","/Users/shelia/Desktop/ST-subject-2.csv","legacy","Lentiform Loewenfeld","3.3.3","0","h","NA","NA","h","h","return","NA","h","714","NA","NA","3287","951","2596","NA","714","2","legacy","1024","2","48000","-16","experiment","HHHHH","2","even","5272","NA","NA","NA","193999","NA","189733","2649","193034","195065","2666","NA","195187","195902","195053","195186","Flanker Task","60","58828","73","yes","1024"
"82.43243243243244","82.43243243243244","801.7297297297297","801.7297297297297","black","legacy","legacy","legacy","0","congruent","uniform","1","undefined","1","h","0","0","0","0","73","0","73","0","73","73","0","0","73","73","73","73","Sun Sep 27 11:24:24 2020","1500","The main experiment item","yes","FlankerTask.osexp","/Users/shelia/Desktop","no","mono","no","18","no","white","no","yes","768","legacy","73","73","/Users/shelia/Desktop/ST-subject-2.csv","legacy","Lentiform Loewenfeld","3.3.3","0","h","NA","NA","h","h","return","NA","h","500","NA","NA","3287","951","2596","NA","500","2","legacy","1024","2","48000","-16","experiment","HHHHH","2","even","5272","NA","NA","NA","195916","NA","189733","2649","193034","196986","2666","NA","197107","197608","196973","197107","Flanker Task","61","59328","74","yes","1024"
"81.33333333333333","81.33333333333333","801.4133333333333","801.4133333333333","black","legacy","legacy","legacy","0","incogruent","uniform","0","undefined","0","s","0","0","0","0","74","0","74","0","74","74","0","0","74","74","74","74","Sun Sep 27 11:24:24 2020","1500","The main experiment item","yes","FlankerTask.osexp","/Users/shelia/Desktop","no","mono","no","18","no","white","no","yes","768","legacy","74","74","/Users/shelia/Desktop/ST-subject-2.csv","legacy","Lentiform Loewenfeld","3.3.3","0","h","NA","NA","h","h","return","NA","h","778","NA","NA","3287","951","2596","NA","778","2","legacy","1024","2","48000","-16","experiment","HHSHH","2","even","5272","NA","NA","NA","197622","NA","189733","2649","193034","198693","2666","NA","198814","199593","198680","198813","Flanker Task","61","60106","75","yes","1024"
"81.57894736842105","81.57894736842105","800.7368421052631","800.7368421052631","black","legacy","legacy","legacy","0","congruent","uniform","1","undefined","1","s","0","0","0","0","75","0","75","0","75","75","0","0","75","75","75","75","Sun Sep 27 11:24:24 2020","1500","The main experiment item","yes","FlankerTask.osexp","/Users/shelia/Desktop","no","mono","no","18","no","white","no","yes","768","legacy","75","75","/Users/shelia/Desktop/ST-subject-2.csv","legacy","Lentiform Loewenfeld","3.3.3","0","s","NA","NA","h","h","return","NA","s","750","NA","NA","983","951","2596","NA","750","2","legacy","1024","2","48000","-16","experiment","SSSSS","2","even","5272","NA","NA","NA","200608","NA","199610","2649","193034","201676","2666","NA","201798","202550","201664","201797","Flanker Task","62","60856","76","yes","1024"
"80.51948051948052","80.51948051948052","796.4805194805194","796.4805194805194","black","legacy","legacy","legacy","0","incongruent","uniform","0","undefined","0","h","0","0","0","0","76","0","76","0","76","76","0","0","76","76","76","76","Sun Sep 27 11:24:24 2020","1500","The main experiment item","yes","FlankerTask.osexp","/Users/shelia/Desktop","no","mono","no","18","no","white","no","yes","768","legacy","76","76","/Users/shelia/Desktop/ST-subject-2.csv","legacy","Lentiform Loewenfeld","3.3.3","0","s","NA","NA","h","h","return","NA","s","473","NA","NA","983","951","2596","NA","473","2","legacy","1024","2","48000","-16","experiment","SSHSS","2","even","5272","NA","NA","NA","202565","NA","199610","2649","193034","203633","2666","NA","203753","204228","203620","203753","Flanker Task","62","61329","77","yes","1024"
"80.76923076923077","80.76923076923077","794.1410256410256","794.1410256410256","black","legacy","legacy","legacy","0","incongruent","uniform","1","undefined","1","h","0","0","0","0","77","0","77","0","77","77","0","0","77","77","77","77","Sun Sep 27 11:24:24 2020","1500","The main experiment item","yes","FlankerTask.osexp","/Users/shelia/Desktop","no","mono","no","18","no","white","no","yes","768","legacy","77","77","/Users/shelia/Desktop/ST-subject-2.csv","legacy","Lentiform Loewenfeld","3.3.3","0","h","NA","NA","s","h","return","NA","h","614","NA","NA","1352","951","2596","NA","614","2","legacy","1024","2","48000","-16","experiment","SSHSS","2","even","5272","NA","NA","NA","205608","NA","204242","2649","193034","206679","2666","NA","206800","207415","206666","206800","Flanker Task","63","61943","78","yes","1024"
"81.0126582278481","81.0126582278481","792.1139240506329","792.1139240506329","black","legacy","legacy","legacy","0","incongruent","uniform","1","undefined","1","h","0","0","0","0","78","0","78","0","78","78","0","0","78","78","78","78","Sun Sep 27 11:24:24 2020","1500","The main experiment item","yes","FlankerTask.osexp","/Users/shelia/Desktop","no","mono","no","18","no","white","no","yes","768","legacy","78","78","/Users/shelia/Desktop/ST-subject-2.csv","legacy","Lentiform Loewenfeld","3.3.3","0","h","NA","NA","s","h","return","NA","h","634","NA","NA","1352","951","2596","NA","634","2","legacy","1024","2","48000","-16","experiment","SSHSS","2","even","5272","NA","NA","NA","207430","NA","204242","2649","193034","208497","2666","NA","208617","209252","208484","208617","Flanker Task","64","62577","79","yes","1024"
"81.25","81.25","789.425","789.425","black","legacy","legacy","legacy","0","congruent","uniform","1","undefined","1","s","0","0","0","0","79","0","79","0","79","79","0","0","79","79","79","79","Sun Sep 27 11:24:24 2020","1500","The main experiment item","yes","FlankerTask.osexp","/Users/shelia/Desktop","no","mono","no","18","no","white","no","yes","768","legacy","79","79","/Users/shelia/Desktop/ST-subject-2.csv","legacy","Lentiform Loewenfeld","3.3.3","0","s","NA","NA","s","h","return","NA","s","577","NA","NA","1352","951","2596","NA","577","2","legacy","1024","2","48000","-16","experiment","SSSSS","2","even","5272","NA","NA","NA","209267","NA","204242","2649","193034","210337","2666","NA","210458","211036","210324","210458","Flanker Task","65","63154","80","yes","1024"
"81.48148148148148","81.48148148148148","797.925925925926","797.925925925926","black","legacy","legacy","legacy","0","congruent","uniform","1","undefined","1","h","0","0","0","0","80","0","80","0","80","80","0","0","80","80","80","80","Sun Sep 27 11:24:24 2020","600","The main experiment item","yes","FlankerTask.osexp","/Users/shelia/Desktop","no","mono","no","18","no","white","no","yes","768","legacy","0","79","/Users/shelia/Desktop/ST-subject-2.csv","legacy","Lentiform Loewenfeld","3.3.3","0","h","NA","return","s","h","return","NA","h","1478","NA","8290","1352","951","2596","NA","1478","2","legacy","1024","2","48000","-16","experiment","HHHHH","2","even","5272","220385","NA","NA","211051","212094","204242","2649","193034","220428","2666","NA","220548","222027","220415","220548","Flanker Task","66","64632","81","yes","1024"
"81.70731707317073","81.70731707317073","796.1219512195122","796.1219512195122","black","legacy","legacy","legacy","0","incogruent","uniform","1","undefined","1","s","0","0","0","0","81","0","81","0","81","81","0","0","81","81","81","81","Sun Sep 27 11:24:24 2020","600","The main experiment item","yes","FlankerTask.osexp","/Users/shelia/Desktop","no","mono","no","18","no","white","no","yes","768","legacy","1","79","/Users/shelia/Desktop/ST-subject-2.csv","legacy","Lentiform Loewenfeld","3.3.3","0","s","NA","return","s","h","return","NA","s","650","NA","8290","1352","4195","2596","NA","650","2","legacy","1024","2","48000","-16","experiment","HHSHH","2","even","5272","220385","NA","NA","226250","212094","204242","2649","222041","227319","2666","NA","227440","228091","227306","227440","Flanker Task","67","65282","82","yes","1024"
"81.92771084337349","81.92771084337349","794.2530120481928","794.2530120481928","black","legacy","legacy","legacy","0","incogruent","uniform","1","undefined","1","s","0","0","0","0","82","0","82","0","82","82","0","0","82","82","82","82","Sun Sep 27 11:24:24 2020","600","The main experiment item","yes","FlankerTask.osexp","/Users/shelia/Desktop","no","mono","no","18","no","white","no","yes","768","legacy","2","79","/Users/shelia/Desktop/ST-subject-2.csv","legacy","Lentiform Loewenfeld","3.3.3","0","s","NA","return","s","h","return","NA","s","641","NA","8290","1352","3384","2596","NA","641","2","legacy","1024","2","48000","-16","experiment","HHSHH","2","even","5272","220385","NA","NA","231504","212094","204242","2649","228106","232571","2666","NA","232692","233334","232559","232691","Flanker Task","68","65923","83","yes","1024"
"82.14285714285714","82.14285714285714","791.547619047619","791.547619047619","black","legacy","legacy","legacy","0","congruent","uniform","1","undefined","1","h","0","0","0","0","83","0","83","0","83","83","0","0","83","83","83","83","Sun Sep 27 11:24:24 2020","600","The main experiment item","yes","FlankerTask.osexp","/Users/shelia/Desktop","no","mono","no","18","no","white","no","yes","768","legacy","3","79","/Users/shelia/Desktop/ST-subject-2.csv","legacy","Lentiform Loewenfeld","3.3.3","0","h","NA","return","s","h","return","NA","h","567","NA","8290","1352","1953","2596","NA","567","2","legacy","1024","2","48000","-16","experiment","HHHHH","2","even","5272","220385","NA","NA","235317","212094","204242","2649","233349","236387","2666","NA","236508","237076","236374","236508","Flanker Task","69","66490","84","yes","1024"
"82.3529411764706","82.3529411764706","792.4588235294118","792.4588235294118","black","legacy","legacy","legacy","0","congruent","uniform","1","undefined","1","h","0","0","0","0","84","0","84","0","84","84","0","0","84","84","84","84","Sun Sep 27 11:24:24 2020","600","The main experiment item","yes","FlankerTask.osexp","/Users/shelia/Desktop","no","mono","no","18","no","white","no","yes","768","legacy","4","79","/Users/shelia/Desktop/ST-subject-2.csv","legacy","Lentiform Loewenfeld","3.3.3","0","h","NA","return","s","h","return","NA","h","869","NA","8290","1352","1953","2596","NA","869","2","legacy","1024","2","48000","-16","experiment","HHHHH","2","even","5272","220385","NA","NA","237091","212094","204242","2649","233349","238160","2666","NA","238278","239148","238147","238278","Flanker Task","70","67359","85","yes","1024"
"82.55813953488372","82.55813953488372","788.4883720930233","788.4883720930233","black","legacy","legacy","legacy","0","congruent","uniform","1","undefined","1","s","0","0","0","0","85","0","85","0","85","85","0","0","85","85","85","85","Sun Sep 27 11:24:24 2020","600","The main experiment item","yes","FlankerTask.osexp","/Users/shelia/Desktop","no","mono","no","18","no","white","no","yes","768","legacy","5","79","/Users/shelia/Desktop/ST-subject-2.csv","legacy","Lentiform Loewenfeld","3.3.3","0","s","NA","return","s","h","return","NA","s","451","NA","8290","1352","1742","2596","NA","451","2","legacy","1024","2","48000","-16","experiment","SSSSS","2","even","5272","220385","NA","NA","240919","212094","204242","2649","239163","241987","2666","NA","242107","242559","241974","242107","Flanker Task","71","67810","86","yes","1024"
"82.75862068965517","82.75862068965517","788.0919540229885","788.0919540229885","black","legacy","legacy","legacy","0","incogruent","uniform","1","undefined","1","s","0","0","0","0","86","0","86","0","86","86","0","0","86","86","86","86","Sun Sep 27 11:24:24 2020","600","The main experiment item","yes","FlankerTask.osexp","/Users/shelia/Desktop","no","mono","no","18","no","white","no","yes","768","legacy","6","79","/Users/shelia/Desktop/ST-subject-2.csv","legacy","Lentiform Loewenfeld","3.3.3","0","s","NA","return","s","h","return","NA","s","754","NA","8290","1352","1742","2596","NA","754","2","legacy","1024","2","48000","-16","experiment","HHSHH","2","even","5272","220385","NA","NA","242576","212094","204242","2649","239163","243646","2666","NA","243767","244523","243633","243766","Flanker Task","72","68564","87","yes","1024"
"82.95454545454545","82.95454545454545","788.0795454545455","788.0795454545455","black","legacy","legacy","legacy","0","incongruent","uniform","1","undefined","1","h","0","0","0","0","87","0","87","0","87","87","0","0","87","87","87","87","Sun Sep 27 11:24:24 2020","600","The main experiment item","yes","FlankerTask.osexp","/Users/shelia/Desktop","no","mono","no","18","no","white","no","yes","768","legacy","7","79","/Users/shelia/Desktop/ST-subject-2.csv","legacy","Lentiform Loewenfeld","3.3.3","0","h","NA","return","s","h","return","NA","h","787","NA","8290","1352","2727","2596","NA","787","2","legacy","1024","2","48000","-16","experiment","SSHSS","2","even","5272","220385","NA","NA","247279","212094","204242","2649","244538","248348","2666","NA","248469","249257","248335","248469","Flanker Task","73","69351","88","yes","1024"
"83.14606741573034","83.14606741573034","786.2584269662922","786.2584269662922","black","legacy","legacy","legacy","0","incogruent","uniform","1","undefined","1","s","0","0","0","0","88","0","88","0","88","88","0","0","88","88","88","88","Sun Sep 27 11:24:24 2020","600","The main experiment item","yes","FlankerTask.osexp","/Users/shelia/Desktop","no","mono","no","18","no","white","no","yes","768","legacy","8","79","/Users/shelia/Desktop/ST-subject-2.csv","legacy","Lentiform Loewenfeld","3.3.3","0","s","NA","return","s","h","return","NA","s","626","NA","8290","1352","1976","2596","NA","626","2","legacy","1024","2","48000","-16","experiment","HHSHH","2","even","5272","220385","NA","NA","251262","212094","204242","2649","249272","252332","2666","NA","252452","253079","252319","252452","Flanker Task","74","69977","89","yes","1024"
"82.22222222222223","82.22222222222223","781.9333333333333","781.9333333333333","black","legacy","legacy","legacy","0","incongruent","uniform","0","undefined","0","h","0","0","0","0","89","0","89","0","89","89","0","0","89","89","89","89","Sun Sep 27 11:24:24 2020","600","The main experiment item","yes","FlankerTask.osexp","/Users/shelia/Desktop","no","mono","no","18","no","white","no","yes","768","legacy","9","79","/Users/shelia/Desktop/ST-subject-2.csv","legacy","Lentiform Loewenfeld","3.3.3","0","s","NA","return","s","s","return","NA","s","397","NA","8290","1352","1213","2596","NA","397","2","legacy","1024","2","48000","-16","experiment","SSHSS","2","even","5272","220385","NA","NA","254321","212094","204242","2649","253094","255391","2666","NA","255512","255910","255378","255512","Flanker Task","74","70374","90","yes","1024"
"81.31868131868131","81.31868131868131","775.2417582417582","775.2417582417582","black","legacy","legacy","legacy","0","incogruent","uniform","0","undefined","0","s","0","0","0","0","90","0","90","0","90","90","0","0","90","90","90","90","Sun Sep 27 11:24:24 2020","600","The main experiment item","yes","FlankerTask.osexp","/Users/shelia/Desktop","no","mono","no","18","no","white","no","yes","768","legacy","10","79","/Users/shelia/Desktop/ST-subject-2.csv","legacy","Lentiform Loewenfeld","3.3.3","0","h","NA","return","s","h","return","NA","h","173","NA","8290","1037","609","2596","NA","173","2","legacy","1024","2","48000","-16","experiment","HHSHH","2","even","5272","220385","NA","NA","257599","212094","255925","2649","256976","258666","2666","NA","258787","258961","258654","258787","Flanker Task","74","70547","91","yes","1024"
"81.52173913043478","81.52173913043478","773.8913043478261","773.8913043478261","black","legacy","legacy","legacy","0","incongruent","uniform","1","undefined","1","h","0","0","0","0","91","0","91","0","91","91","0","0","91","91","91","91","Sun Sep 27 11:24:24 2020","600","The main experiment item","yes","FlankerTask.osexp","/Users/shelia/Desktop","no","mono","no","18","no","white","no","yes","768","legacy","11","79","/Users/shelia/Desktop/ST-subject-2.csv","legacy","Lentiform Loewenfeld","3.3.3","0","h","NA","return","s","s","return","NA","h","651","NA","8290","4414","2274","2596","NA","651","2","legacy","1024","2","48000","-16","experiment","SSHSS","2","even","5272","220385","NA","NA","265693","212094","258976","2649","263405","266761","2666","NA","266882","267534","266748","266882","Flanker Task","75","71198","92","yes","1024"
"81.72043010752688","81.72043010752688","772.763440860215","772.763440860215","black","legacy","legacy","legacy","0","congruent","uniform","1","undefined","1","s","0","0","0","0","92","0","92","0","92","92","0","0","92","92","92","92","Sun Sep 27 11:24:24 2020","600","The main experiment item","yes","FlankerTask.osexp","/Users/shelia/Desktop","no","mono","no","18","no","white","no","yes","768","legacy","12","79","/Users/shelia/Desktop/ST-subject-2.csv","legacy","Lentiform Loewenfeld","3.3.3","0","s","NA","return","s","h","return","NA","s","669","NA","8290","4414","1585","2596","NA","669","2","legacy","1024","2","48000","-16","experiment","SSSSS","2","even","5272","220385","NA","NA","269148","212094","258976","2649","267549","270220","2666","NA","270340","271011","270206","270340","Flanker Task","76","71867","93","yes","1024"
"81.91489361702128","81.91489361702128","771.5957446808511","771.5957446808511","black","legacy","legacy","legacy","0","incogruent","uniform","1","undefined","1","s","0","0","0","0","93","0","93","0","93","93","0","0","93","93","93","93","Sun Sep 27 11:24:24 2020","600","The main experiment item","yes","FlankerTask.osexp","/Users/shelia/Desktop","no","mono","no","18","no","white","no","yes","768","legacy","13","79","/Users/shelia/Desktop/ST-subject-2.csv","legacy","Lentiform Loewenfeld","3.3.3","0","s","NA","return","s","s","return","NA","s","663","NA","8290","4414","1738","2596","NA","663","2","legacy","1024","2","48000","-16","experiment","HHSHH","2","even","5272","220385","NA","NA","272777","212094","258976","2649","271025","273845","2666","NA","273966","274630","273831","273965","Flanker Task","77","72530","94","yes","1024"
"82.10526315789474","82.10526315789474","769.7684210526315","769.7684210526315","black","legacy","legacy","legacy","0","congruent","uniform","1","undefined","1","h","0","0","0","0","94","0","94","0","94","94","0","0","94","94","94","94","Sun Sep 27 11:24:24 2020","600","The main experiment item","yes","FlankerTask.osexp","/Users/shelia/Desktop","no","mono","no","18","no","white","no","yes","768","legacy","14","79","/Users/shelia/Desktop/ST-subject-2.csv","legacy","Lentiform Loewenfeld","3.3.3","0","h","NA","return","s","h","return","NA","h","598","NA","8290","4414","1530","2596","NA","598","2","legacy","1024","2","48000","-16","experiment","HHHHH","2","even","5272","220385","NA","NA","276190","212094","258976","2649","274645","277259","2666","NA","277379","277978","277246","277379","Flanker Task","78","73128","95","yes","1024"
"82.29166666666667","82.29166666666667","768.0416666666666","768.0416666666666","black","legacy","legacy","legacy","0","incogruent","uniform","1","undefined","1","s","0","0","0","0","95","0","95","0","95","95","0","0","95","95","95","95","Sun Sep 27 11:24:24 2020","600","The main experiment item","yes","FlankerTask.osexp","/Users/shelia/Desktop","no","mono","no","18","no","white","no","yes","768","legacy","15","79","/Users/shelia/Desktop/ST-subject-2.csv","legacy","Lentiform Loewenfeld","3.3.3","0","s","NA","return","s","h","return","NA","s","604","NA","8290","4414","1530","2596","NA","604","2","legacy","1024","2","48000","-16","experiment","HHSHH","2","even","5272","220385","NA","NA","277993","212094","258976","2649","274645","279060","2666","NA","279180","279786","279047","279180","Flanker Task","79","73732","96","yes","1024"
"82.47422680412372","82.47422680412372","766.360824742268","766.360824742268","black","legacy","legacy","legacy","0","incongruent","uniform","1","undefined","1","h","0","0","0","0","96","0","96","0","96","96","0","0","96","96","96","96","Sun Sep 27 11:24:24 2020","600","The main experiment item","yes","FlankerTask.osexp","/Users/shelia/Desktop","no","mono","no","18","no","white","no","yes","768","legacy","16","79","/Users/shelia/Desktop/ST-subject-2.csv","legacy","Lentiform Loewenfeld","3.3.3","0","h","NA","return","s","s","return","NA","h","605","NA","8290","4414","1643","2596","NA","605","2","legacy","1024","2","48000","-16","experiment","SSHSS","2","even","5272","220385","NA","NA","281458","212094","258976","2649","279801","282525","2666","NA","282645","283251","282512","282645","Flanker Task","80","74337","97","yes","1024"
"82.65306122448979","82.65306122448979","763.795918367347","763.795918367347","black","legacy","legacy","legacy","0","congruent","uniform","1","undefined","1","s","0","0","0","0","97","0","97","0","97","97","0","0","97","97","97","97","Sun Sep 27 11:24:24 2020","600","The main experiment item","yes","FlankerTask.osexp","/Users/shelia/Desktop","no","mono","no","18","no","white","no","yes","768","legacy","17","79","/Users/shelia/Desktop/ST-subject-2.csv","legacy","Lentiform Loewenfeld","3.3.3","0","s","NA","return","s","h","return","NA","s","515","NA","8290","4414","914","2596","NA","515","2","legacy","1024","2","48000","-16","experiment","SSSSS","2","even","5272","220385","NA","NA","284195","212094","258976","2649","283266","285265","2666","NA","285386","285902","285252","285385","Flanker Task","81","74852","98","yes","1024"
"82.82828282828282","82.82828282828282","761.3838383838383","761.3838383838383","black","legacy","legacy","legacy","0","congruent","uniform","1","undefined","1","h","0","0","0","0","98","0","98","0","98","98","0","0","98","98","98","98","Sun Sep 27 11:24:24 2020","600","The main experiment item","yes","FlankerTask.osexp","/Users/shelia/Desktop","no","mono","no","18","no","white","no","yes","768","legacy","18","79","/Users/shelia/Desktop/ST-subject-2.csv","legacy","Lentiform Loewenfeld","3.3.3","0","h","NA","return","s","h","return","NA","h","525","NA","8290","4414","914","2596","NA","525","2","legacy","1024","2","48000","-16","experiment","HHHHH","2","even","5272","220385","NA","NA","285917","212094","258976","2649","283266","286988","2666","NA","287108","287634","286975","287108","Flanker Task","82","75377","99","yes","1024"
"83","83","757.87","757.87","black","legacy","legacy","legacy","0","congruent","uniform","1","undefined","1","s","0","0","0","0","99","0","99","0","99","99","0","0","99","99","99","99","Sun Sep 27 11:24:24 2020","600","The main experiment item","yes","FlankerTask.osexp","/Users/shelia/Desktop","no","mono","no","18","no","white","no","yes","768","legacy","19","79","/Users/shelia/Desktop/ST-subject-2.csv","legacy","Lentiform Loewenfeld","3.3.3","0","s","NA","return","s","h","return","NA","s","410","NA","8290","4414","914","2596","NA","410","2","legacy","1024","2","48000","-16","experiment","SSSSS","2","even","5272","220385","NA","NA","287649","212094","258976","2649","283266","288719","2666","NA","288840","289251","288706","288840","Flanker Task","83","75787","100","yes","1024"
"82.17821782178218","82.17821782178218","755.1287128712871","755.1287128712871","black","legacy","legacy","legacy","0","incongruent","uniform","0","undefined","0","h","0","0","0","0","100","0","100","0","100","100","0","0","100","100","100","100","Sun Sep 27 11:24:24 2020","600","The main experiment item","yes","FlankerTask.osexp","/Users/shelia/Desktop","no","mono","no","18","no","white","no","yes","768","legacy","20","79","/Users/shelia/Desktop/ST-subject-2.csv","legacy","Lentiform Loewenfeld","3.3.3","0","s","NA","return","s","h","return","NA","s","481","NA","8290","4414","914","2596","NA","481","2","legacy","1024","2","48000","-16","experiment","SSHSS","2","even","5272","220385","NA","NA","289266","212094","258976","2649","283266","290336","2666","NA","290457","290939","290323","290457","Flanker Task","83","76268","101","yes","1024"
"82.3529411764706","82.3529411764706","753.1666666666666","753.1666666666666","black","legacy","legacy","legacy","0","incogruent","uniform","1","undefined","1","s","0","0","0","0","101","0","101","0","101","101","0","0","101","101","101","101","Sun Sep 27 11:24:24 2020","600","The main experiment item","yes","FlankerTask.osexp","/Users/shelia/Desktop","no","mono","no","18","no","white","no","yes","768","legacy","21","79","/Users/shelia/Desktop/ST-subject-2.csv","legacy","Lentiform Loewenfeld","3.3.3","0","s","NA","return","h","h","return","NA","s","555","NA","8290","89","914","2596","NA","555","2","legacy","1024","2","48000","-16","experiment","HHSHH","2","even","5272","220385","NA","NA","291058","212094","290955","2649","283266","292129","2666","NA","292248","292804","292116","292248","Flanker Task","84","76823","102","yes","1024"
"81.55339805825243","81.55339805825243","750.5145631067961","750.5145631067961","black","legacy","legacy","legacy","0","congruent","uniform","0","undefined","0","s","0","0","0","0","102","0","102","0","102","102","0","0","102","102","102","102","Sun Sep 27 11:24:24 2020","600","The main experiment item","yes","FlankerTask.osexp","/Users/shelia/Desktop","no","mono","no","18","no","white","no","yes","768","legacy","22","79","/Users/shelia/Desktop/ST-subject-2.csv","legacy","Lentiform Loewenfeld","3.3.3","0","h","NA","return","h","h","return","NA","h","480","NA","8290","89","914","2596","NA","480","2","legacy","1024","2","48000","-16","experiment","SSSSS","2","even","5272","220385","NA","NA","292820","212094","290955","2649","283266","293890","2666","NA","294010","294491","293877","294009","Flanker Task","84","77303","103","yes","1024"
"81.73076923076923","81.73076923076923","748.6538461538462","748.6538461538462","black","legacy","legacy","legacy","0","incongruent","uniform","1","undefined","1","h","0","0","0","0","103","0","103","0","103","103","0","0","103","103","103","103","Sun Sep 27 11:24:24 2020","600","The main experiment item","yes","FlankerTask.osexp","/Users/shelia/Desktop","no","mono","no","18","no","white","no","yes","768","legacy","23","79","/Users/shelia/Desktop/ST-subject-2.csv","legacy","Lentiform Loewenfeld","3.3.3","0","h","NA","return","h","h","return","NA","h","557","NA","8290","723","791","2596","NA","557","2","legacy","1024","2","48000","-16","experiment","SSHSS","2","even","5272","220385","NA","NA","296050","212094","294506","2649","295244","297118","2666","NA","297238","297797","297105","297238","Flanker Task","85","77860","104","yes","1024"
"81.9047619047619","81.9047619047619","745.9428571428572","745.9428571428572","black","legacy","legacy","legacy","0","congruent","uniform","1","undefined","1","s","0","0","0","0","104","0","104","0","104","104","0","0","104","104","104","104","Sun Sep 27 11:24:24 2020","600","The main experiment item","yes","FlankerTask.osexp","/Users/shelia/Desktop","no","mono","no","18","no","white","no","yes","768","legacy","24","79","/Users/shelia/Desktop/ST-subject-2.csv","legacy","Lentiform Loewenfeld","3.3.3","0","s","NA","return","h","h","return","NA","s","464","NA","8290","723","791","2596","NA","464","2","legacy","1024","2","48000","-16","experiment","SSSSS","2","even","5272","220385","NA","NA","297812","212094","294506","2649","295244","298883","2666","NA","299003","299468","298869","299002","Flanker Task","86","78324","105","yes","1024"
"82.0754716981132","82.0754716981132","743.877358490566","743.877358490566","black","legacy","legacy","legacy","0","incogruent","uniform","1","undefined","1","s","0","0","0","0","105","0","105","0","105","105","0","0","105","105","105","105","Sun Sep 27 11:24:24 2020","600","The main experiment item","yes","FlankerTask.osexp","/Users/shelia/Desktop","no","mono","no","18","no","white","no","yes","768","legacy","25","79","/Users/shelia/Desktop/ST-subject-2.csv","legacy","Lentiform Loewenfeld","3.3.3","0","s","NA","return","h","h","return","NA","s","527","NA","8290","723","791","2596","NA","527","2","legacy","1024","2","48000","-16","experiment","HHSHH","2","even","5272","220385","NA","NA","299483","212094","294506","2649","295244","300550","2666","NA","300671","301200","300537","300671","Flanker Task","87","78851","106","yes","1024"
"82.24299065420561","82.24299065420561","741.1028037383178","741.1028037383178","black","legacy","legacy","legacy","0","incogruent","uniform","1","undefined","1","s","0","0","0","0","106","0","106","0","106","106","0","0","106","106","106","106","Sun Sep 27 11:24:24 2020","600","The main experiment item","yes","FlankerTask.osexp","/Users/shelia/Desktop","no","mono","no","18","no","white","no","yes","768","legacy","26","79","/Users/shelia/Desktop/ST-subject-2.csv","legacy","Lentiform Loewenfeld","3.3.3","0","s","NA","return","h","h","return","NA","s","447","NA","8290","723","791","2596","NA","447","2","legacy","1024","2","48000","-16","experiment","HHSHH","2","even","5272","220385","NA","NA","301214","212094","294506","2649","295244","302283","2666","NA","302405","302854","302271","302405","Flanker Task","88","79298","107","yes","1024"
"81.48148148148148","81.48148148148148","738.2685185185185","738.2685185185185","black","legacy","legacy","legacy","0","incongruent","uniform","0","undefined","0","h","0","0","0","0","107","0","107","0","107","107","0","0","107","107","107","107","Sun Sep 27 11:24:24 2020","600","The main experiment item","yes","FlankerTask.osexp","/Users/shelia/Desktop","no","mono","no","18","no","white","no","yes","768","legacy","27","79","/Users/shelia/Desktop/ST-subject-2.csv","legacy","Lentiform Loewenfeld","3.3.3","0","s","NA","return","h","h","return","NA","s","435","NA","8290","723","791","2596","NA","435","2","legacy","1024","2","48000","-16","experiment","SSHSS","2","even","5272","220385","NA","NA","302868","212094","294506","2649","295244","303938","2666","NA","304059","304495","303925","304059","Flanker Task","88","79733","108","yes","1024"
"81.65137614678899","81.65137614678899","737.4587155963303","737.4587155963303","black","legacy","legacy","legacy","0","incogruent","uniform","1","undefined","1","s","0","0","0","0","108","0","108","0","108","108","0","0","108","108","108","108","Sun Sep 27 11:24:24 2020","600","The main experiment item","yes","FlankerTask.osexp","/Users/shelia/Desktop","no","mono","no","18","no","white","no","yes","768","legacy","28","79","/Users/shelia/Desktop/ST-subject-2.csv","legacy","Lentiform Loewenfeld","3.3.3","0","s","NA","return","h","h","return","NA","s","650","NA","8290","663","618","2596","NA","650","2","legacy","1024","2","48000","-16","experiment","HHSHH","2","even","5272","220385","NA","NA","305821","212094","304511","2649","305189","306889","2666","NA","307006","307657","306876","307006","Flanker Task","89","80383","109","yes","1024"
"81.81818181818181","81.81818181818181","734.8545454545455","734.8545454545455","black","legacy","legacy","legacy","0","incogruent","uniform","1","undefined","1","s","0","0","0","0","109","0","109","0","109","109","0","0","109","109","109","109","Sun Sep 27 11:24:24 2020","600","The main experiment item","yes","FlankerTask.osexp","/Users/shelia/Desktop","no","mono","no","18","no","white","no","yes","768","legacy","29","79","/Users/shelia/Desktop/ST-subject-2.csv","legacy","Lentiform Loewenfeld","3.3.3","0","s","NA","return","h","s","return","NA","s","451","NA","8290","663","2572","2596","NA","451","2","legacy","1024","2","48000","-16","experiment","HHSHH","2","even","5272","220385","NA","NA","310259","212094","304511","2649","307673","311328","2666","NA","311449","311901","311315","311449","Flanker Task","90","80834","110","yes","1024"
"81.98198198198199","81.98198198198199","732.4504504504505","732.4504504504505","black","legacy","legacy","legacy","0","congruent","uniform","1","undefined","1","h","0","0","0","0","110","0","110","0","110","110","0","0","110","110","110","110","Sun Sep 27 11:24:24 2020","600","The main experiment item","yes","FlankerTask.osexp","/Users/shelia/Desktop","no","mono","no","18","no","white","no","yes","768","legacy","30","79","/Users/shelia/Desktop/ST-subject-2.csv","legacy","Lentiform Loewenfeld","3.3.3","0","h","NA","return","h","s","return","NA","h","468","NA","8290","663","2572","2596","NA","468","2","legacy","1024","2","48000","-16","experiment","HHHHH","2","even","5272","220385","NA","NA","311916","212094","304511","2649","307673","312984","2666","NA","313105","313574","312971","313104","Flanker Task","91","81302","111","yes","1024"
"82.14285714285714","82.14285714285714","729.9285714285714","729.9285714285714","black","legacy","legacy","legacy","0","congruent","uniform","1","undefined","1","s","0","0","0","0","111","0","111","0","111","111","0","0","111","111","111","111","Sun Sep 27 11:24:24 2020","600","The main experiment item","yes","FlankerTask.osexp","/Users/shelia/Desktop","no","mono","no","18","no","white","no","yes","768","legacy","31","79","/Users/shelia/Desktop/ST-subject-2.csv","legacy","Lentiform Loewenfeld","3.3.3","0","s","NA","return","h","s","return","NA","s","450","NA","8290","663","2572","2596","NA","450","2","legacy","1024","2","48000","-16","experiment","SSSSS","2","even","5272","220385","NA","NA","313590","212094","304511","2649","307673","314660","2666","NA","314781","315233","314647","314781","Flanker Task","92","81752","112","yes","1024"
"82.30088495575221","82.30088495575221","727.1858407079646","727.1858407079646","black","legacy","legacy","legacy","0","congruent","uniform","1","undefined","1","s","0","0","0","0","112","0","112","0","112","112","0","0","112","112","112","112","Sun Sep 27 11:24:24 2020","600","The main experiment item","yes","FlankerTask.osexp","/Users/shelia/Desktop","no","mono","no","18","no","white","no","yes","768","legacy","32","79","/Users/shelia/Desktop/ST-subject-2.csv","legacy","Lentiform Loewenfeld","3.3.3","0","s","NA","return","h","s","return","NA","s","420","NA","8290","663","2572","2596","NA","420","2","legacy","1024","2","48000","-16","experiment","SSSSS","2","even","5272","220385","NA","NA","315247","212094","304511","2649","307673","316318","2666","NA","316439","316861","316304","316439","Flanker Task","93","82172","113","yes","1024"
"82.45614035087719","82.45614035087719","725.8771929824561","725.8771929824561","black","legacy","legacy","legacy","0","incogruent","uniform","1","undefined","1","s","0","0","0","0","113","0","113","0","113","113","0","0","113","113","113","113","Sun Sep 27 11:24:24 2020","600","The main experiment item","yes","FlankerTask.osexp","/Users/shelia/Desktop","no","mono","no","18","no","white","no","yes","768","legacy","33","79","/Users/shelia/Desktop/ST-subject-2.csv","legacy","Lentiform Loewenfeld","3.3.3","0","s","NA","return","h","s","return","NA","s","578","NA","8290","663","2572","2596","NA","578","2","legacy","1024","2","48000","-16","experiment","HHSHH","2","even","5272","220385","NA","NA","316876","212094","304511","2649","307673","317947","2666","NA","318067","318647","317933","318067","Flanker Task","94","82750","114","yes","1024"
"82.6086956521739","82.6086956521739","722.9565217391304","722.9565217391304","black","legacy","legacy","legacy","0","congruent","uniform","1","undefined","1","s","0","0","0","0","114","0","114","0","114","114","0","0","114","114","114","114","Sun Sep 27 11:24:24 2020","600","The main experiment item","yes","FlankerTask.osexp","/Users/shelia/Desktop","no","mono","no","18","no","white","no","yes","768","legacy","34","79","/Users/shelia/Desktop/ST-subject-2.csv","legacy","Lentiform Loewenfeld","3.3.3","0","s","NA","return","h","s","return","NA","s","390","NA","8290","663","2572","2596","NA","390","2","legacy","1024","2","48000","-16","experiment","SSSSS","2","even","5272","220385","NA","NA","318661","212094","304511","2649","307673","319733","2666","NA","319854","320246","319719","319853","Flanker Task","95","83140","115","yes","1024"
"82.75862068965517","82.75862068965517","721.5","721.5","black","legacy","legacy","legacy","0","congruent","uniform","1","undefined","1","h","0","0","0","0","115","0","115","0","115","115","0","0","115","115","115","115","Sun Sep 27 11:24:24 2020","600","The main experiment item","yes","FlankerTask.osexp","/Users/shelia/Desktop","no","mono","no","18","no","white","no","yes","768","legacy","35","79","/Users/shelia/Desktop/ST-subject-2.csv","legacy","Lentiform Loewenfeld","3.3.3","0","h","NA","return","h","s","return","NA","h","554","NA","8290","663","2572","2596","NA","554","2","legacy","1024","2","48000","-16","experiment","HHHHH","2","even","5272","220385","NA","NA","320262","212094","304511","2649","307673","321332","2666","NA","321454","322010","321319","321453","Flanker Task","96","83694","116","yes","1024"
"82.90598290598291","82.90598290598291","720.1794871794872","720.1794871794872","black","legacy","legacy","legacy","0","congruent","uniform","1","undefined","1","s","0","0","0","0","116","0","116","0","116","116","0","0","116","116","116","116","Sun Sep 27 11:24:24 2020","600","The main experiment item","yes","FlankerTask.osexp","/Users/shelia/Desktop","no","mono","no","18","no","white","no","yes","768","legacy","36","79","/Users/shelia/Desktop/ST-subject-2.csv","legacy","Lentiform Loewenfeld","3.3.3","0","s","NA","return","h","s","return","NA","s","567","NA","8290","663","2572","2596","NA","567","2","legacy","1024","2","48000","-16","experiment","SSSSS","2","even","5272","220385","NA","NA","322024","212094","304511","2649","307673","323094","2666","NA","323214","323782","323081","323214","Flanker Task","97","84261","117","yes","1024"
"82.20338983050847","82.20338983050847","717.7881355932203","717.7881355932203","black","legacy","legacy","legacy","0","congruent","uniform","0","undefined","0","h","0","0","0","0","117","0","117","0","117","117","0","0","117","117","117","117","Sun Sep 27 11:24:24 2020","600","The main experiment item","yes","FlankerTask.osexp","/Users/shelia/Desktop","no","mono","no","18","no","white","no","yes","768","legacy","37","79","/Users/shelia/Desktop/ST-subject-2.csv","legacy","Lentiform Loewenfeld","3.3.3","0","s","NA","return","h","s","return","NA","s","438","NA","8290","663","2572","2596","NA","438","2","legacy","1024","2","48000","-16","experiment","HHHHH","2","even","5272","220385","NA","NA","323797","212094","304511","2649","307673","324868","2666","NA","324988","325428","324855","324988","Flanker Task","97","84699","118","yes","1024"
"82.3529411764706","82.3529411764706","716.1848739495798","716.1848739495798","black","legacy","legacy","legacy","0","congruent","uniform","1","undefined","1","h","0","0","0","0","118","0","118","0","118","118","0","0","118","118","118","118","Sun Sep 27 11:24:24 2020","600","The main experiment item","yes","FlankerTask.osexp","/Users/shelia/Desktop","no","mono","no","18","no","white","no","yes","768","legacy","38","79","/Users/shelia/Desktop/ST-subject-2.csv","legacy","Lentiform Loewenfeld","3.3.3","0","h","NA","return","h","h","return","NA","h","527","NA","8290","862","589","2596","NA","527","2","legacy","1024","2","48000","-16","experiment","HHHHH","2","even","5272","220385","NA","NA","326923","212094","325442","2649","326319","327992","2666","NA","328112","328640","327979","328112","Flanker Task","98","85226","119","yes","1024"
