"acc","accuracy","average_response_time","avg_rt","background","canvas_backend","clock_backend","color_backend","compensation","condition","coordinates","correct","correct_instructions1","correct_keyboard_response","correct_response","count_ISI","count_Sequence","count_block1","count_block2","count_block3","count_errorFeedback","count_experiment","count_faster","count_finish","count_fixation","count_instructions1","count_instructions2","count_instructions3","count_keyboard_response","count_logger","count_stimulus","datetime","deadline","description","disable_garbage_collection","experiment_file","experiment_path","font_bold","font_family","font_italic","font_size","font_underline","foreground","form_clicks","fullscreen","height","keyboard_backend","live_row","live_row_block1","logfile","mouse_backend","opensesame_codename","opensesame_version","repeat_cycle","response","response_finish","response_instructions1","response_instructions2","response_instructions3","response_keyboard_response","response_time","response_time_finish","response_time_instructions1","response_time_instructions2","response_time_instructions3","response_time_keyboard_response","round_decimals","sampler_backend","sound_buf_size","sound_channels","sound_freq","sound_sample_size","start","stimulus","subject_nr","subject_parity","time_ISI","time_Sequence","time_block1","time_block2","time_block3","time_errorFeedback","time_experiment","time_faster","time_finish","time_fixation","time_instructions1","time_instructions2","time_instructions3","time_keyboard_response","time_logger","time_stimulus","title","total_correct","total_response_time","total_responses","uniform_coordinates","width"
"0","0","1500","1500","black","legacy","legacy","legacy","0","incongruent","uniform","0","undefined","0","s","0","0","0","0","0","0","0","0","0","0","0","0","0","0","0","0","Sat Sep 18 16:35:00 2021","1500","The main experiment item","yes","FlankerTask.osexp","C:/Users/User/Desktop/School/Research Methods","no","mono","no","18","no","white","no","yes","768","legacy","0","0","C:/Users/User/Desktop/School/Research Methods/LW-subject-1.csv","legacy","Lentiform Loewenfeld","3.3.9","0","None","NA","h","NA","NA","None","1500","NA","2048","NA","NA","1500","2","legacy","1024","2","48000","-16","experiment","HHSHH","1","odd","NA","4033","3958","NA","NA","NA","1903","NA","NA","4035","1909","NA","NA","4137","5637","4137","Flanker Task","0","1500","1","yes","1024"
"50","50","1009","1009","black","legacy","legacy","legacy","0","congruent","uniform","1","undefined","1","h","1","1","0","0","0","1","0","1","0","1","0","0","0","1","1","1","Sat Sep 18 16:35:00 2021","1500","The main experiment item","yes","FlankerTask.osexp","C:/Users/User/Desktop/School/Research Methods","no","mono","no","18","no","white","no","yes","768","legacy","1","1","C:/Users/User/Desktop/School/Research Methods/LW-subject-1.csv","legacy","Lentiform Loewenfeld","3.3.9","0","h","NA","h","NA","NA","h","518","NA","2048","NA","NA","518","2","legacy","1024","2","48000","-16","experiment","HHHHH","1","odd","6147","7221","3958","NA","NA","5645","1903","NA","NA","7223","1909","NA","NA","7326","7845","7326","Flanker Task","1","2018","2","yes","1024"
"66.66666666666667","66.66666666666667","789.6666666666666","789.6666666666666","black","legacy","legacy","legacy","0","congruent","uniform","1","undefined","1","h","2","2","0","0","0","2","0","2","0","2","0","0","0","2","2","2","Sat Sep 18 16:35:00 2021","1500","The main experiment item","yes","FlankerTask.osexp","C:/Users/User/Desktop/School/Research Methods","no","mono","no","18","no","white","no","yes","768","legacy","2","2","C:/Users/User/Desktop/School/Research Methods/LW-subject-1.csv","legacy","Lentiform Loewenfeld","3.3.9","0","h","NA","h","NA","NA","h","351","NA","2048","NA","NA","351","2","legacy","1024","2","48000","-16","experiment","HHHHH","1","odd","7849","8923","3958","NA","NA","5645","1903","NA","NA","8926","1909","NA","NA","9028","9379","9028","Flanker Task","2","2369","3","yes","1024"
"75","75","677.5","677.5","black","legacy","legacy","legacy","0","congruent","uniform","1","undefined","1","h","3","3","0","0","0","3","0","3","0","3","0","0","0","3","3","3","Sat Sep 18 16:35:00 2021","1500","The main experiment item","yes","FlankerTask.osexp","C:/Users/User/Desktop/School/Research Methods","no","mono","no","18","no","white","no","yes","768","legacy","3","3","C:/Users/User/Desktop/School/Research Methods/LW-subject-1.csv","legacy","Lentiform Loewenfeld","3.3.9","0","h","NA","h","NA","NA","h","341","NA","2048","NA","NA","341","2","legacy","1024","2","48000","-16","experiment","HHHHH","1","odd","9383","10459","3958","NA","NA","5645","1903","NA","NA","10462","1909","NA","NA","10564","10906","10564","Flanker Task","3","2710","4","yes","1024"
"60","60","604.2","604.2","black","legacy","legacy","legacy","0","incongruent","uniform","0","undefined","0","s","4","4","0","0","0","4","0","4","0","4","0","0","0","4","4","4","Sat Sep 18 16:35:00 2021","1500","The main experiment item","yes","FlankerTask.osexp","C:/Users/User/Desktop/School/Research Methods","no","mono","no","18","no","white","no","yes","768","legacy","4","4","C:/Users/User/Desktop/School/Research Methods/LW-subject-1.csv","legacy","Lentiform Loewenfeld","3.3.9","0","h","NA","h","NA","NA","h","311","NA","2048","NA","NA","311","2","legacy","1024","2","48000","-16","experiment","HHSHH","1","odd","10910","11985","3958","NA","NA","5645","1903","NA","NA","11988","1909","NA","NA","12090","12402","12090","Flanker Task","3","3021","5","yes","1024"
"66.66666666666667","66.66666666666667","560.5","560.5","black","legacy","legacy","legacy","0","congruent","uniform","1","undefined","1","h","5","5","0","0","0","5","0","5","0","5","0","0","0","5","5","5","Sat Sep 18 16:35:00 2021","1500","The main experiment item","yes","FlankerTask.osexp","C:/Users/User/Desktop/School/Research Methods","no","mono","no","18","no","white","no","yes","768","legacy","5","5","C:/Users/User/Desktop/School/Research Methods/LW-subject-1.csv","legacy","Lentiform Loewenfeld","3.3.9","0","h","NA","h","NA","NA","h","342","NA","2048","NA","NA","342","2","legacy","1024","2","48000","-16","experiment","HHHHH","1","odd","12908","13982","3958","NA","NA","12406","1903","NA","NA","13985","1909","NA","NA","14087","14430","14087","Flanker Task","4","3363","6","yes","1024"
"71.42857142857143","71.42857142857143","568.7142857142857","568.7142857142857","black","legacy","legacy","legacy","0","incongruent","uniform","1","undefined","1","h","6","6","0","0","0","6","0","6","0","6","0","0","0","6","6","6","Sat Sep 18 16:35:00 2021","1500","The main experiment item","yes","FlankerTask.osexp","C:/Users/User/Desktop/School/Research Methods","no","mono","no","18","no","white","no","yes","768","legacy","6","6","C:/Users/User/Desktop/School/Research Methods/LW-subject-1.csv","legacy","Lentiform Loewenfeld","3.3.9","0","h","NA","h","NA","NA","h","618","NA","2048","NA","NA","618","2","legacy","1024","2","48000","-16","experiment","SSHSS","1","odd","14434","15510","3958","NA","NA","12406","1903","NA","NA","15512","1909","NA","NA","15614","16233","15614","Flanker Task","5","3981","7","yes","1024"
"75","75","540.125","540.125","black","legacy","legacy","legacy","0","congruent","uniform","1","undefined","1","s","7","7","0","0","0","7","0","7","0","7","0","0","0","7","7","7","Sat Sep 18 16:35:00 2021","1500","The main experiment item","yes","FlankerTask.osexp","C:/Users/User/Desktop/School/Research Methods","no","mono","no","18","no","white","no","yes","768","legacy","7","7","C:/Users/User/Desktop/School/Research Methods/LW-subject-1.csv","legacy","Lentiform Loewenfeld","3.3.9","0","s","NA","h","NA","NA","s","340","NA","2048","NA","NA","340","2","legacy","1024","2","48000","-16","experiment","SSSSS","1","odd","16237","17311","3958","NA","NA","12406","1903","NA","NA","17314","1909","NA","NA","17416","17756","17416","Flanker Task","6","4321","8","yes","1024"
"77.77777777777777","77.77777777777777","520.5555555555555","520.5555555555555","black","legacy","legacy","legacy","0","incongruent","uniform","1","undefined","1","s","8","8","0","0","0","8","0","8","0","8","0","0","0","8","8","8","Sat Sep 18 16:35:00 2021","1500","The main experiment item","yes","FlankerTask.osexp","C:/Users/User/Desktop/School/Research Methods","no","mono","no","18","no","white","no","yes","768","legacy","8","8","C:/Users/User/Desktop/School/Research Methods/LW-subject-1.csv","legacy","Lentiform Loewenfeld","3.3.9","0","s","NA","h","NA","NA","s","364","NA","2048","NA","NA","364","2","legacy","1024","2","48000","-16","experiment","HHSHH","1","odd","17761","18835","3958","NA","NA","12406","1903","NA","NA","18838","1909","NA","NA","18940","19305","18940","Flanker Task","7","4685","9","yes","1024"
"80","80","500","500","black","legacy","legacy","legacy","0","congruent","uniform","1","undefined","1","s","9","9","0","0","0","9","0","9","0","9","0","0","0","9","9","9","Sat Sep 18 16:35:00 2021","1500","The main experiment item","yes","FlankerTask.osexp","C:/Users/User/Desktop/School/Research Methods","no","mono","no","18","no","white","no","yes","768","legacy","9","9","C:/Users/User/Desktop/School/Research Methods/LW-subject-1.csv","legacy","Lentiform Loewenfeld","3.3.9","0","s","NA","h","NA","NA","s","315","NA","2048","NA","NA","315","2","legacy","1024","2","48000","-16","experiment","SSSSS","1","odd","19310","20384","3958","NA","NA","12406","1903","NA","NA","20387","1909","NA","NA","20489","20805","20489","Flanker Task","8","5000","10","yes","1024"
"72.72727272727273","72.72727272727273","481","481","black","legacy","legacy","legacy","0","incongruent","uniform","0","undefined","0","h","10","10","0","0","0","10","0","10","0","10","0","0","0","10","10","10","Sat Sep 18 16:35:00 2021","1500","The main experiment item","yes","FlankerTask.osexp","C:/Users/User/Desktop/School/Research Methods","no","mono","no","18","no","white","no","yes","768","legacy","10","10","C:/Users/User/Desktop/School/Research Methods/LW-subject-1.csv","legacy","Lentiform Loewenfeld","3.3.9","0","s","NA","h","NA","NA","s","291","NA","2048","NA","NA","291","2","legacy","1024","2","48000","-16","experiment","SSHSS","1","odd","20809","21883","3958","NA","NA","12406","1903","NA","NA","21886","1909","NA","NA","21988","22279","21988","Flanker Task","8","5291","11","yes","1024"
"75","75","482.25","482.25","black","legacy","legacy","legacy","0","incongruent","uniform","1","undefined","1","h","11","11","0","0","0","11","0","11","0","11","0","0","0","11","11","11","Sat Sep 18 16:35:00 2021","1500","The main experiment item","yes","FlankerTask.osexp","C:/Users/User/Desktop/School/Research Methods","no","mono","no","18","no","white","no","yes","768","legacy","11","11","C:/Users/User/Desktop/School/Research Methods/LW-subject-1.csv","legacy","Lentiform Loewenfeld","3.3.9","0","h","NA","h","NA","NA","h","496","NA","2048","NA","NA","496","2","legacy","1024","2","48000","-16","experiment","SSHSS","1","odd","22785","23866","3958","NA","NA","22283","1903","NA","NA","23869","1909","NA","NA","23971","24468","23971","Flanker Task","9","5787","12","yes","1024"
"76.92307692307692","76.92307692307692","481.3076923076923","481.3076923076923","black","legacy","legacy","legacy","0","incongruent","uniform","1","undefined","1","s","12","12","0","0","0","12","0","12","0","12","0","0","0","12","12","12","Sat Sep 18 16:35:00 2021","1500","The main experiment item","yes","FlankerTask.osexp","C:/Users/User/Desktop/School/Research Methods","no","mono","no","18","no","white","no","yes","768","legacy","12","12","C:/Users/User/Desktop/School/Research Methods/LW-subject-1.csv","legacy","Lentiform Loewenfeld","3.3.9","0","s","NA","h","NA","NA","s","470","NA","2048","NA","NA","470","2","legacy","1024","2","48000","-16","experiment","HHSHH","1","odd","24472","25547","3958","NA","NA","22283","1903","NA","NA","25550","1909","NA","NA","25652","26123","25652","Flanker Task","10","6257","13","yes","1024"
"78.57142857142857","78.57142857142857","482.57142857142856","482.57142857142856","black","legacy","legacy","legacy","0","incongruent","uniform","1","undefined","1","h","13","13","0","0","0","13","0","13","0","13","0","0","0","13","13","13","Sat Sep 18 16:35:00 2021","1500","The main experiment item","yes","FlankerTask.osexp","C:/Users/User/Desktop/School/Research Methods","no","mono","no","18","no","white","no","yes","768","legacy","13","13","C:/Users/User/Desktop/School/Research Methods/LW-subject-1.csv","legacy","Lentiform Loewenfeld","3.3.9","0","h","NA","h","NA","NA","h","499","NA","2048","NA","NA","499","2","legacy","1024","2","48000","-16","experiment","SSHSS","1","odd","26127","27202","3958","NA","NA","22283","1903","NA","NA","27205","1909","NA","NA","27307","27806","27307","Flanker Task","11","6756","14","yes","1024"
"80","80","477.2","477.2","black","legacy","legacy","legacy","0","congruent","uniform","1","undefined","1","s","14","14","0","0","0","14","0","14","0","14","0","0","0","14","14","14","Sat Sep 18 16:35:00 2021","1500","The main experiment item","yes","FlankerTask.osexp","C:/Users/User/Desktop/School/Research Methods","no","mono","no","18","no","white","no","yes","768","legacy","14","14","C:/Users/User/Desktop/School/Research Methods/LW-subject-1.csv","legacy","Lentiform Loewenfeld","3.3.9","0","s","NA","h","NA","NA","s","402","NA","2048","NA","NA","402","2","legacy","1024","2","48000","-16","experiment","SSSSS","1","odd","27811","28885","3958","NA","NA","22283","1903","NA","NA","28887","1909","NA","NA","28989","29392","28989","Flanker Task","12","7158","15","yes","1024"
"81.25","81.25","488.5625","488.5625","black","legacy","legacy","legacy","0","congruent","uniform","1","undefined","1","s","15","15","0","0","0","15","0","15","0","15","0","0","0","15","15","15","Sat Sep 18 16:35:00 2021","1500","The main experiment item","yes","FlankerTask.osexp","C:/Users/User/Desktop/School/Research Methods","no","mono","no","18","no","white","no","yes","768","legacy","15","15","C:/Users/User/Desktop/School/Research Methods/LW-subject-1.csv","legacy","Lentiform Loewenfeld","3.3.9","0","s","NA","h","NA","NA","s","659","NA","2048","NA","NA","659","2","legacy","1024","2","48000","-16","experiment","SSSSS","1","odd","29396","30470","3958","NA","NA","22283","1903","NA","NA","30473","1909","NA","NA","30575","31235","30575","Flanker Task","13","7817","16","yes","1024"
"82.3529411764706","82.3529411764706","488.5882352941176","488.5882352941176","black","legacy","legacy","legacy","0","incongruent","uniform","1","undefined","1","h","16","16","0","0","0","16","0","16","0","16","0","0","0","16","16","16","Sat Sep 18 16:35:00 2021","1500","The main experiment item","yes","FlankerTask.osexp","C:/Users/User/Desktop/School/Research Methods","no","mono","no","18","no","white","no","yes","768","legacy","16","16","C:/Users/User/Desktop/School/Research Methods/LW-subject-1.csv","legacy","Lentiform Loewenfeld","3.3.9","0","h","NA","h","NA","NA","h","489","NA","2048","NA","NA","489","2","legacy","1024","2","48000","-16","experiment","SSHSS","1","odd","31239","32313","3958","NA","NA","22283","1903","NA","NA","32316","1909","NA","NA","32418","32908","32418","Flanker Task","14","8306","17","yes","1024"
"83.33333333333333","83.33333333333333","483.6666666666667","483.6666666666667","black","legacy","legacy","legacy","0","incongruent","uniform","1","undefined","1","h","17","17","0","0","0","17","0","17","0","17","0","0","0","17","17","17","Sat Sep 18 16:35:00 2021","1500","The main experiment item","yes","FlankerTask.osexp","C:/Users/User/Desktop/School/Research Methods","no","mono","no","18","no","white","no","yes","768","legacy","17","17","C:/Users/User/Desktop/School/Research Methods/LW-subject-1.csv","legacy","Lentiform Loewenfeld","3.3.9","0","h","NA","h","NA","NA","h","400","NA","2048","NA","NA","400","2","legacy","1024","2","48000","-16","experiment","SSHSS","1","odd","32912","33991","3958","NA","NA","22283","1903","NA","NA","33994","1909","NA","NA","34096","34497","34096","Flanker Task","15","8706","18","yes","1024"
"84.21052631578948","84.21052631578948","476.89473684210526","476.89473684210526","black","legacy","legacy","legacy","0","congruent","uniform","1","undefined","1","h","18","18","0","0","0","18","0","18","0","18","0","0","0","18","18","18","Sat Sep 18 16:35:00 2021","1500","The main experiment item","yes","FlankerTask.osexp","C:/Users/User/Desktop/School/Research Methods","no","mono","no","18","no","white","no","yes","768","legacy","18","18","C:/Users/User/Desktop/School/Research Methods/LW-subject-1.csv","legacy","Lentiform Loewenfeld","3.3.9","0","h","NA","h","NA","NA","h","355","NA","2048","NA","NA","355","2","legacy","1024","2","48000","-16","experiment","HHHHH","1","odd","34501","35579","3958","NA","NA","22283","1903","NA","NA","35581","1909","NA","NA","35683","36039","35683","Flanker Task","16","9061","19","yes","1024"
"85","85","476","476","black","legacy","legacy","legacy","0","incongruent","uniform","1","undefined","1","s","19","19","0","0","0","19","0","19","0","19","0","0","0","19","19","19","Sat Sep 18 16:35:00 2021","1500","The main experiment item","yes","FlankerTask.osexp","C:/Users/User/Desktop/School/Research Methods","no","mono","no","18","no","white","no","yes","768","legacy","19","19","C:/Users/User/Desktop/School/Research Methods/LW-subject-1.csv","legacy","Lentiform Loewenfeld","3.3.9","0","s","NA","h","NA","NA","s","459","NA","2048","NA","NA","459","2","legacy","1024","2","48000","-16","experiment","HHSHH","1","odd","36044","37122","3958","NA","NA","22283","1903","NA","NA","37125","1909","NA","NA","37227","37687","37227","Flanker Task","17","9520","20","yes","1024"
"85.71428571428571","85.71428571428571","471.4761904761905","471.4761904761905","black","legacy","legacy","legacy","0","congruent","uniform","1","undefined","1","s","20","20","0","0","0","20","0","20","0","20","0","0","0","20","20","20","Sat Sep 18 16:35:00 2021","1500","The main experiment item","yes","FlankerTask.osexp","C:/Users/User/Desktop/School/Research Methods","no","mono","no","18","no","white","no","yes","768","legacy","20","20","C:/Users/User/Desktop/School/Research Methods/LW-subject-1.csv","legacy","Lentiform Loewenfeld","3.3.9","0","s","NA","h","NA","NA","s","381","NA","2048","NA","NA","381","2","legacy","1024","2","48000","-16","experiment","SSSSS","1","odd","37691","38766","3958","NA","NA","22283","1903","NA","NA","38768","1909","NA","NA","38870","39252","38870","Flanker Task","18","9901","21","yes","1024"
"86.36363636363636","86.36363636363636","470.95454545454544","470.95454545454544","black","legacy","legacy","legacy","0","incongruent","uniform","1","undefined","1","h","21","21","0","0","0","21","0","21","0","21","0","0","0","21","21","21","Sat Sep 18 16:35:00 2021","1500","The main experiment item","yes","FlankerTask.osexp","C:/Users/User/Desktop/School/Research Methods","no","mono","no","18","no","white","no","yes","768","legacy","21","21","C:/Users/User/Desktop/School/Research Methods/LW-subject-1.csv","legacy","Lentiform Loewenfeld","3.3.9","0","h","NA","h","NA","NA","h","460","NA","2048","NA","NA","460","2","legacy","1024","2","48000","-16","experiment","SSHSS","1","odd","39255","40330","3958","NA","NA","22283","1903","NA","NA","40332","1909","NA","NA","40434","40895","40434","Flanker Task","19","10361","22","yes","1024"
"86.95652173913044","86.95652173913044","470.30434782608694","470.30434782608694","black","legacy","legacy","legacy","0","incongruent","uniform","1","undefined","1","h","22","22","0","0","0","22","0","22","0","22","0","0","0","22","22","22","Sat Sep 18 16:35:00 2021","1500","The main experiment item","yes","FlankerTask.osexp","C:/Users/User/Desktop/School/Research Methods","no","mono","no","18","no","white","no","yes","768","legacy","22","22","C:/Users/User/Desktop/School/Research Methods/LW-subject-1.csv","legacy","Lentiform Loewenfeld","3.3.9","0","h","NA","h","NA","NA","h","456","NA","2048","NA","NA","456","2","legacy","1024","2","48000","-16","experiment","SSHSS","1","odd","40899","41976","3958","NA","NA","22283","1903","NA","NA","41979","1909","NA","NA","42081","42538","42081","Flanker Task","20","10817","23","yes","1024"
"87.5","87.5","465.4166666666667","465.4166666666667","black","legacy","legacy","legacy","0","congruent","uniform","1","undefined","1","h","23","23","0","0","0","23","0","23","0","23","0","0","0","23","23","23","Sat Sep 18 16:35:00 2021","1500","The main experiment item","yes","FlankerTask.osexp","C:/Users/User/Desktop/School/Research Methods","no","mono","no","18","no","white","no","yes","768","legacy","23","23","C:/Users/User/Desktop/School/Research Methods/LW-subject-1.csv","legacy","Lentiform Loewenfeld","3.3.9","0","h","NA","h","NA","NA","h","353","NA","2048","NA","NA","353","2","legacy","1024","2","48000","-16","experiment","HHHHH","1","odd","42542","43618","3958","NA","NA","22283","1903","NA","NA","43620","1909","NA","NA","43722","44077","43722","Flanker Task","21","11170","24","yes","1024"
"84","84","460.6","460.6","black","legacy","legacy","legacy","0","incongruent","uniform","0","undefined","0","s","24","24","0","0","0","24","0","24","0","24","0","0","0","24","24","24","Sat Sep 18 16:35:00 2021","1500","The main experiment item","yes","FlankerTask.osexp","C:/Users/User/Desktop/School/Research Methods","no","mono","no","18","no","white","no","yes","768","legacy","24","24","C:/Users/User/Desktop/School/Research Methods/LW-subject-1.csv","legacy","Lentiform Loewenfeld","3.3.9","0","h","NA","h","NA","NA","h","345","NA","2048","NA","NA","345","2","legacy","1024","2","48000","-16","experiment","HHSHH","1","odd","44081","45156","3958","NA","NA","22283","1903","NA","NA","45159","1909","NA","NA","45261","45607","45261","Flanker Task","21","11515","25","yes","1024"
"84.61538461538461","84.61538461538461","459.38461538461536","459.38461538461536","black","legacy","legacy","legacy","0","congruent","uniform","1","undefined","1","h","25","25","0","0","0","25","0","25","0","25","0","0","0","25","25","25","Sat Sep 18 16:35:00 2021","1500","The main experiment item","yes","FlankerTask.osexp","C:/Users/User/Desktop/School/Research Methods","no","mono","no","18","no","white","no","yes","768","legacy","25","25","C:/Users/User/Desktop/School/Research Methods/LW-subject-1.csv","legacy","Lentiform Loewenfeld","3.3.9","0","h","NA","h","NA","NA","h","429","NA","2048","NA","NA","429","2","legacy","1024","2","48000","-16","experiment","HHHHH","1","odd","46113","47189","3958","NA","NA","45611","1903","NA","NA","47191","1909","NA","NA","47293","47723","47293","Flanker Task","22","11944","26","yes","1024"
"85.18518518518519","85.18518518518519","455.962962962963","455.962962962963","black","legacy","legacy","legacy","0","congruent","uniform","1","undefined","1","h","26","26","0","0","0","26","0","26","0","26","0","0","0","26","26","26","Sat Sep 18 16:35:00 2021","1500","The main experiment item","yes","FlankerTask.osexp","C:/Users/User/Desktop/School/Research Methods","no","mono","no","18","no","white","no","yes","768","legacy","26","26","C:/Users/User/Desktop/School/Research Methods/LW-subject-1.csv","legacy","Lentiform Loewenfeld","3.3.9","0","h","NA","h","NA","NA","h","367","NA","2048","NA","NA","367","2","legacy","1024","2","48000","-16","experiment","HHHHH","1","odd","47727","48802","3958","NA","NA","45611","1903","NA","NA","48804","1909","NA","NA","48906","49274","48906","Flanker Task","23","12311","27","yes","1024"
"85.71428571428571","85.71428571428571","454.35714285714283","454.35714285714283","black","legacy","legacy","legacy","0","incongruent","uniform","1","undefined","1","s","27","27","0","0","0","27","0","27","0","27","0","0","0","27","27","27","Sat Sep 18 16:35:00 2021","1500","The main experiment item","yes","FlankerTask.osexp","C:/Users/User/Desktop/School/Research Methods","no","mono","no","18","no","white","no","yes","768","legacy","27","27","C:/Users/User/Desktop/School/Research Methods/LW-subject-1.csv","legacy","Lentiform Loewenfeld","3.3.9","0","s","NA","h","NA","NA","s","411","NA","2048","NA","NA","411","2","legacy","1024","2","48000","-16","experiment","HHSHH","1","odd","49279","50354","3958","NA","NA","45611","1903","NA","NA","50356","1909","NA","NA","50458","50870","50458","Flanker Task","24","12722","28","yes","1024"
"86.20689655172414","86.20689655172414","450.3448275862069","450.3448275862069","black","legacy","legacy","legacy","0","congruent","uniform","1","undefined","1","s","28","28","0","0","0","28","0","28","0","28","0","0","0","28","28","28","Sat Sep 18 16:35:00 2021","1500","The main experiment item","yes","FlankerTask.osexp","C:/Users/User/Desktop/School/Research Methods","no","mono","no","18","no","white","no","yes","768","legacy","28","28","C:/Users/User/Desktop/School/Research Methods/LW-subject-1.csv","legacy","Lentiform Loewenfeld","3.3.9","0","s","NA","h","NA","NA","s","338","NA","2048","NA","NA","338","2","legacy","1024","2","48000","-16","experiment","SSSSS","1","odd","50874","51950","3958","NA","NA","45611","1903","NA","NA","51952","1909","NA","NA","52054","52393","52054","Flanker Task","25","13060","29","yes","1024"
"86.66666666666667","86.66666666666667","445.56666666666666","445.56666666666666","black","legacy","legacy","legacy","0","congruent","uniform","1","undefined","1","s","29","29","0","0","0","29","0","29","0","29","0","0","0","29","29","29","Sat Sep 18 16:35:00 2021","1500","The main experiment item","yes","FlankerTask.osexp","C:/Users/User/Desktop/School/Research Methods","no","mono","no","18","no","white","no","yes","768","legacy","29","29","C:/Users/User/Desktop/School/Research Methods/LW-subject-1.csv","legacy","Lentiform Loewenfeld","3.3.9","0","s","NA","h","NA","NA","s","307","NA","2048","NA","NA","307","2","legacy","1024","2","48000","-16","experiment","SSSSS","1","odd","52397","53472","3958","NA","NA","45611","1903","NA","NA","53474","1909","NA","NA","53576","53884","53576","Flanker Task","26","13367","30","yes","1024"
"87.09677419354838","87.09677419354838","441.38709677419354","441.38709677419354","black","legacy","legacy","legacy","0","congruent","uniform","1","undefined","1","s","30","30","0","0","0","30","0","30","0","30","0","0","0","30","30","30","Sat Sep 18 16:35:00 2021","1500","The main experiment item","yes","FlankerTask.osexp","C:/Users/User/Desktop/School/Research Methods","no","mono","no","18","no","white","no","yes","768","legacy","30","30","C:/Users/User/Desktop/School/Research Methods/LW-subject-1.csv","legacy","Lentiform Loewenfeld","3.3.9","0","s","NA","h","NA","NA","s","316","NA","2048","NA","NA","316","2","legacy","1024","2","48000","-16","experiment","SSSSS","1","odd","53887","54962","3958","NA","NA","45611","1903","NA","NA","54965","1909","NA","NA","55067","55384","55067","Flanker Task","27","13683","31","yes","1024"
"87.5","87.5","437.375","437.375","black","legacy","legacy","legacy","0","incongruent","uniform","1","undefined","1","s","31","31","0","0","0","31","0","31","0","31","0","0","0","31","31","31","Sat Sep 18 16:35:00 2021","1500","The main experiment item","yes","FlankerTask.osexp","C:/Users/User/Desktop/School/Research Methods","no","mono","no","18","no","white","no","yes","768","legacy","31","31","C:/Users/User/Desktop/School/Research Methods/LW-subject-1.csv","legacy","Lentiform Loewenfeld","3.3.9","0","s","NA","h","NA","NA","s","313","NA","2048","NA","NA","313","2","legacy","1024","2","48000","-16","experiment","HHSHH","1","odd","55388","56463","3958","NA","NA","45611","1903","NA","NA","56466","1909","NA","NA","56568","56882","56568","Flanker Task","28","13996","32","yes","1024"
"87.87878787878788","87.87878787878788","435.42424242424244","435.42424242424244","black","legacy","legacy","legacy","0","congruent","uniform","1","undefined","1","h","32","32","0","0","0","32","0","32","0","32","0","0","0","32","32","32","Sat Sep 18 16:35:00 2021","1500","The main experiment item","yes","FlankerTask.osexp","C:/Users/User/Desktop/School/Research Methods","no","mono","no","18","no","white","no","yes","768","legacy","32","32","C:/Users/User/Desktop/School/Research Methods/LW-subject-1.csv","legacy","Lentiform Loewenfeld","3.3.9","0","h","NA","h","NA","NA","h","373","NA","2048","NA","NA","373","2","legacy","1024","2","48000","-16","experiment","HHHHH","1","odd","56887","57961","3958","NA","NA","45611","1903","NA","NA","57964","1909","NA","NA","58066","58439","58066","Flanker Task","29","14369","33","yes","1024"
"88.23529411764706","88.23529411764706","435.3235294117647","435.3235294117647","black","legacy","legacy","legacy","0","incongruent","uniform","1","undefined","1","h","33","33","0","0","0","33","0","33","0","33","0","0","0","33","33","33","Sat Sep 18 16:35:00 2021","1500","The main experiment item","yes","FlankerTask.osexp","C:/Users/User/Desktop/School/Research Methods","no","mono","no","18","no","white","no","yes","768","legacy","33","33","C:/Users/User/Desktop/School/Research Methods/LW-subject-1.csv","legacy","Lentiform Loewenfeld","3.3.9","0","h","NA","h","NA","NA","h","432","NA","2048","NA","NA","432","2","legacy","1024","2","48000","-16","experiment","SSHSS","1","odd","58444","59519","3958","NA","NA","45611","1903","NA","NA","59522","1909","NA","NA","59624","60057","59624","Flanker Task","30","14801","34","yes","1024"
"88.57142857142857","88.57142857142857","432.8285714285714","432.8285714285714","black","legacy","legacy","legacy","0","congruent","uniform","1","undefined","1","h","34","34","0","0","0","34","0","34","0","34","0","0","0","34","34","34","Sat Sep 18 16:35:00 2021","1500","The main experiment item","yes","FlankerTask.osexp","C:/Users/User/Desktop/School/Research Methods","no","mono","no","18","no","white","no","yes","768","legacy","34","34","C:/Users/User/Desktop/School/Research Methods/LW-subject-1.csv","legacy","Lentiform Loewenfeld","3.3.9","0","h","NA","h","NA","NA","h","348","NA","2048","NA","NA","348","2","legacy","1024","2","48000","-16","experiment","HHHHH","1","odd","60061","61137","3958","NA","NA","45611","1903","NA","NA","61140","1909","NA","NA","61242","61591","61242","Flanker Task","31","15149","35","yes","1024"
"88.88888888888889","88.88888888888889","432","432","black","legacy","legacy","legacy","0","incongruent","uniform","1","undefined","1","s","35","35","0","0","0","35","0","35","0","35","0","0","0","35","35","35","Sat Sep 18 16:35:00 2021","1500","The main experiment item","yes","FlankerTask.osexp","C:/Users/User/Desktop/School/Research Methods","no","mono","no","18","no","white","no","yes","768","legacy","35","35","C:/Users/User/Desktop/School/Research Methods/LW-subject-1.csv","legacy","Lentiform Loewenfeld","3.3.9","0","s","NA","h","NA","NA","s","403","NA","2048","NA","NA","403","2","legacy","1024","2","48000","-16","experiment","HHSHH","1","odd","61595","62669","3958","NA","NA","45611","1903","NA","NA","62672","1909","NA","NA","62774","63178","62774","Flanker Task","32","15552","36","yes","1024"
"89.1891891891892","89.1891891891892","430.97297297297297","430.97297297297297","black","legacy","legacy","legacy","0","congruent","uniform","1","undefined","1","s","36","36","0","0","0","36","0","36","0","36","0","0","0","36","36","36","Sat Sep 18 16:35:00 2021","1500","The main experiment item","yes","FlankerTask.osexp","C:/Users/User/Desktop/School/Research Methods","no","mono","no","18","no","white","no","yes","768","legacy","36","36","C:/Users/User/Desktop/School/Research Methods/LW-subject-1.csv","legacy","Lentiform Loewenfeld","3.3.9","0","s","NA","h","NA","NA","s","394","NA","2048","NA","NA","394","2","legacy","1024","2","48000","-16","experiment","SSSSS","1","odd","63182","64256","3958","NA","NA","45611","1903","NA","NA","64259","1909","NA","NA","64361","64756","64361","Flanker Task","33","15946","37","yes","1024"
"89.47368421052632","89.47368421052632","427.55263157894734","427.55263157894734","black","legacy","legacy","legacy","0","incongruent","uniform","1","undefined","1","s","37","37","0","0","0","37","0","37","0","37","0","0","0","37","37","37","Sat Sep 18 16:35:00 2021","1500","The main experiment item","yes","FlankerTask.osexp","C:/Users/User/Desktop/School/Research Methods","no","mono","no","18","no","white","no","yes","768","legacy","37","37","C:/Users/User/Desktop/School/Research Methods/LW-subject-1.csv","legacy","Lentiform Loewenfeld","3.3.9","0","s","NA","h","NA","NA","s","301","NA","2048","NA","NA","301","2","legacy","1024","2","48000","-16","experiment","HHSHH","1","odd","64760","65834","3958","NA","NA","45611","1903","NA","NA","65837","1909","NA","NA","65939","66241","65939","Flanker Task","34","16247","38","yes","1024"
"89.74358974358974","89.74358974358974","426.79487179487177","426.79487179487177","black","legacy","legacy","legacy","0","congruent","uniform","1","undefined","1","h","38","38","0","0","0","38","0","38","0","38","0","0","0","38","38","38","Sat Sep 18 16:35:00 2021","1500","The main experiment item","yes","FlankerTask.osexp","C:/Users/User/Desktop/School/Research Methods","no","mono","no","18","no","white","no","yes","768","legacy","38","38","C:/Users/User/Desktop/School/Research Methods/LW-subject-1.csv","legacy","Lentiform Loewenfeld","3.3.9","0","h","NA","h","NA","NA","h","398","NA","2048","NA","NA","398","2","legacy","1024","2","48000","-16","experiment","HHHHH","1","odd","66245","67322","3958","NA","NA","45611","1903","NA","NA","67324","1909","NA","NA","67426","67825","67426","Flanker Task","35","16645","39","yes","1024"
"90","90","425.4","425.4","black","legacy","legacy","legacy","0","congruent","uniform","1","undefined","1","s","39","39","0","0","0","39","0","39","0","39","0","0","0","39","39","39","Sat Sep 18 16:35:00 2021","1500","The main experiment item","yes","FlankerTask.osexp","C:/Users/User/Desktop/School/Research Methods","no","mono","no","18","no","white","no","yes","768","legacy","39","39","C:/Users/User/Desktop/School/Research Methods/LW-subject-1.csv","legacy","Lentiform Loewenfeld","3.3.9","0","s","NA","h","NA","NA","s","371","NA","2048","NA","NA","371","2","legacy","1024","2","48000","-16","experiment","SSSSS","1","odd","67829","68903","3958","NA","NA","45611","1903","NA","NA","68906","1909","NA","NA","69008","69380","69008","Flanker Task","36","17016","40","yes","1024"
"90.2439024390244","90.2439024390244","426.5365853658537","426.5365853658537","black","legacy","legacy","legacy","0","congruent","uniform","1","undefined","1","h","40","40","0","0","0","40","0","40","0","40","0","0","0","40","40","40","Sat Sep 18 16:35:00 2021","1500","The main experiment item","yes","FlankerTask.osexp","C:/Users/User/Desktop/School/Research Methods","no","mono","no","18","no","white","no","yes","768","legacy","40","40","C:/Users/User/Desktop/School/Research Methods/LW-subject-1.csv","legacy","Lentiform Loewenfeld","3.3.9","0","h","NA","h","NA","NA","h","472","NA","2048","NA","NA","472","2","legacy","1024","2","48000","-16","experiment","HHHHH","1","odd","69384","70458","3958","NA","NA","45611","1903","NA","NA","70461","1909","NA","NA","70563","71036","70563","Flanker Task","37","17488","41","yes","1024"
"88.0952380952381","88.0952380952381","423.42857142857144","423.42857142857144","black","legacy","legacy","legacy","0","incongruent","uniform","0","undefined","0","h","41","41","0","0","0","41","0","41","0","41","0","0","0","41","41","41","Sat Sep 18 16:35:00 2021","1500","The main experiment item","yes","FlankerTask.osexp","C:/Users/User/Desktop/School/Research Methods","no","mono","no","18","no","white","no","yes","768","legacy","41","41","C:/Users/User/Desktop/School/Research Methods/LW-subject-1.csv","legacy","Lentiform Loewenfeld","3.3.9","0","s","NA","h","NA","NA","s","296","NA","2048","NA","NA","296","2","legacy","1024","2","48000","-16","experiment","SSHSS","1","odd","71041","72116","3958","NA","NA","45611","1903","NA","NA","72119","1909","NA","NA","72221","72518","72221","Flanker Task","37","17784","42","yes","1024"
"88.37209302325581","88.37209302325581","424.9767441860465","424.9767441860465","black","legacy","legacy","legacy","0","incongruent","uniform","1","undefined","1","s","42","42","0","0","0","42","0","42","0","42","0","0","0","42","42","42","Sat Sep 18 16:35:00 2021","1500","The main experiment item","yes","FlankerTask.osexp","C:/Users/User/Desktop/School/Research Methods","no","mono","no","18","no","white","no","yes","768","legacy","42","42","C:/Users/User/Desktop/School/Research Methods/LW-subject-1.csv","legacy","Lentiform Loewenfeld","3.3.9","0","s","NA","h","NA","NA","s","490","NA","2048","NA","NA","490","2","legacy","1024","2","48000","-16","experiment","HHSHH","1","odd","73024","74098","3958","NA","NA","72522","1903","NA","NA","74101","1909","NA","NA","74203","74695","74203","Flanker Task","38","18274","43","yes","1024"
"88.63636363636364","88.63636363636364","426.1363636363636","426.1363636363636","black","legacy","legacy","legacy","0","incongruent","uniform","1","undefined","1","h","43","43","0","0","0","43","0","43","0","43","0","0","0","43","43","43","Sat Sep 18 16:35:00 2021","1500","The main experiment item","yes","FlankerTask.osexp","C:/Users/User/Desktop/School/Research Methods","no","mono","no","18","no","white","no","yes","768","legacy","43","43","C:/Users/User/Desktop/School/Research Methods/LW-subject-1.csv","legacy","Lentiform Loewenfeld","3.3.9","0","h","NA","h","NA","NA","h","476","NA","2048","NA","NA","476","2","legacy","1024","2","48000","-16","experiment","SSHSS","1","odd","74699","75774","3958","NA","NA","72522","1903","NA","NA","75776","1909","NA","NA","75878","76355","75878","Flanker Task","39","18750","44","yes","1024"
"88.88888888888889","88.88888888888889","427.3333333333333","427.3333333333333","black","legacy","legacy","legacy","0","incongruent","uniform","1","undefined","1","h","44","44","0","0","0","44","0","44","0","44","0","0","0","44","44","44","Sat Sep 18 16:35:00 2021","1500","The main experiment item","yes","FlankerTask.osexp","C:/Users/User/Desktop/School/Research Methods","no","mono","no","18","no","white","no","yes","768","legacy","44","44","C:/Users/User/Desktop/School/Research Methods/LW-subject-1.csv","legacy","Lentiform Loewenfeld","3.3.9","0","h","NA","h","NA","NA","h","480","NA","2048","NA","NA","480","2","legacy","1024","2","48000","-16","experiment","SSHSS","1","odd","76359","77434","3958","NA","NA","72522","1903","NA","NA","77436","1909","NA","NA","77538","78019","77538","Flanker Task","40","19230","45","yes","1024"
"89.1304347826087","89.1304347826087","426.17391304347825","426.17391304347825","black","legacy","legacy","legacy","0","incongruent","uniform","1","undefined","1","h","45","45","0","0","0","45","0","45","0","45","0","0","0","45","45","45","Sat Sep 18 16:35:00 2021","1500","The main experiment item","yes","FlankerTask.osexp","C:/Users/User/Desktop/School/Research Methods","no","mono","no","18","no","white","no","yes","768","legacy","45","45","C:/Users/User/Desktop/School/Research Methods/LW-subject-1.csv","legacy","Lentiform Loewenfeld","3.3.9","0","h","NA","h","NA","NA","h","374","NA","2048","NA","NA","374","2","legacy","1024","2","48000","-16","experiment","SSHSS","1","odd","78023","79098","3958","NA","NA","72522","1903","NA","NA","79101","1909","NA","NA","79203","79578","79203","Flanker Task","41","19604","46","yes","1024"
"89.36170212765957","89.36170212765957","425.40425531914894","425.40425531914894","black","legacy","legacy","legacy","0","congruent","uniform","1","undefined","1","h","46","46","0","0","0","46","0","46","0","46","0","0","0","46","46","46","Sat Sep 18 16:35:00 2021","1500","The main experiment item","yes","FlankerTask.osexp","C:/Users/User/Desktop/School/Research Methods","no","mono","no","18","no","white","no","yes","768","legacy","46","46","C:/Users/User/Desktop/School/Research Methods/LW-subject-1.csv","legacy","Lentiform Loewenfeld","3.3.9","0","h","NA","h","NA","NA","h","390","NA","2048","NA","NA","390","2","legacy","1024","2","48000","-16","experiment","HHHHH","1","odd","79583","80657","3958","NA","NA","72522","1903","NA","NA","80660","1909","NA","NA","80762","81153","80762","Flanker Task","42","19994","47","yes","1024"
"89.58333333333333","89.58333333333333","424.9375","424.9375","black","legacy","legacy","legacy","0","congruent","uniform","1","undefined","1","h","47","47","0","0","0","47","0","47","0","47","0","0","0","47","47","47","Sat Sep 18 16:35:00 2021","1500","The main experiment item","yes","FlankerTask.osexp","C:/Users/User/Desktop/School/Research Methods","no","mono","no","18","no","white","no","yes","768","legacy","47","47","C:/Users/User/Desktop/School/Research Methods/LW-subject-1.csv","legacy","Lentiform Loewenfeld","3.3.9","0","h","NA","h","NA","NA","h","403","NA","2048","NA","NA","403","2","legacy","1024","2","48000","-16","experiment","HHHHH","1","odd","81158","82232","3958","NA","NA","72522","1903","NA","NA","82235","1909","NA","NA","82337","82741","82337","Flanker Task","43","20397","48","yes","1024"
"89.79591836734694","89.79591836734694","423.51020408163265","423.51020408163265","black","legacy","legacy","legacy","0","congruent","uniform","1","undefined","1","s","48","48","0","0","0","48","0","48","0","48","0","0","0","48","48","48","Sat Sep 18 16:35:00 2021","1500","The main experiment item","yes","FlankerTask.osexp","C:/Users/User/Desktop/School/Research Methods","no","mono","no","18","no","white","no","yes","768","legacy","48","48","C:/Users/User/Desktop/School/Research Methods/LW-subject-1.csv","legacy","Lentiform Loewenfeld","3.3.9","0","s","NA","h","NA","NA","s","355","NA","2048","NA","NA","355","2","legacy","1024","2","48000","-16","experiment","SSSSS","1","odd","82745","83819","3958","NA","NA","72522","1903","NA","NA","83821","1909","NA","NA","83923","84280","83923","Flanker Task","44","20752","49","yes","1024"
"90","90","424.5","424.5","black","legacy","legacy","legacy","0","incongruent","uniform","1","undefined","1","s","49","49","0","0","0","49","0","49","0","49","0","0","0","49","49","49","Sat Sep 18 16:35:00 2021","1500","The main experiment item","yes","FlankerTask.osexp","C:/Users/User/Desktop/School/Research Methods","no","mono","no","18","no","white","no","yes","768","legacy","49","49","C:/Users/User/Desktop/School/Research Methods/LW-subject-1.csv","legacy","Lentiform Loewenfeld","3.3.9","0","s","NA","h","NA","NA","s","473","NA","2048","NA","NA","473","2","legacy","1024","2","48000","-16","experiment","HHSHH","1","odd","84284","85360","3958","NA","NA","72522","1903","NA","NA","85363","1909","NA","NA","85465","85939","85465","Flanker Task","45","21225","50","yes","1024"
"90.19607843137256","90.19607843137256","424.54901960784315","424.54901960784315","black","legacy","legacy","legacy","0","incongruent","uniform","1","undefined","1","s","50","50","0","0","0","50","0","50","0","50","0","0","0","50","50","50","Sat Sep 18 16:35:00 2021","1500","The main experiment item","yes","FlankerTask.osexp","C:/Users/User/Desktop/School/Research Methods","no","mono","no","18","no","white","no","yes","768","legacy","50","50","C:/Users/User/Desktop/School/Research Methods/LW-subject-1.csv","legacy","Lentiform Loewenfeld","3.3.9","0","s","NA","h","NA","NA","s","427","NA","2048","NA","NA","427","2","legacy","1024","2","48000","-16","experiment","HHSHH","1","odd","85943","87017","3958","NA","NA","72522","1903","NA","NA","87020","1909","NA","NA","87122","87550","87122","Flanker Task","46","21652","51","yes","1024"
"90.38461538461539","90.38461538461539","422.4807692307692","422.4807692307692","black","legacy","legacy","legacy","0","congruent","uniform","1","undefined","1","s","51","51","0","0","0","51","0","51","0","51","0","0","0","51","51","51","Sat Sep 18 16:35:00 2021","1500","The main experiment item","yes","FlankerTask.osexp","C:/Users/User/Desktop/School/Research Methods","no","mono","no","18","no","white","no","yes","768","legacy","51","51","C:/Users/User/Desktop/School/Research Methods/LW-subject-1.csv","legacy","Lentiform Loewenfeld","3.3.9","0","s","NA","h","NA","NA","s","317","NA","2048","NA","NA","317","2","legacy","1024","2","48000","-16","experiment","SSSSS","1","odd","87554","88629","3958","NA","NA","72522","1903","NA","NA","88632","1909","NA","NA","88734","89053","88734","Flanker Task","47","21969","52","yes","1024"
"90.56603773584905","90.56603773584905","423.33962264150944","423.33962264150944","black","legacy","legacy","legacy","0","incongruent","uniform","1","undefined","1","h","52","52","0","0","0","52","0","52","0","52","0","0","0","52","52","52","Sat Sep 18 16:35:00 2021","1500","The main experiment item","yes","FlankerTask.osexp","C:/Users/User/Desktop/School/Research Methods","no","mono","no","18","no","white","no","yes","768","legacy","52","52","C:/Users/User/Desktop/School/Research Methods/LW-subject-1.csv","legacy","Lentiform Loewenfeld","3.3.9","0","h","NA","h","NA","NA","h","468","NA","2048","NA","NA","468","2","legacy","1024","2","48000","-16","experiment","SSHSS","1","odd","89057","90132","3958","NA","NA","72522","1903","NA","NA","90135","1909","NA","NA","90237","90707","90237","Flanker Task","48","22437","53","yes","1024"
"90.74074074074075","90.74074074074075","426.98148148148147","426.98148148148147","black","legacy","legacy","legacy","0","congruent","uniform","1","undefined","1","s","53","53","0","0","0","53","0","53","0","53","0","0","0","53","53","53","Sat Sep 18 16:35:00 2021","1500","The main experiment item","yes","FlankerTask.osexp","C:/Users/User/Desktop/School/Research Methods","no","mono","no","18","no","white","no","yes","768","legacy","53","53","C:/Users/User/Desktop/School/Research Methods/LW-subject-1.csv","legacy","Lentiform Loewenfeld","3.3.9","0","s","NA","h","NA","NA","s","620","NA","2048","NA","NA","620","2","legacy","1024","2","48000","-16","experiment","SSSSS","1","odd","90711","91786","3958","NA","NA","72522","1903","NA","NA","91789","1909","NA","NA","91891","92512","91891","Flanker Task","49","23057","54","yes","1024"
"90.9090909090909","90.9090909090909","425.1272727272727","425.1272727272727","black","legacy","legacy","legacy","0","congruent","uniform","1","undefined","1","h","54","54","0","0","0","54","0","54","0","54","0","0","0","54","54","54","Sat Sep 18 16:35:00 2021","1500","The main experiment item","yes","FlankerTask.osexp","C:/Users/User/Desktop/School/Research Methods","no","mono","no","18","no","white","no","yes","768","legacy","54","54","C:/Users/User/Desktop/School/Research Methods/LW-subject-1.csv","legacy","Lentiform Loewenfeld","3.3.9","0","h","NA","h","NA","NA","h","325","NA","2048","NA","NA","325","2","legacy","1024","2","48000","-16","experiment","HHHHH","1","odd","92518","93592","3958","NA","NA","72522","1903","NA","NA","93595","1909","NA","NA","93697","94023","93697","Flanker Task","50","23382","55","yes","1024"
"91.07142857142857","91.07142857142857","425.32142857142856","425.32142857142856","black","legacy","legacy","legacy","0","incongruent","uniform","1","undefined","1","s","55","55","0","0","0","55","0","55","0","55","0","0","0","55","55","55","Sat Sep 18 16:35:00 2021","1500","The main experiment item","yes","FlankerTask.osexp","C:/Users/User/Desktop/School/Research Methods","no","mono","no","18","no","white","no","yes","768","legacy","55","55","C:/Users/User/Desktop/School/Research Methods/LW-subject-1.csv","legacy","Lentiform Loewenfeld","3.3.9","0","s","NA","h","NA","NA","s","436","NA","2048","NA","NA","436","2","legacy","1024","2","48000","-16","experiment","HHSHH","1","odd","94027","95103","3958","NA","NA","72522","1903","NA","NA","95106","1909","NA","NA","95208","95645","95208","Flanker Task","51","23818","56","yes","1024"
"91.2280701754386","91.2280701754386","425.42105263157896","425.42105263157896","black","legacy","legacy","legacy","0","congruent","uniform","1","undefined","1","h","56","56","0","0","0","56","0","56","0","56","0","0","0","56","56","56","Sat Sep 18 16:35:00 2021","1500","The main experiment item","yes","FlankerTask.osexp","C:/Users/User/Desktop/School/Research Methods","no","mono","no","18","no","white","no","yes","768","legacy","56","56","C:/Users/User/Desktop/School/Research Methods/LW-subject-1.csv","legacy","Lentiform Loewenfeld","3.3.9","0","h","NA","h","NA","NA","h","431","NA","2048","NA","NA","431","2","legacy","1024","2","48000","-16","experiment","HHHHH","1","odd","95649","96724","3958","NA","NA","72522","1903","NA","NA","96726","1909","NA","NA","96828","97261","96828","Flanker Task","52","24249","57","yes","1024"
"91.37931034482759","91.37931034482759","423.9310344827586","423.9310344827586","black","legacy","legacy","legacy","0","congruent","uniform","1","undefined","1","s","57","57","0","0","0","57","0","57","0","57","0","0","0","57","57","57","Sat Sep 18 16:35:00 2021","1500","The main experiment item","yes","FlankerTask.osexp","C:/Users/User/Desktop/School/Research Methods","no","mono","no","18","no","white","no","yes","768","legacy","57","57","C:/Users/User/Desktop/School/Research Methods/LW-subject-1.csv","legacy","Lentiform Loewenfeld","3.3.9","0","s","NA","h","NA","NA","s","339","NA","2048","NA","NA","339","2","legacy","1024","2","48000","-16","experiment","SSSSS","1","odd","97265","98339","3958","NA","NA","72522","1903","NA","NA","98342","1909","NA","NA","98444","98784","98444","Flanker Task","53","24588","58","yes","1024"
"91.52542372881356","91.52542372881356","421.93220338983053","421.93220338983053","black","legacy","legacy","legacy","0","congruent","uniform","1","undefined","1","s","58","58","0","0","0","58","0","58","0","58","0","0","0","58","58","58","Sat Sep 18 16:35:00 2021","1500","The main experiment item","yes","FlankerTask.osexp","C:/Users/User/Desktop/School/Research Methods","no","mono","no","18","no","white","no","yes","768","legacy","58","58","C:/Users/User/Desktop/School/Research Methods/LW-subject-1.csv","legacy","Lentiform Loewenfeld","3.3.9","0","s","NA","h","NA","NA","s","306","NA","2048","NA","NA","306","2","legacy","1024","2","48000","-16","experiment","SSSSS","1","odd","98788","99864","3958","NA","NA","72522","1903","NA","NA","99866","1909","NA","NA","99968","100275","99968","Flanker Task","54","24894","59","yes","1024"
"91.66666666666667","91.66666666666667","421.26666666666665","421.26666666666665","black","legacy","legacy","legacy","0","congruent","uniform","1","undefined","1","h","59","59","0","0","0","59","0","59","0","59","0","0","0","59","59","59","Sat Sep 18 16:35:00 2021","1500","The main experiment item","yes","FlankerTask.osexp","C:/Users/User/Desktop/School/Research Methods","no","mono","no","18","no","white","no","yes","768","legacy","59","59","C:/Users/User/Desktop/School/Research Methods/LW-subject-1.csv","legacy","Lentiform Loewenfeld","3.3.9","0","h","NA","h","NA","NA","h","382","NA","2048","NA","NA","382","2","legacy","1024","2","48000","-16","experiment","HHHHH","1","odd","100279","101362","3958","NA","NA","72522","1903","NA","NA","101364","1909","NA","NA","101466","101850","101466","Flanker Task","55","25276","60","yes","1024"
"91.80327868852459","91.80327868852459","419.4754098360656","419.4754098360656","black","legacy","legacy","legacy","0","incongruent","uniform","1","undefined","1","s","60","60","0","0","0","60","0","60","0","60","0","0","0","60","60","60","Sat Sep 18 16:35:00 2021","1500","The main experiment item","yes","FlankerTask.osexp","C:/Users/User/Desktop/School/Research Methods","no","mono","no","18","no","white","no","yes","768","legacy","60","60","C:/Users/User/Desktop/School/Research Methods/LW-subject-1.csv","legacy","Lentiform Loewenfeld","3.3.9","0","s","NA","h","NA","NA","s","312","NA","2048","NA","NA","312","2","legacy","1024","2","48000","-16","experiment","HHSHH","1","odd","101854","102929","3958","NA","NA","72522","1903","NA","NA","102932","1909","NA","NA","103034","103348","103034","Flanker Task","56","25588","61","yes","1024"
"91.93548387096774","91.93548387096774","417.01612903225805","417.01612903225805","black","legacy","legacy","legacy","0","congruent","uniform","1","undefined","1","s","61","61","0","0","0","61","0","61","0","61","0","0","0","61","61","61","Sat Sep 18 16:35:00 2021","1500","The main experiment item","yes","FlankerTask.osexp","C:/Users/User/Desktop/School/Research Methods","no","mono","no","18","no","white","no","yes","768","legacy","61","61","C:/Users/User/Desktop/School/Research Methods/LW-subject-1.csv","legacy","Lentiform Loewenfeld","3.3.9","0","s","NA","h","NA","NA","s","267","NA","2048","NA","NA","267","2","legacy","1024","2","48000","-16","experiment","SSSSS","1","odd","103352","104427","3958","NA","NA","72522","1903","NA","NA","104429","1909","NA","NA","104531","104799","104531","Flanker Task","57","25855","62","yes","1024"
"90.47619047619048","90.47619047619048","415.4761904761905","415.4761904761905","black","legacy","legacy","legacy","0","incongruent","uniform","0","undefined","0","h","62","62","0","0","0","62","0","62","0","62","0","0","0","62","62","62","Sat Sep 18 16:35:00 2021","1500","The main experiment item","yes","FlankerTask.osexp","C:/Users/User/Desktop/School/Research Methods","no","mono","no","18","no","white","no","yes","768","legacy","62","62","C:/Users/User/Desktop/School/Research Methods/LW-subject-1.csv","legacy","Lentiform Loewenfeld","3.3.9","0","s","NA","h","NA","NA","s","320","NA","2048","NA","NA","320","2","legacy","1024","2","48000","-16","experiment","SSHSS","1","odd","104803","105878","3958","NA","NA","72522","1903","NA","NA","105880","1909","NA","NA","105983","106305","105983","Flanker Task","57","26175","63","yes","1024"
"90.625","90.625","415.1875","415.1875","black","legacy","legacy","legacy","0","incongruent","uniform","1","undefined","1","h","63","63","0","0","0","63","0","63","0","63","0","0","0","63","63","63","Sat Sep 18 16:35:00 2021","1500","The main experiment item","yes","FlankerTask.osexp","C:/Users/User/Desktop/School/Research Methods","no","mono","no","18","no","white","no","yes","768","legacy","63","63","C:/Users/User/Desktop/School/Research Methods/LW-subject-1.csv","legacy","Lentiform Loewenfeld","3.3.9","0","h","NA","h","NA","NA","h","397","NA","2048","NA","NA","397","2","legacy","1024","2","48000","-16","experiment","SSHSS","1","odd","106811","107887","3958","NA","NA","106309","1903","NA","NA","107889","1909","NA","NA","107991","108389","107991","Flanker Task","58","26572","64","yes","1024"
"90.76923076923077","90.76923076923077","415.87692307692305","415.87692307692305","black","legacy","legacy","legacy","0","incongruent","uniform","1","undefined","1","s","64","64","0","0","0","64","0","64","0","64","0","0","0","64","64","64","Sat Sep 18 16:35:00 2021","1500","The main experiment item","yes","FlankerTask.osexp","C:/Users/User/Desktop/School/Research Methods","no","mono","no","18","no","white","no","yes","768","legacy","64","64","C:/Users/User/Desktop/School/Research Methods/LW-subject-1.csv","legacy","Lentiform Loewenfeld","3.3.9","0","s","NA","h","NA","NA","s","460","NA","2048","NA","NA","460","2","legacy","1024","2","48000","-16","experiment","HHSHH","1","odd","108393","109468","3958","NA","NA","106309","1903","NA","NA","109471","1909","NA","NA","109573","110035","109573","Flanker Task","59","27032","65","yes","1024"
"89.39393939393939","89.39393939393939","414.2878787878788","414.2878787878788","black","legacy","legacy","legacy","0","congruent","uniform","0","undefined","0","s","65","65","0","0","0","65","0","65","0","65","0","0","0","65","65","65","Sat Sep 18 16:35:00 2021","1500","The main experiment item","yes","FlankerTask.osexp","C:/Users/User/Desktop/School/Research Methods","no","mono","no","18","no","white","no","yes","768","legacy","65","65","C:/Users/User/Desktop/School/Research Methods/LW-subject-1.csv","legacy","Lentiform Loewenfeld","3.3.9","0","h","NA","h","NA","NA","h","311","NA","2048","NA","NA","311","2","legacy","1024","2","48000","-16","experiment","SSSSS","1","odd","110039","111114","3958","NA","NA","106309","1903","NA","NA","111116","1909","NA","NA","111218","111530","111218","Flanker Task","59","27343","66","yes","1024"
"89.55223880597015","89.55223880597015","414.82089552238807","414.82089552238807","black","legacy","legacy","legacy","0","incongruent","uniform","1","undefined","1","s","66","66","0","0","0","66","0","66","0","66","0","0","0","66","66","66","Sat Sep 18 16:35:00 2021","1500","The main experiment item","yes","FlankerTask.osexp","C:/Users/User/Desktop/School/Research Methods","no","mono","no","18","no","white","no","yes","768","legacy","66","66","C:/Users/User/Desktop/School/Research Methods/LW-subject-1.csv","legacy","Lentiform Loewenfeld","3.3.9","0","s","NA","h","NA","NA","s","450","NA","2048","NA","NA","450","2","legacy","1024","2","48000","-16","experiment","HHSHH","1","odd","112036","113110","3958","NA","NA","111534","1903","NA","NA","113113","1909","NA","NA","113215","113667","113215","Flanker Task","60","27793","67","yes","1024"
"89.70588235294117","89.70588235294117","415.8382352941176","415.8382352941176","black","legacy","legacy","legacy","0","congruent","uniform","1","undefined","1","h","67","67","0","0","0","67","0","67","0","67","0","0","0","67","67","67","Sat Sep 18 16:35:00 2021","1500","The main experiment item","yes","FlankerTask.osexp","C:/Users/User/Desktop/School/Research Methods","no","mono","no","18","no","white","no","yes","768","legacy","67","67","C:/Users/User/Desktop/School/Research Methods/LW-subject-1.csv","legacy","Lentiform Loewenfeld","3.3.9","0","h","NA","h","NA","NA","h","484","NA","2048","NA","NA","484","2","legacy","1024","2","48000","-16","experiment","HHHHH","1","odd","113671","114750","3958","NA","NA","111534","1903","NA","NA","114752","1909","NA","NA","114854","115339","114854","Flanker Task","61","28277","68","yes","1024"
"89.85507246376811","89.85507246376811","415.40579710144925","415.40579710144925","black","legacy","legacy","legacy","0","incongruent","uniform","1","undefined","1","s","68","68","0","0","0","68","0","68","0","68","0","0","0","68","68","68","Sat Sep 18 16:35:00 2021","1500","The main experiment item","yes","FlankerTask.osexp","C:/Users/User/Desktop/School/Research Methods","no","mono","no","18","no","white","no","yes","768","legacy","68","68","C:/Users/User/Desktop/School/Research Methods/LW-subject-1.csv","legacy","Lentiform Loewenfeld","3.3.9","0","s","NA","h","NA","NA","s","386","NA","2048","NA","NA","386","2","legacy","1024","2","48000","-16","experiment","HHSHH","1","odd","115344","116419","3958","NA","NA","111534","1903","NA","NA","116422","1909","NA","NA","116524","116911","116524","Flanker Task","62","28663","69","yes","1024"
"90","90","416.8857142857143","416.8857142857143","black","legacy","legacy","legacy","0","incongruent","uniform","1","undefined","1","h","69","69","0","0","0","69","0","69","0","69","0","0","0","69","69","69","Sat Sep 18 16:35:00 2021","1500","The main experiment item","yes","FlankerTask.osexp","C:/Users/User/Desktop/School/Research Methods","no","mono","no","18","no","white","no","yes","768","legacy","69","69","C:/Users/User/Desktop/School/Research Methods/LW-subject-1.csv","legacy","Lentiform Loewenfeld","3.3.9","0","h","NA","h","NA","NA","h","519","NA","2048","NA","NA","519","2","legacy","1024","2","48000","-16","experiment","SSHSS","1","odd","116915","117989","3958","NA","NA","111534","1903","NA","NA","117992","1909","NA","NA","118094","118614","118094","Flanker Task","63","29182","70","yes","1024"
"90.14084507042253","90.14084507042253","421.76056338028167","421.76056338028167","black","legacy","legacy","legacy","0","incongruent","uniform","1","undefined","1","h","70","70","0","0","0","70","0","70","0","70","0","0","0","70","70","70","Sat Sep 18 16:35:00 2021","1500","The main experiment item","yes","FlankerTask.osexp","C:/Users/User/Desktop/School/Research Methods","no","mono","no","18","no","white","no","yes","768","legacy","70","70","C:/Users/User/Desktop/School/Research Methods/LW-subject-1.csv","legacy","Lentiform Loewenfeld","3.3.9","0","h","NA","h","NA","NA","h","763","NA","2048","NA","NA","763","2","legacy","1024","2","48000","-16","experiment","SSHSS","1","odd","118618","119692","3958","NA","NA","111534","1903","NA","NA","119695","1909","NA","NA","119797","120561","119797","Flanker Task","64","29945","71","yes","1024"
"90.27777777777777","90.27777777777777","421.0833333333333","421.0833333333333","black","legacy","legacy","legacy","0","congruent","uniform","1","undefined","1","s","71","71","0","0","0","71","0","71","0","71","0","0","0","71","71","71","Sat Sep 18 16:35:00 2021","1500","The main experiment item","yes","FlankerTask.osexp","C:/Users/User/Desktop/School/Research Methods","no","mono","no","18","no","white","no","yes","768","legacy","71","71","C:/Users/User/Desktop/School/Research Methods/LW-subject-1.csv","legacy","Lentiform Loewenfeld","3.3.9","0","s","NA","h","NA","NA","s","373","NA","2048","NA","NA","373","2","legacy","1024","2","48000","-16","experiment","SSSSS","1","odd","120565","121642","3958","NA","NA","111534","1903","NA","NA","121645","1909","NA","NA","121747","122122","121747","Flanker Task","65","30318","72","yes","1024"
"90.41095890410959","90.41095890410959","420.26027397260276","420.26027397260276","black","legacy","legacy","legacy","0","congruent","uniform","1","undefined","1","s","72","72","0","0","0","72","0","72","0","72","0","0","0","72","72","72","Sat Sep 18 16:35:00 2021","1500","The main experiment item","yes","FlankerTask.osexp","C:/Users/User/Desktop/School/Research Methods","no","mono","no","18","no","white","no","yes","768","legacy","72","72","C:/Users/User/Desktop/School/Research Methods/LW-subject-1.csv","legacy","Lentiform Loewenfeld","3.3.9","0","s","NA","h","NA","NA","s","361","NA","2048","NA","NA","361","2","legacy","1024","2","48000","-16","experiment","SSSSS","1","odd","122126","123200","3958","NA","NA","111534","1903","NA","NA","123203","1909","NA","NA","123305","123667","123305","Flanker Task","66","30679","73","yes","1024"
"90.54054054054055","90.54054054054055","418.7027027027027","418.7027027027027","black","legacy","legacy","legacy","0","congruent","uniform","1","undefined","1","s","73","73","0","0","0","73","0","73","0","73","0","0","0","73","73","73","Sat Sep 18 16:35:00 2021","1500","The main experiment item","yes","FlankerTask.osexp","C:/Users/User/Desktop/School/Research Methods","no","mono","no","18","no","white","no","yes","768","legacy","73","73","C:/Users/User/Desktop/School/Research Methods/LW-subject-1.csv","legacy","Lentiform Loewenfeld","3.3.9","0","s","NA","h","NA","NA","s","305","NA","2048","NA","NA","305","2","legacy","1024","2","48000","-16","experiment","SSSSS","1","odd","123671","124746","3958","NA","NA","111534","1903","NA","NA","124749","1909","NA","NA","124851","125157","124851","Flanker Task","67","30984","74","yes","1024"
"90.66666666666667","90.66666666666667","418.12","418.12","black","legacy","legacy","legacy","0","congruent","uniform","1","undefined","1","h","74","74","0","0","0","74","0","74","0","74","0","0","0","74","74","74","Sat Sep 18 16:35:00 2021","1500","The main experiment item","yes","FlankerTask.osexp","C:/Users/User/Desktop/School/Research Methods","no","mono","no","18","no","white","no","yes","768","legacy","74","74","C:/Users/User/Desktop/School/Research Methods/LW-subject-1.csv","legacy","Lentiform Loewenfeld","3.3.9","0","h","NA","h","NA","NA","h","375","NA","2048","NA","NA","375","2","legacy","1024","2","48000","-16","experiment","HHHHH","1","odd","125161","126236","3958","NA","NA","111534","1903","NA","NA","126239","1909","NA","NA","126341","126718","126341","Flanker Task","68","31359","75","yes","1024"
"90.78947368421052","90.78947368421052","418.5131578947368","418.5131578947368","black","legacy","legacy","legacy","0","incongruent","uniform","1","undefined","1","s","75","75","0","0","0","75","0","75","0","75","0","0","0","75","75","75","Sat Sep 18 16:35:00 2021","1500","The main experiment item","yes","FlankerTask.osexp","C:/Users/User/Desktop/School/Research Methods","no","mono","no","18","no","white","no","yes","768","legacy","75","75","C:/Users/User/Desktop/School/Research Methods/LW-subject-1.csv","legacy","Lentiform Loewenfeld","3.3.9","0","s","NA","h","NA","NA","s","448","NA","2048","NA","NA","448","2","legacy","1024","2","48000","-16","experiment","HHSHH","1","odd","126722","127797","3958","NA","NA","111534","1903","NA","NA","127799","1909","NA","NA","127902","128351","127902","Flanker Task","69","31807","76","yes","1024"
"90.9090909090909","90.9090909090909","417.961038961039","417.961038961039","black","legacy","legacy","legacy","0","congruent","uniform","1","undefined","1","h","76","76","0","0","0","76","0","76","0","76","0","0","0","76","76","76","Sat Sep 18 16:35:00 2021","1500","The main experiment item","yes","FlankerTask.osexp","C:/Users/User/Desktop/School/Research Methods","no","mono","no","18","no","white","no","yes","768","legacy","76","76","C:/Users/User/Desktop/School/Research Methods/LW-subject-1.csv","legacy","Lentiform Loewenfeld","3.3.9","0","h","NA","h","NA","NA","h","376","NA","2048","NA","NA","376","2","legacy","1024","2","48000","-16","experiment","HHHHH","1","odd","128356","129434","3958","NA","NA","111534","1903","NA","NA","129437","1909","NA","NA","129539","129916","129539","Flanker Task","70","32183","77","yes","1024"
"91.02564102564102","91.02564102564102","417.1923076923077","417.1923076923077","black","legacy","legacy","legacy","0","incongruent","uniform","1","undefined","1","h","77","77","0","0","0","77","0","77","0","77","0","0","0","77","77","77","Sat Sep 18 16:35:00 2021","1500","The main experiment item","yes","FlankerTask.osexp","C:/Users/User/Desktop/School/Research Methods","no","mono","no","18","no","white","no","yes","768","legacy","77","77","C:/Users/User/Desktop/School/Research Methods/LW-subject-1.csv","legacy","Lentiform Loewenfeld","3.3.9","0","h","NA","h","NA","NA","h","358","NA","2048","NA","NA","358","2","legacy","1024","2","48000","-16","experiment","SSHSS","1","odd","129920","130995","3958","NA","NA","111534","1903","NA","NA","130997","1909","NA","NA","131100","131460","131100","Flanker Task","71","32541","78","yes","1024"
"91.13924050632912","91.13924050632912","415.8101265822785","415.8101265822785","black","legacy","legacy","legacy","0","incongruent","uniform","1","undefined","1","s","78","78","0","0","0","78","0","78","0","78","0","0","0","78","78","78","Sat Sep 18 16:35:00 2021","1500","The main experiment item","yes","FlankerTask.osexp","C:/Users/User/Desktop/School/Research Methods","no","mono","no","18","no","white","no","yes","768","legacy","78","78","C:/Users/User/Desktop/School/Research Methods/LW-subject-1.csv","legacy","Lentiform Loewenfeld","3.3.9","0","s","NA","h","NA","NA","s","308","NA","2048","NA","NA","308","2","legacy","1024","2","48000","-16","experiment","HHSHH","1","odd","131465","132540","3958","NA","NA","111534","1903","NA","NA","132543","1909","NA","NA","132645","132955","132645","Flanker Task","72","32849","79","yes","1024"
"91.25","91.25","416.15","416.15","black","legacy","legacy","legacy","0","incongruent","uniform","1","undefined","1","h","79","79","0","0","0","79","0","79","0","79","0","0","0","79","79","79","Sat Sep 18 16:35:00 2021","1500","The main experiment item","yes","FlankerTask.osexp","C:/Users/User/Desktop/School/Research Methods","no","mono","no","18","no","white","no","yes","768","legacy","79","79","C:/Users/User/Desktop/School/Research Methods/LW-subject-1.csv","legacy","Lentiform Loewenfeld","3.3.9","0","h","NA","h","NA","NA","h","443","NA","2048","NA","NA","443","2","legacy","1024","2","48000","-16","experiment","SSHSS","1","odd","132959","134034","3958","NA","NA","111534","1903","NA","NA","134036","1909","NA","NA","134138","134582","134138","Flanker Task","73","33292","80","yes","1024"
"91.35802469135803","91.35802469135803","418.1111111111111","418.1111111111111","black","legacy","legacy","legacy","0","incongruent","uniform","1","undefined","1","s","80","80","0","0","0","80","0","80","0","80","0","0","0","80","80","80","Sat Sep 18 16:35:00 2021","600","The main experiment item","yes","FlankerTask.osexp","C:/Users/User/Desktop/School/Research Methods","no","mono","no","18","no","white","no","yes","768","legacy","0","79","C:/Users/User/Desktop/School/Research Methods/LW-subject-1.csv","legacy","Lentiform Loewenfeld","3.3.9","0","s","NA","h","h","NA","s","575","NA","2048","8124","NA","575","2","legacy","1024","2","48000","-16","experiment","HHSHH","1","odd","134587","143798","3958","143738","NA","111534","1903","NA","NA","143800","1909","135612","NA","143902","144479","143902","Flanker Task","74","33867","81","yes","1024"
"91.46341463414635","91.46341463414635","417.5487804878049","417.5487804878049","black","legacy","legacy","legacy","0","congruent","uniform","1","undefined","1","s","81","81","0","0","0","81","0","81","0","81","0","0","0","81","81","81","Sat Sep 18 16:35:00 2021","600","The main experiment item","yes","FlankerTask.osexp","C:/Users/User/Desktop/School/Research Methods","no","mono","no","18","no","white","no","yes","768","legacy","1","79","C:/Users/User/Desktop/School/Research Methods/LW-subject-1.csv","legacy","Lentiform Loewenfeld","3.3.9","0","s","NA","h","h","NA","s","372","NA","2048","8124","NA","372","2","legacy","1024","2","48000","-16","experiment","SSSSS","1","odd","144483","145559","3958","143738","NA","111534","1903","NA","NA","145562","1909","135612","NA","145664","146038","145664","Flanker Task","75","34239","82","yes","1024"
"91.56626506024097","91.56626506024097","417.2530120481928","417.2530120481928","black","legacy","legacy","legacy","0","congruent","uniform","1","undefined","1","h","82","82","0","0","0","82","0","82","0","82","0","0","0","82","82","82","Sat Sep 18 16:35:00 2021","600","The main experiment item","yes","FlankerTask.osexp","C:/Users/User/Desktop/School/Research Methods","no","mono","no","18","no","white","no","yes","768","legacy","2","79","C:/Users/User/Desktop/School/Research Methods/LW-subject-1.csv","legacy","Lentiform Loewenfeld","3.3.9","0","h","NA","h","h","NA","h","393","NA","2048","8124","NA","393","2","legacy","1024","2","48000","-16","experiment","HHHHH","1","odd","146042","147117","3958","143738","NA","111534","1903","NA","NA","147120","1909","135612","NA","147222","147617","147222","Flanker Task","76","34632","83","yes","1024"
"91.66666666666667","91.66666666666667","416.3095238095238","416.3095238095238","black","legacy","legacy","legacy","0","congruent","uniform","1","undefined","1","h","83","83","0","0","0","83","0","83","0","83","0","0","0","83","83","83","Sat Sep 18 16:35:00 2021","600","The main experiment item","yes","FlankerTask.osexp","C:/Users/User/Desktop/School/Research Methods","no","mono","no","18","no","white","no","yes","768","legacy","3","79","C:/Users/User/Desktop/School/Research Methods/LW-subject-1.csv","legacy","Lentiform Loewenfeld","3.3.9","0","h","NA","h","h","NA","h","338","NA","2048","8124","NA","338","2","legacy","1024","2","48000","-16","experiment","HHHHH","1","odd","147621","148696","3958","143738","NA","111534","1903","NA","NA","148698","1909","135612","NA","148800","149139","148800","Flanker Task","77","34970","84","yes","1024"
"91.76470588235294","91.76470588235294","414.91764705882355","414.91764705882355","black","legacy","legacy","legacy","0","incongruent","uniform","1","undefined","1","s","84","84","0","0","0","84","0","84","0","84","0","0","0","84","84","84","Sat Sep 18 16:35:00 2021","600","The main experiment item","yes","FlankerTask.osexp","C:/Users/User/Desktop/School/Research Methods","no","mono","no","18","no","white","no","yes","768","legacy","4","79","C:/Users/User/Desktop/School/Research Methods/LW-subject-1.csv","legacy","Lentiform Loewenfeld","3.3.9","0","s","NA","h","h","NA","s","298","NA","2048","8124","NA","298","2","legacy","1024","2","48000","-16","experiment","HHSHH","1","odd","149144","150219","3958","143738","NA","111534","1903","NA","NA","150222","1909","135612","NA","150324","150623","150324","Flanker Task","78","35268","85","yes","1024"
"91.86046511627907","91.86046511627907","413.4418604651163","413.4418604651163","black","legacy","legacy","legacy","0","congruent","uniform","1","undefined","1","h","85","85","0","0","0","85","0","85","0","85","0","0","0","85","85","85","Sat Sep 18 16:35:00 2021","600","The main experiment item","yes","FlankerTask.osexp","C:/Users/User/Desktop/School/Research Methods","no","mono","no","18","no","white","no","yes","768","legacy","5","79","C:/Users/User/Desktop/School/Research Methods/LW-subject-1.csv","legacy","Lentiform Loewenfeld","3.3.9","0","h","NA","h","h","NA","h","288","NA","2048","8124","NA","288","2","legacy","1024","2","48000","-16","experiment","HHHHH","1","odd","150627","151702","3958","143738","NA","111534","1903","NA","NA","151705","1909","135612","NA","151807","152097","151807","Flanker Task","79","35556","86","yes","1024"
"91.95402298850574","91.95402298850574","412.08045977011494","412.08045977011494","black","legacy","legacy","legacy","0","congruent","uniform","1","undefined","1","h","86","86","0","0","0","86","0","86","0","86","0","0","0","86","86","86","Sat Sep 18 16:35:00 2021","600","The main experiment item","yes","FlankerTask.osexp","C:/Users/User/Desktop/School/Research Methods","no","mono","no","18","no","white","no","yes","768","legacy","6","79","C:/Users/User/Desktop/School/Research Methods/LW-subject-1.csv","legacy","Lentiform Loewenfeld","3.3.9","0","h","NA","h","h","NA","h","295","NA","2048","8124","NA","295","2","legacy","1024","2","48000","-16","experiment","HHHHH","1","odd","152101","153181","3958","143738","NA","111534","1903","NA","NA","153183","1909","135612","NA","153286","153583","153286","Flanker Task","80","35851","87","yes","1024"
"90.9090909090909","90.9090909090909","410.42045454545456","410.42045454545456","black","legacy","legacy","legacy","0","incongruent","uniform","0","undefined","0","h","87","87","0","0","0","87","0","87","0","87","0","0","0","87","87","87","Sat Sep 18 16:35:00 2021","600","The main experiment item","yes","FlankerTask.osexp","C:/Users/User/Desktop/School/Research Methods","no","mono","no","18","no","white","no","yes","768","legacy","7","79","C:/Users/User/Desktop/School/Research Methods/LW-subject-1.csv","legacy","Lentiform Loewenfeld","3.3.9","0","s","NA","h","h","NA","s","266","NA","2048","8124","NA","266","2","legacy","1024","2","48000","-16","experiment","SSHSS","1","odd","153587","154662","3958","143738","NA","111534","1903","NA","NA","154665","1909","135612","NA","154767","155036","154767","Flanker Task","80","36117","88","yes","1024"
"91.01123595505618","91.01123595505618","409.2696629213483","409.2696629213483","black","legacy","legacy","legacy","0","congruent","uniform","1","undefined","1","s","88","88","0","0","0","88","0","88","0","88","0","0","0","88","88","88","Sat Sep 18 16:35:00 2021","600","The main experiment item","yes","FlankerTask.osexp","C:/Users/User/Desktop/School/Research Methods","no","mono","no","18","no","white","no","yes","768","legacy","8","79","C:/Users/User/Desktop/School/Research Methods/LW-subject-1.csv","legacy","Lentiform Loewenfeld","3.3.9","0","s","NA","h","h","NA","s","308","NA","2048","8124","NA","308","2","legacy","1024","2","48000","-16","experiment","SSSSS","1","odd","155542","156617","3958","143738","NA","155040","1903","NA","NA","156619","1909","135612","NA","156721","157031","156721","Flanker Task","81","36425","89","yes","1024"
"91.11111111111111","91.11111111111111","407.9222222222222","407.9222222222222","black","legacy","legacy","legacy","0","congruent","uniform","1","undefined","1","s","89","89","0","0","0","89","0","89","0","89","0","0","0","89","89","89","Sat Sep 18 16:35:00 2021","600","The main experiment item","yes","FlankerTask.osexp","C:/Users/User/Desktop/School/Research Methods","no","mono","no","18","no","white","no","yes","768","legacy","9","79","C:/Users/User/Desktop/School/Research Methods/LW-subject-1.csv","legacy","Lentiform Loewenfeld","3.3.9","0","s","NA","h","h","NA","s","288","NA","2048","8124","NA","288","2","legacy","1024","2","48000","-16","experiment","SSSSS","1","odd","157035","158110","3958","143738","NA","155040","1903","NA","NA","158112","1909","135612","NA","158214","158503","158214","Flanker Task","82","36713","90","yes","1024"
"91.20879120879121","91.20879120879121","406.84615384615387","406.84615384615387","black","legacy","legacy","legacy","0","congruent","uniform","1","undefined","1","h","90","90","0","0","0","90","0","90","0","90","0","0","0","90","90","90","Sat Sep 18 16:35:00 2021","600","The main experiment item","yes","FlankerTask.osexp","C:/Users/User/Desktop/School/Research Methods","no","mono","no","18","no","white","no","yes","768","legacy","10","79","C:/Users/User/Desktop/School/Research Methods/LW-subject-1.csv","legacy","Lentiform Loewenfeld","3.3.9","0","h","NA","h","h","NA","h","310","NA","2048","8124","NA","310","2","legacy","1024","2","48000","-16","experiment","HHHHH","1","odd","158508","159583","3958","143738","NA","155040","1903","NA","NA","159585","1909","135612","NA","159688","160000","159688","Flanker Task","83","37023","91","yes","1024"
"91.30434782608695","91.30434782608695","405.79347826086956","405.79347826086956","black","legacy","legacy","legacy","0","congruent","uniform","1","undefined","1","h","91","91","0","0","0","91","0","91","0","91","0","0","0","91","91","91","Sat Sep 18 16:35:00 2021","600","The main experiment item","yes","FlankerTask.osexp","C:/Users/User/Desktop/School/Research Methods","no","mono","no","18","no","white","no","yes","768","legacy","11","79","C:/Users/User/Desktop/School/Research Methods/LW-subject-1.csv","legacy","Lentiform Loewenfeld","3.3.9","0","h","NA","h","h","NA","h","310","NA","2048","8124","NA","310","2","legacy","1024","2","48000","-16","experiment","HHHHH","1","odd","160004","161080","3958","143738","NA","155040","1903","NA","NA","161083","1909","135612","NA","161185","161497","161185","Flanker Task","84","37333","92","yes","1024"
"90.3225806451613","90.3225806451613","404.9569892473118","404.9569892473118","black","legacy","legacy","legacy","0","incongruent","uniform","0","undefined","0","h","92","92","0","0","0","92","0","92","0","92","0","0","0","92","92","92","Sat Sep 18 16:35:00 2021","600","The main experiment item","yes","FlankerTask.osexp","C:/Users/User/Desktop/School/Research Methods","no","mono","no","18","no","white","no","yes","768","legacy","12","79","C:/Users/User/Desktop/School/Research Methods/LW-subject-1.csv","legacy","Lentiform Loewenfeld","3.3.9","0","s","NA","h","h","NA","s","328","NA","2048","8124","NA","328","2","legacy","1024","2","48000","-16","experiment","SSHSS","1","odd","161501","162576","3958","143738","NA","155040","1903","NA","NA","162578","1909","135612","NA","162680","163009","162680","Flanker Task","84","37661","93","yes","1024"
"90.42553191489361","90.42553191489361","404.3723404255319","404.3723404255319","black","legacy","legacy","legacy","0","congruent","uniform","1","undefined","1","s","93","93","0","0","0","93","0","93","0","93","0","0","0","93","93","93","Sat Sep 18 16:35:00 2021","600","The main experiment item","yes","FlankerTask.osexp","C:/Users/User/Desktop/School/Research Methods","no","mono","no","18","no","white","no","yes","768","legacy","13","79","C:/Users/User/Desktop/School/Research Methods/LW-subject-1.csv","legacy","Lentiform Loewenfeld","3.3.9","0","s","NA","h","h","NA","s","350","NA","2048","8124","NA","350","2","legacy","1024","2","48000","-16","experiment","SSSSS","1","odd","163516","164590","3958","143738","NA","163014","1903","NA","NA","164593","1909","135612","NA","164695","165047","164695","Flanker Task","85","38011","94","yes","1024"
"90.52631578947368","90.52631578947368","407.42105263157896","407.42105263157896","black","legacy","legacy","legacy","0","incongruent","uniform","1","undefined","1","s","94","94","0","0","0","94","0","94","0","94","0","0","0","94","94","94","Sat Sep 18 16:35:00 2021","600","The main experiment item","yes","FlankerTask.osexp","C:/Users/User/Desktop/School/Research Methods","no","mono","no","18","no","white","no","yes","768","legacy","14","79","C:/Users/User/Desktop/School/Research Methods/LW-subject-1.csv","legacy","Lentiform Loewenfeld","3.3.9","0","s","NA","h","h","NA","s","694","NA","2048","8124","NA","694","2","legacy","1024","2","48000","-16","experiment","HHSHH","1","odd","165052","166126","3958","143738","NA","163014","1903","NA","NA","166129","1909","135612","NA","166231","166926","166231","Flanker Task","86","38705","95","yes","1024"
"90.625","90.625","407.5520833333333","407.5520833333333","black","legacy","legacy","legacy","0","incongruent","uniform","1","undefined","1","h","95","95","0","0","0","95","0","95","0","95","0","0","0","95","95","95","Sat Sep 18 16:35:00 2021","600","The main experiment item","yes","FlankerTask.osexp","C:/Users/User/Desktop/School/Research Methods","no","mono","no","18","no","white","no","yes","768","legacy","15","79","C:/Users/User/Desktop/School/Research Methods/LW-subject-1.csv","legacy","Lentiform Loewenfeld","3.3.9","0","h","NA","h","h","NA","h","420","NA","2048","8124","NA","420","2","legacy","1024","2","48000","-16","experiment","SSHSS","1","odd","167433","168508","3958","143738","NA","163014","1903","166930","NA","168511","1909","135612","NA","168613","169035","168613","Flanker Task","87","39125","96","yes","1024"
"90.72164948453609","90.72164948453609","407.08247422680415","407.08247422680415","black","legacy","legacy","legacy","0","congruent","uniform","1","undefined","1","h","96","96","0","0","0","96","0","96","0","96","0","0","0","96","96","96","Sat Sep 18 16:35:00 2021","600","The main experiment item","yes","FlankerTask.osexp","C:/Users/User/Desktop/School/Research Methods","no","mono","no","18","no","white","no","yes","768","legacy","16","79","C:/Users/User/Desktop/School/Research Methods/LW-subject-1.csv","legacy","Lentiform Loewenfeld","3.3.9","0","h","NA","h","h","NA","h","362","NA","2048","8124","NA","362","2","legacy","1024","2","48000","-16","experiment","HHHHH","1","odd","169039","170114","3958","143738","NA","163014","1903","166930","NA","170116","1909","135612","NA","170218","170582","170218","Flanker Task","88","39487","97","yes","1024"
"89.79591836734694","89.79591836734694","406.14285714285717","406.14285714285717","black","legacy","legacy","legacy","0","congruent","uniform","0","undefined","0","h","97","97","0","0","0","97","0","97","0","97","0","0","0","97","97","97","Sat Sep 18 16:35:00 2021","600","The main experiment item","yes","FlankerTask.osexp","C:/Users/User/Desktop/School/Research Methods","no","mono","no","18","no","white","no","yes","768","legacy","17","79","C:/Users/User/Desktop/School/Research Methods/LW-subject-1.csv","legacy","Lentiform Loewenfeld","3.3.9","0","s","NA","h","h","NA","s","315","NA","2048","8124","NA","315","2","legacy","1024","2","48000","-16","experiment","HHHHH","1","odd","170586","171660","3958","143738","NA","163014","1903","166930","NA","171663","1909","135612","NA","171765","172081","171765","Flanker Task","88","39802","98","yes","1024"
"89.8989898989899","89.8989898989899","405.24242424242425","405.24242424242425","black","legacy","legacy","legacy","0","congruent","uniform","1","undefined","1","s","98","98","0","0","0","98","0","98","0","98","0","0","0","98","98","98","Sat Sep 18 16:35:00 2021","600","The main experiment item","yes","FlankerTask.osexp","C:/Users/User/Desktop/School/Research Methods","no","mono","no","18","no","white","no","yes","768","legacy","18","79","C:/Users/User/Desktop/School/Research Methods/LW-subject-1.csv","legacy","Lentiform Loewenfeld","3.3.9","0","s","NA","h","h","NA","s","317","NA","2048","8124","NA","317","2","legacy","1024","2","48000","-16","experiment","SSSSS","1","odd","172588","173662","3958","143738","NA","172086","1903","166930","NA","173665","1909","135612","NA","173767","174086","173767","Flanker Task","89","40119","99","yes","1024"
"90","90","404.02","404.02","black","legacy","legacy","legacy","0","congruent","uniform","1","undefined","1","s","99","99","0","0","0","99","0","99","0","99","0","0","0","99","99","99","Sat Sep 18 16:35:00 2021","600","The main experiment item","yes","FlankerTask.osexp","C:/Users/User/Desktop/School/Research Methods","no","mono","no","18","no","white","no","yes","768","legacy","19","79","C:/Users/User/Desktop/School/Research Methods/LW-subject-1.csv","legacy","Lentiform Loewenfeld","3.3.9","0","s","NA","h","h","NA","s","283","NA","2048","8124","NA","283","2","legacy","1024","2","48000","-16","experiment","SSSSS","1","odd","174090","175165","3958","143738","NA","172086","1903","166930","NA","175168","1909","135612","NA","175270","175554","175270","Flanker Task","90","40402","100","yes","1024"
"90.0990099009901","90.0990099009901","404.2079207920792","404.2079207920792","black","legacy","legacy","legacy","0","incongruent","uniform","1","undefined","1","h","100","100","0","0","0","100","0","100","0","100","0","0","0","100","100","100","Sat Sep 18 16:35:00 2021","600","The main experiment item","yes","FlankerTask.osexp","C:/Users/User/Desktop/School/Research Methods","no","mono","no","18","no","white","no","yes","768","legacy","20","79","C:/Users/User/Desktop/School/Research Methods/LW-subject-1.csv","legacy","Lentiform Loewenfeld","3.3.9","0","h","NA","h","h","NA","h","423","NA","2048","8124","NA","423","2","legacy","1024","2","48000","-16","experiment","SSHSS","1","odd","175558","176633","3958","143738","NA","172086","1903","166930","NA","176636","1909","135612","NA","176738","177163","176738","Flanker Task","91","40825","101","yes","1024"
"90.19607843137256","90.19607843137256","403.6764705882353","403.6764705882353","black","legacy","legacy","legacy","0","congruent","uniform","1","undefined","1","h","101","101","0","0","0","101","0","101","0","101","0","0","0","101","101","101","Sat Sep 18 16:35:00 2021","600","The main experiment item","yes","FlankerTask.osexp","C:/Users/User/Desktop/School/Research Methods","no","mono","no","18","no","white","no","yes","768","legacy","21","79","C:/Users/User/Desktop/School/Research Methods/LW-subject-1.csv","legacy","Lentiform Loewenfeld","3.3.9","0","h","NA","h","h","NA","h","350","NA","2048","8124","NA","350","2","legacy","1024","2","48000","-16","experiment","HHHHH","1","odd","177167","178242","3958","143738","NA","172086","1903","166930","NA","178244","1909","135612","NA","178346","178698","178346","Flanker Task","92","41175","102","yes","1024"
"90.29126213592232","90.29126213592232","402.6796116504854","402.6796116504854","black","legacy","legacy","legacy","0","congruent","uniform","1","undefined","1","h","102","102","0","0","0","102","0","102","0","102","0","0","0","102","102","102","Sat Sep 18 16:35:00 2021","600","The main experiment item","yes","FlankerTask.osexp","C:/Users/User/Desktop/School/Research Methods","no","mono","no","18","no","white","no","yes","768","legacy","22","79","C:/Users/User/Desktop/School/Research Methods/LW-subject-1.csv","legacy","Lentiform Loewenfeld","3.3.9","0","h","NA","h","h","NA","h","301","NA","2048","8124","NA","301","2","legacy","1024","2","48000","-16","experiment","HHHHH","1","odd","178702","179777","3958","143738","NA","172086","1903","166930","NA","179779","1909","135612","NA","179881","180183","179881","Flanker Task","93","41476","103","yes","1024"
"89.42307692307692","89.42307692307692","401.75","401.75","black","legacy","legacy","legacy","0","incongruent","uniform","0","undefined","0","h","103","103","0","0","0","103","0","103","0","103","0","0","0","103","103","103","Sat Sep 18 16:35:00 2021","600","The main experiment item","yes","FlankerTask.osexp","C:/Users/User/Desktop/School/Research Methods","no","mono","no","18","no","white","no","yes","768","legacy","23","79","C:/Users/User/Desktop/School/Research Methods/LW-subject-1.csv","legacy","Lentiform Loewenfeld","3.3.9","0","s","NA","h","h","NA","s","306","NA","2048","8124","NA","306","2","legacy","1024","2","48000","-16","experiment","SSHSS","1","odd","180187","181262","3958","143738","NA","172086","1903","166930","NA","181265","1909","135612","NA","181367","181675","181367","Flanker Task","93","41782","104","yes","1024"
"89.52380952380952","89.52380952380952","401.18095238095236","401.18095238095236","black","legacy","legacy","legacy","0","incongruent","uniform","1","undefined","1","s","104","104","0","0","0","104","0","104","0","104","0","0","0","104","104","104","Sat Sep 18 16:35:00 2021","600","The main experiment item","yes","FlankerTask.osexp","C:/Users/User/Desktop/School/Research Methods","no","mono","no","18","no","white","no","yes","768","legacy","24","79","C:/Users/User/Desktop/School/Research Methods/LW-subject-1.csv","legacy","Lentiform Loewenfeld","3.3.9","0","s","NA","h","h","NA","s","342","NA","2048","8124","NA","342","2","legacy","1024","2","48000","-16","experiment","HHSHH","1","odd","182181","183256","3958","143738","NA","181679","1903","166930","NA","183258","1909","135612","NA","183361","183705","183361","Flanker Task","94","42124","105","yes","1024"
"89.62264150943396","89.62264150943396","400.57547169811323","400.57547169811323","black","legacy","legacy","legacy","0","incongruent","uniform","1","undefined","1","s","105","105","0","0","0","105","0","105","0","105","0","0","0","105","105","105","Sat Sep 18 16:35:00 2021","600","The main experiment item","yes","FlankerTask.osexp","C:/Users/User/Desktop/School/Research Methods","no","mono","no","18","no","white","no","yes","768","legacy","25","79","C:/Users/User/Desktop/School/Research Methods/LW-subject-1.csv","legacy","Lentiform Loewenfeld","3.3.9","0","s","NA","h","h","NA","s","337","NA","2048","8124","NA","337","2","legacy","1024","2","48000","-16","experiment","HHSHH","1","odd","183709","184784","3958","143738","NA","181679","1903","166930","NA","184786","1909","135612","NA","184888","185227","184888","Flanker Task","95","42461","106","yes","1024"
"89.7196261682243","89.7196261682243","400.58878504672896","400.58878504672896","black","legacy","legacy","legacy","0","incongruent","uniform","1","undefined","1","s","106","106","0","0","0","106","0","106","0","106","0","0","0","106","106","106","Sat Sep 18 16:35:00 2021","600","The main experiment item","yes","FlankerTask.osexp","C:/Users/User/Desktop/School/Research Methods","no","mono","no","18","no","white","no","yes","768","legacy","26","79","C:/Users/User/Desktop/School/Research Methods/LW-subject-1.csv","legacy","Lentiform Loewenfeld","3.3.9","0","s","NA","h","h","NA","s","402","NA","2048","8124","NA","402","2","legacy","1024","2","48000","-16","experiment","HHSHH","1","odd","185231","186305","3958","143738","NA","181679","1903","166930","NA","186308","1909","135612","NA","186410","186813","186410","Flanker Task","96","42863","107","yes","1024"
"89.81481481481481","89.81481481481481","399.68518518518516","399.68518518518516","black","legacy","legacy","legacy","0","congruent","uniform","1","undefined","1","s","107","107","0","0","0","107","0","107","0","107","0","0","0","107","107","107","Sat Sep 18 16:35:00 2021","600","The main experiment item","yes","FlankerTask.osexp","C:/Users/User/Desktop/School/Research Methods","no","mono","no","18","no","white","no","yes","768","legacy","27","79","C:/Users/User/Desktop/School/Research Methods/LW-subject-1.csv","legacy","Lentiform Loewenfeld","3.3.9","0","s","NA","h","h","NA","s","303","NA","2048","8124","NA","303","2","legacy","1024","2","48000","-16","experiment","SSSSS","1","odd","186817","187892","3958","143738","NA","181679","1903","166930","NA","187894","1909","135612","NA","187996","188301","187996","Flanker Task","97","43166","108","yes","1024"
"89.90825688073394","89.90825688073394","398.64220183486236","398.64220183486236","black","legacy","legacy","legacy","0","congruent","uniform","1","undefined","1","h","108","108","0","0","0","108","0","108","0","108","0","0","0","108","108","108","Sat Sep 18 16:35:00 2021","600","The main experiment item","yes","FlankerTask.osexp","C:/Users/User/Desktop/School/Research Methods","no","mono","no","18","no","white","no","yes","768","legacy","28","79","C:/Users/User/Desktop/School/Research Methods/LW-subject-1.csv","legacy","Lentiform Loewenfeld","3.3.9","0","h","NA","h","h","NA","h","286","NA","2048","8124","NA","286","2","legacy","1024","2","48000","-16","experiment","HHHHH","1","odd","188305","189380","3958","143738","NA","181679","1903","166930","NA","189382","1909","135612","NA","189484","189772","189484","Flanker Task","98","43452","109","yes","1024"
"90","90","398.3181818181818","398.3181818181818","black","legacy","legacy","legacy","0","incongruent","uniform","1","undefined","1","s","109","109","0","0","0","109","0","109","0","109","0","0","0","109","109","109","Sat Sep 18 16:35:00 2021","600","The main experiment item","yes","FlankerTask.osexp","C:/Users/User/Desktop/School/Research Methods","no","mono","no","18","no","white","no","yes","768","legacy","29","79","C:/Users/User/Desktop/School/Research Methods/LW-subject-1.csv","legacy","Lentiform Loewenfeld","3.3.9","0","s","NA","h","h","NA","s","363","NA","2048","8124","NA","363","2","legacy","1024","2","48000","-16","experiment","HHSHH","1","odd","189776","190855","3958","143738","NA","181679","1903","166930","NA","190857","1909","135612","NA","190959","191324","190959","Flanker Task","99","43815","110","yes","1024"
"90.09009009009009","90.09009009009009","398.009009009009","398.009009009009","black","legacy","legacy","legacy","0","congruent","uniform","1","undefined","1","s","110","110","0","0","0","110","0","110","0","110","0","0","0","110","110","110","Sat Sep 18 16:35:00 2021","600","The main experiment item","yes","FlankerTask.osexp","C:/Users/User/Desktop/School/Research Methods","no","mono","no","18","no","white","no","yes","768","legacy","30","79","C:/Users/User/Desktop/School/Research Methods/LW-subject-1.csv","legacy","Lentiform Loewenfeld","3.3.9","0","s","NA","h","h","NA","s","364","NA","2048","8124","NA","364","2","legacy","1024","2","48000","-16","experiment","SSSSS","1","odd","191328","192402","3958","143738","NA","181679","1903","166930","NA","192405","1909","135612","NA","192507","192873","192507","Flanker Task","100","44179","111","yes","1024"
"89.28571428571429","89.28571428571429","397.4642857142857","397.4642857142857","black","legacy","legacy","legacy","0","incongruent","uniform","0","undefined","0","s","111","111","0","0","0","111","0","111","0","111","0","0","0","111","111","111","Sat Sep 18 16:35:00 2021","600","The main experiment item","yes","FlankerTask.osexp","C:/Users/User/Desktop/School/Research Methods","no","mono","no","18","no","white","no","yes","768","legacy","31","79","C:/Users/User/Desktop/School/Research Methods/LW-subject-1.csv","legacy","Lentiform Loewenfeld","3.3.9","0","h","NA","h","h","NA","h","337","NA","2048","8124","NA","337","2","legacy","1024","2","48000","-16","experiment","HHSHH","1","odd","192877","193952","3958","143738","NA","181679","1903","166930","NA","193954","1909","135612","NA","194056","194395","194056","Flanker Task","100","44516","112","yes","1024"
"89.38053097345133","89.38053097345133","397.14159292035396","397.14159292035396","black","legacy","legacy","legacy","0","congruent","uniform","1","undefined","1","s","112","112","0","0","0","112","0","112","0","112","0","0","0","112","112","112","Sat Sep 18 16:35:00 2021","600","The main experiment item","yes","FlankerTask.osexp","C:/Users/User/Desktop/School/Research Methods","no","mono","no","18","no","white","no","yes","768","legacy","32","79","C:/Users/User/Desktop/School/Research Methods/LW-subject-1.csv","legacy","Lentiform Loewenfeld","3.3.9","0","s","NA","h","h","NA","s","361","NA","2048","8124","NA","361","2","legacy","1024","2","48000","-16","experiment","SSSSS","1","odd","194901","195976","3958","143738","NA","194399","1903","166930","NA","195979","1909","135612","NA","196081","196443","196081","Flanker Task","101","44877","113","yes","1024"
"88.59649122807018","88.59649122807018","396.5964912280702","396.5964912280702","black","legacy","legacy","legacy","0","incongruent","uniform","0","undefined","0","h","113","113","0","0","0","113","0","113","0","113","0","0","0","113","113","113","Sat Sep 18 16:35:00 2021","600","The main experiment item","yes","FlankerTask.osexp","C:/Users/User/Desktop/School/Research Methods","no","mono","no","18","no","white","no","yes","768","legacy","33","79","C:/Users/User/Desktop/School/Research Methods/LW-subject-1.csv","legacy","Lentiform Loewenfeld","3.3.9","0","s","NA","h","h","NA","s","335","NA","2048","8124","NA","335","2","legacy","1024","2","48000","-16","experiment","SSHSS","1","odd","196448","197524","3958","143738","NA","194399","1903","166930","NA","197526","1909","135612","NA","197628","197965","197628","Flanker Task","101","45212","114","yes","1024"
"88.69565217391305","88.69565217391305","396.97391304347826","396.97391304347826","black","legacy","legacy","legacy","0","incongruent","uniform","1","undefined","1","s","114","114","0","0","0","114","0","114","0","114","0","0","0","114","114","114","Sat Sep 18 16:35:00 2021","600","The main experiment item","yes","FlankerTask.osexp","C:/Users/User/Desktop/School/Research Methods","no","mono","no","18","no","white","no","yes","768","legacy","34","79","C:/Users/User/Desktop/School/Research Methods/LW-subject-1.csv","legacy","Lentiform Loewenfeld","3.3.9","0","s","NA","h","h","NA","s","440","NA","2048","8124","NA","440","2","legacy","1024","2","48000","-16","experiment","HHSHH","1","odd","198471","199546","3958","143738","NA","197969","1903","166930","NA","199549","1909","135612","NA","199651","200093","199651","Flanker Task","102","45652","115","yes","1024"
"87.93103448275862","87.93103448275862","397.1810344827586","397.1810344827586","black","legacy","legacy","legacy","0","incongruent","uniform","0","undefined","0","h","115","115","0","0","0","115","0","115","0","115","0","0","0","115","115","115","Sat Sep 18 16:35:00 2021","600","The main experiment item","yes","FlankerTask.osexp","C:/Users/User/Desktop/School/Research Methods","no","mono","no","18","no","white","no","yes","768","legacy","35","79","C:/Users/User/Desktop/School/Research Methods/LW-subject-1.csv","legacy","Lentiform Loewenfeld","3.3.9","0","s","NA","h","h","NA","s","421","NA","2048","8124","NA","421","2","legacy","1024","2","48000","-16","experiment","SSHSS","1","odd","200097","201172","3958","143738","NA","197969","1903","166930","NA","201174","1909","135612","NA","201276","201699","201276","Flanker Task","102","46073","116","yes","1024"
"88.03418803418803","88.03418803418803","397.8290598290598","397.8290598290598","black","legacy","legacy","legacy","0","incongruent","uniform","1","undefined","1","h","116","116","0","0","0","116","0","116","0","116","0","0","0","116","116","116","Sat Sep 18 16:35:00 2021","600","The main experiment item","yes","FlankerTask.osexp","C:/Users/User/Desktop/School/Research Methods","no","mono","no","18","no","white","no","yes","768","legacy","36","79","C:/Users/User/Desktop/School/Research Methods/LW-subject-1.csv","legacy","Lentiform Loewenfeld","3.3.9","0","h","NA","h","h","NA","h","473","NA","2048","8124","NA","473","2","legacy","1024","2","48000","-16","experiment","SSHSS","1","odd","202206","203282","3958","143738","NA","201704","1903","166930","NA","203284","1909","135612","NA","203386","203861","203386","Flanker Task","103","46546","117","yes","1024"
