"acc","accuracy","average_response_time","avg_rt","background","canvas_backend","clock_backend","color_backend","condition","correct","correct_instructions1","correct_keyboard_response","correct_response","count_Block1","count_Block2","count_Block3","count_ErrorFeedback","count_Fixation","count_ISI","count_Logger","count_Sequence","count_Stimulus","count_experiment","count_faster","count_instructions1","count_instructions2","count_instructions3","count_keyboard_response","count_new_sketchpad","datetime","deadline","description","disable_garbage_collection","experiment_file","experiment_path","font_bold","font_family","font_italic","font_size","font_underline","foreground","form_clicks","fullscreen","height","keyboard_backend","live_row","live_row_Block1","logfile","mouse_backend","opensesame_codename","opensesame_version","repeat_cycle","response","response_instructions1","response_instructions2","response_instructions3","response_keyboard_response","response_new_sketchpad","response_time","response_time_instructions1","response_time_instructions2","response_time_instructions3","response_time_keyboard_response","response_time_new_sketchpad","round_decimals","sampler_backend","sound_buf_size","sound_channels","sound_freq","sound_sample_size","start","stimulus","subject_nr","subject_parity","time_Block1","time_Block2","time_Block3","time_ErrorFeedback","time_Fixation","time_ISI","time_Logger","time_Sequence","time_Stimulus","time_experiment","time_faster","time_instructions1","time_instructions2","time_instructions3","time_keyboard_response","time_new_sketchpad","title","total_correct","total_response_time","total_responses","width"
"0","0","528","528","#000000","legacy","legacy","legacy","Incongruent","0","undefined","0","s","0","0","0","0","0","0","0","0","0","0","0","0","0","0","0","0","Sun Sep 24 19:43:19 2023","1500","The main experiment item","False","Edward Banda Flanker Task.osexp","C:\Users\Edward Banda\Desktop\Avd Quant Methods 5316","False","mono","False","18","no","white","no","yes","768","legacy","0","0","C:/Users/Edward Banda/Desktop/EB-subject-4.csv","legacy","Melodramatic Milgram","4.0.5","0","h","s","NA","NA","h","NA","528.0","3866","NA","NA","528","NA","2","legacy","1024","2","48000","-16","experiment","HHSHH","4","even","6000","NA","NA","NA","6062","NA","6692","6061","6163","2129","NA","2132","NA","NA","6164","NA","Flanker Task","0","528.0","1","1024"
"50","50","508","508","#000000","legacy","legacy","legacy","Incongruent","1","undefined","1","s","0","0","0","1","1","1","1","1","1","0","1","0","0","0","1","0","Sun Sep 24 19:43:19 2023","1500","The main experiment item","False","Edward Banda Flanker Task.osexp","C:\Users\Edward Banda\Desktop\Avd Quant Methods 5316","False","mono","False","18","no","white","no","yes","768","legacy","1","1","C:/Users/Edward Banda/Desktop/EB-subject-4.csv","legacy","Melodramatic Milgram","4.0.5","0","s","s","NA","NA","s","NA","488.0","3866","NA","NA","488","NA","2","legacy","1024","2","48000","-16","experiment","HHSHH","4","even","6000","NA","NA","6707","8245","7208","8835","8244","8346","2129","NA","2132","NA","NA","8346","NA","Flanker Task","1","1016.0","2","1024"
"66","66","444","444","#000000","legacy","legacy","legacy","Incongruent","1","undefined","1","s","0","0","0","2","2","2","2","2","2","0","2","0","0","0","2","0","Sun Sep 24 19:43:19 2023","1500","The main experiment item","False","Edward Banda Flanker Task.osexp","C:\Users\Edward Banda\Desktop\Avd Quant Methods 5316","False","mono","False","18","no","white","no","yes","768","legacy","2","2","C:/Users/Edward Banda/Desktop/EB-subject-4.csv","legacy","Melodramatic Milgram","4.0.5","0","s","s","NA","NA","s","NA","316.0","3866","NA","NA","316","NA","2","legacy","1024","2","48000","-16","experiment","HHSHH","4","even","6000","NA","NA","6707","9875","8837","10294","9874","9977","2129","NA","2132","NA","NA","9977","NA","Flanker Task","2","1332.0","3","1024"
"50","50","420","420","#000000","legacy","legacy","legacy","Incongruent","0","undefined","0","s","0","0","0","3","3","3","3","3","3","0","3","0","0","0","3","0","Sun Sep 24 19:43:19 2023","1500","The main experiment item","False","Edward Banda Flanker Task.osexp","C:\Users\Edward Banda\Desktop\Avd Quant Methods 5316","False","mono","False","18","no","white","no","yes","768","legacy","3","3","C:/Users/Edward Banda/Desktop/EB-subject-4.csv","legacy","Melodramatic Milgram","4.0.5","0","h","s","NA","NA","h","NA","350.0","3866","NA","NA","350","NA","2","legacy","1024","2","48000","-16","experiment","HHSHH","4","even","6000","NA","NA","6707","11340","10305","11792","11338","11441","2129","NA","2132","NA","NA","11441","NA","Flanker Task","2","1682.0","4","1024"
"60","60","408","408","#000000","legacy","legacy","legacy","Congruent","1","undefined","1","h","0","0","0","4","4","4","4","4","4","0","4","0","0","0","4","0","Sun Sep 24 19:43:19 2023","1500","The main experiment item","False","Edward Banda Flanker Task.osexp","C:\Users\Edward Banda\Desktop\Avd Quant Methods 5316","False","mono","False","18","no","white","no","yes","768","legacy","4","4","C:/Users/Edward Banda/Desktop/EB-subject-4.csv","legacy","Melodramatic Milgram","4.0.5","0","h","s","NA","NA","h","NA","358.0","3866","NA","NA","358","NA","2","legacy","1024","2","48000","-16","experiment","HHHHH","4","even","6000","NA","NA","11804","13350","12305","13810","13347","13451","2129","NA","2132","NA","NA","13451","NA","Flanker Task","3","2040.0","5","1024"
"66","66","392","392","#000000","legacy","legacy","legacy","Incongruent","1","undefined","1","s","0","0","0","5","5","5","5","5","5","0","5","0","0","0","5","0","Sun Sep 24 19:43:19 2023","1500","The main experiment item","False","Edward Banda Flanker Task.osexp","C:\Users\Edward Banda\Desktop\Avd Quant Methods 5316","False","mono","False","18","no","white","no","yes","768","legacy","5","5","C:/Users/Edward Banda/Desktop/EB-subject-4.csv","legacy","Melodramatic Milgram","4.0.5","0","s","s","NA","NA","s","NA","316.0","3866","NA","NA","316","NA","2","legacy","1024","2","48000","-16","experiment","HHSHH","4","even","6000","NA","NA","11804","14860","13823","15278","14858","14961","2129","NA","2132","NA","NA","14961","NA","Flanker Task","4","2356.0","6","1024"
"57","57","381","381","#000000","legacy","legacy","legacy","Incongruent","0","undefined","0","s","0","0","0","6","6","6","6","6","6","0","6","0","0","0","6","0","Sun Sep 24 19:43:19 2023","1500","The main experiment item","False","Edward Banda Flanker Task.osexp","C:\Users\Edward Banda\Desktop\Avd Quant Methods 5316","False","mono","False","18","no","white","no","yes","768","legacy","6","6","C:/Users/Edward Banda/Desktop/EB-subject-4.csv","legacy","Melodramatic Milgram","4.0.5","0","h","s","NA","NA","h","NA","312.0","3866","NA","NA","312","NA","2","legacy","1024","2","48000","-16","experiment","HHSHH","4","even","6000","NA","NA","11804","16317","15282","16731","16314","16418","2129","NA","2132","NA","NA","16418","NA","Flanker Task","4","2668.0","7","1024"
"62","62","365","365","#000000","legacy","legacy","legacy","Congruent","1","undefined","1","s","0","0","0","7","7","7","7","7","7","0","7","0","0","0","7","0","Sun Sep 24 19:43:19 2023","1500","The main experiment item","False","Edward Banda Flanker Task.osexp","C:\Users\Edward Banda\Desktop\Avd Quant Methods 5316","False","mono","False","18","no","white","no","yes","768","legacy","7","7","C:/Users/Edward Banda/Desktop/EB-subject-4.csv","legacy","Melodramatic Milgram","4.0.5","0","s","s","NA","NA","s","NA","257.0","3866","NA","NA","257","NA","2","legacy","1024","2","48000","-16","experiment","SSSSS","4","even","6000","NA","NA","16743","18285","17244","18643","18283","18386","2129","NA","2132","NA","NA","18386","NA","Flanker Task","5","2925.0","8","1024"
"66","66","365","365","#000000","legacy","legacy","legacy","Congruent","1","undefined","1","h","0","0","0","8","8","8","8","8","8","0","8","0","0","0","8","0","Sun Sep 24 19:43:19 2023","1500","The main experiment item","False","Edward Banda Flanker Task.osexp","C:\Users\Edward Banda\Desktop\Avd Quant Methods 5316","False","mono","False","18","no","white","no","yes","768","legacy","8","8","C:/Users/Edward Banda/Desktop/EB-subject-4.csv","legacy","Melodramatic Milgram","4.0.5","0","h","s","NA","NA","h","NA","367.0","3866","NA","NA","367","NA","2","legacy","1024","2","48000","-16","experiment","HHHHH","4","even","6000","NA","NA","16743","19693","18655","20162","19691","19794","2129","NA","2132","NA","NA","19794","NA","Flanker Task","6","3292.0","9","1024"
"70","70","365","365","#000000","legacy","legacy","legacy","Congruent","1","undefined","1","h","0","0","0","9","9","9","9","9","9","0","9","0","0","0","9","0","Sun Sep 24 19:43:19 2023","1500","The main experiment item","False","Edward Banda Flanker Task.osexp","C:\Users\Edward Banda\Desktop\Avd Quant Methods 5316","False","mono","False","18","no","white","no","yes","768","legacy","9","9","C:/Users/Edward Banda/Desktop/EB-subject-4.csv","legacy","Melodramatic Milgram","4.0.5","0","h","s","NA","NA","h","NA","362.0","3866","NA","NA","362","NA","2","legacy","1024","2","48000","-16","experiment","HHHHH","4","even","6000","NA","NA","16743","21211","20170","21676","21209","21312","2129","NA","2132","NA","NA","21313","NA","Flanker Task","7","3654.0","10","1024"
"72","72","362","362","#000000","legacy","legacy","legacy","Congruent","1","undefined","1","s","0","0","0","10","10","10","10","10","10","0","10","0","0","0","10","0","Sun Sep 24 19:43:19 2023","1500","The main experiment item","False","Edward Banda Flanker Task.osexp","C:\Users\Edward Banda\Desktop\Avd Quant Methods 5316","False","mono","False","18","no","white","no","yes","768","legacy","10","10","C:/Users/Edward Banda/Desktop/EB-subject-4.csv","legacy","Melodramatic Milgram","4.0.5","0","s","s","NA","NA","s","NA","334.0","3866","NA","NA","334","NA","2","legacy","1024","2","48000","-16","experiment","SSSSS","4","even","6000","NA","NA","16743","22723","21688","23158","22721","22824","2129","NA","2132","NA","NA","22824","NA","Flanker Task","8","3988.0","11","1024"
"66","66","359","359","#000000","legacy","legacy","legacy","Incongruent","0","undefined","0","s","0","0","0","11","11","11","11","11","11","0","11","0","0","0","11","0","Sun Sep 24 19:43:19 2023","1500","The main experiment item","False","Edward Banda Flanker Task.osexp","C:\Users\Edward Banda\Desktop\Avd Quant Methods 5316","False","mono","False","18","no","white","no","yes","768","legacy","11","11","C:/Users/Edward Banda/Desktop/EB-subject-4.csv","legacy","Melodramatic Milgram","4.0.5","0","h","s","NA","NA","h","NA","322.0","3866","NA","NA","322","NA","2","legacy","1024","2","48000","-16","experiment","HHSHH","4","even","6000","NA","NA","16743","24203","23170","24626","24201","24304","2129","NA","2132","NA","NA","24304","NA","Flanker Task","8","4310.0","12","1024"
"61","61","355","355","#000000","legacy","legacy","legacy","Congruent","0","undefined","0","h","0","0","0","12","12","12","12","12","12","0","12","0","0","0","12","0","Sun Sep 24 19:43:19 2023","1500","The main experiment item","False","Edward Banda Flanker Task.osexp","C:\Users\Edward Banda\Desktop\Avd Quant Methods 5316","False","mono","False","18","no","white","no","yes","768","legacy","12","12","C:/Users/Edward Banda/Desktop/EB-subject-4.csv","legacy","Melodramatic Milgram","4.0.5","0","s","s","NA","NA","s","NA","315.0","3866","NA","NA","315","NA","2","legacy","1024","2","48000","-16","experiment","HHHHH","4","even","6000","NA","NA","24638","26173","25139","26590","26170","26274","2129","NA","2132","NA","NA","26274","NA","Flanker Task","8","4625.0","13","1024"
"57","57","356","356","#000000","legacy","legacy","legacy","Incongruent","0","undefined","0","h","0","0","0","13","13","13","13","13","13","0","13","0","0","0","13","0","Sun Sep 24 19:43:19 2023","1500","The main experiment item","False","Edward Banda Flanker Task.osexp","C:\Users\Edward Banda\Desktop\Avd Quant Methods 5316","False","mono","False","18","no","white","no","yes","768","legacy","13","13","C:/Users/Edward Banda/Desktop/EB-subject-4.csv","legacy","Melodramatic Milgram","4.0.5","0","s","s","NA","NA","s","NA","361.0","3866","NA","NA","361","NA","2","legacy","1024","2","48000","-16","experiment","SSHSS","4","even","6000","NA","NA","26602","28134","27103","28597","28132","28235","2129","NA","2132","NA","NA","28235","NA","Flanker Task","8","4986.0","14","1024"
"60","60","356","356","#000000","legacy","legacy","legacy","Incongruent","1","undefined","1","s","0","0","0","14","14","14","14","14","14","0","14","0","0","0","14","0","Sun Sep 24 19:43:19 2023","1500","The main experiment item","False","Edward Banda Flanker Task.osexp","C:\Users\Edward Banda\Desktop\Avd Quant Methods 5316","False","mono","False","18","no","white","no","yes","768","legacy","14","14","C:/Users/Edward Banda/Desktop/EB-subject-4.csv","legacy","Melodramatic Milgram","4.0.5","0","s","s","NA","NA","s","NA","363.0","3866","NA","NA","363","NA","2","legacy","1024","2","48000","-16","experiment","HHSHH","4","even","6000","NA","NA","28609","30140","29110","30604","30137","30241","2129","NA","2132","NA","NA","30241","NA","Flanker Task","9","5349.0","15","1024"
"62","62","358","358","#000000","legacy","legacy","legacy","Congruent","1","undefined","1","h","0","0","0","15","15","15","15","15","15","0","15","0","0","0","15","0","Sun Sep 24 19:43:19 2023","1500","The main experiment item","False","Edward Banda Flanker Task.osexp","C:\Users\Edward Banda\Desktop\Avd Quant Methods 5316","False","mono","False","18","no","white","no","yes","768","legacy","15","15","C:/Users/Edward Banda/Desktop/EB-subject-4.csv","legacy","Melodramatic Milgram","4.0.5","0","h","s","NA","NA","h","NA","388.0","3866","NA","NA","388","NA","2","legacy","1024","2","48000","-16","experiment","HHHHH","4","even","6000","NA","NA","28609","31653","30617","32143","31651","31754","2129","NA","2132","NA","NA","31754","NA","Flanker Task","10","5737.0","16","1024"
"64","64","359","359","#000000","legacy","legacy","legacy","Congruent","1","undefined","1","h","0","0","0","16","16","16","16","16","16","0","16","0","0","0","16","0","Sun Sep 24 19:43:19 2023","1500","The main experiment item","False","Edward Banda Flanker Task.osexp","C:\Users\Edward Banda\Desktop\Avd Quant Methods 5316","False","mono","False","18","no","white","no","yes","768","legacy","16","16","C:/Users/Edward Banda/Desktop/EB-subject-4.csv","legacy","Melodramatic Milgram","4.0.5","0","h","s","NA","NA","h","NA","375.0","3866","NA","NA","375","NA","2","legacy","1024","2","48000","-16","experiment","HHHHH","4","even","6000","NA","NA","28609","33190","32155","33666","33188","33291","2129","NA","2132","NA","NA","33291","NA","Flanker Task","11","6112.0","17","1024"
"61","61","360","360","#000000","legacy","legacy","legacy","Incongruent","0","undefined","0","h","0","0","0","17","17","17","17","17","17","0","17","0","0","0","17","0","Sun Sep 24 19:43:19 2023","1500","The main experiment item","False","Edward Banda Flanker Task.osexp","C:\Users\Edward Banda\Desktop\Avd Quant Methods 5316","False","mono","False","18","no","white","no","yes","768","legacy","17","17","C:/Users/Edward Banda/Desktop/EB-subject-4.csv","legacy","Melodramatic Milgram","4.0.5","0","s","s","NA","NA","s","NA","377.0","3866","NA","NA","377","NA","2","legacy","1024","2","48000","-16","experiment","SSHSS","4","even","6000","NA","NA","28609","34716","33669","35195","34714","34817","2129","NA","2132","NA","NA","34817","NA","Flanker Task","11","6489.0","18","1024"
"63","63","363","363","#000000","legacy","legacy","legacy","Incongruent","1","undefined","1","h","0","0","0","18","18","18","18","18","18","0","18","0","0","0","18","0","Sun Sep 24 19:43:19 2023","1500","The main experiment item","False","Edward Banda Flanker Task.osexp","C:\Users\Edward Banda\Desktop\Avd Quant Methods 5316","False","mono","False","18","no","white","no","yes","768","legacy","18","18","C:/Users/Edward Banda/Desktop/EB-subject-4.csv","legacy","Melodramatic Milgram","4.0.5","0","h","s","NA","NA","h","NA","408.0","3866","NA","NA","408","NA","2","legacy","1024","2","48000","-16","experiment","SSHSS","4","even","6000","NA","NA","35208","36747","35709","37257","36744","36848","2129","NA","2132","NA","NA","36848","NA","Flanker Task","12","6897.0","19","1024"
"60","60","364","364","#000000","legacy","legacy","legacy","Incongruent","0","undefined","0","h","0","0","0","19","19","19","19","19","19","0","19","0","0","0","19","0","Sun Sep 24 19:43:19 2023","1500","The main experiment item","False","Edward Banda Flanker Task.osexp","C:\Users\Edward Banda\Desktop\Avd Quant Methods 5316","False","mono","False","18","no","white","no","yes","768","legacy","19","19","C:/Users/Edward Banda/Desktop/EB-subject-4.csv","legacy","Melodramatic Milgram","4.0.5","0","s","s","NA","NA","s","NA","383.0","3866","NA","NA","383","NA","2","legacy","1024","2","48000","-16","experiment","SSHSS","4","even","6000","NA","NA","35208","38303","37270","38787","38301","38404","2129","NA","2132","NA","NA","38404","NA","Flanker Task","12","7280.0","20","1024"
"61","61","367","367","#000000","legacy","legacy","legacy","Incongruent","1","undefined","1","h","0","0","0","20","20","20","20","20","20","0","20","0","0","0","20","0","Sun Sep 24 19:43:19 2023","1500","The main experiment item","False","Edward Banda Flanker Task.osexp","C:\Users\Edward Banda\Desktop\Avd Quant Methods 5316","False","mono","False","18","no","white","no","yes","768","legacy","20","20","C:/Users/Edward Banda/Desktop/EB-subject-4.csv","legacy","Melodramatic Milgram","4.0.5","0","h","s","NA","NA","h","NA","427.0","3866","NA","NA","427","NA","2","legacy","1024","2","48000","-16","experiment","SSHSS","4","even","6000","NA","NA","38790","40324","39291","40852","40323","40425","2129","NA","2132","NA","NA","40425","NA","Flanker Task","13","7707.0","21","1024"
"63","63","368","368","#000000","legacy","legacy","legacy","Congruent","1","undefined","1","h","0","0","0","21","21","21","21","21","21","0","21","0","0","0","21","0","Sun Sep 24 19:43:19 2023","1500","The main experiment item","False","Edward Banda Flanker Task.osexp","C:\Users\Edward Banda\Desktop\Avd Quant Methods 5316","False","mono","False","18","no","white","no","yes","768","legacy","21","21","C:/Users/Edward Banda/Desktop/EB-subject-4.csv","legacy","Melodramatic Milgram","4.0.5","0","h","s","NA","NA","h","NA","409.0","3866","NA","NA","409","NA","2","legacy","1024","2","48000","-16","experiment","HHHHH","4","even","6000","NA","NA","38790","41895","40855","42406","41893","41996","2129","NA","2132","NA","NA","41996","NA","Flanker Task","14","8116.0","22","1024"
"60","60","366","366","#000000","legacy","legacy","legacy","Incongruent","0","undefined","0","h","0","0","0","22","22","22","22","22","22","0","22","0","0","0","22","0","Sun Sep 24 19:43:19 2023","1500","The main experiment item","False","Edward Banda Flanker Task.osexp","C:\Users\Edward Banda\Desktop\Avd Quant Methods 5316","False","mono","False","18","no","white","no","yes","768","legacy","22","22","C:/Users/Edward Banda/Desktop/EB-subject-4.csv","legacy","Melodramatic Milgram","4.0.5","0","s","s","NA","NA","s","NA","312.0","3866","NA","NA","312","NA","2","legacy","1024","2","48000","-16","experiment","SSHSS","4","even","6000","NA","NA","38790","43450","42418","43864","43448","43551","2129","NA","2132","NA","NA","43551","NA","Flanker Task","14","8428.0","23","1024"
"58","58","364","364","#000000","legacy","legacy","legacy","Incongruent","0","undefined","0","s","0","0","0","23","23","23","23","23","23","0","23","0","0","0","23","0","Sun Sep 24 19:43:19 2023","1500","The main experiment item","False","Edward Banda Flanker Task.osexp","C:\Users\Edward Banda\Desktop\Avd Quant Methods 5316","False","mono","False","18","no","white","no","yes","768","legacy","23","23","C:/Users/Edward Banda/Desktop/EB-subject-4.csv","legacy","Melodramatic Milgram","4.0.5","0","h","s","NA","NA","h","NA","324.0","3866","NA","NA","324","NA","2","legacy","1024","2","48000","-16","experiment","HHSHH","4","even","6000","NA","NA","43876","45406","44377","45832","45404","45507","2129","NA","2132","NA","NA","45507","NA","Flanker Task","14","8752.0","24","1024"
"60","60","365","365","#000000","legacy","legacy","legacy","Congruent","1","undefined","1","s","0","0","0","24","24","24","24","24","24","0","24","0","0","0","24","0","Sun Sep 24 19:43:19 2023","1500","The main experiment item","False","Edward Banda Flanker Task.osexp","C:\Users\Edward Banda\Desktop\Avd Quant Methods 5316","False","mono","False","18","no","white","no","yes","768","legacy","24","24","C:/Users/Edward Banda/Desktop/EB-subject-4.csv","legacy","Melodramatic Milgram","4.0.5","0","s","s","NA","NA","s","NA","376.0","3866","NA","NA","376","NA","2","legacy","1024","2","48000","-16","experiment","SSSSS","4","even","6000","NA","NA","45844","47382","46345","47860","47380","47483","2129","NA","2132","NA","NA","47483","NA","Flanker Task","15","9128.0","25","1024"
"57","57","364","364","#000000","legacy","legacy","legacy","Congruent","0","undefined","0","s","0","0","0","25","25","25","25","25","25","0","25","0","0","0","25","0","Sun Sep 24 19:43:19 2023","1500","The main experiment item","False","Edward Banda Flanker Task.osexp","C:\Users\Edward Banda\Desktop\Avd Quant Methods 5316","False","mono","False","18","no","white","no","yes","768","legacy","25","25","C:/Users/Edward Banda/Desktop/EB-subject-4.csv","legacy","Melodramatic Milgram","4.0.5","0","h","s","NA","NA","h","NA","351.0","3866","NA","NA","351","NA","2","legacy","1024","2","48000","-16","experiment","SSSSS","4","even","6000","NA","NA","45844","48890","47862","49343","48888","48991","2129","NA","2132","NA","NA","48991","NA","Flanker Task","15","9479.0","26","1024"
"59","59","364","364","#000000","legacy","legacy","legacy","Incongruent","1","undefined","1","s","0","0","0","26","26","26","26","26","26","0","26","0","0","0","26","0","Sun Sep 24 19:43:19 2023","1500","The main experiment item","False","Edward Banda Flanker Task.osexp","C:\Users\Edward Banda\Desktop\Avd Quant Methods 5316","False","mono","False","18","no","white","no","yes","768","legacy","26","26","C:/Users/Edward Banda/Desktop/EB-subject-4.csv","legacy","Melodramatic Milgram","4.0.5","0","s","s","NA","NA","s","NA","350.0","3866","NA","NA","350","NA","2","legacy","1024","2","48000","-16","experiment","HHSHH","4","even","6000","NA","NA","49355","50894","49856","51346","50892","50995","2129","NA","2132","NA","NA","50995","NA","Flanker Task","16","9829.0","27","1024"
"60","60","362","362","#000000","legacy","legacy","legacy","Incongruent","1","undefined","1","h","0","0","0","27","27","27","27","27","27","0","27","0","0","0","27","0","Sun Sep 24 19:43:19 2023","1500","The main experiment item","False","Edward Banda Flanker Task.osexp","C:\Users\Edward Banda\Desktop\Avd Quant Methods 5316","False","mono","False","18","no","white","no","yes","768","legacy","27","27","C:/Users/Edward Banda/Desktop/EB-subject-4.csv","legacy","Melodramatic Milgram","4.0.5","0","h","s","NA","NA","h","NA","331.0","3866","NA","NA","331","NA","2","legacy","1024","2","48000","-16","experiment","SSHSS","4","even","6000","NA","NA","49355","52397","51358","52829","52395","52498","2129","NA","2132","NA","NA","52498","NA","Flanker Task","17","10160.0","28","1024"
"58","58","359","359","#000000","legacy","legacy","legacy","Congruent","0","undefined","0","h","0","0","0","28","28","28","28","28","28","0","28","0","0","0","28","0","Sun Sep 24 19:43:19 2023","1500","The main experiment item","False","Edward Banda Flanker Task.osexp","C:\Users\Edward Banda\Desktop\Avd Quant Methods 5316","False","mono","False","18","no","white","no","yes","768","legacy","28","28","C:/Users/Edward Banda/Desktop/EB-subject-4.csv","legacy","Melodramatic Milgram","4.0.5","0","s","s","NA","NA","s","NA","277.0","3866","NA","NA","277","NA","2","legacy","1024","2","48000","-16","experiment","HHHHH","4","even","6000","NA","NA","49355","53863","52832","54242","53861","53964","2129","NA","2132","NA","NA","53964","NA","Flanker Task","17","10437.0","29","1024"
"60","60","359","359","#000000","legacy","legacy","legacy","Incongruent","1","undefined","1","h","0","0","0","29","29","29","29","29","29","0","29","0","0","0","29","0","Sun Sep 24 19:43:19 2023","1500","The main experiment item","False","Edward Banda Flanker Task.osexp","C:\Users\Edward Banda\Desktop\Avd Quant Methods 5316","False","mono","False","18","no","white","no","yes","768","legacy","29","29","C:/Users/Edward Banda/Desktop/EB-subject-4.csv","legacy","Melodramatic Milgram","4.0.5","0","h","s","NA","NA","h","NA","339.0","3866","NA","NA","339","NA","2","legacy","1024","2","48000","-16","experiment","SSHSS","4","even","6000","NA","NA","54245","55785","54746","56226","55783","55886","2129","NA","2132","NA","NA","55886","NA","Flanker Task","18","10776.0","30","1024"
"61","61","363","363","#000000","legacy","legacy","legacy","Incongruent","1","undefined","1","h","0","0","0","30","30","30","30","30","30","0","30","0","0","0","30","0","Sun Sep 24 19:43:19 2023","1500","The main experiment item","False","Edward Banda Flanker Task.osexp","C:\Users\Edward Banda\Desktop\Avd Quant Methods 5316","False","mono","False","18","no","white","no","yes","768","legacy","30","30","C:/Users/Edward Banda/Desktop/EB-subject-4.csv","legacy","Melodramatic Milgram","4.0.5","0","h","s","NA","NA","h","NA","491.0","3866","NA","NA","491","NA","2","legacy","1024","2","48000","-16","experiment","SSHSS","4","even","6000","NA","NA","54245","57274","56238","57868","57272","57376","2129","NA","2132","NA","NA","57376","NA","Flanker Task","19","11267.0","31","1024"
"59","59","364","364","#000000","legacy","legacy","legacy","Congruent","0","undefined","0","s","0","0","0","31","31","31","31","31","31","0","31","0","0","0","31","0","Sun Sep 24 19:43:19 2023","1500","The main experiment item","False","Edward Banda Flanker Task.osexp","C:\Users\Edward Banda\Desktop\Avd Quant Methods 5316","False","mono","False","18","no","white","no","yes","768","legacy","31","31","C:/Users/Edward Banda/Desktop/EB-subject-4.csv","legacy","Melodramatic Milgram","4.0.5","0","h","s","NA","NA","h","NA","393.0","3866","NA","NA","393","NA","2","legacy","1024","2","48000","-16","experiment","SSSSS","4","even","6000","NA","NA","54245","58915","57880","59411","58912","59017","2129","NA","2132","NA","NA","59017","NA","Flanker Task","19","11660.0","32","1024"
"60","60","365","365","#000000","legacy","legacy","legacy","Congruent","1","undefined","1","h","0","0","0","32","32","32","32","32","32","0","32","0","0","0","32","0","Sun Sep 24 19:43:19 2023","1500","The main experiment item","False","Edward Banda Flanker Task.osexp","C:\Users\Edward Banda\Desktop\Avd Quant Methods 5316","False","mono","False","18","no","white","no","yes","768","legacy","32","32","C:/Users/Edward Banda/Desktop/EB-subject-4.csv","legacy","Melodramatic Milgram","4.0.5","0","h","s","NA","NA","h","NA","402.0","3866","NA","NA","402","NA","2","legacy","1024","2","48000","-16","experiment","HHHHH","4","even","6000","NA","NA","59424","60955","59925","61459","60953","61056","2129","NA","2132","NA","NA","61056","NA","Flanker Task","20","12062.0","33","1024"
"61","61","366","366","#000000","legacy","legacy","legacy","Congruent","1","undefined","1","s","0","0","0","33","33","33","33","33","33","0","33","0","0","0","33","0","Sun Sep 24 19:43:19 2023","1500","The main experiment item","False","Edward Banda Flanker Task.osexp","C:\Users\Edward Banda\Desktop\Avd Quant Methods 5316","False","mono","False","18","no","white","no","yes","768","legacy","33","33","C:/Users/Edward Banda/Desktop/EB-subject-4.csv","legacy","Melodramatic Milgram","4.0.5","0","s","s","NA","NA","s","NA","386.0","3866","NA","NA","386","NA","2","legacy","1024","2","48000","-16","experiment","SSSSS","4","even","6000","NA","NA","59424","62508","61471","62997","62506","62609","2129","NA","2132","NA","NA","62610","NA","Flanker Task","21","12448.0","34","1024"
"62","62","370","370","#000000","legacy","legacy","legacy","Congruent","1","undefined","1","s","0","0","0","34","34","34","34","34","34","0","34","0","0","0","34","0","Sun Sep 24 19:43:19 2023","1500","The main experiment item","False","Edward Banda Flanker Task.osexp","C:\Users\Edward Banda\Desktop\Avd Quant Methods 5316","False","mono","False","18","no","white","no","yes","768","legacy","34","34","C:/Users/Edward Banda/Desktop/EB-subject-4.csv","legacy","Melodramatic Milgram","4.0.5","0","s","s","NA","NA","s","NA","526.0","3866","NA","NA","526","NA","2","legacy","1024","2","48000","-16","experiment","SSSSS","4","even","6000","NA","NA","59424","64047","63010","64675","64045","64148","2129","NA","2132","NA","NA","64148","NA","Flanker Task","22","12974.0","35","1024"
"63","63","371","371","#000000","legacy","legacy","legacy","Congruent","1","undefined","1","s","0","0","0","35","35","35","35","35","35","0","35","0","0","0","35","0","Sun Sep 24 19:43:19 2023","1500","The main experiment item","False","Edward Banda Flanker Task.osexp","C:\Users\Edward Banda\Desktop\Avd Quant Methods 5316","False","mono","False","18","no","white","no","yes","768","legacy","35","35","C:/Users/Edward Banda/Desktop/EB-subject-4.csv","legacy","Melodramatic Milgram","4.0.5","0","s","s","NA","NA","s","NA","404.0","3866","NA","NA","404","NA","2","legacy","1024","2","48000","-16","experiment","SSSSS","4","even","6000","NA","NA","59424","65723","64678","66228","65721","65824","2129","NA","2132","NA","NA","65824","NA","Flanker Task","23","13378.0","36","1024"
"64","64","371","371","#000000","legacy","legacy","legacy","Congruent","1","undefined","1","s","0","0","0","36","36","36","36","36","36","0","36","0","0","0","36","0","Sun Sep 24 19:43:19 2023","1500","The main experiment item","False","Edward Banda Flanker Task.osexp","C:\Users\Edward Banda\Desktop\Avd Quant Methods 5316","False","mono","False","18","no","white","no","yes","768","legacy","36","36","C:/Users/Edward Banda/Desktop/EB-subject-4.csv","legacy","Melodramatic Milgram","4.0.5","0","s","s","NA","NA","s","NA","379.0","3866","NA","NA","379","NA","2","legacy","1024","2","48000","-16","experiment","SSSSS","4","even","6000","NA","NA","59424","67274","66241","67754","67272","67375","2129","NA","2132","NA","NA","67375","NA","Flanker Task","24","13757.0","37","1024"
"65","65","372","372","#000000","legacy","legacy","legacy","Congruent","1","undefined","1","h","0","0","0","37","37","37","37","37","37","0","37","0","0","0","37","0","Sun Sep 24 19:43:19 2023","1500","The main experiment item","False","Edward Banda Flanker Task.osexp","C:\Users\Edward Banda\Desktop\Avd Quant Methods 5316","False","mono","False","18","no","white","no","yes","768","legacy","37","37","C:/Users/Edward Banda/Desktop/EB-subject-4.csv","legacy","Melodramatic Milgram","4.0.5","0","h","s","NA","NA","h","NA","412.0","3866","NA","NA","412","NA","2","legacy","1024","2","48000","-16","experiment","HHHHH","4","even","6000","NA","NA","59424","68806","67767","69320","68804","68907","2129","NA","2132","NA","NA","68907","NA","Flanker Task","25","14169.0","38","1024"
"66","66","375","375","#000000","legacy","legacy","legacy","Incongruent","1","undefined","1","h","0","0","0","38","38","38","38","38","38","0","38","0","0","0","38","0","Sun Sep 24 19:43:19 2023","1500","The main experiment item","False","Edward Banda Flanker Task.osexp","C:\Users\Edward Banda\Desktop\Avd Quant Methods 5316","False","mono","False","18","no","white","no","yes","768","legacy","38","38","C:/Users/Edward Banda/Desktop/EB-subject-4.csv","legacy","Melodramatic Milgram","4.0.5","0","h","s","NA","NA","h","NA","486.0","3866","NA","NA","486","NA","2","legacy","1024","2","48000","-16","experiment","SSHSS","4","even","6000","NA","NA","59424","70365","69332","70953","70363","70466","2129","NA","2132","NA","NA","70466","NA","Flanker Task","26","14655.0","39","1024"
"67","67","376","376","#000000","legacy","legacy","legacy","Congruent","1","undefined","1","s","0","0","0","39","39","39","39","39","39","0","39","0","0","0","39","0","Sun Sep 24 19:43:19 2023","1500","The main experiment item","False","Edward Banda Flanker Task.osexp","C:\Users\Edward Banda\Desktop\Avd Quant Methods 5316","False","mono","False","18","no","white","no","yes","768","legacy","39","39","C:/Users/Edward Banda/Desktop/EB-subject-4.csv","legacy","Melodramatic Milgram","4.0.5","0","s","s","NA","NA","s","NA","418.0","3866","NA","NA","418","NA","2","legacy","1024","2","48000","-16","experiment","SSSSS","4","even","6000","NA","NA","59424","72001","70966","72521","71999","72102","2129","NA","2132","NA","NA","72102","NA","Flanker Task","27","15073.0","40","1024"
"68","68","378","378","#000000","legacy","legacy","legacy","Incongruent","1","undefined","1","s","0","0","0","40","40","40","40","40","40","0","40","0","0","0","40","0","Sun Sep 24 19:43:19 2023","1500","The main experiment item","False","Edward Banda Flanker Task.osexp","C:\Users\Edward Banda\Desktop\Avd Quant Methods 5316","False","mono","False","18","no","white","no","yes","768","legacy","40","40","C:/Users/Edward Banda/Desktop/EB-subject-4.csv","legacy","Melodramatic Milgram","4.0.5","0","s","s","NA","NA","s","NA","438.0","3866","NA","NA","438","NA","2","legacy","1024","2","48000","-16","experiment","HHSHH","4","even","6000","NA","NA","59424","73569","72533","74109","73567","73670","2129","NA","2132","NA","NA","73670","NA","Flanker Task","28","15511.0","41","1024"
"66","66","378","378","#000000","legacy","legacy","legacy","Incongruent","0","undefined","0","h","0","0","0","41","41","41","41","41","41","0","41","0","0","0","41","0","Sun Sep 24 19:43:19 2023","1500","The main experiment item","False","Edward Banda Flanker Task.osexp","C:\Users\Edward Banda\Desktop\Avd Quant Methods 5316","False","mono","False","18","no","white","no","yes","768","legacy","41","41","C:/Users/Edward Banda/Desktop/EB-subject-4.csv","legacy","Melodramatic Milgram","4.0.5","0","s","s","NA","NA","s","NA","393.0","3866","NA","NA","393","NA","2","legacy","1024","2","48000","-16","experiment","SSHSS","4","even","6000","NA","NA","59424","75146","74111","75642","75144","75248","2129","NA","2132","NA","NA","75248","NA","Flanker Task","28","15904.0","42","1024"
"67","67","380","380","#000000","legacy","legacy","legacy","Incongruent","1","undefined","1","s","0","0","0","42","42","42","42","42","42","0","42","0","0","0","42","0","Sun Sep 24 19:43:19 2023","1500","The main experiment item","False","Edward Banda Flanker Task.osexp","C:\Users\Edward Banda\Desktop\Avd Quant Methods 5316","False","mono","False","18","no","white","no","yes","768","legacy","42","42","C:/Users/Edward Banda/Desktop/EB-subject-4.csv","legacy","Melodramatic Milgram","4.0.5","0","s","s","NA","NA","s","NA","436.0","3866","NA","NA","436","NA","2","legacy","1024","2","48000","-16","experiment","HHSHH","4","even","6000","NA","NA","75654","77192","76156","77730","77191","77293","2129","NA","2132","NA","NA","77293","NA","Flanker Task","29","16340.0","43","1024"
"68","68","380","380","#000000","legacy","legacy","legacy","Incongruent","1","undefined","1","h","0","0","0","43","43","43","43","43","43","0","43","0","0","0","43","0","Sun Sep 24 19:43:19 2023","1500","The main experiment item","False","Edward Banda Flanker Task.osexp","C:\Users\Edward Banda\Desktop\Avd Quant Methods 5316","False","mono","False","18","no","white","no","yes","768","legacy","43","43","C:/Users/Edward Banda/Desktop/EB-subject-4.csv","legacy","Melodramatic Milgram","4.0.5","0","h","s","NA","NA","h","NA","396.0","3866","NA","NA","396","NA","2","legacy","1024","2","48000","-16","experiment","SSHSS","4","even","6000","NA","NA","75654","78790","77742","79288","78787","78891","2129","NA","2132","NA","NA","78891","NA","Flanker Task","30","16736.0","44","1024"
"68","68","382","382","#000000","legacy","legacy","legacy","Congruent","1","undefined","1","h","0","0","0","44","44","44","44","44","44","0","44","0","0","0","44","0","Sun Sep 24 19:43:19 2023","1500","The main experiment item","False","Edward Banda Flanker Task.osexp","C:\Users\Edward Banda\Desktop\Avd Quant Methods 5316","False","mono","False","18","no","white","no","yes","768","legacy","44","44","C:/Users/Edward Banda/Desktop/EB-subject-4.csv","legacy","Melodramatic Milgram","4.0.5","0","h","s","NA","NA","h","NA","474.0","3866","NA","NA","474","NA","2","legacy","1024","2","48000","-16","experiment","HHHHH","4","even","6000","NA","NA","75654","80334","79290","80911","80333","80436","2129","NA","2132","NA","NA","80436","NA","Flanker Task","31","17210.0","45","1024"
"69","69","383","383","#000000","legacy","legacy","legacy","Incongruent","1","undefined","1","h","0","0","0","45","45","45","45","45","45","0","45","0","0","0","45","0","Sun Sep 24 19:43:19 2023","1500","The main experiment item","False","Edward Banda Flanker Task.osexp","C:\Users\Edward Banda\Desktop\Avd Quant Methods 5316","False","mono","False","18","no","white","no","yes","768","legacy","45","45","C:/Users/Edward Banda/Desktop/EB-subject-4.csv","legacy","Melodramatic Milgram","4.0.5","0","h","s","NA","NA","h","NA","410.0","3866","NA","NA","410","NA","2","legacy","1024","2","48000","-16","experiment","SSHSS","4","even","6000","NA","NA","75654","81967","80924","82479","81965","82068","2129","NA","2132","NA","NA","82068","NA","Flanker Task","32","17620.0","46","1024"
"70","70","384","384","#000000","legacy","legacy","legacy","Incongruent","1","undefined","1","s","0","0","0","46","46","46","46","46","46","0","46","0","0","0","46","0","Sun Sep 24 19:43:19 2023","1500","The main experiment item","False","Edward Banda Flanker Task.osexp","C:\Users\Edward Banda\Desktop\Avd Quant Methods 5316","False","mono","False","18","no","white","no","yes","768","legacy","46","46","C:/Users/Edward Banda/Desktop/EB-subject-4.csv","legacy","Melodramatic Milgram","4.0.5","0","s","s","NA","NA","s","NA","428.0","3866","NA","NA","428","NA","2","legacy","1024","2","48000","-16","experiment","HHSHH","4","even","6000","NA","NA","75654","83528","82491","84058","83526","83629","2129","NA","2132","NA","NA","83629","NA","Flanker Task","33","18048.0","47","1024"
"70","70","385","385","#000000","legacy","legacy","legacy","Congruent","1","undefined","1","h","0","0","0","47","47","47","47","47","47","0","47","0","0","0","47","0","Sun Sep 24 19:43:19 2023","1500","The main experiment item","False","Edward Banda Flanker Task.osexp","C:\Users\Edward Banda\Desktop\Avd Quant Methods 5316","False","mono","False","18","no","white","no","yes","768","legacy","47","47","C:/Users/Edward Banda/Desktop/EB-subject-4.csv","legacy","Melodramatic Milgram","4.0.5","0","h","s","NA","NA","h","NA","474.0","3866","NA","NA","474","NA","2","legacy","1024","2","48000","-16","experiment","HHHHH","4","even","6000","NA","NA","75654","85105","84070","85680","85103","85206","2129","NA","2132","NA","NA","85206","NA","Flanker Task","34","18522.0","48","1024"
"69","69","386","386","#000000","legacy","legacy","legacy","Incongruent","0","undefined","0","h","0","0","0","48","48","48","48","48","48","0","48","0","0","0","48","0","Sun Sep 24 19:43:19 2023","1500","The main experiment item","False","Edward Banda Flanker Task.osexp","C:\Users\Edward Banda\Desktop\Avd Quant Methods 5316","False","mono","False","18","no","white","no","yes","768","legacy","48","48","C:/Users/Edward Banda/Desktop/EB-subject-4.csv","legacy","Melodramatic Milgram","4.0.5","0","s","s","NA","NA","s","NA","434.0","3866","NA","NA","434","NA","2","legacy","1024","2","48000","-16","experiment","SSHSS","4","even","6000","NA","NA","75654","86728","85693","87264","86726","86829","2129","NA","2132","NA","NA","86829","NA","Flanker Task","34","18956.0","49","1024"
"70","70","387","387","#000000","legacy","legacy","legacy","Congruent","1","undefined","1","h","0","0","0","49","49","49","49","49","49","0","49","0","0","0","49","0","Sun Sep 24 19:43:19 2023","1500","The main experiment item","False","Edward Banda Flanker Task.osexp","C:\Users\Edward Banda\Desktop\Avd Quant Methods 5316","False","mono","False","18","no","white","no","yes","768","legacy","49","49","C:/Users/Edward Banda/Desktop/EB-subject-4.csv","legacy","Melodramatic Milgram","4.0.5","0","h","s","NA","NA","h","NA","413.0","3866","NA","NA","413","NA","2","legacy","1024","2","48000","-16","experiment","HHHHH","4","even","6000","NA","NA","87276","88811","87777","89326","88809","88912","2129","NA","2132","NA","NA","88912","NA","Flanker Task","35","19369.0","50","1024"
"70","70","387","387","#000000","legacy","legacy","legacy","Incongruent","1","undefined","1","s","0","0","0","50","50","50","50","50","50","0","50","0","0","0","50","0","Sun Sep 24 19:43:19 2023","1500","The main experiment item","False","Edward Banda Flanker Task.osexp","C:\Users\Edward Banda\Desktop\Avd Quant Methods 5316","False","mono","False","18","no","white","no","yes","768","legacy","50","50","C:/Users/Edward Banda/Desktop/EB-subject-4.csv","legacy","Melodramatic Milgram","4.0.5","0","s","s","NA","NA","s","NA","389.0","3866","NA","NA","389","NA","2","legacy","1024","2","48000","-16","experiment","HHSHH","4","even","6000","NA","NA","87276","90373","89338","90864","90371","90474","2129","NA","2132","NA","NA","90474","NA","Flanker Task","36","19758.0","51","1024"
"71","71","386","386","#000000","legacy","legacy","legacy","Congruent","1","undefined","1","h","0","0","0","51","51","51","51","51","51","0","51","0","0","0","51","0","Sun Sep 24 19:43:19 2023","1500","The main experiment item","False","Edward Banda Flanker Task.osexp","C:\Users\Edward Banda\Desktop\Avd Quant Methods 5316","False","mono","False","18","no","white","no","yes","768","legacy","51","51","C:/Users/Edward Banda/Desktop/EB-subject-4.csv","legacy","Melodramatic Milgram","4.0.5","0","h","s","NA","NA","h","NA","360.0","3866","NA","NA","360","NA","2","legacy","1024","2","48000","-16","experiment","HHHHH","4","even","6000","NA","NA","87276","91906","90876","92367","91904","92007","2129","NA","2132","NA","NA","92007","NA","Flanker Task","37","20118.0","52","1024"
"71","71","387","387","#000000","legacy","legacy","legacy","Incongruent","1","undefined","1","s","0","0","0","52","52","52","52","52","52","0","52","0","0","0","52","0","Sun Sep 24 19:43:19 2023","1500","The main experiment item","False","Edward Banda Flanker Task.osexp","C:\Users\Edward Banda\Desktop\Avd Quant Methods 5316","False","mono","False","18","no","white","no","yes","768","legacy","52","52","C:/Users/Edward Banda/Desktop/EB-subject-4.csv","legacy","Melodramatic Milgram","4.0.5","0","s","s","NA","NA","s","NA","435.0","3866","NA","NA","435","NA","2","legacy","1024","2","48000","-16","experiment","HHSHH","4","even","6000","NA","NA","87276","93414","92380","93950","93412","93515","2129","NA","2132","NA","NA","93515","NA","Flanker Task","38","20553.0","53","1024"
"72","72","386","386","#000000","legacy","legacy","legacy","Congruent","1","undefined","1","s","0","0","0","53","53","53","53","53","53","0","53","0","0","0","53","0","Sun Sep 24 19:43:19 2023","1500","The main experiment item","False","Edward Banda Flanker Task.osexp","C:\Users\Edward Banda\Desktop\Avd Quant Methods 5316","False","mono","False","18","no","white","no","yes","768","legacy","53","53","C:/Users/Edward Banda/Desktop/EB-subject-4.csv","legacy","Melodramatic Milgram","4.0.5","0","s","s","NA","NA","s","NA","318.0","3866","NA","NA","318","NA","2","legacy","1024","2","48000","-16","experiment","SSSSS","4","even","6000","NA","NA","87276","95024","93963","95444","95021","95125","2129","NA","2132","NA","NA","95125","NA","Flanker Task","39","20871.0","54","1024"
"72","72","387","387","#000000","legacy","legacy","legacy","Incongruent","1","undefined","1","s","0","0","0","54","54","54","54","54","54","0","54","0","0","0","54","0","Sun Sep 24 19:43:19 2023","1500","The main experiment item","False","Edward Banda Flanker Task.osexp","C:\Users\Edward Banda\Desktop\Avd Quant Methods 5316","False","mono","False","18","no","white","no","yes","768","legacy","54","54","C:/Users/Edward Banda/Desktop/EB-subject-4.csv","legacy","Melodramatic Milgram","4.0.5","0","s","s","NA","NA","s","NA","466.0","3866","NA","NA","466","NA","2","legacy","1024","2","48000","-16","experiment","HHSHH","4","even","6000","NA","NA","87276","96493","95457","97062","96492","96595","2129","NA","2132","NA","NA","96595","NA","Flanker Task","40","21337.0","55","1024"
"73","73","386","386","#000000","legacy","legacy","legacy","Congruent","1","undefined","1","s","0","0","0","55","55","55","55","55","55","0","55","0","0","0","55","0","Sun Sep 24 19:43:19 2023","1500","The main experiment item","False","Edward Banda Flanker Task.osexp","C:\Users\Edward Banda\Desktop\Avd Quant Methods 5316","False","mono","False","18","no","white","no","yes","768","legacy","55","55","C:/Users/Edward Banda/Desktop/EB-subject-4.csv","legacy","Melodramatic Milgram","4.0.5","0","s","s","NA","NA","s","NA","334.0","3866","NA","NA","334","NA","2","legacy","1024","2","48000","-16","experiment","SSSSS","4","even","6000","NA","NA","87276","98104","97074","98540","98102","98205","2129","NA","2132","NA","NA","98205","NA","Flanker Task","41","21671.0","56","1024"
"73","73","388","388","#000000","legacy","legacy","legacy","Congruent","1","undefined","1","h","0","0","0","56","56","56","56","56","56","0","56","0","0","0","56","0","Sun Sep 24 19:43:19 2023","1500","The main experiment item","False","Edward Banda Flanker Task.osexp","C:\Users\Edward Banda\Desktop\Avd Quant Methods 5316","False","mono","False","18","no","white","no","yes","768","legacy","56","56","C:/Users/Edward Banda/Desktop/EB-subject-4.csv","legacy","Melodramatic Milgram","4.0.5","0","h","s","NA","NA","h","NA","489.0","3866","NA","NA","489","NA","2","legacy","1024","2","48000","-16","experiment","HHHHH","4","even","6000","NA","NA","87276","99593","98552","100183","99590","99694","2129","NA","2132","NA","NA","99694","NA","Flanker Task","42","22160.0","57","1024"
"74","74","388","388","#000000","legacy","legacy","legacy","Congruent","1","undefined","1","s","0","0","0","57","57","57","57","57","57","0","57","0","0","0","57","0","Sun Sep 24 19:43:19 2023","1500","The main experiment item","False","Edward Banda Flanker Task.osexp","C:\Users\Edward Banda\Desktop\Avd Quant Methods 5316","False","mono","False","18","no","white","no","yes","768","legacy","57","57","C:/Users/Edward Banda/Desktop/EB-subject-4.csv","legacy","Melodramatic Milgram","4.0.5","0","s","s","NA","NA","s","NA","390.0","3866","NA","NA","390","NA","2","legacy","1024","2","48000","-16","experiment","SSSSS","4","even","6000","NA","NA","87276","101234","100196","101726","101233","101335","2129","NA","2132","NA","NA","101335","NA","Flanker Task","43","22550.0","58","1024"
"72","72","388","388","#000000","legacy","legacy","legacy","Incongruent","0","undefined","0","s","0","0","0","58","58","58","58","58","58","0","58","0","0","0","58","0","Sun Sep 24 19:43:19 2023","1500","The main experiment item","False","Edward Banda Flanker Task.osexp","C:\Users\Edward Banda\Desktop\Avd Quant Methods 5316","False","mono","False","18","no","white","no","yes","768","legacy","58","58","C:/Users/Edward Banda/Desktop/EB-subject-4.csv","legacy","Melodramatic Milgram","4.0.5","0","h","s","NA","NA","h","NA","372.0","3866","NA","NA","372","NA","2","legacy","1024","2","48000","-16","experiment","HHSHH","4","even","6000","NA","NA","87276","102775","101738","103249","102773","102876","2129","NA","2132","NA","NA","102876","NA","Flanker Task","43","22922.0","59","1024"
"73","73","390","390","#000000","legacy","legacy","legacy","Congruent","1","undefined","1","s","0","0","0","59","59","59","59","59","59","0","59","0","0","0","59","0","Sun Sep 24 19:43:19 2023","1500","The main experiment item","False","Edward Banda Flanker Task.osexp","C:\Users\Edward Banda\Desktop\Avd Quant Methods 5316","False","mono","False","18","no","white","no","yes","768","legacy","59","59","C:/Users/Edward Banda/Desktop/EB-subject-4.csv","legacy","Melodramatic Milgram","4.0.5","0","s","s","NA","NA","s","NA","486.0","3866","NA","NA","486","NA","2","legacy","1024","2","48000","-16","experiment","SSSSS","4","even","6000","NA","NA","103251","104788","103752","105376","104786","104889","2129","NA","2132","NA","NA","104889","NA","Flanker Task","44","23408.0","60","1024"
"73","73","389","389","#000000","legacy","legacy","legacy","Congruent","1","undefined","1","s","0","0","0","60","60","60","60","60","60","0","60","0","0","0","60","0","Sun Sep 24 19:43:19 2023","1500","The main experiment item","False","Edward Banda Flanker Task.osexp","C:\Users\Edward Banda\Desktop\Avd Quant Methods 5316","False","mono","False","18","no","white","no","yes","768","legacy","60","60","C:/Users/Edward Banda/Desktop/EB-subject-4.csv","legacy","Melodramatic Milgram","4.0.5","0","s","s","NA","NA","s","NA","381.0","3866","NA","NA","381","NA","2","legacy","1024","2","48000","-16","experiment","SSSSS","4","even","6000","NA","NA","103251","106422","105388","106904","106420","106523","2129","NA","2132","NA","NA","106523","NA","Flanker Task","45","23789.0","61","1024"
"74","74","390","390","#000000","legacy","legacy","legacy","Congruent","1","undefined","1","h","0","0","0","61","61","61","61","61","61","0","61","0","0","0","61","0","Sun Sep 24 19:43:19 2023","1500","The main experiment item","False","Edward Banda Flanker Task.osexp","C:\Users\Edward Banda\Desktop\Avd Quant Methods 5316","False","mono","False","18","no","white","no","yes","768","legacy","61","61","C:/Users/Edward Banda/Desktop/EB-subject-4.csv","legacy","Melodramatic Milgram","4.0.5","0","h","s","NA","NA","h","NA","441.0","3866","NA","NA","441","NA","2","legacy","1024","2","48000","-16","experiment","HHHHH","4","even","6000","NA","NA","103251","107954","106917","108498","107952","108055","2129","NA","2132","NA","NA","108056","NA","Flanker Task","46","24230.0","62","1024"
"74","74","390","390","#000000","legacy","legacy","legacy","Congruent","1","undefined","1","h","0","0","0","62","62","62","62","62","62","0","62","0","0","0","62","0","Sun Sep 24 19:43:19 2023","1500","The main experiment item","False","Edward Banda Flanker Task.osexp","C:\Users\Edward Banda\Desktop\Avd Quant Methods 5316","False","mono","False","18","no","white","no","yes","768","legacy","62","62","C:/Users/Edward Banda/Desktop/EB-subject-4.csv","legacy","Melodramatic Milgram","4.0.5","0","h","s","NA","NA","h","NA","367.0","3866","NA","NA","367","NA","2","legacy","1024","2","48000","-16","experiment","HHHHH","4","even","6000","NA","NA","103251","109561","108510","110031","109559","109663","2129","NA","2132","NA","NA","109663","NA","Flanker Task","47","24597.0","63","1024"
"75","75","390","390","#000000","legacy","legacy","legacy","Incongruent","1","undefined","1","s","0","0","0","63","63","63","63","63","63","0","63","0","0","0","63","0","Sun Sep 24 19:43:19 2023","1500","The main experiment item","False","Edward Banda Flanker Task.osexp","C:\Users\Edward Banda\Desktop\Avd Quant Methods 5316","False","mono","False","18","no","white","no","yes","768","legacy","63","63","C:/Users/Edward Banda/Desktop/EB-subject-4.csv","legacy","Melodramatic Milgram","4.0.5","0","s","s","NA","NA","s","NA","402.0","3866","NA","NA","402","NA","2","legacy","1024","2","48000","-16","experiment","HHSHH","4","even","6000","NA","NA","103251","111079","110043","111584","111077","111181","2129","NA","2132","NA","NA","111181","NA","Flanker Task","48","24999.0","64","1024"
"73","73","389","389","#000000","legacy","legacy","legacy","Incongruent","0","undefined","0","h","0","0","0","64","64","64","64","64","64","0","64","0","0","0","64","0","Sun Sep 24 19:43:19 2023","1500","The main experiment item","False","Edward Banda Flanker Task.osexp","C:\Users\Edward Banda\Desktop\Avd Quant Methods 5316","False","mono","False","18","no","white","no","yes","768","legacy","64","64","C:/Users/Edward Banda/Desktop/EB-subject-4.csv","legacy","Melodramatic Milgram","4.0.5","0","s","s","NA","NA","s","NA","338.0","3866","NA","NA","338","NA","2","legacy","1024","2","48000","-16","experiment","SSHSS","4","even","6000","NA","NA","103251","112642","111596","113082","112640","112743","2129","NA","2132","NA","NA","112743","NA","Flanker Task","48","25337.0","65","1024"
"74","74","389","389","#000000","legacy","legacy","legacy","Congruent","1","undefined","1","s","0","0","0","65","65","65","65","65","65","0","65","0","0","0","65","0","Sun Sep 24 19:43:19 2023","1500","The main experiment item","False","Edward Banda Flanker Task.osexp","C:\Users\Edward Banda\Desktop\Avd Quant Methods 5316","False","mono","False","18","no","white","no","yes","768","legacy","65","65","C:/Users/Edward Banda/Desktop/EB-subject-4.csv","legacy","Melodramatic Milgram","4.0.5","0","s","s","NA","NA","s","NA","373.0","3866","NA","NA","373","NA","2","legacy","1024","2","48000","-16","experiment","SSSSS","4","even","6000","NA","NA","113094","114625","113595","115099","114623","114725","2129","NA","2132","NA","NA","114726","NA","Flanker Task","49","25710.0","66","1024"
"74","74","389","389","#000000","legacy","legacy","legacy","Incongruent","1","undefined","1","s","0","0","0","66","66","66","66","66","66","0","66","0","0","0","66","0","Sun Sep 24 19:43:19 2023","1500","The main experiment item","False","Edward Banda Flanker Task.osexp","C:\Users\Edward Banda\Desktop\Avd Quant Methods 5316","False","mono","False","18","no","white","no","yes","768","legacy","66","66","C:/Users/Edward Banda/Desktop/EB-subject-4.csv","legacy","Melodramatic Milgram","4.0.5","0","s","s","NA","NA","s","NA","358.0","3866","NA","NA","358","NA","2","legacy","1024","2","48000","-16","experiment","HHSHH","4","even","6000","NA","NA","113094","116148","115111","116608","116145","116249","2129","NA","2132","NA","NA","116249","NA","Flanker Task","50","26068.0","67","1024"
"75","75","388","388","#000000","legacy","legacy","legacy","Congruent","1","undefined","1","s","0","0","0","67","67","67","67","67","67","0","67","0","0","0","67","0","Sun Sep 24 19:43:19 2023","1500","The main experiment item","False","Edward Banda Flanker Task.osexp","C:\Users\Edward Banda\Desktop\Avd Quant Methods 5316","False","mono","False","18","no","white","no","yes","768","legacy","67","67","C:/Users/Edward Banda/Desktop/EB-subject-4.csv","legacy","Melodramatic Milgram","4.0.5","0","s","s","NA","NA","s","NA","377.0","3866","NA","NA","377","NA","2","legacy","1024","2","48000","-16","experiment","SSSSS","4","even","6000","NA","NA","113094","117657","116620","118136","117655","117758","2129","NA","2132","NA","NA","117758","NA","Flanker Task","51","26445.0","68","1024"
"75","75","388","388","#000000","legacy","legacy","legacy","Congruent","1","undefined","1","h","0","0","0","68","68","68","68","68","68","0","68","0","0","0","68","0","Sun Sep 24 19:43:19 2023","1500","The main experiment item","False","Edward Banda Flanker Task.osexp","C:\Users\Edward Banda\Desktop\Avd Quant Methods 5316","False","mono","False","18","no","white","no","yes","768","legacy","68","68","C:/Users/Edward Banda/Desktop/EB-subject-4.csv","legacy","Melodramatic Milgram","4.0.5","0","h","s","NA","NA","h","NA","369.0","3866","NA","NA","369","NA","2","legacy","1024","2","48000","-16","experiment","HHHHH","4","even","6000","NA","NA","113094","119184","118148","119654","119183","119285","2129","NA","2132","NA","NA","119285","NA","Flanker Task","52","26814.0","69","1024"
"74","74","388","388","#000000","legacy","legacy","legacy","Incongruent","0","undefined","0","h","0","0","0","69","69","69","69","69","69","0","69","0","0","0","69","0","Sun Sep 24 19:43:19 2023","1500","The main experiment item","False","Edward Banda Flanker Task.osexp","C:\Users\Edward Banda\Desktop\Avd Quant Methods 5316","False","mono","False","18","no","white","no","yes","768","legacy","69","69","C:/Users/Edward Banda/Desktop/EB-subject-4.csv","legacy","Melodramatic Milgram","4.0.5","0","s","s","NA","NA","s","NA","364.0","3866","NA","NA","364","NA","2","legacy","1024","2","48000","-16","experiment","SSHSS","4","even","6000","NA","NA","113094","120701","119667","121167","120700","120801","2129","NA","2132","NA","NA","120802","NA","Flanker Task","52","27178.0","70","1024"
"74","74","392","392","#000000","legacy","legacy","legacy","Incongruent","1","undefined","1","h","0","0","0","70","70","70","70","70","70","0","70","0","0","0","70","0","Sun Sep 24 19:43:19 2023","1500","The main experiment item","False","Edward Banda Flanker Task.osexp","C:\Users\Edward Banda\Desktop\Avd Quant Methods 5316","False","mono","False","18","no","white","no","yes","768","legacy","70","70","C:/Users/Edward Banda/Desktop/EB-subject-4.csv","legacy","Melodramatic Milgram","4.0.5","0","h","s","NA","NA","h","NA","655.0","3866","NA","NA","655","NA","2","legacy","1024","2","48000","-16","experiment","SSHSS","4","even","6000","NA","NA","121179","122708","121681","123465","122706","122809","2129","NA","2132","NA","NA","122809","NA","Flanker Task","53","27833.0","71","1024"
"75","75","392","392","#000000","legacy","legacy","legacy","Congruent","1","undefined","1","s","0","0","0","71","71","71","71","71","71","0","71","0","0","0","71","0","Sun Sep 24 19:43:19 2023","1500","The main experiment item","False","Edward Banda Flanker Task.osexp","C:\Users\Edward Banda\Desktop\Avd Quant Methods 5316","False","mono","False","18","no","white","no","yes","768","legacy","71","71","C:/Users/Edward Banda/Desktop/EB-subject-4.csv","legacy","Melodramatic Milgram","4.0.5","0","s","s","NA","NA","s","NA","415.0","3866","NA","NA","415","NA","2","legacy","1024","2","48000","-16","experiment","SSSSS","4","even","6000","NA","NA","121179","124521","123476","125038","124520","124622","2129","NA","2132","NA","NA","124622","NA","Flanker Task","54","28248.0","72","1024"
"75","75","393","393","#000000","legacy","legacy","legacy","Congruent","1","undefined","1","h","0","0","0","72","72","72","72","72","72","0","72","0","0","0","72","0","Sun Sep 24 19:43:19 2023","1500","The main experiment item","False","Edward Banda Flanker Task.osexp","C:\Users\Edward Banda\Desktop\Avd Quant Methods 5316","False","mono","False","18","no","white","no","yes","768","legacy","72","72","C:/Users/Edward Banda/Desktop/EB-subject-4.csv","legacy","Melodramatic Milgram","4.0.5","0","h","s","NA","NA","h","NA","444.0","3866","NA","NA","444","NA","2","legacy","1024","2","48000","-16","experiment","HHHHH","4","even","6000","NA","NA","121179","126085","125051","126631","126083","126186","2129","NA","2132","NA","NA","126186","NA","Flanker Task","55","28692.0","73","1024"
"75","75","393","393","#000000","legacy","legacy","legacy","Congruent","1","undefined","1","s","0","0","0","73","73","73","73","73","73","0","73","0","0","0","73","0","Sun Sep 24 19:43:19 2023","1500","The main experiment item","False","Edward Banda Flanker Task.osexp","C:\Users\Edward Banda\Desktop\Avd Quant Methods 5316","False","mono","False","18","no","white","no","yes","768","legacy","73","73","C:/Users/Edward Banda/Desktop/EB-subject-4.csv","legacy","Melodramatic Milgram","4.0.5","0","s","s","NA","NA","s","NA","408.0","3866","NA","NA","408","NA","2","legacy","1024","2","48000","-16","experiment","SSSSS","4","even","6000","NA","NA","121179","127679","126643","128189","127677","127780","2129","NA","2132","NA","NA","127780","NA","Flanker Task","56","29100.0","74","1024"
"76","76","393","393","#000000","legacy","legacy","legacy","Incongruent","1","undefined","1","h","0","0","0","74","74","74","74","74","74","0","74","0","0","0","74","0","Sun Sep 24 19:43:19 2023","1500","The main experiment item","False","Edward Banda Flanker Task.osexp","C:\Users\Edward Banda\Desktop\Avd Quant Methods 5316","False","mono","False","18","no","white","no","yes","768","legacy","74","74","C:/Users/Edward Banda/Desktop/EB-subject-4.csv","legacy","Melodramatic Milgram","4.0.5","0","h","s","NA","NA","h","NA","441.0","3866","NA","NA","441","NA","2","legacy","1024","2","48000","-16","experiment","SSHSS","4","even","6000","NA","NA","121179","129239","128202","129782","129237","129340","2129","NA","2132","NA","NA","129340","NA","Flanker Task","57","29541.0","75","1024"
"76","76","393","393","#000000","legacy","legacy","legacy","Congruent","1","undefined","1","h","0","0","0","75","75","75","75","75","75","0","75","0","0","0","75","0","Sun Sep 24 19:43:19 2023","1500","The main experiment item","False","Edward Banda Flanker Task.osexp","C:\Users\Edward Banda\Desktop\Avd Quant Methods 5316","False","mono","False","18","no","white","no","yes","768","legacy","75","75","C:/Users/Edward Banda/Desktop/EB-subject-4.csv","legacy","Melodramatic Milgram","4.0.5","0","h","s","NA","NA","h","NA","389.0","3866","NA","NA","389","NA","2","legacy","1024","2","48000","-16","experiment","HHHHH","4","even","6000","NA","NA","121179","130834","129794","131325","130832","130935","2129","NA","2132","NA","NA","130935","NA","Flanker Task","58","29930.0","76","1024"
"76","76","393","393","#000000","legacy","legacy","legacy","Congruent","1","undefined","1","s","0","0","0","76","76","76","76","76","76","0","76","0","0","0","76","0","Sun Sep 24 19:43:19 2023","1500","The main experiment item","False","Edward Banda Flanker Task.osexp","C:\Users\Edward Banda\Desktop\Avd Quant Methods 5316","False","mono","False","18","no","white","no","yes","768","legacy","76","76","C:/Users/Edward Banda/Desktop/EB-subject-4.csv","legacy","Melodramatic Milgram","4.0.5","0","s","s","NA","NA","s","NA","354.0","3866","NA","NA","354","NA","2","legacy","1024","2","48000","-16","experiment","SSSSS","4","even","6000","NA","NA","121179","132373","131337","132829","132371","132474","2129","NA","2132","NA","NA","132474","NA","Flanker Task","59","30284.0","77","1024"
"76","76","394","394","#000000","legacy","legacy","legacy","Incongruent","1","undefined","1","h","0","0","0","77","77","77","77","77","77","0","77","0","0","0","77","0","Sun Sep 24 19:43:19 2023","1500","The main experiment item","False","Edward Banda Flanker Task.osexp","C:\Users\Edward Banda\Desktop\Avd Quant Methods 5316","False","mono","False","18","no","white","no","yes","768","legacy","77","77","C:/Users/Edward Banda/Desktop/EB-subject-4.csv","legacy","Melodramatic Milgram","4.0.5","0","h","s","NA","NA","h","NA","465.0","3866","NA","NA","465","NA","2","legacy","1024","2","48000","-16","experiment","SSHSS","4","even","6000","NA","NA","121179","133880","132841","134447","133878","133981","2129","NA","2132","NA","NA","133981","NA","Flanker Task","60","30749.0","78","1024"
"77","77","395","395","#000000","legacy","legacy","legacy","Incongruent","1","undefined","1","h","0","0","0","78","78","78","78","78","78","0","78","0","0","0","78","0","Sun Sep 24 19:43:19 2023","1500","The main experiment item","False","Edward Banda Flanker Task.osexp","C:\Users\Edward Banda\Desktop\Avd Quant Methods 5316","False","mono","False","18","no","white","no","yes","768","legacy","78","78","C:/Users/Edward Banda/Desktop/EB-subject-4.csv","legacy","Melodramatic Milgram","4.0.5","0","h","s","NA","NA","h","NA","501.0","3866","NA","NA","501","NA","2","legacy","1024","2","48000","-16","experiment","SSHSS","4","even","6000","NA","NA","121179","135497","134460","136100","135495","135598","2129","NA","2132","NA","NA","135598","NA","Flanker Task","61","31250.0","79","1024"
"76","76","395","395","#000000","legacy","legacy","legacy","Incongruent","0","undefined","0","s","0","0","0","79","79","79","79","79","79","0","79","0","0","0","79","0","Sun Sep 24 19:43:19 2023","1500","The main experiment item","False","Edward Banda Flanker Task.osexp","C:\Users\Edward Banda\Desktop\Avd Quant Methods 5316","False","mono","False","18","no","white","no","yes","768","legacy","79","79","C:/Users/Edward Banda/Desktop/EB-subject-4.csv","legacy","Melodramatic Milgram","4.0.5","0","h","s","NA","NA","h","NA","426.0","3866","NA","NA","426","NA","2","legacy","1024","2","48000","-16","experiment","HHSHH","4","even","6000","NA","NA","121179","137149","136113","137677","137147","137250","2129","NA","2132","NA","NA","137250","NA","Flanker Task","61","31676.0","80","1024"
"75","75","400","400","#000000","legacy","legacy","legacy","Incongruent","0","undefined","0","h","0","0","0","80","80","80","80","80","80","0","80","0","0","0","80","0","Sun Sep 24 19:43:19 2023","600","The main experiment item","False","Edward Banda Flanker Task.osexp","C:\Users\Edward Banda\Desktop\Avd Quant Methods 5316","False","mono","False","18","no","white","no","yes","768","legacy","0","79","C:/Users/Edward Banda/Desktop/EB-subject-4.csv","legacy","Melodramatic Milgram","4.0.5","0","s","s","return","NA","s","NA","724.0","3866","126150","NA","724","NA","2","legacy","1024","2","48000","-16","experiment","SSHSS","4","even","6000","265343","NA","137690","265391","138191","266217","265389","265492","2129","NA","2132","139192","NA","265492","NA","Flanker Task","61","32400.0","81","1024"
"75","75","400","400","#000000","legacy","legacy","legacy","Congruent","1","undefined","1","s","0","0","0","81","81","81","81","81","81","0","81","0","0","0","81","0","Sun Sep 24 19:43:19 2023","600","The main experiment item","False","Edward Banda Flanker Task.osexp","C:\Users\Edward Banda\Desktop\Avd Quant Methods 5316","False","mono","False","18","no","white","no","yes","768","legacy","1","79","C:/Users/Edward Banda/Desktop/EB-subject-4.csv","legacy","Melodramatic Milgram","4.0.5","0","s","s","return","NA","s","NA","423.0","3866","126150","NA","423","NA","2","legacy","1024","2","48000","-16","experiment","SSSSS","4","even","6000","265343","NA","266229","268258","267231","268783","268256","268359","2129","266730","2132","139192","NA","268359","NA","Flanker Task","62","32823.0","82","1024"
"75","75","400","400","#000000","legacy","legacy","legacy","Incongruent","1","undefined","1","h","0","0","0","82","82","82","82","82","82","0","82","0","0","0","82","0","Sun Sep 24 19:43:19 2023","600","The main experiment item","False","Edward Banda Flanker Task.osexp","C:\Users\Edward Banda\Desktop\Avd Quant Methods 5316","False","mono","False","18","no","white","no","yes","768","legacy","2","79","C:/Users/Edward Banda/Desktop/EB-subject-4.csv","legacy","Melodramatic Milgram","4.0.5","0","h","s","return","NA","h","NA","455.0","3866","126150","NA","455","NA","2","legacy","1024","2","48000","-16","experiment","SSHSS","4","even","6000","265343","NA","266229","269829","268797","270386","269827","269930","2129","266730","2132","139192","NA","269930","NA","Flanker Task","63","33278.0","83","1024"
"75","75","400","400","#000000","legacy","legacy","legacy","Incongruent","0","undefined","0","s","0","0","0","83","83","83","83","83","83","0","83","0","0","0","83","0","Sun Sep 24 19:43:19 2023","600","The main experiment item","False","Edward Banda Flanker Task.osexp","C:\Users\Edward Banda\Desktop\Avd Quant Methods 5316","False","mono","False","18","no","white","no","yes","768","legacy","3","79","C:/Users/Edward Banda/Desktop/EB-subject-4.csv","legacy","Melodramatic Milgram","4.0.5","0","h","s","return","NA","h","NA","363.0","3866","126150","NA","363","NA","2","legacy","1024","2","48000","-16","experiment","HHSHH","4","even","6000","265343","NA","266229","271435","270398","271900","271433","271536","2129","266730","2132","139192","NA","271536","NA","Flanker Task","63","33641.0","84","1024"
"75","75","400","400","#000000","legacy","legacy","legacy","Incongruent","1","undefined","1","s","0","0","0","84","84","84","84","84","84","0","84","0","0","0","84","0","Sun Sep 24 19:43:19 2023","600","The main experiment item","False","Edward Banda Flanker Task.osexp","C:\Users\Edward Banda\Desktop\Avd Quant Methods 5316","False","mono","False","18","no","white","no","yes","768","legacy","4","79","C:/Users/Edward Banda/Desktop/EB-subject-4.csv","legacy","Melodramatic Milgram","4.0.5","0","s","s","return","NA","s","NA","384.0","3866","126150","NA","384","NA","2","legacy","1024","2","48000","-16","experiment","HHSHH","4","even","6000","265343","NA","271911","273446","272412","273933","273444","273547","2129","266730","2132","139192","NA","273547","NA","Flanker Task","64","34025.0","85","1024"
"75","75","399","399","#000000","legacy","legacy","legacy","Incongruent","1","undefined","1","h","0","0","0","85","85","85","85","85","85","0","85","0","0","0","85","0","Sun Sep 24 19:43:19 2023","600","The main experiment item","False","Edward Banda Flanker Task.osexp","C:\Users\Edward Banda\Desktop\Avd Quant Methods 5316","False","mono","False","18","no","white","no","yes","768","legacy","5","79","C:/Users/Edward Banda/Desktop/EB-subject-4.csv","legacy","Melodramatic Milgram","4.0.5","0","h","s","return","NA","h","NA","345.0","3866","126150","NA","345","NA","2","legacy","1024","2","48000","-16","experiment","SSHSS","4","even","6000","265343","NA","271911","274982","273945","275431","274981","275084","2129","266730","2132","139192","NA","275084","NA","Flanker Task","65","34370.0","86","1024"
"75","75","398","398","#000000","legacy","legacy","legacy","Congruent","1","undefined","1","s","0","0","0","86","86","86","86","86","86","0","86","0","0","0","86","0","Sun Sep 24 19:43:19 2023","600","The main experiment item","False","Edward Banda Flanker Task.osexp","C:\Users\Edward Banda\Desktop\Avd Quant Methods 5316","False","mono","False","18","no","white","no","yes","768","legacy","6","79","C:/Users/Edward Banda/Desktop/EB-subject-4.csv","legacy","Melodramatic Milgram","4.0.5","0","s","s","return","NA","s","NA","305.0","3866","126150","NA","305","NA","2","legacy","1024","2","48000","-16","experiment","SSSSS","4","even","6000","265343","NA","271911","276477","275443","276884","276475","276578","2129","266730","2132","139192","NA","276578","NA","Flanker Task","66","34675.0","87","1024"
"76","76","398","398","#000000","legacy","legacy","legacy","Congruent","1","undefined","1","s","0","0","0","87","87","87","87","87","87","0","87","0","0","0","87","0","Sun Sep 24 19:43:19 2023","600","The main experiment item","False","Edward Banda Flanker Task.osexp","C:\Users\Edward Banda\Desktop\Avd Quant Methods 5316","False","mono","False","18","no","white","no","yes","768","legacy","7","79","C:/Users/Edward Banda/Desktop/EB-subject-4.csv","legacy","Melodramatic Milgram","4.0.5","0","s","s","return","NA","s","NA","428.0","3866","126150","NA","428","NA","2","legacy","1024","2","48000","-16","experiment","SSSSS","4","even","6000","265343","NA","271911","277936","276897","278467","277935","278038","2129","266730","2132","139192","NA","278038","NA","Flanker Task","67","35103.0","88","1024"
"75","75","398","398","#000000","legacy","legacy","legacy","Incongruent","0","undefined","0","s","0","0","0","88","88","88","88","88","88","0","88","0","0","0","88","0","Sun Sep 24 19:43:19 2023","600","The main experiment item","False","Edward Banda Flanker Task.osexp","C:\Users\Edward Banda\Desktop\Avd Quant Methods 5316","False","mono","False","18","no","white","no","yes","768","legacy","8","79","C:/Users/Edward Banda/Desktop/EB-subject-4.csv","legacy","Melodramatic Milgram","4.0.5","0","h","s","return","NA","h","NA","345.0","3866","126150","NA","345","NA","2","legacy","1024","2","48000","-16","experiment","HHSHH","4","even","6000","265343","NA","271911","279518","278479","279965","279516","279619","2129","266730","2132","139192","NA","279619","NA","Flanker Task","67","35448.0","89","1024"
"75","75","398","398","#000000","legacy","legacy","legacy","Incongruent","1","undefined","1","s","0","0","0","89","89","89","89","89","89","0","89","0","0","0","89","0","Sun Sep 24 19:43:19 2023","600","The main experiment item","False","Edward Banda Flanker Task.osexp","C:\Users\Edward Banda\Desktop\Avd Quant Methods 5316","False","mono","False","18","no","white","no","yes","768","legacy","9","79","C:/Users/Edward Banda/Desktop/EB-subject-4.csv","legacy","Melodramatic Milgram","4.0.5","0","s","s","return","NA","s","NA","454.0","3866","126150","NA","454","NA","2","legacy","1024","2","48000","-16","experiment","HHSHH","4","even","6000","265343","NA","279977","281511","280479","282067","281508","281612","2129","266730","2132","139192","NA","281612","NA","Flanker Task","68","35902.0","90","1024"
"74","74","396","396","#000000","legacy","legacy","legacy","Congruent","0","undefined","0","h","0","0","0","90","90","90","90","90","90","0","90","0","0","0","90","0","Sun Sep 24 19:43:19 2023","600","The main experiment item","False","Edward Banda Flanker Task.osexp","C:\Users\Edward Banda\Desktop\Avd Quant Methods 5316","False","mono","False","18","no","white","no","yes","768","legacy","10","79","C:/Users/Edward Banda/Desktop/EB-subject-4.csv","legacy","Melodramatic Milgram","4.0.5","0","s","s","return","NA","s","NA","137.0","3866","126150","NA","137","NA","2","legacy","1024","2","48000","-16","experiment","HHHHH","4","even","6000","265343","NA","279977","283115","282080","283355","283113","283218","2129","266730","2132","139192","NA","283218","NA","Flanker Task","68","36039.0","91","1024"
"75","75","396","396","#000000","legacy","legacy","legacy","Congruent","1","undefined","1","h","0","0","0","91","91","91","91","91","91","0","91","0","0","0","91","0","Sun Sep 24 19:43:19 2023","600","The main experiment item","False","Edward Banda Flanker Task.osexp","C:\Users\Edward Banda\Desktop\Avd Quant Methods 5316","False","mono","False","18","no","white","no","yes","768","legacy","11","79","C:/Users/Edward Banda/Desktop/EB-subject-4.csv","legacy","Melodramatic Milgram","4.0.5","0","h","s","return","NA","h","NA","445.0","3866","126150","NA","445","NA","2","legacy","1024","2","48000","-16","experiment","HHHHH","4","even","6000","265343","NA","283368","284906","283869","285453","284903","285007","2129","266730","2132","139192","NA","285007","NA","Flanker Task","69","36484.0","92","1024"
"75","75","397","397","#000000","legacy","legacy","legacy","Incongruent","1","undefined","1","h","0","0","0","92","92","92","92","92","92","0","92","0","0","0","92","0","Sun Sep 24 19:43:19 2023","600","The main experiment item","False","Edward Banda Flanker Task.osexp","C:\Users\Edward Banda\Desktop\Avd Quant Methods 5316","False","mono","False","18","no","white","no","yes","768","legacy","12","79","C:/Users/Edward Banda/Desktop/EB-subject-4.csv","legacy","Melodramatic Milgram","4.0.5","0","h","s","return","NA","h","NA","457.0","3866","126150","NA","457","NA","2","legacy","1024","2","48000","-16","experiment","SSHSS","4","even","6000","265343","NA","283368","286501","285465","287061","286500","286603","2129","266730","2132","139192","NA","286603","NA","Flanker Task","70","36941.0","93","1024"
"75","75","396","396","#000000","legacy","legacy","legacy","Congruent","1","undefined","1","s","0","0","0","93","93","93","93","93","93","0","93","0","0","0","93","0","Sun Sep 24 19:43:19 2023","600","The main experiment item","False","Edward Banda Flanker Task.osexp","C:\Users\Edward Banda\Desktop\Avd Quant Methods 5316","False","mono","False","18","no","white","no","yes","768","legacy","13","79","C:/Users/Edward Banda/Desktop/EB-subject-4.csv","legacy","Melodramatic Milgram","4.0.5","0","s","s","return","NA","s","NA","307.0","3866","126150","NA","307","NA","2","legacy","1024","2","48000","-16","experiment","SSSSS","4","even","6000","265343","NA","283368","288105","287073","288514","288103","288206","2129","266730","2132","139192","NA","288206","NA","Flanker Task","71","37248.0","94","1024"
"75","75","396","396","#000000","legacy","legacy","legacy","Congruent","1","undefined","1","h","0","0","0","94","94","94","94","94","94","0","94","0","0","0","94","0","Sun Sep 24 19:43:19 2023","600","The main experiment item","False","Edward Banda Flanker Task.osexp","C:\Users\Edward Banda\Desktop\Avd Quant Methods 5316","False","mono","False","18","no","white","no","yes","768","legacy","14","79","C:/Users/Edward Banda/Desktop/EB-subject-4.csv","legacy","Melodramatic Milgram","4.0.5","0","h","s","return","NA","h","NA","460.0","3866","126150","NA","460","NA","2","legacy","1024","2","48000","-16","experiment","HHHHH","4","even","6000","265343","NA","283368","289559","288526","290121","289558","289660","2129","266730","2132","139192","NA","289660","NA","Flanker Task","72","37708.0","95","1024"
"76","76","397","397","#000000","legacy","legacy","legacy","Congruent","1","undefined","1","h","0","0","0","95","95","95","95","95","95","0","95","0","0","0","95","0","Sun Sep 24 19:43:19 2023","600","The main experiment item","False","Edward Banda Flanker Task.osexp","C:\Users\Edward Banda\Desktop\Avd Quant Methods 5316","False","mono","False","18","no","white","no","yes","768","legacy","15","79","C:/Users/Edward Banda/Desktop/EB-subject-4.csv","legacy","Melodramatic Milgram","4.0.5","0","h","s","return","NA","h","NA","451.0","3866","126150","NA","451","NA","2","legacy","1024","2","48000","-16","experiment","HHHHH","4","even","6000","265343","NA","283368","291167","290133","291720","291165","291268","2129","266730","2132","139192","NA","291268","NA","Flanker Task","73","38159.0","96","1024"
"76","76","397","397","#000000","legacy","legacy","legacy","Congruent","1","undefined","1","s","0","0","0","96","96","96","96","96","96","0","96","0","0","0","96","0","Sun Sep 24 19:43:19 2023","600","The main experiment item","False","Edward Banda Flanker Task.osexp","C:\Users\Edward Banda\Desktop\Avd Quant Methods 5316","False","mono","False","18","no","white","no","yes","768","legacy","16","79","C:/Users/Edward Banda/Desktop/EB-subject-4.csv","legacy","Melodramatic Milgram","4.0.5","0","s","s","return","NA","s","NA","382.0","3866","126150","NA","382","NA","2","legacy","1024","2","48000","-16","experiment","SSSSS","4","even","6000","265343","NA","283368","292779","291732","293263","292777","292880","2129","266730","2132","139192","NA","292880","NA","Flanker Task","74","38541.0","97","1024"
"75","75","396","396","#000000","legacy","legacy","legacy","Incongruent","0","undefined","0","s","0","0","0","97","97","97","97","97","97","0","97","0","0","0","97","0","Sun Sep 24 19:43:19 2023","600","The main experiment item","False","Edward Banda Flanker Task.osexp","C:\Users\Edward Banda\Desktop\Avd Quant Methods 5316","False","mono","False","18","no","white","no","yes","768","legacy","17","79","C:/Users/Edward Banda/Desktop/EB-subject-4.csv","legacy","Melodramatic Milgram","4.0.5","0","h","s","return","NA","h","NA","334.0","3866","126150","NA","334","NA","2","legacy","1024","2","48000","-16","experiment","HHSHH","4","even","6000","265343","NA","283368","294312","293275","294748","294310","294413","2129","266730","2132","139192","NA","294413","NA","Flanker Task","74","38875.0","98","1024"
"75","75","396","396","#000000","legacy","legacy","legacy","Congruent","1","undefined","1","s","0","0","0","98","98","98","98","98","98","0","98","0","0","0","98","0","Sun Sep 24 19:43:19 2023","600","The main experiment item","False","Edward Banda Flanker Task.osexp","C:\Users\Edward Banda\Desktop\Avd Quant Methods 5316","False","mono","False","18","no","white","no","yes","768","legacy","18","79","C:/Users/Edward Banda/Desktop/EB-subject-4.csv","legacy","Melodramatic Milgram","4.0.5","0","s","s","return","NA","s","NA","345.0","3866","126150","NA","345","NA","2","legacy","1024","2","48000","-16","experiment","SSSSS","4","even","6000","265343","NA","294761","296298","295262","296745","296296","296399","2129","266730","2132","139192","NA","296399","NA","Flanker Task","75","39220.0","99","1024"
"76","76","396","396","#000000","legacy","legacy","legacy","Congruent","1","undefined","1","h","0","0","0","99","99","99","99","99","99","0","99","0","0","0","99","0","Sun Sep 24 19:43:19 2023","600","The main experiment item","False","Edward Banda Flanker Task.osexp","C:\Users\Edward Banda\Desktop\Avd Quant Methods 5316","False","mono","False","18","no","white","no","yes","768","legacy","19","79","C:/Users/Edward Banda/Desktop/EB-subject-4.csv","legacy","Melodramatic Milgram","4.0.5","0","h","s","return","NA","h","NA","391.0","3866","126150","NA","391","NA","2","legacy","1024","2","48000","-16","experiment","HHHHH","4","even","6000","265343","NA","294761","297789","296757","298282","297787","297890","2129","266730","2132","139192","NA","297890","NA","Flanker Task","76","39611.0","100","1024"
"75","75","395","395","#000000","legacy","legacy","legacy","Congruent","0","undefined","0","h","0","0","0","100","100","100","100","100","100","0","100","0","0","0","100","0","Sun Sep 24 19:43:19 2023","600","The main experiment item","False","Edward Banda Flanker Task.osexp","C:\Users\Edward Banda\Desktop\Avd Quant Methods 5316","False","mono","False","18","no","white","no","yes","768","legacy","20","79","C:/Users/Edward Banda/Desktop/EB-subject-4.csv","legacy","Melodramatic Milgram","4.0.5","0","s","s","return","NA","s","NA","352.0","3866","126150","NA","352","NA","2","legacy","1024","2","48000","-16","experiment","HHHHH","4","even","6000","265343","NA","294761","299336","298295","299790","299334","299437","2129","266730","2132","139192","NA","299437","NA","Flanker Task","76","39963.0","101","1024"
"75","75","395","395","#000000","legacy","legacy","legacy","Congruent","1","undefined","1","s","0","0","0","101","101","101","101","101","101","0","101","0","0","0","101","0","Sun Sep 24 19:43:19 2023","600","The main experiment item","False","Edward Banda Flanker Task.osexp","C:\Users\Edward Banda\Desktop\Avd Quant Methods 5316","False","mono","False","18","no","white","no","yes","768","legacy","21","79","C:/Users/Edward Banda/Desktop/EB-subject-4.csv","legacy","Melodramatic Milgram","4.0.5","0","s","s","return","NA","s","NA","374.0","3866","126150","NA","374","NA","2","legacy","1024","2","48000","-16","experiment","SSSSS","4","even","6000","265343","NA","299802","301332","300303","301808","301330","301433","2129","266730","2132","139192","NA","301433","NA","Flanker Task","77","40337.0","102","1024"
"75","75","394","394","#000000","legacy","legacy","legacy","Congruent","1","undefined","1","h","0","0","0","102","102","102","102","102","102","0","102","0","0","0","102","0","Sun Sep 24 19:43:19 2023","600","The main experiment item","False","Edward Banda Flanker Task.osexp","C:\Users\Edward Banda\Desktop\Avd Quant Methods 5316","False","mono","False","18","no","white","no","yes","768","legacy","22","79","C:/Users/Edward Banda/Desktop/EB-subject-4.csv","legacy","Melodramatic Milgram","4.0.5","0","h","s","return","NA","h","NA","291.0","3866","126150","NA","291","NA","2","legacy","1024","2","48000","-16","experiment","HHHHH","4","even","6000","265343","NA","299802","302858","301821","303251","302856","302959","2129","266730","2132","139192","NA","302959","NA","Flanker Task","78","40628.0","103","1024"
"75","75","393","393","#000000","legacy","legacy","legacy","Incongruent","0","undefined","0","s","0","0","0","103","103","103","103","103","103","0","103","0","0","0","103","0","Sun Sep 24 19:43:19 2023","600","The main experiment item","False","Edward Banda Flanker Task.osexp","C:\Users\Edward Banda\Desktop\Avd Quant Methods 5316","False","mono","False","18","no","white","no","yes","768","legacy","23","79","C:/Users/Edward Banda/Desktop/EB-subject-4.csv","legacy","Melodramatic Milgram","4.0.5","0","h","s","return","NA","h","NA","304.0","3866","126150","NA","304","NA","2","legacy","1024","2","48000","-16","experiment","HHSHH","4","even","6000","265343","NA","299802","304297","303263","304705","304295","304399","2129","266730","2132","139192","NA","304399","NA","Flanker Task","78","40932.0","104","1024"
"74","74","391","391","#000000","legacy","legacy","legacy","Incongruent","0","undefined","0","h","0","0","0","104","104","104","104","104","104","0","104","0","0","0","104","0","Sun Sep 24 19:43:19 2023","600","The main experiment item","False","Edward Banda Flanker Task.osexp","C:\Users\Edward Banda\Desktop\Avd Quant Methods 5316","False","mono","False","18","no","white","no","yes","768","legacy","24","79","C:/Users/Edward Banda/Desktop/EB-subject-4.csv","legacy","Melodramatic Milgram","4.0.5","0","s","s","return","NA","s","NA","191.0","3866","126150","NA","191","NA","2","legacy","1024","2","48000","-16","experiment","SSHSS","4","even","6000","265343","NA","304717","306249","305218","306543","306248","306350","2129","266730","2132","139192","NA","306350","NA","Flanker Task","78","41123.0","105","1024"
"74","74","391","391","#000000","legacy","legacy","legacy","Congruent","1","undefined","1","h","0","0","0","105","105","105","105","105","105","0","105","0","0","0","105","0","Sun Sep 24 19:43:19 2023","600","The main experiment item","False","Edward Banda Flanker Task.osexp","C:\Users\Edward Banda\Desktop\Avd Quant Methods 5316","False","mono","False","18","no","white","no","yes","768","legacy","25","79","C:/Users/Edward Banda/Desktop/EB-subject-4.csv","legacy","Melodramatic Milgram","4.0.5","0","h","s","return","NA","h","NA","371.0","3866","126150","NA","371","NA","2","legacy","1024","2","48000","-16","experiment","HHHHH","4","even","6000","265343","NA","306545","308087","307046","308560","308086","308188","2129","266730","2132","139192","NA","308188","NA","Flanker Task","79","41494.0","106","1024"
"74","74","391","391","#000000","legacy","legacy","legacy","Congruent","1","undefined","1","h","0","0","0","106","106","106","106","106","106","0","106","0","0","0","106","0","Sun Sep 24 19:43:19 2023","600","The main experiment item","False","Edward Banda Flanker Task.osexp","C:\Users\Edward Banda\Desktop\Avd Quant Methods 5316","False","mono","False","18","no","white","no","yes","768","legacy","26","79","C:/Users/Edward Banda/Desktop/EB-subject-4.csv","legacy","Melodramatic Milgram","4.0.5","0","h","s","return","NA","h","NA","394.0","3866","126150","NA","394","NA","2","legacy","1024","2","48000","-16","experiment","HHHHH","4","even","6000","265343","NA","306545","309607","308571","310104","309605","309708","2129","266730","2132","139192","NA","309708","NA","Flanker Task","80","41888.0","107","1024"
"75","75","391","391","#000000","legacy","legacy","legacy","Incongruent","1","undefined","1","s","0","0","0","107","107","107","107","107","107","0","107","0","0","0","107","0","Sun Sep 24 19:43:19 2023","600","The main experiment item","False","Edward Banda Flanker Task.osexp","C:\Users\Edward Banda\Desktop\Avd Quant Methods 5316","False","mono","False","18","no","white","no","yes","768","legacy","27","79","C:/Users/Edward Banda/Desktop/EB-subject-4.csv","legacy","Melodramatic Milgram","4.0.5","0","s","s","return","NA","s","NA","384.0","3866","126150","NA","384","NA","2","legacy","1024","2","48000","-16","experiment","HHSHH","4","even","6000","265343","NA","306545","311160","310117","311646","311158","311261","2129","266730","2132","139192","NA","311261","NA","Flanker Task","81","42272.0","108","1024"
"74","74","390","390","#000000","legacy","legacy","legacy","Incongruent","0","undefined","0","s","0","0","0","108","108","108","108","108","108","0","108","0","0","0","108","0","Sun Sep 24 19:43:19 2023","600","The main experiment item","False","Edward Banda Flanker Task.osexp","C:\Users\Edward Banda\Desktop\Avd Quant Methods 5316","False","mono","False","18","no","white","no","yes","768","legacy","28","79","C:/Users/Edward Banda/Desktop/EB-subject-4.csv","legacy","Melodramatic Milgram","4.0.5","0","h","s","return","NA","h","NA","335.0","3866","126150","NA","335","NA","2","legacy","1024","2","48000","-16","experiment","HHSHH","4","even","6000","265343","NA","306545","312696","311658","313134","312694","312798","2129","266730","2132","139192","NA","312798","NA","Flanker Task","81","42607.0","109","1024"
"74","74","390","390","#000000","legacy","legacy","legacy","Congruent","1","undefined","1","s","0","0","0","109","109","109","109","109","109","0","109","0","0","0","109","0","Sun Sep 24 19:43:19 2023","600","The main experiment item","False","Edward Banda Flanker Task.osexp","C:\Users\Edward Banda\Desktop\Avd Quant Methods 5316","False","mono","False","18","no","white","no","yes","768","legacy","29","79","C:/Users/Edward Banda/Desktop/EB-subject-4.csv","legacy","Melodramatic Milgram","4.0.5","0","s","s","return","NA","s","NA","349.0","3866","126150","NA","349","NA","2","legacy","1024","2","48000","-16","experiment","SSSSS","4","even","6000","265343","NA","313147","314680","313648","315132","314678","314782","2129","266730","2132","139192","NA","314782","NA","Flanker Task","82","42956.0","110","1024"
"74","74","390","390","#000000","legacy","legacy","legacy","Congruent","1","undefined","1","h","0","0","0","110","110","110","110","110","110","0","110","0","0","0","110","0","Sun Sep 24 19:43:19 2023","600","The main experiment item","False","Edward Banda Flanker Task.osexp","C:\Users\Edward Banda\Desktop\Avd Quant Methods 5316","False","mono","False","18","no","white","no","yes","768","legacy","30","79","C:/Users/Edward Banda/Desktop/EB-subject-4.csv","legacy","Melodramatic Milgram","4.0.5","0","h","s","return","NA","h","NA","359.0","3866","126150","NA","359","NA","2","legacy","1024","2","48000","-16","experiment","HHHHH","4","even","6000","265343","NA","313147","316183","315145","316646","316181","316284","2129","266730","2132","139192","NA","316285","NA","Flanker Task","83","43315.0","111","1024"
"74","74","389","389","#000000","legacy","legacy","legacy","Incongruent","0","undefined","0","h","0","0","0","111","111","111","111","111","111","0","111","0","0","0","111","0","Sun Sep 24 19:43:19 2023","600","The main experiment item","False","Edward Banda Flanker Task.osexp","C:\Users\Edward Banda\Desktop\Avd Quant Methods 5316","False","mono","False","18","no","white","no","yes","768","legacy","31","79","C:/Users/Edward Banda/Desktop/EB-subject-4.csv","legacy","Melodramatic Milgram","4.0.5","0","s","s","return","NA","s","NA","340.0","3866","126150","NA","340","NA","2","legacy","1024","2","48000","-16","experiment","SSHSS","4","even","6000","265343","NA","313147","317695","316658","318138","317693","317797","2129","266730","2132","139192","NA","317797","NA","Flanker Task","83","43655.0","112","1024"
"74","74","389","389","#000000","legacy","legacy","legacy","Incongruent","1","undefined","1","h","0","0","0","112","112","112","112","112","112","0","112","0","0","0","112","0","Sun Sep 24 19:43:19 2023","600","The main experiment item","False","Edward Banda Flanker Task.osexp","C:\Users\Edward Banda\Desktop\Avd Quant Methods 5316","False","mono","False","18","no","white","no","yes","768","legacy","32","79","C:/Users/Edward Banda/Desktop/EB-subject-4.csv","legacy","Melodramatic Milgram","4.0.5","0","h","s","return","NA","h","NA","370.0","3866","126150","NA","370","NA","2","legacy","1024","2","48000","-16","experiment","SSHSS","4","even","6000","265343","NA","318151","319684","318652","320156","319682","319785","2129","266730","2132","139192","NA","319785","NA","Flanker Task","84","44025.0","113","1024"
"74","74","389","389","#000000","legacy","legacy","legacy","Congruent","1","undefined","1","h","0","0","0","113","113","113","113","113","113","0","113","0","0","0","113","0","Sun Sep 24 19:43:19 2023","600","The main experiment item","False","Edward Banda Flanker Task.osexp","C:\Users\Edward Banda\Desktop\Avd Quant Methods 5316","False","mono","False","18","no","white","no","yes","768","legacy","33","79","C:/Users/Edward Banda/Desktop/EB-subject-4.csv","legacy","Melodramatic Milgram","4.0.5","0","h","s","return","NA","h","NA","398.0","3866","126150","NA","398","NA","2","legacy","1024","2","48000","-16","experiment","HHHHH","4","even","6000","265343","NA","318151","321204","320169","321704","321203","321305","2129","266730","2132","139192","NA","321305","NA","Flanker Task","85","44423.0","114","1024"
"74","74","389","389","#000000","legacy","legacy","legacy","Congruent","1","undefined","1","h","0","0","0","114","114","114","114","114","114","0","114","0","0","0","114","0","Sun Sep 24 19:43:19 2023","600","The main experiment item","False","Edward Banda Flanker Task.osexp","C:\Users\Edward Banda\Desktop\Avd Quant Methods 5316","False","mono","False","18","no","white","no","yes","768","legacy","34","79","C:/Users/Edward Banda/Desktop/EB-subject-4.csv","legacy","Melodramatic Milgram","4.0.5","0","h","s","return","NA","h","NA","421.0","3866","126150","NA","421","NA","2","legacy","1024","2","48000","-16","experiment","HHHHH","4","even","6000","265343","NA","318151","322769","321716","323292","322767","322870","2129","266730","2132","139192","NA","322870","NA","Flanker Task","86","44844.0","115","1024"
"75","75","389","389","#000000","legacy","legacy","legacy","Incongruent","1","undefined","1","s","0","0","0","115","115","115","115","115","115","0","115","0","0","0","115","0","Sun Sep 24 19:43:19 2023","600","The main experiment item","False","Edward Banda Flanker Task.osexp","C:\Users\Edward Banda\Desktop\Avd Quant Methods 5316","False","mono","False","18","no","white","no","yes","768","legacy","35","79","C:/Users/Edward Banda/Desktop/EB-subject-4.csv","legacy","Melodramatic Milgram","4.0.5","0","s","s","return","NA","s","NA","395.0","3866","126150","NA","395","NA","2","legacy","1024","2","48000","-16","experiment","HHSHH","4","even","6000","265343","NA","318151","324340","323304","324837","324338","324441","2129","266730","2132","139192","NA","324441","NA","Flanker Task","87","45239.0","116","1024"
"75","75","390","390","#000000","legacy","legacy","legacy","Incongruent","1","undefined","1","s","0","0","0","116","116","116","116","116","116","0","116","0","0","0","116","0","Sun Sep 24 19:43:19 2023","600","The main experiment item","False","Edward Banda Flanker Task.osexp","C:\Users\Edward Banda\Desktop\Avd Quant Methods 5316","False","mono","False","18","no","white","no","yes","768","legacy","36","79","C:/Users/Edward Banda/Desktop/EB-subject-4.csv","legacy","Melodramatic Milgram","4.0.5","0","s","s","return","NA","s","NA","410.0","3866","126150","NA","410","NA","2","legacy","1024","2","48000","-16","experiment","HHSHH","4","even","6000","265343","NA","318151","325883","324849","326396","325881","325984","2129","266730","2132","139192","NA","325984","NA","Flanker Task","88","45649.0","117","1024"
"75","75","389","389","#000000","legacy","legacy","legacy","Incongruent","1","undefined","1","s","0","0","0","117","117","117","117","117","117","0","117","0","0","0","117","0","Sun Sep 24 19:43:19 2023","600","The main experiment item","False","Edward Banda Flanker Task.osexp","C:\Users\Edward Banda\Desktop\Avd Quant Methods 5316","False","mono","False","18","no","white","no","yes","768","legacy","37","79","C:/Users/Edward Banda/Desktop/EB-subject-4.csv","legacy","Melodramatic Milgram","4.0.5","0","s","s","return","NA","s","NA","355.0","3866","126150","NA","355","NA","2","legacy","1024","2","48000","-16","experiment","HHSHH","4","even","6000","265343","NA","318151","327442","326408","327899","327440","327543","2129","266730","2132","139192","NA","327543","NA","Flanker Task","89","46004.0","118","1024"
"75","75","390","390","#000000","legacy","legacy","legacy","Incongruent","1","undefined","1","s","0","0","0","118","118","118","118","118","118","0","118","0","0","0","118","0","Sun Sep 24 19:43:19 2023","600","The main experiment item","False","Edward Banda Flanker Task.osexp","C:\Users\Edward Banda\Desktop\Avd Quant Methods 5316","False","mono","False","18","no","white","no","yes","768","legacy","38","79","C:/Users/Edward Banda/Desktop/EB-subject-4.csv","legacy","Melodramatic Milgram","4.0.5","0","s","s","return","NA","s","NA","436.0","3866","126150","NA","436","NA","2","legacy","1024","2","48000","-16","experiment","HHSHH","4","even","6000","265343","NA","318151","328949","327912","329487","328947","329050","2129","266730","2132","139192","NA","329050","NA","Flanker Task","90","46440.0","119","1024"
"75","75","390","390","#000000","legacy","legacy","legacy","Incongruent","1","undefined","1","h","0","0","0","119","119","119","119","119","119","0","119","0","0","0","119","0","Sun Sep 24 19:43:19 2023","600","The main experiment item","False","Edward Banda Flanker Task.osexp","C:\Users\Edward Banda\Desktop\Avd Quant Methods 5316","False","mono","False","18","no","white","no","yes","768","legacy","39","79","C:/Users/Edward Banda/Desktop/EB-subject-4.csv","legacy","Melodramatic Milgram","4.0.5","0","h","s","return","NA","h","NA","393.0","3866","126150","NA","393","NA","2","legacy","1024","2","48000","-16","experiment","SSHSS","4","even","6000","265343","NA","318151","330535","329498","331030","330533","330636","2129","266730","2132","139192","NA","330636","NA","Flanker Task","91","46833.0","120","1024"
"76","76","390","390","#000000","legacy","legacy","legacy","Incongruent","1","undefined","1","s","0","0","0","120","120","120","120","120","120","0","120","0","0","0","120","0","Sun Sep 24 19:43:19 2023","600","The main experiment item","False","Edward Banda Flanker Task.osexp","C:\Users\Edward Banda\Desktop\Avd Quant Methods 5316","False","mono","False","18","no","white","no","yes","768","legacy","40","79","C:/Users/Edward Banda/Desktop/EB-subject-4.csv","legacy","Melodramatic Milgram","4.0.5","0","s","s","return","NA","s","NA","363.0","3866","126150","NA","363","NA","2","legacy","1024","2","48000","-16","experiment","HHSHH","4","even","6000","265343","NA","318151","332067","331032","332533","332066","332169","2129","266730","2132","139192","NA","332169","NA","Flanker Task","92","47196.0","121","1024"
"76","76","389","389","#000000","legacy","legacy","legacy","Incongruent","1","undefined","1","h","0","0","0","121","121","121","121","121","121","0","121","0","0","0","121","0","Sun Sep 24 19:43:19 2023","600","The main experiment item","False","Edward Banda Flanker Task.osexp","C:\Users\Edward Banda\Desktop\Avd Quant Methods 5316","False","mono","False","18","no","white","no","yes","768","legacy","41","79","C:/Users/Edward Banda/Desktop/EB-subject-4.csv","legacy","Melodramatic Milgram","4.0.5","0","h","s","return","NA","h","NA","350.0","3866","126150","NA","350","NA","2","legacy","1024","2","48000","-16","experiment","SSHSS","4","even","6000","265343","NA","318151","333579","332545","334032","333577","333680","2129","266730","2132","139192","NA","333680","NA","Flanker Task","93","47546.0","122","1024"
"76","76","389","389","#000000","legacy","legacy","legacy","Congruent","1","undefined","1","s","0","0","0","122","122","122","122","122","122","0","122","0","0","0","122","0","Sun Sep 24 19:43:19 2023","600","The main experiment item","False","Edward Banda Flanker Task.osexp","C:\Users\Edward Banda\Desktop\Avd Quant Methods 5316","False","mono","False","18","no","white","no","yes","768","legacy","42","79","C:/Users/Edward Banda/Desktop/EB-subject-4.csv","legacy","Melodramatic Milgram","4.0.5","0","s","s","return","NA","s","NA","349.0","3866","126150","NA","349","NA","2","legacy","1024","2","48000","-16","experiment","SSSSS","4","even","6000","265343","NA","318151","335083","334044","335534","335081","335184","2129","266730","2132","139192","NA","335184","NA","Flanker Task","94","47895.0","123","1024"
"76","76","390","390","#000000","legacy","legacy","legacy","Congruent","1","undefined","1","h","0","0","0","123","123","123","123","123","123","0","123","0","0","0","123","0","Sun Sep 24 19:43:19 2023","600","The main experiment item","False","Edward Banda Flanker Task.osexp","C:\Users\Edward Banda\Desktop\Avd Quant Methods 5316","False","mono","False","18","no","white","no","yes","768","legacy","43","79","C:/Users/Edward Banda/Desktop/EB-subject-4.csv","legacy","Melodramatic Milgram","4.0.5","0","h","s","return","NA","h","NA","484.0","3866","126150","NA","484","NA","2","legacy","1024","2","48000","-16","experiment","HHHHH","4","even","6000","265343","NA","318151","336592","335547","337178","336590","336693","2129","266730","2132","139192","NA","336693","NA","Flanker Task","95","48379.0","124","1024"
