acc,accuracy,average_response_time,avg_rt,background,canvas_backend,clock_backend,color_backend,condition,correct,correct_instructions1,correct_keyboard_response,correct_response,count_Block1,count_Block2,count_Block3,count_ErrorFeedback,count_Fixation,count_ISI,count_Logger,count_Sequence,count_Stimulus,count_experiment,count_faster,count_instructions1,count_instructions2,count_instructions3,count_keyboard_response,count_new_sketchpad,datetime,deadline,description,disable_garbage_collection,experiment_file,experiment_path,font_bold,font_family,font_italic,font_size,font_underline,foreground,form_clicks,fullscreen,height,keyboard_backend,live_row,live_row_Block1,logfile,mouse_backend,opensesame_codename,opensesame_version,repeat_cycle,response,response_instructions1,response_instructions2,response_instructions3,response_keyboard_response,response_new_sketchpad,response_time,response_time_instructions1,response_time_instructions2,response_time_instructions3,response_time_keyboard_response,response_time_new_sketchpad,round_decimals,sampler_backend,sound_buf_size,sound_channels,sound_freq,sound_sample_size,start,stimulus,subject_nr,subject_parity,time_Block1,time_Block2,time_Block3,time_ErrorFeedback,time_Fixation,time_ISI,time_Logger,time_Sequence,time_Stimulus,time_experiment,time_faster,time_instructions1,time_instructions2,time_instructions3,time_keyboard_response,time_new_sketchpad,title,total_correct,total_response_time,total_responses,width
100,100,1055,1055,#000000,legacy,legacy,legacy,Congruent,1,undefined,1,h,0,0,0,0,0,0,0,0,0,0,0,0,0,0,0,0,Sun Sep 17 21:49:22 2023,1500,The main experiment item,FALSE,Flanker Task.osexp,C:/Users/Edward Banda/Desktop,FALSE,mono,FALSE,18,no,white,no,no,768,legacy,0,0,C:/Users/Edward Banda/Desktop/EB-subject-1.csv,legacy,Melodramatic Milgram,4.0.5,0,h,s,NA,NA,h,NA,1055,1327,NA,NA,1055,NA,2,legacy,1024,2,48000,-16,experiment,HHHHH,1,odd,2780,NA,NA,NA,2834,NA,3993,2833,2936,1450,NA,1452,NA,NA,2937,NA,Flanker Task,1,1055,1,1024
100,100,763,763,#000000,legacy,legacy,legacy,Congruent,1,undefined,1,s,0,0,0,1,1,1,1,1,1,0,1,0,0,0,1,0,Sun Sep 17 21:49:22 2023,1500,The main experiment item,FALSE,Flanker Task.osexp,C:/Users/Edward Banda/Desktop,FALSE,mono,FALSE,18,no,white,no,no,768,legacy,1,1,C:/Users/Edward Banda/Desktop/EB-subject-1.csv,legacy,Melodramatic Milgram,4.0.5,0,s,s,NA,NA,s,NA,472,1327,NA,NA,472,NA,2,legacy,1024,2,48000,-16,experiment,SSSSS,1,odd,2780,NA,NA,NA,5041,4003,5616,5039,5142,1450,NA,1452,NA,NA,5143,NA,Flanker Task,2,1527,2,1024
66,66,576,576,#000000,legacy,legacy,legacy,Congruent,0,undefined,0,s,0,0,0,2,2,2,2,2,2,0,2,0,0,0,2,0,Sun Sep 17 21:49:22 2023,1500,The main experiment item,FALSE,Flanker Task.osexp,C:/Users/Edward Banda/Desktop,FALSE,mono,FALSE,18,no,white,no,no,768,legacy,2,2,C:/Users/Edward Banda/Desktop/EB-subject-1.csv,legacy,Melodramatic Milgram,4.0.5,0,h,s,NA,NA,h,NA,201,1327,NA,NA,201,NA,2,legacy,1024,2,48000,-16,experiment,SSSSS,1,odd,2780,NA,NA,NA,6687,5628,6989,6685,6788,1450,NA,1452,NA,NA,6788,NA,Flanker Task,2,1728,3,1024
50,50,518,518,#000000,legacy,legacy,legacy,Incongruent,0,undefined,0,h,0,0,0,3,3,3,3,3,3,0,3,0,0,0,3,0,Sun Sep 17 21:49:22 2023,1500,The main experiment item,FALSE,Flanker Task.osexp,C:/Users/Edward Banda/Desktop,FALSE,mono,FALSE,18,no,white,no,no,768,legacy,3,3,C:/Users/Edward Banda/Desktop/EB-subject-1.csv,legacy,Melodramatic Milgram,4.0.5,0,s,s,NA,NA,s,NA,347,1327,NA,NA,347,NA,2,legacy,1024,2,48000,-16,experiment,SSHSS,1,odd,2780,NA,NA,7002,8538,7503,8988,8537,8639,1450,NA,1452,NA,NA,8639,NA,Flanker Task,2,2075,4,1024
60,60,498,498,#000000,legacy,legacy,legacy,Congruent,1,undefined,1,s,0,0,0,4,4,4,4,4,4,0,4,0,0,0,4,0,Sun Sep 17 21:49:22 2023,1500,The main experiment item,FALSE,Flanker Task.osexp,C:/Users/Edward Banda/Desktop,FALSE,mono,FALSE,18,no,white,no,no,768,legacy,4,4,C:/Users/Edward Banda/Desktop/EB-subject-1.csv,legacy,Melodramatic Milgram,4.0.5,0,s,s,NA,NA,s,NA,417,1327,NA,NA,417,NA,2,legacy,1024,2,48000,-16,experiment,SSSSS,1,odd,2780,NA,NA,9000,10535,9501,11054,10533,10636,1450,NA,1452,NA,NA,10636,NA,Flanker Task,3,2492,5,1024
66,66,542,542,#000000,legacy,legacy,legacy,Incongruent,1,undefined,1,h,0,0,0,5,5,5,5,5,5,0,5,0,0,0,5,0,Sun Sep 17 21:49:22 2023,1500,The main experiment item,FALSE,Flanker Task.osexp,C:/Users/Edward Banda/Desktop,FALSE,mono,FALSE,18,no,white,no,no,768,legacy,5,5,C:/Users/Edward Banda/Desktop/EB-subject-1.csv,legacy,Melodramatic Milgram,4.0.5,0,h,s,NA,NA,h,NA,762,1327,NA,NA,762,NA,2,legacy,1024,2,48000,-16,experiment,SSHSS,1,odd,2780,NA,NA,9000,12128,11066,12992,12126,12229,1450,NA,1452,NA,NA,12229,NA,Flanker Task,4,3254,6,1024
57,57,519,519,#000000,legacy,legacy,legacy,Incongruent,0,undefined,0,h,0,0,0,6,6,6,6,6,6,0,6,0,0,0,6,0,Sun Sep 17 21:49:22 2023,1500,The main experiment item,FALSE,Flanker Task.osexp,C:/Users/Edward Banda/Desktop,FALSE,mono,FALSE,18,no,white,no,no,768,legacy,6,6,C:/Users/Edward Banda/Desktop/EB-subject-1.csv,legacy,Melodramatic Milgram,4.0.5,0,s,s,NA,NA,s,NA,381,1327,NA,NA,381,NA,2,legacy,1024,2,48000,-16,experiment,SSHSS,1,odd,2780,NA,NA,9000,14057,13004,14540,14056,14158,1450,NA,1452,NA,NA,14158,NA,Flanker Task,4,3635,7,1024
62,62,505,505,#000000,legacy,legacy,legacy,Congruent,1,undefined,1,s,0,0,0,7,7,7,7,7,7,0,7,0,0,0,7,0,Sun Sep 17 21:49:22 2023,1500,The main experiment item,FALSE,Flanker Task.osexp,C:/Users/Edward Banda/Desktop,FALSE,mono,FALSE,18,no,white,no,no,768,legacy,7,7,C:/Users/Edward Banda/Desktop/EB-subject-1.csv,legacy,Melodramatic Milgram,4.0.5,0,s,s,NA,NA,s,NA,412,1327,NA,NA,412,NA,2,legacy,1024,2,48000,-16,experiment,SSSSS,1,odd,2780,NA,NA,14552,16088,15053,16602,16087,16189,1450,NA,1452,NA,NA,16189,NA,Flanker Task,5,4047,8,1024
66,66,505,505,#000000,legacy,legacy,legacy,Incongruent,1,undefined,1,s,0,0,0,8,8,8,8,8,8,0,8,0,0,0,8,0,Sun Sep 17 21:49:22 2023,1500,The main experiment item,FALSE,Flanker Task.osexp,C:/Users/Edward Banda/Desktop,FALSE,mono,FALSE,18,no,white,no,no,768,legacy,8,8,C:/Users/Edward Banda/Desktop/EB-subject-1.csv,legacy,Melodramatic Milgram,4.0.5,0,s,s,NA,NA,s,NA,498,1327,NA,NA,498,NA,2,legacy,1024,2,48000,-16,experiment,HHSHH,1,odd,2780,NA,NA,14552,17670,16614,18270,17668,17771,1450,NA,1452,NA,NA,17771,NA,Flanker Task,6,4545,9,1024
70,70,495,495,#000000,legacy,legacy,legacy,Incongruent,1,undefined,1,h,0,0,0,9,9,9,9,9,9,0,9,0,0,0,9,0,Sun Sep 17 21:49:22 2023,1500,The main experiment item,FALSE,Flanker Task.osexp,C:/Users/Edward Banda/Desktop,FALSE,mono,FALSE,18,no,white,no,no,768,legacy,9,9,C:/Users/Edward Banda/Desktop/EB-subject-1.csv,legacy,Melodramatic Milgram,4.0.5,0,h,s,NA,NA,h,NA,409,1327,NA,NA,409,NA,2,legacy,1024,2,48000,-16,experiment,SSHSS,1,odd,2780,NA,NA,14552,19322,18282,19832,19320,19423,1450,NA,1452,NA,NA,19423,NA,Flanker Task,7,4954,10,1024
63,63,496,496,#000000,legacy,legacy,legacy,Congruent,0,undefined,0,h,0,0,0,10,10,10,10,10,10,0,10,0,0,0,10,0,Sun Sep 17 21:49:22 2023,1500,The main experiment item,FALSE,Flanker Task.osexp,C:/Users/Edward Banda/Desktop,FALSE,mono,FALSE,18,no,white,no,no,768,legacy,10,10,C:/Users/Edward Banda/Desktop/EB-subject-1.csv,legacy,Melodramatic Milgram,4.0.5,0,s,s,NA,NA,s,NA,502,1327,NA,NA,502,NA,2,legacy,1024,2,48000,-16,experiment,HHHHH,1,odd,2780,NA,NA,14552,20877,19845,21481,20876,20978,1450,NA,1452,NA,NA,20978,NA,Flanker Task,7,5456,11,1024
66,66,495,495,#000000,legacy,legacy,legacy,Incongruent,1,undefined,1,h,0,0,0,11,11,11,11,11,11,0,11,0,0,0,11,0,Sun Sep 17 21:49:22 2023,1500,The main experiment item,FALSE,Flanker Task.osexp,C:/Users/Edward Banda/Desktop,FALSE,mono,FALSE,18,no,white,no,no,768,legacy,11,11,C:/Users/Edward Banda/Desktop/EB-subject-1.csv,legacy,Melodramatic Milgram,4.0.5,0,h,s,NA,NA,h,NA,491,1327,NA,NA,491,NA,2,legacy,1024,2,48000,-16,experiment,SSHSS,1,odd,2780,NA,NA,21493,23030,21994,23623,23028,23131,1450,NA,1452,NA,NA,23131,NA,Flanker Task,8,5947,12,1024
69,69,499,499,#000000,legacy,legacy,legacy,Incongruent,1,undefined,1,h,0,0,0,12,12,12,12,12,12,0,12,0,0,0,12,0,Sun Sep 17 21:49:22 2023,1500,The main experiment item,FALSE,Flanker Task.osexp,C:/Users/Edward Banda/Desktop,FALSE,mono,FALSE,18,no,white,no,no,768,legacy,12,12,C:/Users/Edward Banda/Desktop/EB-subject-1.csv,legacy,Melodramatic Milgram,4.0.5,0,h,s,NA,NA,h,NA,552,1327,NA,NA,552,NA,2,legacy,1024,2,48000,-16,experiment,SSHSS,1,odd,2780,NA,NA,21493,24672,23635,25326,24671,24773,1450,NA,1452,NA,NA,24773,NA,Flanker Task,9,6499,13,1024
71,71,503,503,#000000,legacy,legacy,legacy,Incongruent,1,undefined,1,s,0,0,0,13,13,13,13,13,13,0,13,0,0,0,13,0,Sun Sep 17 21:49:22 2023,1500,The main experiment item,FALSE,Flanker Task.osexp,C:/Users/Edward Banda/Desktop,FALSE,mono,FALSE,18,no,white,no,no,768,legacy,13,13,C:/Users/Edward Banda/Desktop/EB-subject-1.csv,legacy,Melodramatic Milgram,4.0.5,0,s,s,NA,NA,s,NA,552,1327,NA,NA,552,NA,2,legacy,1024,2,48000,-16,experiment,HHSHH,1,odd,2780,NA,NA,21493,26419,25341,27074,26417,26520,1450,NA,1452,NA,NA,26521,NA,Flanker Task,10,7051,14,1024
73,73,506,506,#000000,legacy,legacy,legacy,Congruent,1,undefined,1,s,0,0,0,14,14,14,14,14,14,0,14,0,0,0,14,0,Sun Sep 17 21:49:22 2023,1500,The main experiment item,FALSE,Flanker Task.osexp,C:/Users/Edward Banda/Desktop,FALSE,mono,FALSE,18,no,white,no,no,768,legacy,14,14,C:/Users/Edward Banda/Desktop/EB-subject-1.csv,legacy,Melodramatic Milgram,4.0.5,0,s,s,NA,NA,s,NA,551,1327,NA,NA,551,NA,2,legacy,1024,2,48000,-16,experiment,SSSSS,1,odd,2780,NA,NA,21493,28153,27085,28806,28151,28254,1450,NA,1452,NA,NA,28254,NA,Flanker Task,11,7602,15,1024
75,75,496,496,#000000,legacy,legacy,legacy,Incongruent,1,undefined,1,h,0,0,0,15,15,15,15,15,15,0,15,0,0,0,15,0,Sun Sep 17 21:49:22 2023,1500,The main experiment item,FALSE,Flanker Task.osexp,C:/Users/Edward Banda/Desktop,FALSE,mono,FALSE,18,no,white,no,no,768,legacy,15,15,C:/Users/Edward Banda/Desktop/EB-subject-1.csv,legacy,Melodramatic Milgram,4.0.5,0,h,s,NA,NA,h,NA,344,1327,NA,NA,344,NA,2,legacy,1024,2,48000,-16,experiment,SSHSS,1,odd,2780,NA,NA,21493,29854,28819,30300,29853,29955,1450,NA,1452,NA,NA,29955,NA,Flanker Task,12,7946,16,1024
76,76,490,490,#000000,legacy,legacy,legacy,Congruent,1,undefined,1,h,0,0,0,16,16,16,16,16,16,0,16,0,0,0,16,0,Sun Sep 17 21:49:22 2023,1500,The main experiment item,FALSE,Flanker Task.osexp,C:/Users/Edward Banda/Desktop,FALSE,mono,FALSE,18,no,white,no,no,768,legacy,16,16,C:/Users/Edward Banda/Desktop/EB-subject-1.csv,legacy,Melodramatic Milgram,4.0.5,0,h,s,NA,NA,h,NA,394,1327,NA,NA,394,NA,2,legacy,1024,2,48000,-16,experiment,HHHHH,1,odd,2780,NA,NA,21493,31346,30312,31847,31345,31453,1450,NA,1452,NA,NA,31453,NA,Flanker Task,13,8340,17,1024
77,77,490,490,#000000,legacy,legacy,legacy,Incongruent,1,undefined,1,h,0,0,0,17,17,17,17,17,17,0,17,0,0,0,17,0,Sun Sep 17 21:49:22 2023,1500,The main experiment item,FALSE,Flanker Task.osexp,C:/Users/Edward Banda/Desktop,FALSE,mono,FALSE,18,no,white,no,no,768,legacy,17,17,C:/Users/Edward Banda/Desktop/EB-subject-1.csv,legacy,Melodramatic Milgram,4.0.5,0,h,s,NA,NA,h,NA,481,1327,NA,NA,481,NA,2,legacy,1024,2,48000,-16,experiment,SSHSS,1,odd,2780,NA,NA,21493,32889,31860,33472,32887,32990,1450,NA,1452,NA,NA,32990,NA,Flanker Task,14,8821,18,1024
78,78,487,487,#000000,legacy,legacy,legacy,Congruent,1,undefined,1,h,0,0,0,18,18,18,18,18,18,0,18,0,0,0,18,0,Sun Sep 17 21:49:22 2023,1500,The main experiment item,FALSE,Flanker Task.osexp,C:/Users/Edward Banda/Desktop,FALSE,mono,FALSE,18,no,white,no,no,768,legacy,18,18,C:/Users/Edward Banda/Desktop/EB-subject-1.csv,legacy,Melodramatic Milgram,4.0.5,0,h,s,NA,NA,h,NA,435,1327,NA,NA,435,NA,2,legacy,1024,2,48000,-16,experiment,HHHHH,1,odd,2780,NA,NA,21493,34541,33484,35079,34539,34643,1450,NA,1452,NA,NA,34643,NA,Flanker Task,15,9256,19,1024
80,80,489,489,#000000,legacy,legacy,legacy,Congruent,1,undefined,1,s,0,0,0,19,19,19,19,19,19,0,19,0,0,0,19,0,Sun Sep 17 21:49:22 2023,1500,The main experiment item,FALSE,Flanker Task.osexp,C:/Users/Edward Banda/Desktop,FALSE,mono,FALSE,18,no,white,no,no,768,legacy,19,19,C:/Users/Edward Banda/Desktop/EB-subject-1.csv,legacy,Melodramatic Milgram,4.0.5,0,s,s,NA,NA,s,NA,536,1327,NA,NA,536,NA,2,legacy,1024,2,48000,-16,experiment,SSSSS,1,odd,2780,NA,NA,21493,36148,35092,36786,36146,36249,1450,NA,1452,NA,NA,36250,NA,Flanker Task,16,9792,20,1024
76,76,486,486,#000000,legacy,legacy,legacy,Incongruent,0,undefined,0,h,0,0,0,20,20,20,20,20,20,0,20,0,0,0,20,0,Sun Sep 17 21:49:22 2023,1500,The main experiment item,FALSE,Flanker Task.osexp,C:/Users/Edward Banda/Desktop,FALSE,mono,FALSE,18,no,white,no,no,768,legacy,20,20,C:/Users/Edward Banda/Desktop/EB-subject-1.csv,legacy,Melodramatic Milgram,4.0.5,0,s,s,NA,NA,s,NA,420,1327,NA,NA,420,NA,2,legacy,1024,2,48000,-16,experiment,SSHSS,1,odd,2780,NA,NA,21493,37837,36799,38360,37834,37938,1450,NA,1452,NA,NA,37939,NA,Flanker Task,16,10212,21,1024
77,77,481,481,#000000,legacy,legacy,legacy,Congruent,1,undefined,1,h,0,0,0,21,21,21,21,21,21,0,21,0,0,0,21,0,Sun Sep 17 21:49:22 2023,1500,The main experiment item,FALSE,Flanker Task.osexp,C:/Users/Edward Banda/Desktop,FALSE,mono,FALSE,18,no,white,no,no,768,legacy,21,21,C:/Users/Edward Banda/Desktop/EB-subject-1.csv,legacy,Melodramatic Milgram,4.0.5,0,h,s,NA,NA,h,NA,378,1327,NA,NA,378,NA,2,legacy,1024,2,48000,-16,experiment,HHHHH,1,odd,2780,NA,NA,38372,39906,38873,40387,39904,40007,1450,NA,1452,NA,NA,40008,NA,Flanker Task,17,10590,22,1024
78,78,477,477,#000000,legacy,legacy,legacy,Congruent,1,undefined,1,h,0,0,0,22,22,22,22,22,22,0,22,0,0,0,22,0,Sun Sep 17 21:49:22 2023,1500,The main experiment item,FALSE,Flanker Task.osexp,C:/Users/Edward Banda/Desktop,FALSE,mono,FALSE,18,no,white,no,no,768,legacy,22,22,C:/Users/Edward Banda/Desktop/EB-subject-1.csv,legacy,Melodramatic Milgram,4.0.5,0,h,s,NA,NA,h,NA,381,1327,NA,NA,381,NA,2,legacy,1024,2,48000,-16,experiment,HHHHH,1,odd,2780,NA,NA,38372,41463,40400,41946,41461,41564,1450,NA,1452,NA,NA,41564,NA,Flanker Task,18,10971,23,1024
79,79,473,473,#000000,legacy,legacy,legacy,Congruent,1,undefined,1,h,0,0,0,23,23,23,23,23,23,0,23,0,0,0,23,0,Sun Sep 17 21:49:22 2023,1500,The main experiment item,FALSE,Flanker Task.osexp,C:/Users/Edward Banda/Desktop,FALSE,mono,FALSE,18,no,white,no,no,768,legacy,23,23,C:/Users/Edward Banda/Desktop/EB-subject-1.csv,legacy,Melodramatic Milgram,4.0.5,0,h,s,NA,NA,h,NA,396,1327,NA,NA,396,NA,2,legacy,1024,2,48000,-16,experiment,HHHHH,1,odd,2780,NA,NA,38372,42995,41958,43493,42993,43096,1450,NA,1452,NA,NA,43096,NA,Flanker Task,19,11367,24,1024
80,80,470,470,#000000,legacy,legacy,legacy,Congruent,1,undefined,1,s,0,0,0,24,24,24,24,24,24,0,24,0,0,0,24,0,Sun Sep 17 21:49:22 2023,1500,The main experiment item,FALSE,Flanker Task.osexp,C:/Users/Edward Banda/Desktop,FALSE,mono,FALSE,18,no,white,no,no,768,legacy,24,24,C:/Users/Edward Banda/Desktop/EB-subject-1.csv,legacy,Melodramatic Milgram,4.0.5,0,s,s,NA,NA,s,NA,385,1327,NA,NA,385,NA,2,legacy,1024,2,48000,-16,experiment,SSSSS,1,odd,2780,NA,NA,38372,44560,43506,45047,44558,44661,1450,NA,1452,NA,NA,44661,NA,Flanker Task,20,11752,25,1024
80,80,468,468,#000000,legacy,legacy,legacy,Congruent,1,undefined,1,s,0,0,0,25,25,25,25,25,25,0,25,0,0,0,25,0,Sun Sep 17 21:49:22 2023,1500,The main experiment item,FALSE,Flanker Task.osexp,C:/Users/Edward Banda/Desktop,FALSE,mono,FALSE,18,no,white,no,no,768,legacy,25,25,C:/Users/Edward Banda/Desktop/EB-subject-1.csv,legacy,Melodramatic Milgram,4.0.5,0,s,s,NA,NA,s,NA,426,1327,NA,NA,426,NA,2,legacy,1024,2,48000,-16,experiment,SSSSS,1,odd,2780,NA,NA,38372,46096,45059,46624,46094,46197,1450,NA,1452,NA,NA,46197,NA,Flanker Task,21,12178,26,1024
81,81,464,464,#000000,legacy,legacy,legacy,Incongruent,1,undefined,1,h,0,0,0,26,26,26,26,26,26,0,26,0,0,0,26,0,Sun Sep 17 21:49:22 2023,1500,The main experiment item,FALSE,Flanker Task.osexp,C:/Users/Edward Banda/Desktop,FALSE,mono,FALSE,18,no,white,no,no,768,legacy,26,26,C:/Users/Edward Banda/Desktop/EB-subject-1.csv,legacy,Melodramatic Milgram,4.0.5,0,h,s,NA,NA,h,NA,372,1327,NA,NA,372,NA,2,legacy,1024,2,48000,-16,experiment,SSHSS,1,odd,2780,NA,NA,38372,47694,46636,48168,47692,47795,1450,NA,1452,NA,NA,47795,NA,Flanker Task,22,12550,27,1024
82,82,465,465,#000000,legacy,legacy,legacy,Incongruent,1,undefined,1,s,0,0,0,27,27,27,27,27,27,0,27,0,0,0,27,0,Sun Sep 17 21:49:22 2023,1500,The main experiment item,FALSE,Flanker Task.osexp,C:/Users/Edward Banda/Desktop,FALSE,mono,FALSE,18,no,white,no,no,768,legacy,27,27,C:/Users/Edward Banda/Desktop/EB-subject-1.csv,legacy,Melodramatic Milgram,4.0.5,0,s,s,NA,NA,s,NA,494,1327,NA,NA,494,NA,2,legacy,1024,2,48000,-16,experiment,HHSHH,1,odd,2780,NA,NA,38372,49220,48180,49815,49218,49321,1450,NA,1452,NA,NA,49321,NA,Flanker Task,23,13044,28,1024
82,82,467,467,#000000,legacy,legacy,legacy,Incongruent,1,undefined,1,s,0,0,0,28,28,28,28,28,28,0,28,0,0,0,28,0,Sun Sep 17 21:49:22 2023,1500,The main experiment item,FALSE,Flanker Task.osexp,C:/Users/Edward Banda/Desktop,FALSE,mono,FALSE,18,no,white,no,no,768,legacy,28,28,C:/Users/Edward Banda/Desktop/EB-subject-1.csv,legacy,Melodramatic Milgram,4.0.5,0,s,s,NA,NA,s,NA,506,1327,NA,NA,506,NA,2,legacy,1024,2,48000,-16,experiment,HHSHH,1,odd,2780,NA,NA,38372,50865,49827,51473,50863,50966,1450,NA,1452,NA,NA,50966,NA,Flanker Task,24,13550,29,1024
83,83,468,468,#000000,legacy,legacy,legacy,Congruent,1,undefined,1,s,0,0,0,29,29,29,29,29,29,0,29,0,0,0,29,0,Sun Sep 17 21:49:22 2023,1500,The main experiment item,FALSE,Flanker Task.osexp,C:/Users/Edward Banda/Desktop,FALSE,mono,FALSE,18,no,white,no,no,768,legacy,29,29,C:/Users/Edward Banda/Desktop/EB-subject-1.csv,legacy,Melodramatic Milgram,4.0.5,0,s,s,NA,NA,s,NA,517,1327,NA,NA,517,NA,2,legacy,1024,2,48000,-16,experiment,SSSSS,1,odd,2780,NA,NA,38372,52522,51475,53142,52520,52623,1450,NA,1452,NA,NA,52623,NA,Flanker Task,25,14067,30,1024
83,83,467,467,#000000,legacy,legacy,legacy,Incongruent,1,undefined,1,s,0,0,0,30,30,30,30,30,30,0,30,0,0,0,30,0,Sun Sep 17 21:49:22 2023,1500,The main experiment item,FALSE,Flanker Task.osexp,C:/Users/Edward Banda/Desktop,FALSE,mono,FALSE,18,no,white,no,no,768,legacy,30,30,C:/Users/Edward Banda/Desktop/EB-subject-1.csv,legacy,Melodramatic Milgram,4.0.5,0,s,s,NA,NA,s,NA,436,1327,NA,NA,436,NA,2,legacy,1024,2,48000,-16,experiment,HHSHH,1,odd,2780,NA,NA,38372,54235,53154,54774,54231,54336,1450,NA,1452,NA,NA,54337,NA,Flanker Task,26,14503,31,1024
81,81,464,464,#000000,legacy,legacy,legacy,Incongruent,0,undefined,0,s,0,0,0,31,31,31,31,31,31,0,31,0,0,0,31,0,Sun Sep 17 21:49:22 2023,1500,The main experiment item,FALSE,Flanker Task.osexp,C:/Users/Edward Banda/Desktop,FALSE,mono,FALSE,18,no,white,no,no,768,legacy,31,31,C:/Users/Edward Banda/Desktop/EB-subject-1.csv,legacy,Melodramatic Milgram,4.0.5,0,h,s,NA,NA,h,NA,347,1327,NA,NA,347,NA,2,legacy,1024,2,48000,-16,experiment,HHSHH,1,odd,2780,NA,NA,38372,55828,54787,56277,55826,55929,1450,NA,1452,NA,NA,55929,NA,Flanker Task,26,14850,32,1024
81,81,460,460,#000000,legacy,legacy,legacy,Congruent,1,undefined,1,s,0,0,0,32,32,32,32,32,32,0,32,0,0,0,32,0,Sun Sep 17 21:49:22 2023,1500,The main experiment item,FALSE,Flanker Task.osexp,C:/Users/Edward Banda/Desktop,FALSE,mono,FALSE,18,no,white,no,no,768,legacy,32,32,C:/Users/Edward Banda/Desktop/EB-subject-1.csv,legacy,Melodramatic Milgram,4.0.5,0,s,s,NA,NA,s,NA,341,1327,NA,NA,341,NA,2,legacy,1024,2,48000,-16,experiment,SSSSS,1,odd,2780,NA,NA,56290,57832,56791,58275,57830,57933,1450,NA,1452,NA,NA,57933,NA,Flanker Task,27,15191,33,1024
82,82,459,459,#000000,legacy,legacy,legacy,Congruent,1,undefined,1,h,0,0,0,33,33,33,33,33,33,0,33,0,0,0,33,0,Sun Sep 17 21:49:22 2023,1500,The main experiment item,FALSE,Flanker Task.osexp,C:/Users/Edward Banda/Desktop,FALSE,mono,FALSE,18,no,white,no,no,768,legacy,33,33,C:/Users/Edward Banda/Desktop/EB-subject-1.csv,legacy,Melodramatic Milgram,4.0.5,0,h,s,NA,NA,h,NA,441,1327,NA,NA,441,NA,2,legacy,1024,2,48000,-16,experiment,HHHHH,1,odd,2780,NA,NA,56290,59345,58288,59888,59343,59446,1450,NA,1452,NA,NA,59446,NA,Flanker Task,28,15632,34,1024
82,82,460,460,#000000,legacy,legacy,legacy,Incongruent,1,undefined,1,h,0,0,0,34,34,34,34,34,34,0,34,0,0,0,34,0,Sun Sep 17 21:49:22 2023,1500,The main experiment item,FALSE,Flanker Task.osexp,C:/Users/Edward Banda/Desktop,FALSE,mono,FALSE,18,no,white,no,no,768,legacy,34,34,C:/Users/Edward Banda/Desktop/EB-subject-1.csv,legacy,Melodramatic Milgram,4.0.5,0,h,s,NA,NA,h,NA,477,1327,NA,NA,477,NA,2,legacy,1024,2,48000,-16,experiment,SSHSS,1,odd,2780,NA,NA,56290,60947,59900,61525,60944,61048,1450,NA,1452,NA,NA,61048,NA,Flanker Task,29,16109,35,1024
83,83,458,458,#000000,legacy,legacy,legacy,Congruent,1,undefined,1,s,0,0,0,35,35,35,35,35,35,0,35,0,0,0,35,0,Sun Sep 17 21:49:22 2023,1500,The main experiment item,FALSE,Flanker Task.osexp,C:/Users/Edward Banda/Desktop,FALSE,mono,FALSE,18,no,white,no,no,768,legacy,35,35,C:/Users/Edward Banda/Desktop/EB-subject-1.csv,legacy,Melodramatic Milgram,4.0.5,0,s,s,NA,NA,s,NA,379,1327,NA,NA,379,NA,2,legacy,1024,2,48000,-16,experiment,SSSSS,1,odd,2780,NA,NA,56290,62588,61538,63069,62586,62689,1450,NA,1452,NA,NA,62689,NA,Flanker Task,30,16488,36,1024
83,83,458,458,#000000,legacy,legacy,legacy,Incongruent,1,undefined,1,s,0,0,0,36,36,36,36,36,36,0,36,0,0,0,36,0,Sun Sep 17 21:49:22 2023,1500,The main experiment item,FALSE,Flanker Task.osexp,C:/Users/Edward Banda/Desktop,FALSE,mono,FALSE,18,no,white,no,no,768,legacy,36,36,C:/Users/Edward Banda/Desktop/EB-subject-1.csv,legacy,Melodramatic Milgram,4.0.5,0,s,s,NA,NA,s,NA,477,1327,NA,NA,477,NA,2,legacy,1024,2,48000,-16,experiment,HHSHH,1,odd,2780,NA,NA,56290,64113,63081,64692,64111,64214,1450,NA,1452,NA,NA,64214,NA,Flanker Task,31,16965,37,1024
84,84,455,455,#000000,legacy,legacy,legacy,Incongruent,1,undefined,1,h,0,0,0,37,37,37,37,37,37,0,37,0,0,0,37,0,Sun Sep 17 21:49:22 2023,1500,The main experiment item,FALSE,Flanker Task.osexp,C:/Users/Edward Banda/Desktop,FALSE,mono,FALSE,18,no,white,no,no,768,legacy,37,37,C:/Users/Edward Banda/Desktop/EB-subject-1.csv,legacy,Melodramatic Milgram,4.0.5,0,h,s,NA,NA,h,NA,327,1327,NA,NA,327,NA,2,legacy,1024,2,48000,-16,experiment,SSHSS,1,odd,2780,NA,NA,56290,65756,64704,66185,65754,65857,1450,NA,1452,NA,NA,65857,NA,Flanker Task,32,17292,38,1024
84,84,452,452,#000000,legacy,legacy,legacy,Incongruent,1,undefined,1,s,0,0,0,38,38,38,38,38,38,0,38,0,0,0,38,0,Sun Sep 17 21:49:22 2023,1500,The main experiment item,FALSE,Flanker Task.osexp,C:/Users/Edward Banda/Desktop,FALSE,mono,FALSE,18,no,white,no,no,768,legacy,38,38,C:/Users/Edward Banda/Desktop/EB-subject-1.csv,legacy,Melodramatic Milgram,4.0.5,0,s,s,NA,NA,s,NA,353,1327,NA,NA,353,NA,2,legacy,1024,2,48000,-16,experiment,HHSHH,1,odd,2780,NA,NA,56290,67243,66198,67698,67241,67344,1450,NA,1452,NA,NA,67344,NA,Flanker Task,33,17645,39,1024
85,85,451,451,#000000,legacy,legacy,legacy,Congruent,1,undefined,1,s,0,0,0,39,39,39,39,39,39,0,39,0,0,0,39,0,Sun Sep 17 21:49:22 2023,1500,The main experiment item,FALSE,Flanker Task.osexp,C:/Users/Edward Banda/Desktop,FALSE,mono,FALSE,18,no,white,no,no,768,legacy,39,39,C:/Users/Edward Banda/Desktop/EB-subject-1.csv,legacy,Melodramatic Milgram,4.0.5,0,s,s,NA,NA,s,NA,404,1327,NA,NA,404,NA,2,legacy,1024,2,48000,-16,experiment,SSSSS,1,odd,2780,NA,NA,56290,68750,67710,69255,68748,68851,1450,NA,1452,NA,NA,68851,NA,Flanker Task,34,18049,40,1024
85,85,451,451,#000000,legacy,legacy,legacy,Congruent,1,undefined,1,h,0,0,0,40,40,40,40,40,40,0,40,0,0,0,40,0,Sun Sep 17 21:49:22 2023,1500,The main experiment item,FALSE,Flanker Task.osexp,C:/Users/Edward Banda/Desktop,FALSE,mono,FALSE,18,no,white,no,no,768,legacy,40,40,C:/Users/Edward Banda/Desktop/EB-subject-1.csv,legacy,Melodramatic Milgram,4.0.5,0,h,s,NA,NA,h,NA,443,1327,NA,NA,443,NA,2,legacy,1024,2,48000,-16,experiment,HHHHH,1,odd,2780,NA,NA,56290,70304,69267,70849,70301,70405,1450,NA,1452,NA,NA,70405,NA,Flanker Task,35,18492,41,1024
83,83,449,449,#000000,legacy,legacy,legacy,Congruent,0,undefined,0,h,0,0,0,41,41,41,41,41,41,0,41,0,0,0,41,0,Sun Sep 17 21:49:22 2023,1500,The main experiment item,FALSE,Flanker Task.osexp,C:/Users/Edward Banda/Desktop,FALSE,mono,FALSE,18,no,white,no,no,768,legacy,41,41,C:/Users/Edward Banda/Desktop/EB-subject-1.csv,legacy,Melodramatic Milgram,4.0.5,0,s,s,NA,NA,s,NA,386,1327,NA,NA,386,NA,2,legacy,1024,2,48000,-16,experiment,HHHHH,1,odd,2780,NA,NA,56290,71904,70862,72392,71902,72005,1450,NA,1452,NA,NA,72005,NA,Flanker Task,35,18878,42,1024
83,83,448,448,#000000,legacy,legacy,legacy,Congruent,1,undefined,1,h,0,0,0,42,42,42,42,42,42,0,42,0,0,0,42,0,Sun Sep 17 21:49:22 2023,1500,The main experiment item,FALSE,Flanker Task.osexp,C:/Users/Edward Banda/Desktop,FALSE,mono,FALSE,18,no,white,no,no,768,legacy,42,42,C:/Users/Edward Banda/Desktop/EB-subject-1.csv,legacy,Melodramatic Milgram,4.0.5,0,h,s,NA,NA,h,NA,389,1327,NA,NA,389,NA,2,legacy,1024,2,48000,-16,experiment,HHHHH,1,odd,2780,NA,NA,72404,73937,72905,74429,73936,74038,1450,NA,1452,NA,NA,74039,NA,Flanker Task,36,19267,43,1024
84,84,446,446,#000000,legacy,legacy,legacy,Incongruent,1,undefined,1,h,0,0,0,43,43,43,43,43,43,0,43,0,0,0,43,0,Sun Sep 17 21:49:22 2023,1500,The main experiment item,FALSE,Flanker Task.osexp,C:/Users/Edward Banda/Desktop,FALSE,mono,FALSE,18,no,white,no,no,768,legacy,43,43,C:/Users/Edward Banda/Desktop/EB-subject-1.csv,legacy,Melodramatic Milgram,4.0.5,0,h,s,NA,NA,h,NA,357,1327,NA,NA,357,NA,2,legacy,1024,2,48000,-16,experiment,SSHSS,1,odd,2780,NA,NA,72404,75483,74442,75942,75481,75584,1450,NA,1452,NA,NA,75584,NA,Flanker Task,37,19624,44,1024
84,84,443,443,#000000,legacy,legacy,legacy,Congruent,1,undefined,1,h,0,0,0,44,44,44,44,44,44,0,44,0,0,0,44,0,Sun Sep 17 21:49:22 2023,1500,The main experiment item,FALSE,Flanker Task.osexp,C:/Users/Edward Banda/Desktop,FALSE,mono,FALSE,18,no,white,no,no,768,legacy,44,44,C:/Users/Edward Banda/Desktop/EB-subject-1.csv,legacy,Melodramatic Milgram,4.0.5,0,h,s,NA,NA,h,NA,352,1327,NA,NA,352,NA,2,legacy,1024,2,48000,-16,experiment,HHHHH,1,odd,2780,NA,NA,72404,76987,75954,77440,76985,77088,1450,NA,1452,NA,NA,77088,NA,Flanker Task,38,19976,45,1024
84,84,442,442,#000000,legacy,legacy,legacy,Incongruent,1,undefined,1,s,0,0,0,45,45,45,45,45,45,0,45,0,0,0,45,0,Sun Sep 17 21:49:22 2023,1500,The main experiment item,FALSE,Flanker Task.osexp,C:/Users/Edward Banda/Desktop,FALSE,mono,FALSE,18,no,white,no,no,768,legacy,45,45,C:/Users/Edward Banda/Desktop/EB-subject-1.csv,legacy,Melodramatic Milgram,4.0.5,0,s,s,NA,NA,s,NA,373,1327,NA,NA,373,NA,2,legacy,1024,2,48000,-16,experiment,HHSHH,1,odd,2780,NA,NA,72404,78517,77452,78994,78515,78619,1450,NA,1452,NA,NA,78619,NA,Flanker Task,39,20349,46,1024
85,85,442,442,#000000,legacy,legacy,legacy,Congruent,1,undefined,1,s,0,0,0,46,46,46,46,46,46,0,46,0,0,0,46,0,Sun Sep 17 21:49:22 2023,1500,The main experiment item,FALSE,Flanker Task.osexp,C:/Users/Edward Banda/Desktop,FALSE,mono,FALSE,18,no,white,no,no,768,legacy,46,46,C:/Users/Edward Banda/Desktop/EB-subject-1.csv,legacy,Melodramatic Milgram,4.0.5,0,s,s,NA,NA,s,NA,443,1327,NA,NA,443,NA,2,legacy,1024,2,48000,-16,experiment,SSSSS,1,odd,2780,NA,NA,72404,80067,79006,80612,80066,80168,1450,NA,1452,NA,NA,80168,NA,Flanker Task,40,20792,47,1024
83,83,441,441,#000000,legacy,legacy,legacy,Incongruent,0,undefined,0,h,0,0,0,47,47,47,47,47,47,0,47,0,0,0,47,0,Sun Sep 17 21:49:22 2023,1500,The main experiment item,FALSE,Flanker Task.osexp,C:/Users/Edward Banda/Desktop,FALSE,mono,FALSE,18,no,white,no,no,768,legacy,47,47,C:/Users/Edward Banda/Desktop/EB-subject-1.csv,legacy,Melodramatic Milgram,4.0.5,0,s,s,NA,NA,s,NA,401,1327,NA,NA,401,NA,2,legacy,1024,2,48000,-16,experiment,SSHSS,1,odd,2780,NA,NA,72404,81662,80614,82165,81658,81763,1450,NA,1452,NA,NA,81763,NA,Flanker Task,40,21193,48,1024
83,83,442,442,#000000,legacy,legacy,legacy,Incongruent,1,undefined,1,s,0,0,0,48,48,48,48,48,48,0,48,0,0,0,48,0,Sun Sep 17 21:49:22 2023,1500,The main experiment item,FALSE,Flanker Task.osexp,C:/Users/Edward Banda/Desktop,FALSE,mono,FALSE,18,no,white,no,no,768,legacy,48,48,C:/Users/Edward Banda/Desktop/EB-subject-1.csv,legacy,Melodramatic Milgram,4.0.5,0,s,s,NA,NA,s,NA,485,1327,NA,NA,485,NA,2,legacy,1024,2,48000,-16,experiment,HHSHH,1,odd,2780,NA,NA,82167,83710,82668,84297,83708,83811,1450,NA,1452,NA,NA,83811,NA,Flanker Task,41,21678,49,1024
84,84,442,442,#000000,legacy,legacy,legacy,Incongruent,1,undefined,1,h,0,0,0,49,49,49,49,49,49,0,49,0,0,0,49,0,Sun Sep 17 21:49:22 2023,1500,The main experiment item,FALSE,Flanker Task.osexp,C:/Users/Edward Banda/Desktop,FALSE,mono,FALSE,18,no,white,no,no,768,legacy,49,49,C:/Users/Edward Banda/Desktop/EB-subject-1.csv,legacy,Melodramatic Milgram,4.0.5,0,h,s,NA,NA,h,NA,448,1327,NA,NA,448,NA,2,legacy,1024,2,48000,-16,experiment,SSHSS,1,odd,2780,NA,NA,82167,85360,84310,85910,85356,85461,1450,NA,1452,NA,NA,85461,NA,Flanker Task,42,22126,50,1024
82,82,440,440,#000000,legacy,legacy,legacy,Incongruent,0,undefined,0,h,0,0,0,50,50,50,50,50,50,0,50,0,0,0,50,0,Sun Sep 17 21:49:22 2023,1500,The main experiment item,FALSE,Flanker Task.osexp,C:/Users/Edward Banda/Desktop,FALSE,mono,FALSE,18,no,white,no,no,768,legacy,50,50,C:/Users/Edward Banda/Desktop/EB-subject-1.csv,legacy,Melodramatic Milgram,4.0.5,0,s,s,NA,NA,s,NA,316,1327,NA,NA,316,NA,2,legacy,1024,2,48000,-16,experiment,SSHSS,1,odd,2780,NA,NA,82167,86958,85921,87379,86956,87061,1450,NA,1452,NA,NA,87061,NA,Flanker Task,42,22442,51,1024
82,82,442,442,#000000,legacy,legacy,legacy,Incongruent,1,undefined,1,s,0,0,0,51,51,51,51,51,51,0,51,0,0,0,51,0,Sun Sep 17 21:49:22 2023,1500,The main experiment item,FALSE,Flanker Task.osexp,C:/Users/Edward Banda/Desktop,FALSE,mono,FALSE,18,no,white,no,no,768,legacy,51,51,C:/Users/Edward Banda/Desktop/EB-subject-1.csv,legacy,Melodramatic Milgram,4.0.5,0,s,s,NA,NA,s,NA,585,1327,NA,NA,585,NA,2,legacy,1024,2,48000,-16,experiment,HHSHH,1,odd,2780,NA,NA,87391,88933,87893,89620,88931,89034,1450,NA,1452,NA,NA,89034,NA,Flanker Task,43,23027,52,1024
83,83,443,443,#000000,legacy,legacy,legacy,Congruent,1,undefined,1,h,0,0,0,52,52,52,52,52,52,0,52,0,0,0,52,0,Sun Sep 17 21:49:22 2023,1500,The main experiment item,FALSE,Flanker Task.osexp,C:/Users/Edward Banda/Desktop,FALSE,mono,FALSE,18,no,white,no,no,768,legacy,52,52,C:/Users/Edward Banda/Desktop/EB-subject-1.csv,legacy,Melodramatic Milgram,4.0.5,0,h,s,NA,NA,h,NA,491,1327,NA,NA,491,NA,2,legacy,1024,2,48000,-16,experiment,HHHHH,1,odd,2780,NA,NA,87391,90661,89632,91253,90658,90762,1450,NA,1452,NA,NA,90762,NA,Flanker Task,44,23518,53,1024
83,83,443,443,#000000,legacy,legacy,legacy,Congruent,1,undefined,1,s,0,0,0,53,53,53,53,53,53,0,53,0,0,0,53,0,Sun Sep 17 21:49:22 2023,1500,The main experiment item,FALSE,Flanker Task.osexp,C:/Users/Edward Banda/Desktop,FALSE,mono,FALSE,18,no,white,no,no,768,legacy,53,53,C:/Users/Edward Banda/Desktop/EB-subject-1.csv,legacy,Melodramatic Milgram,4.0.5,0,s,s,NA,NA,s,NA,436,1327,NA,NA,436,NA,2,legacy,1024,2,48000,-16,experiment,SSSSS,1,odd,2780,NA,NA,87391,92295,91255,92833,92293,92396,1450,NA,1452,NA,NA,92396,NA,Flanker Task,45,23954,54,1024
83,83,444,444,#000000,legacy,legacy,legacy,Congruent,1,undefined,1,s,0,0,0,54,54,54,54,54,54,0,54,0,0,0,54,0,Sun Sep 17 21:49:22 2023,1500,The main experiment item,FALSE,Flanker Task.osexp,C:/Users/Edward Banda/Desktop,FALSE,mono,FALSE,18,no,white,no,no,768,legacy,54,54,C:/Users/Edward Banda/Desktop/EB-subject-1.csv,legacy,Melodramatic Milgram,4.0.5,0,s,s,NA,NA,s,NA,481,1327,NA,NA,481,NA,2,legacy,1024,2,48000,-16,experiment,SSSSS,1,odd,2780,NA,NA,87391,93896,92845,94480,93894,93998,1450,NA,1452,NA,NA,93998,NA,Flanker Task,46,24435,55,1024
83,83,446,446,#000000,legacy,legacy,legacy,Incongruent,1,undefined,1,s,0,0,0,55,55,55,55,55,55,0,55,0,0,0,55,0,Sun Sep 17 21:49:22 2023,1500,The main experiment item,FALSE,Flanker Task.osexp,C:/Users/Edward Banda/Desktop,FALSE,mono,FALSE,18,no,white,no,no,768,legacy,55,55,C:/Users/Edward Banda/Desktop/EB-subject-1.csv,legacy,Melodramatic Milgram,4.0.5,0,s,s,NA,NA,s,NA,542,1327,NA,NA,542,NA,2,legacy,1024,2,48000,-16,experiment,HHSHH,1,odd,2780,NA,NA,87391,95528,94492,96172,95527,95629,1450,NA,1452,NA,NA,95629,NA,Flanker Task,47,24977,56,1024
84,84,446,446,#000000,legacy,legacy,legacy,Congruent,1,undefined,1,s,0,0,0,56,56,56,56,56,56,0,56,0,0,0,56,0,Sun Sep 17 21:49:22 2023,1500,The main experiment item,FALSE,Flanker Task.osexp,C:/Users/Edward Banda/Desktop,FALSE,mono,FALSE,18,no,white,no,no,768,legacy,56,56,C:/Users/Edward Banda/Desktop/EB-subject-1.csv,legacy,Melodramatic Milgram,4.0.5,0,s,s,NA,NA,s,NA,448,1327,NA,NA,448,NA,2,legacy,1024,2,48000,-16,experiment,SSSSS,1,odd,2780,NA,NA,87391,97236,96185,97786,97234,97337,1450,NA,1452,NA,NA,97337,NA,Flanker Task,48,25425,57,1024
84,84,450,450,#000000,legacy,legacy,legacy,Incongruent,1,undefined,1,h,0,0,0,57,57,57,57,57,57,0,57,0,0,0,57,0,Sun Sep 17 21:49:22 2023,1500,The main experiment item,FALSE,Flanker Task.osexp,C:/Users/Edward Banda/Desktop,FALSE,mono,FALSE,18,no,white,no,no,768,legacy,57,57,C:/Users/Edward Banda/Desktop/EB-subject-1.csv,legacy,Melodramatic Milgram,4.0.5,0,h,s,NA,NA,h,NA,690,1327,NA,NA,690,NA,2,legacy,1024,2,48000,-16,experiment,SSHSS,1,odd,2780,NA,NA,87391,98841,97798,99633,98839,98942,1450,NA,1452,NA,NA,98942,NA,Flanker Task,49,26115,58,1024
84,84,450,450,#000000,legacy,legacy,legacy,Incongruent,1,undefined,1,s,0,0,0,58,58,58,58,58,58,0,58,0,0,0,58,0,Sun Sep 17 21:49:22 2023,1500,The main experiment item,FALSE,Flanker Task.osexp,C:/Users/Edward Banda/Desktop,FALSE,mono,FALSE,18,no,white,no,no,768,legacy,58,58,C:/Users/Edward Banda/Desktop/EB-subject-1.csv,legacy,Melodramatic Milgram,4.0.5,0,s,s,NA,NA,s,NA,443,1327,NA,NA,443,NA,2,legacy,1024,2,48000,-16,experiment,HHSHH,1,odd,2780,NA,NA,87391,100706,99648,101251,100703,100807,1450,NA,1452,NA,NA,100807,NA,Flanker Task,50,26558,59,1024
85,85,450,450,#000000,legacy,legacy,legacy,Congruent,1,undefined,1,s,0,0,0,59,59,59,59,59,59,0,59,0,0,0,59,0,Sun Sep 17 21:49:22 2023,1500,The main experiment item,FALSE,Flanker Task.osexp,C:/Users/Edward Banda/Desktop,FALSE,mono,FALSE,18,no,white,no,no,768,legacy,59,59,C:/Users/Edward Banda/Desktop/EB-subject-1.csv,legacy,Melodramatic Milgram,4.0.5,0,s,s,NA,NA,s,NA,492,1327,NA,NA,492,NA,2,legacy,1024,2,48000,-16,experiment,SSSSS,1,odd,2780,NA,NA,87391,102309,101263,102904,102307,102410,1450,NA,1452,NA,NA,102411,NA,Flanker Task,51,27050,60,1024
85,85,451,451,#000000,legacy,legacy,legacy,Congruent,1,undefined,1,h,0,0,0,60,60,60,60,60,60,0,60,0,0,0,60,0,Sun Sep 17 21:49:22 2023,1500,The main experiment item,FALSE,Flanker Task.osexp,C:/Users/Edward Banda/Desktop,FALSE,mono,FALSE,18,no,white,no,no,768,legacy,60,60,C:/Users/Edward Banda/Desktop/EB-subject-1.csv,legacy,Melodramatic Milgram,4.0.5,0,h,s,NA,NA,h,NA,492,1327,NA,NA,492,NA,2,legacy,1024,2,48000,-16,experiment,HHHHH,1,odd,2780,NA,NA,87391,103963,102916,104557,103961,104064,1450,NA,1452,NA,NA,104064,NA,Flanker Task,52,27542,61,1024
85,85,450,450,#000000,legacy,legacy,legacy,Congruent,1,undefined,1,s,0,0,0,61,61,61,61,61,61,0,61,0,0,0,61,0,Sun Sep 17 21:49:22 2023,1500,The main experiment item,FALSE,Flanker Task.osexp,C:/Users/Edward Banda/Desktop,FALSE,mono,FALSE,18,no,white,no,no,768,legacy,61,61,C:/Users/Edward Banda/Desktop/EB-subject-1.csv,legacy,Melodramatic Milgram,4.0.5,0,s,s,NA,NA,s,NA,378,1327,NA,NA,378,NA,2,legacy,1024,2,48000,-16,experiment,SSSSS,1,odd,2780,NA,NA,87391,105604,104569,106085,105602,105705,1450,NA,1452,NA,NA,105706,NA,Flanker Task,53,27920,62,1024
85,85,450,450,#000000,legacy,legacy,legacy,Congruent,1,undefined,1,h,0,0,0,62,62,62,62,62,62,0,62,0,0,0,62,0,Sun Sep 17 21:49:22 2023,1500,The main experiment item,FALSE,Flanker Task.osexp,C:/Users/Edward Banda/Desktop,FALSE,mono,FALSE,18,no,white,no,no,768,legacy,62,62,C:/Users/Edward Banda/Desktop/EB-subject-1.csv,legacy,Melodramatic Milgram,4.0.5,0,h,s,NA,NA,h,NA,471,1327,NA,NA,471,NA,2,legacy,1024,2,48000,-16,experiment,HHHHH,1,odd,2780,NA,NA,87391,107140,106097,107713,107138,107241,1450,NA,1452,NA,NA,107241,NA,Flanker Task,54,28391,63,1024
85,85,450,450,#000000,legacy,legacy,legacy,Congruent,1,undefined,1,h,0,0,0,63,63,63,63,63,63,0,63,0,0,0,63,0,Sun Sep 17 21:49:22 2023,1500,The main experiment item,FALSE,Flanker Task.osexp,C:/Users/Edward Banda/Desktop,FALSE,mono,FALSE,18,no,white,no,no,768,legacy,63,63,C:/Users/Edward Banda/Desktop/EB-subject-1.csv,legacy,Melodramatic Milgram,4.0.5,0,h,s,NA,NA,h,NA,462,1327,NA,NA,462,NA,2,legacy,1024,2,48000,-16,experiment,HHHHH,1,odd,2780,NA,NA,87391,108772,107726,109336,108770,108873,1450,NA,1452,NA,NA,108873,NA,Flanker Task,55,28853,64,1024
86,86,450,450,#000000,legacy,legacy,legacy,Incongruent,1,undefined,1,s,0,0,0,64,64,64,64,64,64,0,64,0,0,0,64,0,Sun Sep 17 21:49:22 2023,1500,The main experiment item,FALSE,Flanker Task.osexp,C:/Users/Edward Banda/Desktop,FALSE,mono,FALSE,18,no,white,no,no,768,legacy,64,64,C:/Users/Edward Banda/Desktop/EB-subject-1.csv,legacy,Melodramatic Milgram,4.0.5,0,s,s,NA,NA,s,NA,441,1327,NA,NA,441,NA,2,legacy,1024,2,48000,-16,experiment,HHSHH,1,odd,2780,NA,NA,87391,110386,109349,110929,110385,110487,1450,NA,1452,NA,NA,110487,NA,Flanker Task,56,29294,65,1024
84,84,450,450,#000000,legacy,legacy,legacy,Incongruent,0,undefined,0,h,0,0,0,65,65,65,65,65,65,0,65,0,0,0,65,0,Sun Sep 17 21:49:22 2023,1500,The main experiment item,FALSE,Flanker Task.osexp,C:/Users/Edward Banda/Desktop,FALSE,mono,FALSE,18,no,white,no,no,768,legacy,65,65,C:/Users/Edward Banda/Desktop/EB-subject-1.csv,legacy,Melodramatic Milgram,4.0.5,0,s,s,NA,NA,s,NA,429,1327,NA,NA,429,NA,2,legacy,1024,2,48000,-16,experiment,SSHSS,1,odd,2780,NA,NA,87391,111974,110942,112508,111972,112077,1450,NA,1452,NA,NA,112077,NA,Flanker Task,56,29723,66,1024
85,85,449,449,#000000,legacy,legacy,legacy,Congruent,1,undefined,1,h,0,0,0,66,66,66,66,66,66,0,66,0,0,0,66,0,Sun Sep 17 21:49:22 2023,1500,The main experiment item,FALSE,Flanker Task.osexp,C:/Users/Edward Banda/Desktop,FALSE,mono,FALSE,18,no,white,no,no,768,legacy,66,66,C:/Users/Edward Banda/Desktop/EB-subject-1.csv,legacy,Melodramatic Milgram,4.0.5,0,h,s,NA,NA,h,NA,414,1327,NA,NA,414,NA,2,legacy,1024,2,48000,-16,experiment,HHHHH,1,odd,2780,NA,NA,112521,114054,113022,114570,114053,114155,1450,NA,1452,NA,NA,114155,NA,Flanker Task,57,30137,67,1024
83,83,449,449,#000000,legacy,legacy,legacy,Congruent,0,undefined,0,s,0,0,0,67,67,67,67,67,67,0,67,0,0,0,67,0,Sun Sep 17 21:49:22 2023,1500,The main experiment item,FALSE,Flanker Task.osexp,C:/Users/Edward Banda/Desktop,FALSE,mono,FALSE,18,no,white,no,no,768,legacy,67,67,C:/Users/Edward Banda/Desktop/EB-subject-1.csv,legacy,Melodramatic Milgram,4.0.5,0,h,s,NA,NA,h,NA,414,1327,NA,NA,414,NA,2,legacy,1024,2,48000,-16,experiment,SSSSS,1,odd,2780,NA,NA,112521,115625,114582,116142,115624,115727,1450,NA,1452,NA,NA,115727,NA,Flanker Task,57,30551,68,1024
84,84,449,449,#000000,legacy,legacy,legacy,Incongruent,1,undefined,1,s,0,0,0,68,68,68,68,68,68,0,68,0,0,0,68,0,Sun Sep 17 21:49:22 2023,1500,The main experiment item,FALSE,Flanker Task.osexp,C:/Users/Edward Banda/Desktop,FALSE,mono,FALSE,18,no,white,no,no,768,legacy,68,68,C:/Users/Edward Banda/Desktop/EB-subject-1.csv,legacy,Melodramatic Milgram,4.0.5,0,s,s,NA,NA,s,NA,484,1327,NA,NA,484,NA,2,legacy,1024,2,48000,-16,experiment,HHSHH,1,odd,2780,NA,NA,116154,117694,116655,118280,117692,117795,1450,NA,1452,NA,NA,117795,NA,Flanker Task,58,31035,69,1024
84,84,450,450,#000000,legacy,legacy,legacy,Incongruent,1,undefined,1,s,0,0,0,69,69,69,69,69,69,0,69,0,0,0,69,0,Sun Sep 17 21:49:22 2023,1500,The main experiment item,FALSE,Flanker Task.osexp,C:/Users/Edward Banda/Desktop,FALSE,mono,FALSE,18,no,white,no,no,768,legacy,69,69,C:/Users/Edward Banda/Desktop/EB-subject-1.csv,legacy,Melodramatic Milgram,4.0.5,0,s,s,NA,NA,s,NA,468,1327,NA,NA,468,NA,2,legacy,1024,2,48000,-16,experiment,HHSHH,1,odd,2780,NA,NA,116154,119323,118292,119893,119321,119424,1450,NA,1452,NA,NA,119424,NA,Flanker Task,59,31503,70,1024
84,84,450,450,#000000,legacy,legacy,legacy,Incongruent,1,undefined,1,s,0,0,0,70,70,70,70,70,70,0,70,0,0,0,70,0,Sun Sep 17 21:49:22 2023,1500,The main experiment item,FALSE,Flanker Task.osexp,C:/Users/Edward Banda/Desktop,FALSE,mono,FALSE,18,no,white,no,no,768,legacy,70,70,C:/Users/Edward Banda/Desktop/EB-subject-1.csv,legacy,Melodramatic Milgram,4.0.5,0,s,s,NA,NA,s,NA,503,1327,NA,NA,503,NA,2,legacy,1024,2,48000,-16,experiment,HHSHH,1,odd,2780,NA,NA,116154,120956,119906,121561,120954,121057,1450,NA,1452,NA,NA,121057,NA,Flanker Task,60,32006,71,1024
84,84,451,451,#000000,legacy,legacy,legacy,Incongruent,1,undefined,1,h,0,0,0,71,71,71,71,71,71,0,71,0,0,0,71,0,Sun Sep 17 21:49:22 2023,1500,The main experiment item,FALSE,Flanker Task.osexp,C:/Users/Edward Banda/Desktop,FALSE,mono,FALSE,18,no,white,no,no,768,legacy,71,71,C:/Users/Edward Banda/Desktop/EB-subject-1.csv,legacy,Melodramatic Milgram,4.0.5,0,h,s,NA,NA,h,NA,506,1327,NA,NA,506,NA,2,legacy,1024,2,48000,-16,experiment,SSHSS,1,odd,2780,NA,NA,116154,122609,121573,123218,122606,122711,1450,NA,1452,NA,NA,122711,NA,Flanker Task,61,32512,72,1024
84,84,452,452,#000000,legacy,legacy,legacy,Incongruent,1,undefined,1,h,0,0,0,72,72,72,72,72,72,0,72,0,0,0,72,0,Sun Sep 17 21:49:22 2023,1500,The main experiment item,FALSE,Flanker Task.osexp,C:/Users/Edward Banda/Desktop,FALSE,mono,FALSE,18,no,white,no,no,768,legacy,72,72,C:/Users/Edward Banda/Desktop/EB-subject-1.csv,legacy,Melodramatic Milgram,4.0.5,0,h,s,NA,NA,h,NA,484,1327,NA,NA,484,NA,2,legacy,1024,2,48000,-16,experiment,SSHSS,1,odd,2780,NA,NA,116154,124280,123230,124866,124279,124381,1450,NA,1452,NA,NA,124381,NA,Flanker Task,62,32996,73,1024
85,85,451,451,#000000,legacy,legacy,legacy,Congruent,1,undefined,1,h,0,0,0,73,73,73,73,73,73,0,73,0,0,0,73,0,Sun Sep 17 21:49:22 2023,1500,The main experiment item,FALSE,Flanker Task.osexp,C:/Users/Edward Banda/Desktop,FALSE,mono,FALSE,18,no,white,no,no,768,legacy,73,73,C:/Users/Edward Banda/Desktop/EB-subject-1.csv,legacy,Melodramatic Milgram,4.0.5,0,h,s,NA,NA,h,NA,407,1327,NA,NA,407,NA,2,legacy,1024,2,48000,-16,experiment,HHHHH,1,odd,2780,NA,NA,116154,125928,124879,126439,125927,126030,1450,NA,1452,NA,NA,126031,NA,Flanker Task,63,33403,74,1024
85,85,452,452,#000000,legacy,legacy,legacy,Incongruent,1,undefined,1,s,0,0,0,74,74,74,74,74,74,0,74,0,0,0,74,0,Sun Sep 17 21:49:22 2023,1500,The main experiment item,FALSE,Flanker Task.osexp,C:/Users/Edward Banda/Desktop,FALSE,mono,FALSE,18,no,white,no,no,768,legacy,74,74,C:/Users/Edward Banda/Desktop/EB-subject-1.csv,legacy,Melodramatic Milgram,4.0.5,0,s,s,NA,NA,s,NA,497,1327,NA,NA,497,NA,2,legacy,1024,2,48000,-16,experiment,HHSHH,1,odd,2780,NA,NA,116154,127498,126451,128097,127496,127599,1450,NA,1452,NA,NA,127599,NA,Flanker Task,64,33900,75,1024
85,85,452,452,#000000,legacy,legacy,legacy,Congruent,1,undefined,1,s,0,0,0,75,75,75,75,75,75,0,75,0,0,0,75,0,Sun Sep 17 21:49:22 2023,1500,The main experiment item,FALSE,Flanker Task.osexp,C:/Users/Edward Banda/Desktop,FALSE,mono,FALSE,18,no,white,no,no,768,legacy,75,75,C:/Users/Edward Banda/Desktop/EB-subject-1.csv,legacy,Melodramatic Milgram,4.0.5,0,s,s,NA,NA,s,NA,488,1327,NA,NA,488,NA,2,legacy,1024,2,48000,-16,experiment,SSSSS,1,odd,2780,NA,NA,116154,129169,128109,129760,129162,129270,1450,NA,1452,NA,NA,129271,NA,Flanker Task,65,34388,76,1024
85,85,454,454,#000000,legacy,legacy,legacy,Congruent,1,undefined,1,h,0,0,0,76,76,76,76,76,76,0,76,0,0,0,76,0,Sun Sep 17 21:49:22 2023,1500,The main experiment item,FALSE,Flanker Task.osexp,C:/Users/Edward Banda/Desktop,FALSE,mono,FALSE,18,no,white,no,no,768,legacy,76,76,C:/Users/Edward Banda/Desktop/EB-subject-1.csv,legacy,Melodramatic Milgram,4.0.5,0,h,s,NA,NA,h,NA,589,1327,NA,NA,589,NA,2,legacy,1024,2,48000,-16,experiment,HHHHH,1,odd,2780,NA,NA,116154,130807,129771,131498,130805,130908,1450,NA,1452,NA,NA,130908,NA,Flanker Task,66,34977,77,1024
85,85,454,454,#000000,legacy,legacy,legacy,Congruent,1,undefined,1,h,0,0,0,77,77,77,77,77,77,0,77,0,0,0,77,0,Sun Sep 17 21:49:22 2023,1500,The main experiment item,FALSE,Flanker Task.osexp,C:/Users/Edward Banda/Desktop,FALSE,mono,FALSE,18,no,white,no,no,768,legacy,77,77,C:/Users/Edward Banda/Desktop/EB-subject-1.csv,legacy,Melodramatic Milgram,4.0.5,0,h,s,NA,NA,h,NA,436,1327,NA,NA,436,NA,2,legacy,1024,2,48000,-16,experiment,HHHHH,1,odd,2780,NA,NA,116154,132553,131510,133091,132551,132654,1450,NA,1452,NA,NA,132654,NA,Flanker Task,67,35413,78,1024
86,86,453,453,#000000,legacy,legacy,legacy,Incongruent,1,undefined,1,s,0,0,0,78,78,78,78,78,78,0,78,0,0,0,78,0,Sun Sep 17 21:49:22 2023,1500,The main experiment item,FALSE,Flanker Task.osexp,C:/Users/Edward Banda/Desktop,FALSE,mono,FALSE,18,no,white,no,no,768,legacy,78,78,C:/Users/Edward Banda/Desktop/EB-subject-1.csv,legacy,Melodramatic Milgram,4.0.5,0,s,s,NA,NA,s,NA,439,1327,NA,NA,439,NA,2,legacy,1024,2,48000,-16,experiment,HHSHH,1,odd,2780,NA,NA,116154,134151,133104,134694,134149,134254,1450,NA,1452,NA,NA,134254,NA,Flanker Task,68,35852,79,1024
86,86,453,453,#000000,legacy,legacy,legacy,Incongruent,1,undefined,1,s,0,0,0,79,79,79,79,79,79,0,79,0,0,0,79,0,Sun Sep 17 21:49:22 2023,1500,The main experiment item,FALSE,Flanker Task.osexp,C:/Users/Edward Banda/Desktop,FALSE,mono,FALSE,18,no,white,no,no,768,legacy,79,79,C:/Users/Edward Banda/Desktop/EB-subject-1.csv,legacy,Melodramatic Milgram,4.0.5,0,s,s,NA,NA,s,NA,457,1327,NA,NA,457,NA,2,legacy,1024,2,48000,-16,experiment,HHSHH,1,odd,2780,NA,NA,116154,135743,134706,136302,135741,135844,1450,NA,1452,NA,NA,135844,NA,Flanker Task,69,36309,80,1024
86,86,454,454,#000000,legacy,legacy,legacy,Congruent,1,undefined,1,h,0,0,0,80,80,80,80,80,80,0,80,0,0,0,80,0,Sun Sep 17 21:49:22 2023,600,The main experiment item,FALSE,Flanker Task.osexp,C:/Users/Edward Banda/Desktop,FALSE,mono,FALSE,18,no,white,no,no,768,legacy,0,79,C:/Users/Edward Banda/Desktop/EB-subject-1.csv,legacy,Melodramatic Milgram,4.0.5,0,h,s,h,NA,h,NA,501,1327,8094,NA,501,NA,2,legacy,1024,2,48000,-16,experiment,HHHHH,1,odd,2780,145415,NA,116154,145462,136314,146065,145461,145563,1450,NA,1452,137320,NA,145563,NA,Flanker Task,70,36810,81,1024
86,86,454,454,#000000,legacy,legacy,legacy,Congruent,1,undefined,1,s,0,0,0,81,81,81,81,81,81,0,81,0,0,0,81,0,Sun Sep 17 21:49:22 2023,600,The main experiment item,FALSE,Flanker Task.osexp,C:/Users/Edward Banda/Desktop,FALSE,mono,FALSE,18,no,white,no,no,768,legacy,1,79,C:/Users/Edward Banda/Desktop/EB-subject-1.csv,legacy,Melodramatic Milgram,4.0.5,0,s,s,h,NA,s,NA,466,1327,8094,NA,466,NA,2,legacy,1024,2,48000,-16,experiment,SSSSS,1,odd,2780,145415,NA,116154,147129,146078,147697,147127,147230,1450,NA,1452,137320,NA,147230,NA,Flanker Task,71,37276,82,1024
86,86,454,454,#000000,legacy,legacy,legacy,Incongruent,1,undefined,1,s,0,0,0,82,82,82,82,82,82,0,82,0,0,0,82,0,Sun Sep 17 21:49:22 2023,600,The main experiment item,FALSE,Flanker Task.osexp,C:/Users/Edward Banda/Desktop,FALSE,mono,FALSE,18,no,white,no,no,768,legacy,2,79,C:/Users/Edward Banda/Desktop/EB-subject-1.csv,legacy,Melodramatic Milgram,4.0.5,0,s,s,h,NA,s,NA,409,1327,8094,NA,409,NA,2,legacy,1024,2,48000,-16,experiment,HHSHH,1,odd,2780,145415,NA,116154,148764,147710,149275,148763,148865,1450,NA,1452,137320,NA,148865,NA,Flanker Task,72,37685,83,1024
86,86,452,452,#000000,legacy,legacy,legacy,Congruent,1,undefined,1,h,0,0,0,83,83,83,83,83,83,0,83,0,0,0,83,0,Sun Sep 17 21:49:22 2023,600,The main experiment item,FALSE,Flanker Task.osexp,C:/Users/Edward Banda/Desktop,FALSE,mono,FALSE,18,no,white,no,no,768,legacy,3,79,C:/Users/Edward Banda/Desktop/EB-subject-1.csv,legacy,Melodramatic Milgram,4.0.5,0,h,s,h,NA,h,NA,314,1327,8094,NA,314,NA,2,legacy,1024,2,48000,-16,experiment,HHHHH,1,odd,2780,145415,NA,116154,150357,149287,150774,150355,150458,1450,NA,1452,137320,NA,150459,NA,Flanker Task,73,37999,84,1024
87,87,452,452,#000000,legacy,legacy,legacy,Congruent,1,undefined,1,h,0,0,0,84,84,84,84,84,84,0,84,0,0,0,84,0,Sun Sep 17 21:49:22 2023,600,The main experiment item,FALSE,Flanker Task.osexp,C:/Users/Edward Banda/Desktop,FALSE,mono,FALSE,18,no,white,no,no,768,legacy,4,79,C:/Users/Edward Banda/Desktop/EB-subject-1.csv,legacy,Melodramatic Milgram,4.0.5,0,h,s,h,NA,h,NA,456,1327,8094,NA,456,NA,2,legacy,1024,2,48000,-16,experiment,HHHHH,1,odd,2780,145415,NA,116154,151829,150786,152388,151827,151930,1450,NA,1452,137320,NA,151930,NA,Flanker Task,74,38455,85,1024
87,87,451,451,#000000,legacy,legacy,legacy,Congruent,1,undefined,1,s,0,0,0,85,85,85,85,85,85,0,85,0,0,0,85,0,Sun Sep 17 21:49:22 2023,600,The main experiment item,FALSE,Flanker Task.osexp,C:/Users/Edward Banda/Desktop,FALSE,mono,FALSE,18,no,white,no,no,768,legacy,5,79,C:/Users/Edward Banda/Desktop/EB-subject-1.csv,legacy,Melodramatic Milgram,4.0.5,0,s,s,h,NA,s,NA,380,1327,8094,NA,380,NA,2,legacy,1024,2,48000,-16,experiment,SSSSS,1,odd,2780,145415,NA,116154,153463,152401,153945,153461,153564,1450,NA,1452,137320,NA,153564,NA,Flanker Task,75,38835,86,1024
87,87,451,451,#000000,legacy,legacy,legacy,Congruent,1,undefined,1,h,0,0,0,86,86,86,86,86,86,0,86,0,0,0,86,0,Sun Sep 17 21:49:22 2023,600,The main experiment item,FALSE,Flanker Task.osexp,C:/Users/Edward Banda/Desktop,FALSE,mono,FALSE,18,no,white,no,no,768,legacy,6,79,C:/Users/Edward Banda/Desktop/EB-subject-1.csv,legacy,Melodramatic Milgram,4.0.5,0,h,s,h,NA,h,NA,427,1327,8094,NA,427,NA,2,legacy,1024,2,48000,-16,experiment,HHHHH,1,odd,2780,145415,NA,116154,155007,153957,155537,155005,155108,1450,NA,1452,137320,NA,155109,NA,Flanker Task,76,39262,87,1024
87,87,450,450,#000000,legacy,legacy,legacy,Incongruent,1,undefined,1,s,0,0,0,87,87,87,87,87,87,0,87,0,0,0,87,0,Sun Sep 17 21:49:22 2023,600,The main experiment item,FALSE,Flanker Task.osexp,C:/Users/Edward Banda/Desktop,FALSE,mono,FALSE,18,no,white,no,no,768,legacy,7,79,C:/Users/Edward Banda/Desktop/EB-subject-1.csv,legacy,Melodramatic Milgram,4.0.5,0,s,s,h,NA,s,NA,374,1327,8094,NA,374,NA,2,legacy,1024,2,48000,-16,experiment,HHSHH,1,odd,2780,145415,NA,116154,156604,155542,157080,156601,156705,1450,NA,1452,137320,NA,156705,NA,Flanker Task,77,39636,88,1024
86,86,449,449,#000000,legacy,legacy,legacy,Incongruent,0,undefined,0,h,0,0,0,88,88,88,88,88,88,0,88,0,0,0,88,0,Sun Sep 17 21:49:22 2023,600,The main experiment item,FALSE,Flanker Task.osexp,C:/Users/Edward Banda/Desktop,FALSE,mono,FALSE,18,no,white,no,no,768,legacy,8,79,C:/Users/Edward Banda/Desktop/EB-subject-1.csv,legacy,Melodramatic Milgram,4.0.5,0,s,s,h,NA,s,NA,329,1327,8094,NA,329,NA,2,legacy,1024,2,48000,-16,experiment,SSHSS,1,odd,2780,145415,NA,116154,158153,157082,158584,158150,158254,1450,NA,1452,137320,NA,158254,NA,Flanker Task,77,39965,89,1024
86,86,448,448,#000000,legacy,legacy,legacy,Congruent,1,undefined,1,h,0,0,0,89,89,89,89,89,89,0,89,0,0,0,89,0,Sun Sep 17 21:49:22 2023,600,The main experiment item,FALSE,Flanker Task.osexp,C:/Users/Edward Banda/Desktop,FALSE,mono,FALSE,18,no,white,no,no,768,legacy,9,79,C:/Users/Edward Banda/Desktop/EB-subject-1.csv,legacy,Melodramatic Milgram,4.0.5,0,h,s,h,NA,h,NA,378,1327,8094,NA,378,NA,2,legacy,1024,2,48000,-16,experiment,HHHHH,1,odd,2780,145415,NA,158596,160145,159098,160626,160144,160247,1450,NA,1452,137320,NA,160247,NA,Flanker Task,78,40343,90,1024
86,86,447,447,#000000,legacy,legacy,legacy,Congruent,1,undefined,1,s,0,0,0,90,90,90,90,90,90,0,90,0,0,0,90,0,Sun Sep 17 21:49:22 2023,600,The main experiment item,FALSE,Flanker Task.osexp,C:/Users/Edward Banda/Desktop,FALSE,mono,FALSE,18,no,white,no,no,768,legacy,10,79,C:/Users/Edward Banda/Desktop/EB-subject-1.csv,legacy,Melodramatic Milgram,4.0.5,0,s,s,h,NA,s,NA,407,1327,8094,NA,407,NA,2,legacy,1024,2,48000,-16,experiment,SSSSS,1,odd,2780,145415,NA,158596,161701,160639,162210,161699,161802,1450,NA,1452,137320,NA,161802,NA,Flanker Task,79,40750,91,1024
86,86,447,447,#000000,legacy,legacy,legacy,Congruent,1,undefined,1,s,0,0,0,91,91,91,91,91,91,0,91,0,0,0,91,0,Sun Sep 17 21:49:22 2023,600,The main experiment item,FALSE,Flanker Task.osexp,C:/Users/Edward Banda/Desktop,FALSE,mono,FALSE,18,no,white,no,no,768,legacy,11,79,C:/Users/Edward Banda/Desktop/EB-subject-1.csv,legacy,Melodramatic Milgram,4.0.5,0,s,s,h,NA,s,NA,381,1327,8094,NA,381,NA,2,legacy,1024,2,48000,-16,experiment,SSSSS,1,odd,2780,145415,NA,158596,163274,162222,163757,163272,163375,1450,NA,1452,137320,NA,163375,NA,Flanker Task,80,41131,92,1024
87,87,446,446,#000000,legacy,legacy,legacy,Congruent,1,undefined,1,h,0,0,0,92,92,92,92,92,92,0,92,0,0,0,92,0,Sun Sep 17 21:49:22 2023,600,The main experiment item,FALSE,Flanker Task.osexp,C:/Users/Edward Banda/Desktop,FALSE,mono,FALSE,18,no,white,no,no,768,legacy,12,79,C:/Users/Edward Banda/Desktop/EB-subject-1.csv,legacy,Melodramatic Milgram,4.0.5,0,h,s,h,NA,h,NA,376,1327,8094,NA,376,NA,2,legacy,1024,2,48000,-16,experiment,HHHHH,1,odd,2780,145415,NA,158596,164832,163770,165310,164824,164933,1450,NA,1452,137320,NA,164933,NA,Flanker Task,81,41507,93,1024
87,87,447,447,#000000,legacy,legacy,legacy,Incongruent,1,undefined,1,h,0,0,0,93,93,93,93,93,93,0,93,0,0,0,93,0,Sun Sep 17 21:49:22 2023,600,The main experiment item,FALSE,Flanker Task.osexp,C:/Users/Edward Banda/Desktop,FALSE,mono,FALSE,18,no,white,no,no,768,legacy,13,79,C:/Users/Edward Banda/Desktop/EB-subject-1.csv,legacy,Melodramatic Milgram,4.0.5,0,h,s,h,NA,h,NA,517,1327,8094,NA,517,NA,2,legacy,1024,2,48000,-16,experiment,SSHSS,1,odd,2780,145415,NA,158596,166385,165322,167004,166381,166486,1450,NA,1452,137320,NA,166486,NA,Flanker Task,82,42024,94,1024
87,87,446,446,#000000,legacy,legacy,legacy,Incongruent,1,undefined,1,s,0,0,0,94,94,94,94,94,94,0,94,0,0,0,94,0,Sun Sep 17 21:49:22 2023,600,The main experiment item,FALSE,Flanker Task.osexp,C:/Users/Edward Banda/Desktop,FALSE,mono,FALSE,18,no,white,no,no,768,legacy,14,79,C:/Users/Edward Banda/Desktop/EB-subject-1.csv,legacy,Melodramatic Milgram,4.0.5,0,s,s,h,NA,s,NA,376,1327,8094,NA,376,NA,2,legacy,1024,2,48000,-16,experiment,HHSHH,1,odd,2780,145415,NA,158596,168074,167016,168552,168072,168175,1450,NA,1452,137320,NA,168175,NA,Flanker Task,83,42400,95,1024
87,87,445,445,#000000,legacy,legacy,legacy,Incongruent,1,undefined,1,h,0,0,0,95,95,95,95,95,95,0,95,0,0,0,95,0,Sun Sep 17 21:49:22 2023,600,The main experiment item,FALSE,Flanker Task.osexp,C:/Users/Edward Banda/Desktop,FALSE,mono,FALSE,18,no,white,no,no,768,legacy,15,79,C:/Users/Edward Banda/Desktop/EB-subject-1.csv,legacy,Melodramatic Milgram,4.0.5,0,h,s,h,NA,h,NA,415,1327,8094,NA,415,NA,2,legacy,1024,2,48000,-16,experiment,SSHSS,1,odd,2780,145415,NA,158596,169637,168564,170154,169634,169738,1450,NA,1452,137320,NA,169738,NA,Flanker Task,84,42815,96,1024
87,87,446,446,#000000,legacy,legacy,legacy,Congruent,1,undefined,1,h,0,0,0,96,96,96,96,96,96,0,96,0,0,0,96,0,Sun Sep 17 21:49:22 2023,600,The main experiment item,FALSE,Flanker Task.osexp,C:/Users/Edward Banda/Desktop,FALSE,mono,FALSE,18,no,white,no,no,768,legacy,16,79,C:/Users/Edward Banda/Desktop/EB-subject-1.csv,legacy,Melodramatic Milgram,4.0.5,0,h,s,h,NA,h,NA,476,1327,8094,NA,476,NA,2,legacy,1024,2,48000,-16,experiment,HHHHH,1,odd,2780,145415,NA,158596,171208,170166,171787,171206,171309,1450,NA,1452,137320,NA,171310,NA,Flanker Task,85,43291,97,1024
87,87,445,445,#000000,legacy,legacy,legacy,Incongruent,1,undefined,1,s,0,0,0,97,97,97,97,97,97,0,97,0,0,0,97,0,Sun Sep 17 21:49:22 2023,600,The main experiment item,FALSE,Flanker Task.osexp,C:/Users/Edward Banda/Desktop,FALSE,mono,FALSE,18,no,white,no,no,768,legacy,17,79,C:/Users/Edward Banda/Desktop/EB-subject-1.csv,legacy,Melodramatic Milgram,4.0.5,0,s,s,h,NA,s,NA,355,1327,8094,NA,355,NA,2,legacy,1024,2,48000,-16,experiment,HHSHH,1,odd,2780,145415,NA,158596,172868,171800,173325,172866,172969,1450,NA,1452,137320,NA,172969,NA,Flanker Task,86,43646,98,1024
87,87,446,446,#000000,legacy,legacy,legacy,Incongruent,1,undefined,1,s,0,0,0,98,98,98,98,98,98,0,98,0,0,0,98,0,Sun Sep 17 21:49:22 2023,600,The main experiment item,FALSE,Flanker Task.osexp,C:/Users/Edward Banda/Desktop,FALSE,mono,FALSE,18,no,white,no,no,768,legacy,18,79,C:/Users/Edward Banda/Desktop/EB-subject-1.csv,legacy,Melodramatic Milgram,4.0.5,0,s,s,h,NA,s,NA,552,1327,8094,NA,552,NA,2,legacy,1024,2,48000,-16,experiment,HHSHH,1,odd,2780,145415,NA,158596,174379,173337,175033,174378,174480,1450,NA,1452,137320,NA,174480,NA,Flanker Task,87,44198,99,1024
88,88,446,446,#000000,legacy,legacy,legacy,Congruent,1,undefined,1,s,0,0,0,99,99,99,99,99,99,0,99,0,0,0,99,0,Sun Sep 17 21:49:22 2023,600,The main experiment item,FALSE,Flanker Task.osexp,C:/Users/Edward Banda/Desktop,FALSE,mono,FALSE,18,no,white,no,no,768,legacy,19,79,C:/Users/Edward Banda/Desktop/EB-subject-1.csv,legacy,Melodramatic Milgram,4.0.5,0,s,s,h,NA,s,NA,482,1327,8094,NA,482,NA,2,legacy,1024,2,48000,-16,experiment,SSSSS,1,odd,2780,145415,NA,158596,176116,175053,176701,176115,176218,1450,NA,1452,137320,NA,176218,NA,Flanker Task,88,44680,100,1024
87,87,446,446,#000000,legacy,legacy,legacy,Incongruent,0,undefined,0,h,0,0,0,100,100,100,100,100,100,0,100,0,0,0,100,0,Sun Sep 17 21:49:22 2023,600,The main experiment item,FALSE,Flanker Task.osexp,C:/Users/Edward Banda/Desktop,FALSE,mono,FALSE,18,no,white,no,no,768,legacy,20,79,C:/Users/Edward Banda/Desktop/EB-subject-1.csv,legacy,Melodramatic Milgram,4.0.5,0,s,s,h,NA,s,NA,440,1327,8094,NA,440,NA,2,legacy,1024,2,48000,-16,experiment,SSHSS,1,odd,2780,145415,NA,158596,177775,176714,178318,177773,177876,1450,NA,1452,137320,NA,177877,NA,Flanker Task,88,45120,101,1024
87,87,446,446,#000000,legacy,legacy,legacy,Congruent,1,undefined,1,h,0,0,0,101,101,101,101,101,101,0,101,0,0,0,101,0,Sun Sep 17 21:49:22 2023,600,The main experiment item,FALSE,Flanker Task.osexp,C:/Users/Edward Banda/Desktop,FALSE,mono,FALSE,18,no,white,no,no,768,legacy,21,79,C:/Users/Edward Banda/Desktop/EB-subject-1.csv,legacy,Melodramatic Milgram,4.0.5,0,h,s,h,NA,h,NA,431,1327,8094,NA,431,NA,2,legacy,1024,2,48000,-16,experiment,HHHHH,1,odd,2780,145415,NA,178330,179892,178833,180426,179889,179993,1450,NA,1452,137320,NA,179994,NA,Flanker Task,89,45551,102,1024
87,87,446,446,#000000,legacy,legacy,legacy,Congruent,1,undefined,1,h,0,0,0,102,102,102,102,102,102,0,102,0,0,0,102,0,Sun Sep 17 21:49:22 2023,600,The main experiment item,FALSE,Flanker Task.osexp,C:/Users/Edward Banda/Desktop,FALSE,mono,FALSE,18,no,white,no,no,768,legacy,22,79,C:/Users/Edward Banda/Desktop/EB-subject-1.csv,legacy,Melodramatic Milgram,4.0.5,0,h,s,h,NA,h,NA,467,1327,8094,NA,467,NA,2,legacy,1024,2,48000,-16,experiment,HHHHH,1,odd,2780,145415,NA,178330,181499,180438,182069,181496,181600,1450,NA,1452,137320,NA,181601,NA,Flanker Task,90,46018,103,1024
86,86,446,446,#000000,legacy,legacy,legacy,Incongruent,0,undefined,0,h,0,0,0,103,103,103,103,103,103,0,103,0,0,0,103,0,Sun Sep 17 21:49:22 2023,600,The main experiment item,FALSE,Flanker Task.osexp,C:/Users/Edward Banda/Desktop,FALSE,mono,FALSE,18,no,white,no,no,768,legacy,23,79,C:/Users/Edward Banda/Desktop/EB-subject-1.csv,legacy,Melodramatic Milgram,4.0.5,0,s,s,h,NA,s,NA,468,1327,8094,NA,468,NA,2,legacy,1024,2,48000,-16,experiment,SSHSS,1,odd,2780,145415,NA,178330,183147,182081,183717,183144,183248,1450,NA,1452,137320,NA,183248,NA,Flanker Task,90,46486,104,1024
86,86,446,446,#000000,legacy,legacy,legacy,Congruent,1,undefined,1,h,0,0,0,104,104,104,104,104,104,0,104,0,0,0,104,0,Sun Sep 17 21:49:22 2023,600,The main experiment item,FALSE,Flanker Task.osexp,C:/Users/Edward Banda/Desktop,FALSE,mono,FALSE,18,no,white,no,no,768,legacy,24,79,C:/Users/Edward Banda/Desktop/EB-subject-1.csv,legacy,Melodramatic Milgram,4.0.5,0,h,s,h,NA,h,NA,419,1327,8094,NA,419,NA,2,legacy,1024,2,48000,-16,experiment,HHHHH,1,odd,2780,145415,NA,183730,185323,184242,185844,185321,185424,1450,NA,1452,137320,NA,185424,NA,Flanker Task,91,46905,105,1024
86,86,447,447,#000000,legacy,legacy,legacy,Incongruent,1,undefined,1,h,0,0,0,105,105,105,105,105,105,0,105,0,0,0,105,0,Sun Sep 17 21:49:22 2023,600,The main experiment item,FALSE,Flanker Task.osexp,C:/Users/Edward Banda/Desktop,FALSE,mono,FALSE,18,no,white,no,no,768,legacy,25,79,C:/Users/Edward Banda/Desktop/EB-subject-1.csv,legacy,Melodramatic Milgram,4.0.5,0,h,s,h,NA,h,NA,510,1327,8094,NA,510,NA,2,legacy,1024,2,48000,-16,experiment,SSHSS,1,odd,2780,145415,NA,183730,186908,185856,187522,186906,187011,1450,NA,1452,137320,NA,187011,NA,Flanker Task,92,47415,106,1024
85,85,447,447,#000000,legacy,legacy,legacy,Incongruent,0,undefined,0,h,0,0,0,106,106,106,106,106,106,0,106,0,0,0,106,0,Sun Sep 17 21:49:22 2023,600,The main experiment item,FALSE,Flanker Task.osexp,C:/Users/Edward Banda/Desktop,FALSE,mono,FALSE,18,no,white,no,no,768,legacy,26,79,C:/Users/Edward Banda/Desktop/EB-subject-1.csv,legacy,Melodramatic Milgram,4.0.5,0,s,s,h,NA,s,NA,416,1327,8094,NA,416,NA,2,legacy,1024,2,48000,-16,experiment,SSHSS,1,odd,2780,145415,NA,183730,188576,187534,189095,188574,188678,1450,NA,1452,137320,NA,188678,NA,Flanker Task,92,47831,107,1024
86,86,447,447,#000000,legacy,legacy,legacy,Congruent,1,undefined,1,s,0,0,0,107,107,107,107,107,107,0,107,0,0,0,107,0,Sun Sep 17 21:49:22 2023,600,The main experiment item,FALSE,Flanker Task.osexp,C:/Users/Edward Banda/Desktop,FALSE,mono,FALSE,18,no,white,no,no,768,legacy,27,79,C:/Users/Edward Banda/Desktop/EB-subject-1.csv,legacy,Melodramatic Milgram,4.0.5,0,s,s,h,NA,s,NA,477,1327,8094,NA,477,NA,2,legacy,1024,2,48000,-16,experiment,SSSSS,1,odd,2780,145415,NA,189107,190637,189608,191217,190636,190738,1450,NA,1452,137320,NA,190739,NA,Flanker Task,93,48308,108,1024
86,86,448,448,#000000,legacy,legacy,legacy,Incongruent,1,undefined,1,h,0,0,0,108,108,108,108,108,108,0,108,0,0,0,108,0,Sun Sep 17 21:49:22 2023,600,The main experiment item,FALSE,Flanker Task.osexp,C:/Users/Edward Banda/Desktop,FALSE,mono,FALSE,18,no,white,no,no,768,legacy,28,79,C:/Users/Edward Banda/Desktop/EB-subject-1.csv,legacy,Melodramatic Milgram,4.0.5,0,h,s,h,NA,h,NA,573,1327,8094,NA,573,NA,2,legacy,1024,2,48000,-16,experiment,SSHSS,1,odd,2780,145415,NA,189107,192270,191229,192945,192268,192371,1450,NA,1452,137320,NA,192371,NA,Flanker Task,94,48881,109,1024
86,86,447,447,#000000,legacy,legacy,legacy,Congruent,1,undefined,1,s,0,0,0,109,109,109,109,109,109,0,109,0,0,0,109,0,Sun Sep 17 21:49:22 2023,600,The main experiment item,FALSE,Flanker Task.osexp,C:/Users/Edward Banda/Desktop,FALSE,mono,FALSE,18,no,white,no,no,768,legacy,29,79,C:/Users/Edward Banda/Desktop/EB-subject-1.csv,legacy,Melodramatic Milgram,4.0.5,0,s,s,h,NA,s,NA,384,1327,8094,NA,384,NA,2,legacy,1024,2,48000,-16,experiment,SSSSS,1,odd,2780,145415,NA,189107,193997,192957,194484,193995,194099,1450,NA,1452,137320,NA,194099,NA,Flanker Task,95,49265,110,1024
86,86,447,447,#000000,legacy,legacy,legacy,Congruent,1,undefined,1,s,0,0,0,110,110,110,110,110,110,0,110,0,0,0,110,0,Sun Sep 17 21:49:22 2023,600,The main experiment item,FALSE,Flanker Task.osexp,C:/Users/Edward Banda/Desktop,FALSE,mono,FALSE,18,no,white,no,no,768,legacy,30,79,C:/Users/Edward Banda/Desktop/EB-subject-1.csv,legacy,Melodramatic Milgram,4.0.5,0,s,s,h,NA,s,NA,435,1327,8094,NA,435,NA,2,legacy,1024,2,48000,-16,experiment,SSSSS,1,odd,2780,145415,NA,189107,195534,194496,196071,195532,195635,1450,NA,1452,137320,NA,195635,NA,Flanker Task,96,49700,111,1024
86,86,447,447,#000000,legacy,legacy,legacy,Congruent,1,undefined,1,h,0,0,0,111,111,111,111,111,111,0,111,0,0,0,111,0,Sun Sep 17 21:49:22 2023,600,The main experiment item,FALSE,Flanker Task.osexp,C:/Users/Edward Banda/Desktop,FALSE,mono,FALSE,18,no,white,no,no,768,legacy,31,79,C:/Users/Edward Banda/Desktop/EB-subject-1.csv,legacy,Melodramatic Milgram,4.0.5,0,h,s,h,NA,h,NA,369,1327,8094,NA,369,NA,2,legacy,1024,2,48000,-16,experiment,HHHHH,1,odd,2780,145415,NA,189107,197122,196084,197594,197120,197224,1450,NA,1452,137320,NA,197224,NA,Flanker Task,97,50069,112,1024
86,86,446,446,#000000,legacy,legacy,legacy,Congruent,1,undefined,1,s,0,0,0,112,112,112,112,112,112,0,112,0,0,0,112,0,Sun Sep 17 21:49:22 2023,600,The main experiment item,FALSE,Flanker Task.osexp,C:/Users/Edward Banda/Desktop,FALSE,mono,FALSE,18,no,white,no,no,768,legacy,32,79,C:/Users/Edward Banda/Desktop/EB-subject-1.csv,legacy,Melodramatic Milgram,4.0.5,0,s,s,h,NA,s,NA,407,1327,8094,NA,407,NA,2,legacy,1024,2,48000,-16,experiment,SSSSS,1,odd,2780,145415,NA,189107,198634,197606,199143,198632,198735,1450,NA,1452,137320,NA,198735,NA,Flanker Task,98,50476,113,1024
86,86,446,446,#000000,legacy,legacy,legacy,Incongruent,1,undefined,1,s,0,0,0,113,113,113,113,113,113,0,113,0,0,0,113,0,Sun Sep 17 21:49:22 2023,600,The main experiment item,FALSE,Flanker Task.osexp,C:/Users/Edward Banda/Desktop,FALSE,mono,FALSE,18,no,white,no,no,768,legacy,33,79,C:/Users/Edward Banda/Desktop/EB-subject-1.csv,legacy,Melodramatic Milgram,4.0.5,0,s,s,h,NA,s,NA,472,1327,8094,NA,472,NA,2,legacy,1024,2,48000,-16,experiment,HHSHH,1,odd,2780,145415,NA,189107,200212,199156,200786,200211,200313,1450,NA,1452,137320,NA,200313,NA,Flanker Task,99,50948,114,1024
86,86,447,447,#000000,legacy,legacy,legacy,Incongruent,1,undefined,1,s,0,0,0,114,114,114,114,114,114,0,114,0,0,0,114,0,Sun Sep 17 21:49:22 2023,600,The main experiment item,FALSE,Flanker Task.osexp,C:/Users/Edward Banda/Desktop,FALSE,mono,FALSE,18,no,white,no,no,768,legacy,34,79,C:/Users/Edward Banda/Desktop/EB-subject-1.csv,legacy,Melodramatic Milgram,4.0.5,0,s,s,h,NA,s,NA,468,1327,8094,NA,468,NA,2,legacy,1024,2,48000,-16,experiment,HHSHH,1,odd,2780,145415,NA,189107,201854,200799,202424,201852,201955,1450,NA,1452,137320,NA,201955,NA,Flanker Task,100,51416,115,1024
87,87,446,446,#000000,legacy,legacy,legacy,Incongruent,1,undefined,1,h,0,0,0,115,115,115,115,115,115,0,115,0,0,0,115,0,Sun Sep 17 21:49:22 2023,600,The main experiment item,FALSE,Flanker Task.osexp,C:/Users/Edward Banda/Desktop,FALSE,mono,FALSE,18,no,white,no,no,768,legacy,35,79,C:/Users/Edward Banda/Desktop/EB-subject-1.csv,legacy,Melodramatic Milgram,4.0.5,0,h,s,h,NA,h,NA,420,1327,8094,NA,420,NA,2,legacy,1024,2,48000,-16,experiment,SSHSS,1,odd,2780,145415,NA,189107,203475,202436,203997,203473,203576,1450,NA,1452,137320,NA,203576,NA,Flanker Task,101,51836,116,1024
87,87,447,447,#000000,legacy,legacy,legacy,Incongruent,1,undefined,1,s,0,0,0,116,116,116,116,116,116,0,116,0,0,0,116,0,Sun Sep 17 21:49:22 2023,600,The main experiment item,FALSE,Flanker Task.osexp,C:/Users/Edward Banda/Desktop,FALSE,mono,FALSE,18,no,white,no,no,768,legacy,36,79,C:/Users/Edward Banda/Desktop/EB-subject-1.csv,legacy,Melodramatic Milgram,4.0.5,0,s,s,h,NA,s,NA,470,1327,8094,NA,470,NA,2,legacy,1024,2,48000,-16,experiment,HHSHH,1,odd,2780,145415,NA,189107,205062,204010,205635,205059,205163,1450,NA,1452,137320,NA,205163,NA,Flanker Task,102,52306,117,1024
87,87,447,447,#000000,legacy,legacy,legacy,Incongruent,1,undefined,1,h,0,0,0,117,117,117,117,117,117,0,117,0,0,0,117,0,Sun Sep 17 21:49:22 2023,600,The main experiment item,FALSE,Flanker Task.osexp,C:/Users/Edward Banda/Desktop,FALSE,mono,FALSE,18,no,white,no,no,768,legacy,37,79,C:/Users/Edward Banda/Desktop/EB-subject-1.csv,legacy,Melodramatic Milgram,4.0.5,0,h,s,h,NA,h,NA,540,1327,8094,NA,540,NA,2,legacy,1024,2,48000,-16,experiment,SSHSS,1,odd,2780,145415,NA,189107,206711,205647,207353,206708,206812,1450,NA,1452,137320,NA,206812,NA,Flanker Task,103,52846,118,1024
87,87,448,448,#000000,legacy,legacy,legacy,Incongruent,1,undefined,1,s,0,0,0,118,118,118,118,118,118,0,118,0,0,0,118,0,Sun Sep 17 21:49:22 2023,600,The main experiment item,FALSE,Flanker Task.osexp,C:/Users/Edward Banda/Desktop,FALSE,mono,FALSE,18,no,white,no,no,768,legacy,38,79,C:/Users/Edward Banda/Desktop/EB-subject-1.csv,legacy,Melodramatic Milgram,4.0.5,0,s,s,h,NA,s,NA,484,1327,8094,NA,484,NA,2,legacy,1024,2,48000,-16,experiment,HHSHH,1,odd,2780,145415,NA,189107,208415,207365,209001,208413,208516,1450,NA,1452,137320,NA,208516,NA,Flanker Task,104,53330,119,1024
87,87,449,449,#000000,legacy,legacy,legacy,Incongruent,1,undefined,1,s,0,0,0,119,119,119,119,119,119,0,119,0,0,0,119,0,Sun Sep 17 21:49:22 2023,600,The main experiment item,FALSE,Flanker Task.osexp,C:/Users/Edward Banda/Desktop,FALSE,mono,FALSE,18,no,white,no,no,768,legacy,39,79,C:/Users/Edward Banda/Desktop/EB-subject-1.csv,legacy,Melodramatic Milgram,4.0.5,0,s,s,h,NA,s,NA,641,1327,8094,NA,641,NA,2,legacy,1024,2,48000,-16,experiment,HHSHH,1,odd,2780,145415,NA,189107,210066,209013,210809,210064,210167,1450,NA,1452,137320,NA,210167,NA,Flanker Task,105,53971,120,1024
87,87,449,449,#000000,legacy,legacy,legacy,Incongruent,1,undefined,1,h,0,0,0,120,120,120,120,120,120,0,120,0,0,0,120,0,Sun Sep 17 21:49:22 2023,600,The main experiment item,FALSE,Flanker Task.osexp,C:/Users/Edward Banda/Desktop,FALSE,mono,FALSE,18,no,white,no,no,768,legacy,40,79,C:/Users/Edward Banda/Desktop/EB-subject-1.csv,legacy,Melodramatic Milgram,4.0.5,0,h,s,h,NA,h,NA,373,1327,8094,NA,373,NA,2,legacy,1024,2,48000,-16,experiment,SSHSS,1,odd,2780,145415,NA,189107,212365,211323,212842,212363,212466,1450,210822,1452,137320,NA,212466,NA,Flanker Task,106,54344,121,1024
87,87,448,448,#000000,legacy,legacy,legacy,Congruent,1,undefined,1,s,0,0,0,121,121,121,121,121,121,0,121,0,0,0,121,0,Sun Sep 17 21:49:22 2023,600,The main experiment item,FALSE,Flanker Task.osexp,C:/Users/Edward Banda/Desktop,FALSE,mono,FALSE,18,no,white,no,no,768,legacy,41,79,C:/Users/Edward Banda/Desktop/EB-subject-1.csv,legacy,Melodramatic Milgram,4.0.5,0,s,s,h,NA,s,NA,312,1327,8094,NA,312,NA,2,legacy,1024,2,48000,-16,experiment,SSSSS,1,odd,2780,145415,NA,189107,213905,212855,214319,213903,214006,1450,210822,1452,137320,NA,214006,NA,Flanker Task,107,54656,122,1024
87,87,447,447,#000000,legacy,legacy,legacy,Incongruent,1,undefined,1,s,0,0,0,122,122,122,122,122,122,0,122,0,0,0,122,0,Sun Sep 17 21:49:22 2023,600,The main experiment item,FALSE,Flanker Task.osexp,C:/Users/Edward Banda/Desktop,FALSE,mono,FALSE,18,no,white,no,no,768,legacy,42,79,C:/Users/Edward Banda/Desktop/EB-subject-1.csv,legacy,Melodramatic Milgram,4.0.5,0,s,s,h,NA,s,NA,350,1327,8094,NA,350,NA,2,legacy,1024,2,48000,-16,experiment,HHSHH,1,odd,2780,145415,NA,189107,215380,214331,215832,215378,215481,1450,210822,1452,137320,NA,215481,NA,Flanker Task,108,55006,123,1024
87,87,446,446,#000000,legacy,legacy,legacy,Incongruent,1,undefined,1,h,0,0,0,123,123,123,123,123,123,0,123,0,0,0,123,0,Sun Sep 17 21:49:22 2023,600,The main experiment item,FALSE,Flanker Task.osexp,C:/Users/Edward Banda/Desktop,FALSE,mono,FALSE,18,no,white,no,no,768,legacy,43,79,C:/Users/Edward Banda/Desktop/EB-subject-1.csv,legacy,Melodramatic Milgram,4.0.5,0,h,s,h,NA,h,NA,374,1327,8094,NA,374,NA,2,legacy,1024,2,48000,-16,experiment,SSHSS,1,odd,2780,145415,NA,189107,216923,215844,217400,216921,217024,1450,210822,1452,137320,NA,217025,NA,Flanker Task,109,55380,124,1024
88,88,446,446,#000000,legacy,legacy,legacy,Incongruent,1,undefined,1,h,0,0,0,124,124,124,124,124,124,0,124,0,0,0,124,0,Sun Sep 17 21:49:22 2023,600,The main experiment item,FALSE,Flanker Task.osexp,C:/Users/Edward Banda/Desktop,FALSE,mono,FALSE,18,no,white,no,no,768,legacy,44,79,C:/Users/Edward Banda/Desktop/EB-subject-1.csv,legacy,Melodramatic Milgram,4.0.5,0,h,s,h,NA,h,NA,436,1327,8094,NA,436,NA,2,legacy,1024,2,48000,-16,experiment,SSHSS,1,odd,2780,145415,NA,189107,218479,217412,219018,218476,218581,1450,210822,1452,137320,NA,218581,NA,Flanker Task,110,55816,125,1024
88,88,446,446,#000000,legacy,legacy,legacy,Congruent,1,undefined,1,s,0,0,0,125,125,125,125,125,125,0,125,0,0,0,125,0,Sun Sep 17 21:49:22 2023,600,The main experiment item,FALSE,Flanker Task.osexp,C:/Users/Edward Banda/Desktop,FALSE,mono,FALSE,18,no,white,no,no,768,legacy,45,79,C:/Users/Edward Banda/Desktop/EB-subject-1.csv,legacy,Melodramatic Milgram,4.0.5,0,s,s,h,NA,s,NA,390,1327,8094,NA,390,NA,2,legacy,1024,2,48000,-16,experiment,SSSSS,1,odd,2780,145415,NA,189107,220064,219030,220557,220062,220165,1450,210822,1452,137320,NA,220165,NA,Flanker Task,111,56206,126,1024
87,87,445,445,#000000,legacy,legacy,legacy,Congruent,0,undefined,0,s,0,0,0,126,126,126,126,126,126,0,126,0,0,0,126,0,Sun Sep 17 21:49:22 2023,600,The main experiment item,FALSE,Flanker Task.osexp,C:/Users/Edward Banda/Desktop,FALSE,mono,FALSE,18,no,white,no,no,768,legacy,46,79,C:/Users/Edward Banda/Desktop/EB-subject-1.csv,legacy,Melodramatic Milgram,4.0.5,0,h,s,h,NA,h,NA,408,1327,8094,NA,408,NA,2,legacy,1024,2,48000,-16,experiment,SSSSS,1,odd,2780,145415,NA,189107,221630,220569,222140,221628,221731,1450,210822,1452,137320,NA,221731,NA,Flanker Task,111,56614,127,1024
87,87,445,445,#000000,legacy,legacy,legacy,Congruent,1,undefined,1,h,0,0,0,127,127,127,127,127,127,0,127,0,0,0,127,0,Sun Sep 17 21:49:22 2023,600,The main experiment item,FALSE,Flanker Task.osexp,C:/Users/Edward Banda/Desktop,FALSE,mono,FALSE,18,no,white,no,no,768,legacy,47,79,C:/Users/Edward Banda/Desktop/EB-subject-1.csv,legacy,Melodramatic Milgram,4.0.5,0,h,s,h,NA,h,NA,411,1327,8094,NA,411,NA,2,legacy,1024,2,48000,-16,experiment,HHHHH,1,odd,2780,145415,NA,222152,223698,222653,224211,223696,223799,1450,210822,1452,137320,NA,223799,NA,Flanker Task,112,57025,128,1024
87,87,445,445,#000000,legacy,legacy,legacy,Incongruent,1,undefined,1,s,0,0,0,128,128,128,128,128,128,0,128,0,0,0,128,0,Sun Sep 17 21:49:22 2023,600,The main experiment item,FALSE,Flanker Task.osexp,C:/Users/Edward Banda/Desktop,FALSE,mono,FALSE,18,no,white,no,no,768,legacy,48,79,C:/Users/Edward Banda/Desktop/EB-subject-1.csv,legacy,Melodramatic Milgram,4.0.5,0,s,s,h,NA,s,NA,456,1327,8094,NA,456,NA,2,legacy,1024,2,48000,-16,experiment,HHSHH,1,odd,2780,145415,NA,222152,225286,224223,225846,225284,225388,1450,210822,1452,137320,NA,225388,NA,Flanker Task,113,57481,129,1024
87,87,445,445,#000000,legacy,legacy,legacy,Incongruent,1,undefined,1,h,0,0,0,129,129,129,129,129,129,0,129,0,0,0,129,0,Sun Sep 17 21:49:22 2023,600,The main experiment item,FALSE,Flanker Task.osexp,C:/Users/Edward Banda/Desktop,FALSE,mono,FALSE,18,no,white,no,no,768,legacy,49,79,C:/Users/Edward Banda/Desktop/EB-subject-1.csv,legacy,Melodramatic Milgram,4.0.5,0,h,s,h,NA,h,NA,405,1327,8094,NA,405,NA,2,legacy,1024,2,48000,-16,experiment,SSHSS,1,odd,2780,145415,NA,222152,226925,225858,227433,226923,227026,1450,210822,1452,137320,NA,227026,NA,Flanker Task,114,57886,130,1024
87,87,445,445,#000000,legacy,legacy,legacy,Congruent,1,undefined,1,h,0,0,0,130,130,130,130,130,130,0,130,0,0,0,130,0,Sun Sep 17 21:49:22 2023,600,The main experiment item,FALSE,Flanker Task.osexp,C:/Users/Edward Banda/Desktop,FALSE,mono,FALSE,18,no,white,no,no,768,legacy,50,79,C:/Users/Edward Banda/Desktop/EB-subject-1.csv,legacy,Melodramatic Milgram,4.0.5,0,h,s,h,NA,h,NA,472,1327,8094,NA,472,NA,2,legacy,1024,2,48000,-16,experiment,HHHHH,1,odd,2780,145415,NA,222152,228496,227445,229071,228494,228597,1450,210822,1452,137320,NA,228597,NA,Flanker Task,115,58358,131,1024
87,87,445,445,#000000,legacy,legacy,legacy,Congruent,1,undefined,1,h,0,0,0,131,131,131,131,131,131,0,131,0,0,0,131,0,Sun Sep 17 21:49:22 2023,600,The main experiment item,FALSE,Flanker Task.osexp,C:/Users/Edward Banda/Desktop,FALSE,mono,FALSE,18,no,white,no,no,768,legacy,51,79,C:/Users/Edward Banda/Desktop/EB-subject-1.csv,legacy,Melodramatic Milgram,4.0.5,0,h,s,h,NA,h,NA,411,1327,8094,NA,411,NA,2,legacy,1024,2,48000,-16,experiment,HHHHH,1,odd,2780,145415,NA,222152,230146,229083,230660,230137,230247,1450,210822,1452,137320,NA,230247,NA,Flanker Task,116,58769,132,1024
87,87,444,444,#000000,legacy,legacy,legacy,Incongruent,0,undefined,0,h,0,0,0,132,132,132,132,132,132,0,132,0,0,0,132,0,Sun Sep 17 21:49:22 2023,600,The main experiment item,FALSE,Flanker Task.osexp,C:/Users/Edward Banda/Desktop,FALSE,mono,FALSE,18,no,white,no,no,768,legacy,52,79,C:/Users/Edward Banda/Desktop/EB-subject-1.csv,legacy,Melodramatic Milgram,4.0.5,0,s,s,h,NA,s,NA,368,1327,8094,NA,368,NA,2,legacy,1024,2,48000,-16,experiment,SSHSS,1,odd,2780,145415,NA,222152,231736,230672,232207,231732,231837,1450,210822,1452,137320,NA,231837,NA,Flanker Task,116,59137,133,1024
87,87,444,444,#000000,legacy,legacy,legacy,Congruent,1,undefined,1,h,0,0,0,133,133,133,133,133,133,0,133,0,0,0,133,0,Sun Sep 17 21:49:22 2023,600,The main experiment item,FALSE,Flanker Task.osexp,C:/Users/Edward Banda/Desktop,FALSE,mono,FALSE,18,no,white,no,no,768,legacy,53,79,C:/Users/Edward Banda/Desktop/EB-subject-1.csv,legacy,Melodramatic Milgram,4.0.5,0,h,s,h,NA,h,NA,398,1327,8094,NA,398,NA,2,legacy,1024,2,48000,-16,experiment,HHHHH,1,odd,2780,145415,NA,232221,233774,232722,234274,233768,233875,1450,210822,1452,137320,NA,233875,NA,Flanker Task,117,59535,134,1024
87,87,444,444,#000000,legacy,legacy,legacy,Congruent,1,undefined,1,h,0,0,0,134,134,134,134,134,134,0,134,0,0,0,134,0,Sun Sep 17 21:49:22 2023,600,The main experiment item,FALSE,Flanker Task.osexp,C:/Users/Edward Banda/Desktop,FALSE,mono,FALSE,18,no,white,no,no,768,legacy,54,79,C:/Users/Edward Banda/Desktop/EB-subject-1.csv,legacy,Melodramatic Milgram,4.0.5,0,h,s,h,NA,h,NA,445,1327,8094,NA,445,NA,2,legacy,1024,2,48000,-16,experiment,HHHHH,1,odd,2780,145415,NA,232221,235340,234286,235887,235337,235441,1450,210822,1452,137320,NA,235441,NA,Flanker Task,118,59980,135,1024
87,87,444,444,#000000,legacy,legacy,legacy,Congruent,1,undefined,1,s,0,0,0,135,135,135,135,135,135,0,135,0,0,0,135,0,Sun Sep 17 21:49:22 2023,600,The main experiment item,FALSE,Flanker Task.osexp,C:/Users/Edward Banda/Desktop,FALSE,mono,FALSE,18,no,white,no,no,768,legacy,55,79,C:/Users/Edward Banda/Desktop/EB-subject-1.csv,legacy,Melodramatic Milgram,4.0.5,0,s,s,h,NA,s,NA,414,1327,8094,NA,414,NA,2,legacy,1024,2,48000,-16,experiment,SSSSS,1,odd,2780,145415,NA,232221,236962,235898,237481,236960,237065,1450,210822,1452,137320,NA,237065,NA,Flanker Task,119,60394,136,1024
87,87,443,443,#000000,legacy,legacy,legacy,Congruent,1,undefined,1,h,0,0,0,136,136,136,136,136,136,0,136,0,0,0,136,0,Sun Sep 17 21:49:22 2023,600,The main experiment item,FALSE,Flanker Task.osexp,C:/Users/Edward Banda/Desktop,FALSE,mono,FALSE,18,no,white,no,no,768,legacy,56,79,C:/Users/Edward Banda/Desktop/EB-subject-1.csv,legacy,Melodramatic Milgram,4.0.5,0,h,s,h,NA,h,NA,378,1327,8094,NA,378,NA,2,legacy,1024,2,48000,-16,experiment,HHHHH,1,odd,2780,145415,NA,232221,238562,237493,239043,238560,238663,1450,210822,1452,137320,NA,238664,NA,Flanker Task,120,60772,137,1024
86,86,442,442,#000000,legacy,legacy,legacy,Incongruent,0,undefined,0,h,0,0,0,137,137,137,137,137,137,0,137,0,0,0,137,0,Sun Sep 17 21:49:22 2023,600,The main experiment item,FALSE,Flanker Task.osexp,C:/Users/Edward Banda/Desktop,FALSE,mono,FALSE,18,no,white,no,no,768,legacy,57,79,C:/Users/Edward Banda/Desktop/EB-subject-1.csv,legacy,Melodramatic Milgram,4.0.5,0,s,s,h,NA,s,NA,361,1327,8094,NA,361,NA,2,legacy,1024,2,48000,-16,experiment,SSHSS,1,odd,2780,145415,NA,232221,240118,239055,240581,240116,240219,1450,210822,1452,137320,NA,240219,NA,Flanker Task,120,61133,138,1024
87,87,443,443,#000000,legacy,legacy,legacy,Congruent,1,undefined,1,s,0,0,0,138,138,138,138,138,138,0,138,0,0,0,138,0,Sun Sep 17 21:49:22 2023,600,The main experiment item,FALSE,Flanker Task.osexp,C:/Users/Edward Banda/Desktop,FALSE,mono,FALSE,18,no,white,no,no,768,legacy,58,79,C:/Users/Edward Banda/Desktop/EB-subject-1.csv,legacy,Melodramatic Milgram,4.0.5,0,s,s,h,NA,s,NA,467,1327,8094,NA,467,NA,2,legacy,1024,2,48000,-16,experiment,SSSSS,1,odd,2780,145415,NA,240593,242143,241095,242714,242141,242244,1450,210822,1452,137320,NA,242245,NA,Flanker Task,121,61600,139,1024
87,87,443,443,#000000,legacy,legacy,legacy,Congruent,1,undefined,1,s,0,0,0,139,139,139,139,139,139,0,139,0,0,0,139,0,Sun Sep 17 21:49:22 2023,600,The main experiment item,FALSE,Flanker Task.osexp,C:/Users/Edward Banda/Desktop,FALSE,mono,FALSE,18,no,white,no,no,768,legacy,59,79,C:/Users/Edward Banda/Desktop/EB-subject-1.csv,legacy,Melodramatic Milgram,4.0.5,0,s,s,h,NA,s,NA,433,1327,8094,NA,433,NA,2,legacy,1024,2,48000,-16,experiment,SSSSS,1,odd,2780,145415,NA,240593,243790,242726,244327,243788,243892,1450,210822,1452,137320,NA,243892,NA,Flanker Task,122,62033,140,1024
87,87,442,442,#000000,legacy,legacy,legacy,Congruent,1,undefined,1,s,0,0,0,140,140,140,140,140,140,0,140,0,0,0,140,0,Sun Sep 17 21:49:22 2023,600,The main experiment item,FALSE,Flanker Task.osexp,C:/Users/Edward Banda/Desktop,FALSE,mono,FALSE,18,no,white,no,no,768,legacy,60,79,C:/Users/Edward Banda/Desktop/EB-subject-1.csv,legacy,Melodramatic Milgram,4.0.5,0,s,s,h,NA,s,NA,404,1327,8094,NA,404,NA,2,legacy,1024,2,48000,-16,experiment,SSSSS,1,odd,2780,145415,NA,240593,245392,244339,245906,245389,245500,1450,210822,1452,137320,NA,245500,NA,Flanker Task,123,62437,141,1024
87,87,442,442,#000000,legacy,legacy,legacy,Incongruent,1,undefined,1,h,0,0,0,141,141,141,141,141,141,0,141,0,0,0,141,0,Sun Sep 17 21:49:22 2023,600,The main experiment item,FALSE,Flanker Task.osexp,C:/Users/Edward Banda/Desktop,FALSE,mono,FALSE,18,no,white,no,no,768,legacy,61,79,C:/Users/Edward Banda/Desktop/EB-subject-1.csv,legacy,Melodramatic Milgram,4.0.5,0,h,s,h,NA,h,NA,342,1327,8094,NA,342,NA,2,legacy,1024,2,48000,-16,experiment,SSHSS,1,odd,2780,145415,NA,240593,246968,245918,247413,246967,247069,1450,210822,1452,137320,NA,247069,NA,Flanker Task,124,62779,142,1024
86,86,441,441,#000000,legacy,legacy,legacy,Incongruent,0,undefined,0,h,0,0,0,142,142,142,142,142,142,0,142,0,0,0,142,0,Sun Sep 17 21:49:22 2023,600,The main experiment item,FALSE,Flanker Task.osexp,C:/Users/Edward Banda/Desktop,FALSE,mono,FALSE,18,no,white,no,no,768,legacy,62,79,C:/Users/Edward Banda/Desktop/EB-subject-1.csv,legacy,Melodramatic Milgram,4.0.5,0,s,s,h,NA,s,NA,377,1327,8094,NA,377,NA,2,legacy,1024,2,48000,-16,experiment,SSHSS,1,odd,2780,145415,NA,240593,248472,247415,248951,248468,248573,1450,210822,1452,137320,NA,248573,NA,Flanker Task,124,63156,143,1024
86,86,441,441,#000000,legacy,legacy,legacy,Incongruent,1,undefined,1,s,0,0,0,143,143,143,143,143,143,0,143,0,0,0,143,0,Sun Sep 17 21:49:22 2023,600,The main experiment item,FALSE,Flanker Task.osexp,C:/Users/Edward Banda/Desktop,FALSE,mono,FALSE,18,no,white,no,no,768,legacy,63,79,C:/Users/Edward Banda/Desktop/EB-subject-1.csv,legacy,Melodramatic Milgram,4.0.5,0,s,s,h,NA,s,NA,441,1327,8094,NA,441,NA,2,legacy,1024,2,48000,-16,experiment,HHSHH,1,odd,2780,145415,NA,248954,250505,249455,251048,250503,250606,1450,210822,1452,137320,NA,250606,NA,Flanker Task,125,63597,144,1024
86,86,441,441,#000000,legacy,legacy,legacy,Incongruent,1,undefined,1,s,0,0,0,144,144,144,144,144,144,0,144,0,0,0,144,0,Sun Sep 17 21:49:22 2023,600,The main experiment item,FALSE,Flanker Task.osexp,C:/Users/Edward Banda/Desktop,FALSE,mono,FALSE,18,no,white,no,no,768,legacy,64,79,C:/Users/Edward Banda/Desktop/EB-subject-1.csv,legacy,Melodramatic Milgram,4.0.5,0,s,s,h,NA,s,NA,375,1327,8094,NA,375,NA,2,legacy,1024,2,48000,-16,experiment,HHSHH,1,odd,2780,145415,NA,248954,252114,251061,252592,252112,252215,1450,210822,1452,137320,NA,252215,NA,Flanker Task,126,63972,145,1024
86,86,441,441,#000000,legacy,legacy,legacy,Incongruent,1,undefined,1,s,0,0,0,145,145,145,145,145,145,0,145,0,0,0,145,0,Sun Sep 17 21:49:22 2023,600,The main experiment item,FALSE,Flanker Task.osexp,C:/Users/Edward Banda/Desktop,FALSE,mono,FALSE,18,no,white,no,no,768,legacy,65,79,C:/Users/Edward Banda/Desktop/EB-subject-1.csv,legacy,Melodramatic Milgram,4.0.5,0,s,s,h,NA,s,NA,452,1327,8094,NA,452,NA,2,legacy,1024,2,48000,-16,experiment,HHSHH,1,odd,2780,145415,NA,248954,253665,252604,254219,253663,253766,1450,210822,1452,137320,NA,253766,NA,Flanker Task,127,64424,146,1024
87,87,440,440,#000000,legacy,legacy,legacy,Incongruent,1,undefined,1,s,0,0,0,146,146,146,146,146,146,0,146,0,0,0,146,0,Sun Sep 17 21:49:22 2023,600,The main experiment item,FALSE,Flanker Task.osexp,C:/Users/Edward Banda/Desktop,FALSE,mono,FALSE,18,no,white,no,no,768,legacy,66,79,C:/Users/Edward Banda/Desktop/EB-subject-1.csv,legacy,Melodramatic Milgram,4.0.5,0,s,s,h,NA,s,NA,355,1327,8094,NA,355,NA,2,legacy,1024,2,48000,-16,experiment,HHSHH,1,odd,2780,145415,NA,248954,255280,254231,255738,255278,255381,1450,210822,1452,137320,NA,255381,NA,Flanker Task,128,64779,147,1024
87,87,440,440,#000000,legacy,legacy,legacy,Congruent,1,undefined,1,s,0,0,0,147,147,147,147,147,147,0,147,0,0,0,147,0,Sun Sep 17 21:49:22 2023,600,The main experiment item,FALSE,Flanker Task.osexp,C:/Users/Edward Banda/Desktop,FALSE,mono,FALSE,18,no,white,no,no,768,legacy,67,79,C:/Users/Edward Banda/Desktop/EB-subject-1.csv,legacy,Melodramatic Milgram,4.0.5,0,s,s,h,NA,s,NA,396,1327,8094,NA,396,NA,2,legacy,1024,2,48000,-16,experiment,SSSSS,1,odd,2780,145415,NA,248954,256827,255750,257326,256824,256928,1450,210822,1452,137320,NA,256929,NA,Flanker Task,129,65175,148,1024
87,87,441,441,#000000,legacy,legacy,legacy,Incongruent,1,undefined,1,h,0,0,0,148,148,148,148,148,148,0,148,0,0,0,148,0,Sun Sep 17 21:49:22 2023,600,The main experiment item,FALSE,Flanker Task.osexp,C:/Users/Edward Banda/Desktop,FALSE,mono,FALSE,18,no,white,no,no,768,legacy,68,79,C:/Users/Edward Banda/Desktop/EB-subject-1.csv,legacy,Melodramatic Milgram,4.0.5,0,h,s,h,NA,h,NA,535,1327,8094,NA,535,NA,2,legacy,1024,2,48000,-16,experiment,SSHSS,1,odd,2780,145415,NA,248954,258401,257339,259039,258399,258502,1450,210822,1452,137320,NA,258502,NA,Flanker Task,130,65710,149,1024
87,87,440,440,#000000,legacy,legacy,legacy,Incongruent,1,undefined,1,s,0,0,0,149,149,149,149,149,149,0,149,0,0,0,149,0,Sun Sep 17 21:49:22 2023,600,The main experiment item,FALSE,Flanker Task.osexp,C:/Users/Edward Banda/Desktop,FALSE,mono,FALSE,18,no,white,no,no,768,legacy,69,79,C:/Users/Edward Banda/Desktop/EB-subject-1.csv,legacy,Melodramatic Milgram,4.0.5,0,s,s,h,NA,s,NA,420,1327,8094,NA,420,NA,2,legacy,1024,2,48000,-16,experiment,HHSHH,1,odd,2780,145415,NA,248954,260093,259051,260616,260091,260195,1450,210822,1452,137320,NA,260195,NA,Flanker Task,131,66130,150,1024
87,87,441,441,#000000,legacy,legacy,legacy,Incongruent,1,undefined,1,h,0,0,0,150,150,150,150,150,150,0,150,0,0,0,150,0,Sun Sep 17 21:49:22 2023,600,The main experiment item,FALSE,Flanker Task.osexp,C:/Users/Edward Banda/Desktop,FALSE,mono,FALSE,18,no,white,no,no,768,legacy,70,79,C:/Users/Edward Banda/Desktop/EB-subject-1.csv,legacy,Melodramatic Milgram,4.0.5,0,h,s,h,NA,h,NA,497,1327,8094,NA,497,NA,2,legacy,1024,2,48000,-16,experiment,SSHSS,1,odd,2780,145415,NA,248954,261665,260628,262265,261664,261766,1450,210822,1452,137320,NA,261766,NA,Flanker Task,132,66627,151,1024
87,87,441,441,#000000,legacy,legacy,legacy,Congruent,1,undefined,1,h,0,0,0,151,151,151,151,151,151,0,151,0,0,0,151,0,Sun Sep 17 21:49:22 2023,600,The main experiment item,FALSE,Flanker Task.osexp,C:/Users/Edward Banda/Desktop,FALSE,mono,FALSE,18,no,white,no,no,768,legacy,71,79,C:/Users/Edward Banda/Desktop/EB-subject-1.csv,legacy,Melodramatic Milgram,4.0.5,0,h,s,h,NA,h,NA,433,1327,8094,NA,433,NA,2,legacy,1024,2,48000,-16,experiment,HHHHH,1,odd,2780,145415,NA,248954,263322,262277,263857,263320,263423,1450,210822,1452,137320,NA,263423,NA,Flanker Task,133,67060,152,1024
87,87,441,441,#000000,legacy,legacy,legacy,Incongruent,1,undefined,1,s,0,0,0,152,152,152,152,152,152,0,152,0,0,0,152,0,Sun Sep 17 21:49:22 2023,600,The main experiment item,FALSE,Flanker Task.osexp,C:/Users/Edward Banda/Desktop,FALSE,mono,FALSE,18,no,white,no,no,768,legacy,72,79,C:/Users/Edward Banda/Desktop/EB-subject-1.csv,legacy,Melodramatic Milgram,4.0.5,0,s,s,h,NA,s,NA,426,1327,8094,NA,426,NA,2,legacy,1024,2,48000,-16,experiment,HHSHH,1,odd,2780,145415,NA,248954,264921,263870,265450,264919,265022,1450,210822,1452,137320,NA,265022,NA,Flanker Task,134,67486,153,1024
87,87,440,440,#000000,legacy,legacy,legacy,Incongruent,1,undefined,1,s,0,0,0,153,153,153,153,153,153,0,153,0,0,0,153,0,Sun Sep 17 21:49:22 2023,600,The main experiment item,FALSE,Flanker Task.osexp,C:/Users/Edward Banda/Desktop,FALSE,mono,FALSE,18,no,white,no,no,768,legacy,73,79,C:/Users/Edward Banda/Desktop/EB-subject-1.csv,legacy,Melodramatic Milgram,4.0.5,0,s,s,h,NA,s,NA,425,1327,8094,NA,425,NA,2,legacy,1024,2,48000,-16,experiment,HHSHH,1,odd,2780,145415,NA,248954,266495,265462,267024,266494,266597,1450,210822,1452,137320,NA,266597,NA,Flanker Task,135,67911,154,1024
87,87,441,441,#000000,legacy,legacy,legacy,Congruent,1,undefined,1,s,0,0,0,154,154,154,154,154,154,0,154,0,0,0,154,0,Sun Sep 17 21:49:22 2023,600,The main experiment item,FALSE,Flanker Task.osexp,C:/Users/Edward Banda/Desktop,FALSE,mono,FALSE,18,no,white,no,no,768,legacy,74,79,C:/Users/Edward Banda/Desktop/EB-subject-1.csv,legacy,Melodramatic Milgram,4.0.5,0,s,s,h,NA,s,NA,444,1327,8094,NA,444,NA,2,legacy,1024,2,48000,-16,experiment,SSSSS,1,odd,2780,145415,NA,248954,268074,267036,268621,268072,268175,1450,210822,1452,137320,NA,268175,NA,Flanker Task,136,68355,155,1024
87,87,440,440,#000000,legacy,legacy,legacy,Congruent,1,undefined,1,s,0,0,0,155,155,155,155,155,155,0,155,0,0,0,155,0,Sun Sep 17 21:49:22 2023,600,The main experiment item,FALSE,Flanker Task.osexp,C:/Users/Edward Banda/Desktop,FALSE,mono,FALSE,18,no,white,no,no,768,legacy,75,79,C:/Users/Edward Banda/Desktop/EB-subject-1.csv,legacy,Melodramatic Milgram,4.0.5,0,s,s,h,NA,s,NA,373,1327,8094,NA,373,NA,2,legacy,1024,2,48000,-16,experiment,SSSSS,1,odd,2780,145415,NA,248954,269689,268633,270164,269687,269790,1450,210822,1452,137320,NA,269790,NA,Flanker Task,137,68728,156,1024
87,87,440,440,#000000,legacy,legacy,legacy,Congruent,1,undefined,1,h,0,0,0,156,156,156,156,156,156,0,156,0,0,0,156,0,Sun Sep 17 21:49:22 2023,600,The main experiment item,FALSE,Flanker Task.osexp,C:/Users/Edward Banda/Desktop,FALSE,mono,FALSE,18,no,white,no,no,768,legacy,76,79,C:/Users/Edward Banda/Desktop/EB-subject-1.csv,legacy,Melodramatic Milgram,4.0.5,0,h,s,h,NA,h,NA,406,1327,8094,NA,406,NA,2,legacy,1024,2,48000,-16,experiment,HHHHH,1,odd,2780,145415,NA,248954,271218,270176,271727,271216,271320,1450,210822,1452,137320,NA,271320,NA,Flanker Task,138,69134,157,1024
87,87,440,440,#000000,legacy,legacy,legacy,Incongruent,1,undefined,1,s,0,0,0,157,157,157,157,157,157,0,157,0,0,0,157,0,Sun Sep 17 21:49:22 2023,600,The main experiment item,FALSE,Flanker Task.osexp,C:/Users/Edward Banda/Desktop,FALSE,mono,FALSE,18,no,white,no,no,768,legacy,77,79,C:/Users/Edward Banda/Desktop/EB-subject-1.csv,legacy,Melodramatic Milgram,4.0.5,0,s,s,h,NA,s,NA,447,1327,8094,NA,447,NA,2,legacy,1024,2,48000,-16,experiment,HHSHH,1,odd,2780,145415,NA,248954,272786,271739,273335,272784,272887,1450,210822,1452,137320,NA,272887,NA,Flanker Task,139,69581,158,1024
88,88,440,440,#000000,legacy,legacy,legacy,Congruent,1,undefined,1,s,0,0,0,158,158,158,158,158,158,0,158,0,0,0,158,0,Sun Sep 17 21:49:22 2023,600,The main experiment item,FALSE,Flanker Task.osexp,C:/Users/Edward Banda/Desktop,FALSE,mono,FALSE,18,no,white,no,no,768,legacy,78,79,C:/Users/Edward Banda/Desktop/EB-subject-1.csv,legacy,Melodramatic Milgram,4.0.5,0,s,s,h,NA,s,NA,428,1327,8094,NA,428,NA,2,legacy,1024,2,48000,-16,experiment,SSSSS,1,odd,2780,145415,NA,248954,274392,273347,274923,274388,274493,1450,210822,1452,137320,NA,274493,NA,Flanker Task,140,70009,159,1024
88,88,440,440,#000000,legacy,legacy,legacy,Congruent,1,undefined,1,h,0,0,0,159,159,159,159,159,159,0,159,0,0,0,159,0,Sun Sep 17 21:49:22 2023,600,The main experiment item,FALSE,Flanker Task.osexp,C:/Users/Edward Banda/Desktop,FALSE,mono,FALSE,18,no,white,no,no,768,legacy,79,79,C:/Users/Edward Banda/Desktop/EB-subject-1.csv,legacy,Melodramatic Milgram,4.0.5,0,h,s,h,NA,h,NA,531,1327,8094,NA,531,NA,2,legacy,1024,2,48000,-16,experiment,HHHHH,1,odd,2780,145415,NA,248954,275981,274935,276616,275979,276083,1450,210822,1452,137320,NA,276083,NA,Flanker Task,141,70540,160,1024
88,88,440,440,#000000,legacy,legacy,legacy,Congruent,1,undefined,1,s,0,0,0,160,160,160,160,160,160,0,160,0,0,0,160,0,Sun Sep 17 21:49:22 2023,300,The main experiment item,FALSE,Flanker Task.osexp,C:/Users/Edward Banda/Desktop,FALSE,mono,FALSE,18,no,white,no,no,768,legacy,0,79,C:/Users/Edward Banda/Desktop/EB-subject-1.csv,legacy,Melodramatic Milgram,4.0.5,0,s,s,h,s,s,NA,453,1327,8094,2994,453,NA,2,legacy,1024,2,48000,-16,experiment,SSSSS,1,odd,2780,145415,280625,248954,280665,276628,281220,280664,280766,1450,210822,1452,137320,277630,280766,NA,Flanker Task,142,70993,161,1024
88,88,440,440,#000000,legacy,legacy,legacy,Congruent,1,undefined,1,s,0,0,0,161,161,161,161,161,161,0,161,0,0,0,161,0,Sun Sep 17 21:49:22 2023,300,The main experiment item,FALSE,Flanker Task.osexp,C:/Users/Edward Banda/Desktop,FALSE,mono,FALSE,18,no,white,no,no,768,legacy,1,79,C:/Users/Edward Banda/Desktop/EB-subject-1.csv,legacy,Melodramatic Milgram,4.0.5,0,s,s,h,s,s,NA,325,1327,8094,2994,325,NA,2,legacy,1024,2,48000,-16,experiment,SSSSS,1,odd,2780,145415,280625,248954,282775,281733,283203,282773,282876,1450,281232,1452,137320,277630,282876,NA,Flanker Task,143,71318,162,1024
88,88,439,439,#000000,legacy,legacy,legacy,Incongruent,1,undefined,1,s,0,0,0,162,162,162,162,162,162,0,162,0,0,0,162,0,Sun Sep 17 21:49:22 2023,300,The main experiment item,FALSE,Flanker Task.osexp,C:/Users/Edward Banda/Desktop,FALSE,mono,FALSE,18,no,white,no,no,768,legacy,2,79,C:/Users/Edward Banda/Desktop/EB-subject-1.csv,legacy,Melodramatic Milgram,4.0.5,0,s,s,h,s,s,NA,255,1327,8094,2994,255,NA,2,legacy,1024,2,48000,-16,experiment,HHSHH,1,odd,2780,145415,280625,248954,284762,283716,285120,284759,284863,1450,283215,1452,137320,277630,284863,NA,Flanker Task,144,71573,163,1024
88,88,437,437,#000000,legacy,legacy,legacy,Incongruent,1,undefined,1,h,0,0,0,163,163,163,163,163,163,0,163,0,0,0,163,0,Sun Sep 17 21:49:22 2023,300,The main experiment item,FALSE,Flanker Task.osexp,C:/Users/Edward Banda/Desktop,FALSE,mono,FALSE,18,no,white,no,no,768,legacy,3,79,C:/Users/Edward Banda/Desktop/EB-subject-1.csv,legacy,Melodramatic Milgram,4.0.5,0,h,s,h,s,h,NA,151,1327,8094,2994,151,NA,2,legacy,1024,2,48000,-16,experiment,SSHSS,1,odd,2780,145415,280625,248954,286199,285132,286454,286197,286301,1450,283215,1452,137320,277630,286301,NA,Flanker Task,145,71724,164,1024
88,88,436,436,#000000,legacy,legacy,legacy,Incongruent,1,undefined,1,s,0,0,0,164,164,164,164,164,164,0,164,0,0,0,164,0,Sun Sep 17 21:49:22 2023,300,The main experiment item,FALSE,Flanker Task.osexp,C:/Users/Edward Banda/Desktop,FALSE,mono,FALSE,18,no,white,no,no,768,legacy,4,79,C:/Users/Edward Banda/Desktop/EB-subject-1.csv,legacy,Melodramatic Milgram,4.0.5,0,s,s,h,s,s,NA,228,1327,8094,2994,228,NA,2,legacy,1024,2,48000,-16,experiment,HHSHH,1,odd,2780,145415,280625,248954,287496,286466,287827,287494,287597,1450,283215,1452,137320,277630,287597,NA,Flanker Task,146,71952,165,1024
87,87,434,434,#000000,legacy,legacy,legacy,Congruent,0,undefined,0,s,0,0,0,165,165,165,165,165,165,0,165,0,0,0,165,0,Sun Sep 17 21:49:22 2023,300,The main experiment item,FALSE,Flanker Task.osexp,C:/Users/Edward Banda/Desktop,FALSE,mono,FALSE,18,no,white,no,no,768,legacy,5,79,C:/Users/Edward Banda/Desktop/EB-subject-1.csv,legacy,Melodramatic Milgram,4.0.5,0,h,s,h,s,h,NA,242,1327,8094,2994,242,NA,2,legacy,1024,2,48000,-16,experiment,SSSSS,1,odd,2780,145415,280625,248954,288890,287830,289234,288888,288991,1450,283215,1452,137320,277630,288991,NA,Flanker Task,146,72194,166,1024
88,88,434,434,#000000,legacy,legacy,legacy,Congruent,1,undefined,1,h,0,0,0,166,166,166,166,166,166,0,166,0,0,0,166,0,Sun Sep 17 21:49:22 2023,300,The main experiment item,FALSE,Flanker Task.osexp,C:/Users/Edward Banda/Desktop,FALSE,mono,FALSE,18,no,white,no,no,768,legacy,6,79,C:/Users/Edward Banda/Desktop/EB-subject-1.csv,legacy,Melodramatic Milgram,4.0.5,0,h,s,h,s,h,NA,369,1327,8094,2994,369,NA,2,legacy,1024,2,48000,-16,experiment,HHHHH,1,odd,2780,145415,280625,289246,290785,289748,291257,290783,290886,1450,283215,1452,137320,277630,290886,NA,Flanker Task,147,72563,167,1024
87,87,432,432,#000000,legacy,legacy,legacy,Incongruent,0,undefined,0,h,0,0,0,167,167,167,167,167,167,0,167,0,0,0,167,0,Sun Sep 17 21:49:22 2023,300,The main experiment item,FALSE,Flanker Task.osexp,C:/Users/Edward Banda/Desktop,FALSE,mono,FALSE,18,no,white,no,no,768,legacy,7,79,C:/Users/Edward Banda/Desktop/EB-subject-1.csv,legacy,Melodramatic Milgram,4.0.5,0,s,s,h,s,s,NA,151,1327,8094,2994,151,NA,2,legacy,1024,2,48000,-16,experiment,SSHSS,1,odd,2780,145415,280625,289246,292805,291761,293059,292802,292906,1450,291260,1452,137320,277630,292906,NA,Flanker Task,147,72714,168,1024
86,86,431,431,#000000,legacy,legacy,legacy,Incongruent,0,undefined,0,h,0,0,0,168,168,168,168,168,168,0,168,0,0,0,168,0,Sun Sep 17 21:49:22 2023,300,The main experiment item,FALSE,Flanker Task.osexp,C:/Users/Edward Banda/Desktop,FALSE,mono,FALSE,18,no,white,no,no,768,legacy,8,79,C:/Users/Edward Banda/Desktop/EB-subject-1.csv,legacy,Melodramatic Milgram,4.0.5,0,s,s,h,s,s,NA,217,1327,8094,2994,217,NA,2,legacy,1024,2,48000,-16,experiment,SSHSS,1,odd,2780,145415,280625,293061,294598,293562,294918,294596,294699,1450,291260,1452,137320,277630,294699,NA,Flanker Task,147,72931,169,1024
86,86,431,431,#000000,legacy,legacy,legacy,Incongruent,0,undefined,0,h,0,0,0,169,169,169,169,169,169,0,169,0,0,0,169,0,Sun Sep 17 21:49:22 2023,300,The main experiment item,FALSE,Flanker Task.osexp,C:/Users/Edward Banda/Desktop,FALSE,mono,FALSE,18,no,white,no,no,768,legacy,9,79,C:/Users/Edward Banda/Desktop/EB-subject-1.csv,legacy,Melodramatic Milgram,4.0.5,0,s,s,h,s,s,NA,353,1327,8094,2994,353,NA,2,legacy,1024,2,48000,-16,experiment,SSHSS,1,odd,2780,145415,280625,294930,296500,295432,296956,296496,296601,1450,291260,1452,137320,277630,296601,NA,Flanker Task,147,73284,170,1024
85,85,429,429,#000000,legacy,legacy,legacy,Incongruent,0,undefined,0,s,0,0,0,170,170,170,170,170,170,0,170,0,0,0,170,0,Sun Sep 17 21:49:22 2023,300,The main experiment item,FALSE,Flanker Task.osexp,C:/Users/Edward Banda/Desktop,FALSE,mono,FALSE,18,no,white,no,no,768,legacy,10,79,C:/Users/Edward Banda/Desktop/EB-subject-1.csv,legacy,Melodramatic Milgram,4.0.5,0,h,s,h,s,h,NA,189,1327,8094,2994,189,NA,2,legacy,1024,2,48000,-16,experiment,HHSHH,1,odd,2780,145415,280625,296959,299000,297962,299292,298999,299101,1450,297460,1452,137320,277630,299101,NA,Flanker Task,147,73473,171,1024
85,85,427,427,#000000,legacy,legacy,legacy,Incongruent,0,undefined,0,s,0,0,0,171,171,171,171,171,171,0,171,0,0,0,171,0,Sun Sep 17 21:49:22 2023,300,The main experiment item,FALSE,Flanker Task.osexp,C:/Users/Edward Banda/Desktop,FALSE,mono,FALSE,18,no,white,no,no,768,legacy,11,79,C:/Users/Edward Banda/Desktop/EB-subject-1.csv,legacy,Melodramatic Milgram,4.0.5,0,h,s,h,s,h,NA,97,1327,8094,2994,97,NA,2,legacy,1024,2,48000,-16,experiment,HHSHH,1,odd,2780,145415,280625,299304,300855,299805,301055,300853,300956,1450,297460,1452,137320,277630,300956,NA,Flanker Task,147,73570,172,1024
84,84,426,426,#000000,legacy,legacy,legacy,Incongruent,0,undefined,0,h,0,0,0,172,172,172,172,172,172,0,172,0,0,0,172,0,Sun Sep 17 21:49:22 2023,300,The main experiment item,FALSE,Flanker Task.osexp,C:/Users/Edward Banda/Desktop,FALSE,mono,FALSE,18,no,white,no,no,768,legacy,12,79,C:/Users/Edward Banda/Desktop/EB-subject-1.csv,legacy,Melodramatic Milgram,4.0.5,0,s,s,h,s,s,NA,210,1327,8094,2994,210,NA,2,legacy,1024,2,48000,-16,experiment,SSHSS,1,odd,2780,145415,280625,301057,302603,301560,302922,302602,302710,1450,297460,1452,137320,277630,302710,NA,Flanker Task,147,73780,173,1024
85,85,425,425,#000000,legacy,legacy,legacy,Congruent,1,undefined,1,h,0,0,0,173,173,173,173,173,173,0,173,0,0,0,173,0,Sun Sep 17 21:49:22 2023,300,The main experiment item,FALSE,Flanker Task.osexp,C:/Users/Edward Banda/Desktop,FALSE,mono,FALSE,18,no,white,no,no,768,legacy,13,79,C:/Users/Edward Banda/Desktop/EB-subject-1.csv,legacy,Melodramatic Milgram,4.0.5,0,h,s,h,s,h,NA,237,1327,8094,2994,237,NA,2,legacy,1024,2,48000,-16,experiment,HHHHH,1,odd,2780,145415,280625,302924,304485,303425,304825,304483,304586,1450,297460,1452,137320,277630,304586,NA,Flanker Task,148,74017,174,1024
85,85,425,425,#000000,legacy,legacy,legacy,Congruent,1,undefined,1,h,0,0,0,174,174,174,174,174,174,0,174,0,0,0,174,0,Sun Sep 17 21:49:22 2023,300,The main experiment item,FALSE,Flanker Task.osexp,C:/Users/Edward Banda/Desktop,FALSE,mono,FALSE,18,no,white,no,no,768,legacy,14,79,C:/Users/Edward Banda/Desktop/EB-subject-1.csv,legacy,Melodramatic Milgram,4.0.5,0,h,s,h,s,h,NA,363,1327,8094,2994,363,NA,2,legacy,1024,2,48000,-16,experiment,HHHHH,1,odd,2780,145415,280625,302924,305882,304827,306348,305879,305983,1450,297460,1452,137320,277630,305983,NA,Flanker Task,149,74380,175,1024
