"acc","accuracy","average_response_time","avg_rt","background","canvas_backend","clock_backend","color_backend","condition","correct","correct_instructions1","correct_keyboard_response","correct_response","count_block1","count_block2","count_block3","count_errorFeedback","count_experiment","count_faster","count_finish","count_fixation","count_getting_started","count_instructions1","count_instructions2","count_instructions3","count_isi","count_keyboard_response","count_logger","count_sequence","count_stimulus","count_welcome","datetime","deadline","description","disable_garbage_collection","experiment_file","experiment_path","font_bold","font_family","font_italic","font_size","font_underline","foreground","form_clicks","fullscreen","height","keyboard_backend","live_row","live_row_block1","logfile","mouse_backend","opensesame_codename","opensesame_version","repeat_cycle","response","response_finish","response_instructions1","response_instructions2","response_instructions3","response_keyboard_response","response_time","response_time_finish","response_time_instructions1","response_time_instructions2","response_time_instructions3","response_time_keyboard_response","response_time_welcome","response_welcome","round_decimals","sampler_backend","sound_buf_size","sound_channels","sound_freq","sound_sample_size","start","stimulus","subject_nr","subject_parity","time_block1","time_block2","time_block3","time_errorFeedback","time_experiment","time_faster","time_finish","time_fixation","time_getting_started","time_instructions1","time_instructions2","time_instructions3","time_isi","time_keyboard_response","time_logger","time_sequence","time_stimulus","time_welcome","title","total_correct","total_response_time","total_responses","width"
"100","100","624","624","#3d3846","psycho","psycho","psycho","incongruent","1","undefined","1","s","0","0","0","0","0","0","0","0","0","0","0","0","0","0","0","0","0","0","Fri Sep 15 00:15:27 2023","1500","The main experiment item","True","FlankerTask23.osexp","/Users/keelihatcher/Desktop/Tarleton M.D./Advanced Quantitative Methods & Experimental Design","False","mono","False","18","no","white","no","no","768","psycho","0","0","/Users/keelihatcher/Desktop/Tarleton M.D./Advanced Quantitative Methods & Experimental Design/KH-subject-0.csv","psycho","Melodramatic Milgram","4.0.5","0","s","NA","s","NA","NA","s","624.1564159863628","NA","45992.2303329804","NA","NA","624.1564159863628","NA","NA","2","psycho","1024","2","48000","-16","experiment","HHSHH","0","even","52566.60354096675","NA","NA","NA","6435.284000006504","NA","NA","52632.38799996907","NA","6552.417957980651","NA","NA","NA","52736.494624987245","53369.04874996981","52614.62474998552","52736.36608297238","NA","Flanker Task","1","624.1564159863628","1","1024"
"50","50","565","565","#3d3846","psycho","psycho","psycho","congruent","0","undefined","0","h","0","0","0","1","0","1","0","1","0","0","0","0","1","1","1","1","1","0","Fri Sep 15 00:15:27 2023","1500","The main experiment item","True","FlankerTask23.osexp","/Users/keelihatcher/Desktop/Tarleton M.D./Advanced Quantitative Methods & Experimental Design","False","mono","False","18","no","white","no","no","768","psycho","1","1","/Users/keelihatcher/Desktop/Tarleton M.D./Advanced Quantitative Methods & Experimental Design/KH-subject-0.csv","psycho","Melodramatic Milgram","4.0.5","0","s","NA","s","NA","NA","s","506.44287501927465","NA","45992.2303329804","NA","NA","506.44287501927465","NA","NA","2","psycho","1024","2","48000","-16","experiment","HHHHH","0","even","52566.60354096675","NA","NA","NA","6435.284000006504","NA","NA","54407.18408301473","NA","6552.417957980651","NA","NA","53373.09070798801","54509.71629098058","55017.70224998472","54402.27954101283","54509.536665980704","NA","Flanker Task","1","1130.5992910056375","2","1024"
"66","66","546","546","#3d3846","psycho","psycho","psycho","incongruent","1","undefined","1","s","0","0","0","2","0","2","0","2","0","0","0","0","2","2","2","2","2","0","Fri Sep 15 00:15:27 2023","1500","The main experiment item","True","FlankerTask23.osexp","/Users/keelihatcher/Desktop/Tarleton M.D./Advanced Quantitative Methods & Experimental Design","False","mono","False","18","no","white","no","no","768","psycho","2","2","/Users/keelihatcher/Desktop/Tarleton M.D./Advanced Quantitative Methods & Experimental Design/KH-subject-0.csv","psycho","Melodramatic Milgram","4.0.5","0","s","NA","s","NA","NA","s","508.28691700007766","NA","45992.2303329804","NA","NA","508.28691700007766","NA","NA","2","psycho","1024","2","48000","-16","experiment","HHSHH","0","even","52566.60354096675","NA","NA","55020.805249980185","6435.284000006504","NA","NA","56557.15116596548","NA","6552.417957980651","NA","NA","55523.53433298413","56659.87533295993","57169.820874987636","56552.76975000743","56659.77195795858","NA","Flanker Task","2","1638.8862080057152","3","1024"
"75","75","518","518","#3d3846","psycho","psycho","psycho","congruent","1","undefined","1","s","0","0","0","3","0","3","0","3","0","0","0","0","3","3","3","3","3","0","Fri Sep 15 00:15:27 2023","1500","The main experiment item","True","FlankerTask23.osexp","/Users/keelihatcher/Desktop/Tarleton M.D./Advanced Quantitative Methods & Experimental Design","False","mono","False","18","no","white","no","no","768","psycho","3","3","/Users/keelihatcher/Desktop/Tarleton M.D./Advanced Quantitative Methods & Experimental Design/KH-subject-0.csv","psycho","Melodramatic Milgram","4.0.5","0","s","NA","s","NA","NA","s","435.3202080237679","NA","45992.2303329804","NA","NA","435.3202080237679","NA","NA","2","psycho","1024","2","48000","-16","experiment","SSSSS","0","even","52566.60354096675","NA","NA","55020.805249980185","6435.284000006504","NA","NA","58206.171665980946","NA","6552.417957980651","NA","NA","57172.9923330131","58308.884874975774","58745.88933296036","58201.905165973585","58308.78758296603","NA","Flanker Task","3","2074.206416029483","4","1024"
"80","80","508","508","#3d3846","psycho","psycho","psycho","incongruent","1","undefined","1","s","0","0","0","4","0","4","0","4","0","0","0","0","4","4","4","4","4","0","Fri Sep 15 00:15:27 2023","1500","The main experiment item","True","FlankerTask23.osexp","/Users/keelihatcher/Desktop/Tarleton M.D./Advanced Quantitative Methods & Experimental Design","False","mono","False","18","no","white","no","no","768","psycho","4","4","/Users/keelihatcher/Desktop/Tarleton M.D./Advanced Quantitative Methods & Experimental Design/KH-subject-0.csv","psycho","Melodramatic Milgram","4.0.5","0","s","NA","s","NA","NA","s","465.83324996754527","NA","45992.2303329804","NA","NA","465.83324996754527","NA","NA","2","psycho","1024","2","48000","-16","experiment","HHSHH","0","even","52566.60354096675","NA","NA","55020.805249980185","6435.284000006504","NA","NA","59782.68287499668","NA","6552.417957980651","NA","NA","58749.017749971244","59885.37579099648","60352.75370796444","59778.38558296207","59885.2807499934","NA","Flanker Task","4","2540.0396659970284","5","1024"
"83","83","493","493","#3d3846","psycho","psycho","psycho","congruent","1","undefined","1","h","0","0","0","5","0","5","0","5","0","0","0","0","5","5","5","5","5","0","Fri Sep 15 00:15:27 2023","1500","The main experiment item","True","FlankerTask23.osexp","/Users/keelihatcher/Desktop/Tarleton M.D./Advanced Quantitative Methods & Experimental Design","False","mono","False","18","no","white","no","no","768","psycho","5","5","/Users/keelihatcher/Desktop/Tarleton M.D./Advanced Quantitative Methods & Experimental Design/KH-subject-0.csv","psycho","Melodramatic Milgram","4.0.5","0","h","NA","s","NA","NA","h","420.80279102083296","NA","45992.2303329804","NA","NA","420.80279102083296","NA","NA","2","psycho","1024","2","48000","-16","experiment","HHHHH","0","even","52566.60354096675","NA","NA","55020.805249980185","6435.284000006504","NA","NA","61388.4123750031","NA","6552.417957980651","NA","NA","60355.46395799611","61491.40424997313","61913.80629100604","61384.17804101482","61491.28970800666","NA","Flanker Task","5","2960.8424570178613","6","1024"
"85","85","480","480","#3d3846","psycho","psycho","psycho","congruent","1","undefined","1","s","0","0","0","6","0","6","0","6","0","0","0","0","6","6","6","6","6","0","Fri Sep 15 00:15:27 2023","1500","The main experiment item","True","FlankerTask23.osexp","/Users/keelihatcher/Desktop/Tarleton M.D./Advanced Quantitative Methods & Experimental Design","False","mono","False","18","no","white","no","no","768","psycho","6","6","/Users/keelihatcher/Desktop/Tarleton M.D./Advanced Quantitative Methods & Experimental Design/KH-subject-0.csv","psycho","Melodramatic Milgram","4.0.5","0","s","NA","s","NA","NA","s","404.9741250346415","NA","45992.2303329804","NA","NA","404.9741250346415","NA","NA","2","psycho","1024","2","48000","-16","experiment","SSSSS","0","even","52566.60354096675","NA","NA","55020.805249980185","6435.284000006504","NA","NA","62950.63824998215","NA","6552.417957980651","NA","NA","61917.27054095827","63053.3743329579","63460.93383297557","62946.24183297856","63053.266583010554","NA","Flanker Task","6","3365.816582052503","7","1024"
"87","87","474","474","#3d3846","psycho","psycho","psycho","incongruent","1","undefined","1","s","0","0","0","7","0","7","0","7","0","0","0","0","7","7","7","7","7","0","Fri Sep 15 00:15:27 2023","1500","The main experiment item","True","FlankerTask23.osexp","/Users/keelihatcher/Desktop/Tarleton M.D./Advanced Quantitative Methods & Experimental Design","False","mono","False","18","no","white","no","no","768","psycho","7","7","/Users/keelihatcher/Desktop/Tarleton M.D./Advanced Quantitative Methods & Experimental Design/KH-subject-0.csv","psycho","Melodramatic Milgram","4.0.5","0","s","NA","s","NA","NA","s","426.6660829889588","NA","45992.2303329804","NA","NA","426.6660829889588","NA","NA","2","psycho","1024","2","48000","-16","experiment","HHSHH","0","even","52566.60354096675","NA","NA","55020.805249980185","6435.284000006504","NA","NA","64502.748082973994","NA","6552.417957980651","NA","NA","63464.215874962974","64605.49049999099","65033.71737495763","64498.383458005264","64605.389832984656","NA","Flanker Task","7","3792.4826650414616","8","1024"
"88","88","459","459","#3d3846","psycho","psycho","psycho","incongruent","1","undefined","1","s","0","0","0","8","0","8","0","8","0","0","0","0","8","8","8","8","8","0","Fri Sep 15 00:15:27 2023","1500","The main experiment item","True","FlankerTask23.osexp","/Users/keelihatcher/Desktop/Tarleton M.D./Advanced Quantitative Methods & Experimental Design","False","mono","False","18","no","white","no","no","768","psycho","8","8","/Users/keelihatcher/Desktop/Tarleton M.D./Advanced Quantitative Methods & Experimental Design/KH-subject-0.csv","psycho","Melodramatic Milgram","4.0.5","0","s","NA","s","NA","NA","s","347.3202500026673","NA","45992.2303329804","NA","NA","347.3202500026673","NA","NA","2","psycho","1024","2","48000","-16","experiment","HHSHH","0","even","52566.60354096675","NA","NA","55020.805249980185","6435.284000006504","NA","NA","66070.05420798669","NA","6552.417957980651","NA","NA","65036.65804100456","66172.8454999975","66521.83058299124","66065.91299996944","66172.74750000797","NA","Flanker Task","8","4139.802915044129","9","1024"
"80","80","451","451","#3d3846","psycho","psycho","psycho","incongruent","0","undefined","0","h","0","0","0","9","0","9","0","9","0","0","0","0","9","9","9","9","9","0","Fri Sep 15 00:15:27 2023","1500","The main experiment item","True","FlankerTask23.osexp","/Users/keelihatcher/Desktop/Tarleton M.D./Advanced Quantitative Methods & Experimental Design","False","mono","False","18","no","white","no","no","768","psycho","9","9","/Users/keelihatcher/Desktop/Tarleton M.D./Advanced Quantitative Methods & Experimental Design/KH-subject-0.csv","psycho","Melodramatic Milgram","4.0.5","0","s","NA","s","NA","NA","s","378.9362500538118","NA","45992.2303329804","NA","NA","378.9362500538118","NA","NA","2","psycho","1024","2","48000","-16","experiment","SSHSS","0","even","52566.60354096675","NA","NA","55020.805249980185","6435.284000006504","NA","NA","67558.50620800629","NA","6552.417957980651","NA","NA","66524.9369579833","67661.18274995824","68041.79458296858","67554.19354100013","67661.08483297285","NA","Flanker Task","8","4518.739165097941","10","1024"
"81","81","422","422","#3d3846","psycho","psycho","psycho","congruent","1","undefined","1","s","0","0","0","10","0","10","0","10","0","0","0","0","10","10","10","10","10","0","Fri Sep 15 00:15:27 2023","1500","The main experiment item","True","FlankerTask23.osexp","/Users/keelihatcher/Desktop/Tarleton M.D./Advanced Quantitative Methods & Experimental Design","False","mono","False","18","no","white","no","no","768","psycho","10","10","/Users/keelihatcher/Desktop/Tarleton M.D./Advanced Quantitative Methods & Experimental Design/KH-subject-0.csv","psycho","Melodramatic Milgram","4.0.5","0","s","NA","s","NA","NA","s","125.2503750147298","NA","45992.2303329804","NA","NA","125.2503750147298","NA","NA","2","psycho","1024","2","48000","-16","experiment","SSSSS","0","even","52566.60354096675","NA","NA","68044.84391596634","6435.284000006504","NA","NA","69580.85358300013","NA","6552.417957980651","NA","NA","68547.471916012","69683.45099996077","70247.1459999797","69576.71412499622","69683.35795798339","NA","Flanker Task","9","4643.9895401126705","11","1024"
"83","83","417","417","#3d3846","psycho","psycho","psycho","congruent","1","undefined","1","s","0","0","0","11","0","11","0","11","0","0","0","0","11","11","11","11","11","0","Fri Sep 15 00:15:27 2023","1500","The main experiment item","True","FlankerTask23.osexp","/Users/keelihatcher/Desktop/Tarleton M.D./Advanced Quantitative Methods & Experimental Design","False","mono","False","18","no","white","no","no","768","psycho","11","11","/Users/keelihatcher/Desktop/Tarleton M.D./Advanced Quantitative Methods & Experimental Design/KH-subject-0.csv","psycho","Melodramatic Milgram","4.0.5","0","s","NA","s","NA","NA","s","369.1672499990091","NA","45992.2303329804","NA","NA","369.1672499990091","NA","NA","2","psycho","1024","2","48000","-16","experiment","SSSSS","0","even","52566.60354096675","NA","NA","68044.84391596634","6435.284000006504","NA","NA","71288.39320800034","NA","6552.417957980651","NA","NA","70254.83774999157","71391.06724999147","71761.89137500478","71284.15454097558","71390.96808299655","NA","Flanker Task","10","5013.15679011168","12","1024"
"84","84","412","412","#3d3846","psycho","psycho","psycho","congruent","1","undefined","1","s","0","0","0","12","0","12","0","12","0","0","0","0","12","12","12","12","12","0","Fri Sep 15 00:15:27 2023","1500","The main experiment item","True","FlankerTask23.osexp","/Users/keelihatcher/Desktop/Tarleton M.D./Advanced Quantitative Methods & Experimental Design","False","mono","False","18","no","white","no","no","768","psycho","12","12","/Users/keelihatcher/Desktop/Tarleton M.D./Advanced Quantitative Methods & Experimental Design/KH-subject-0.csv","psycho","Melodramatic Milgram","4.0.5","0","s","NA","s","NA","NA","s","354.2306669987738","NA","45992.2303329804","NA","NA","354.2306669987738","NA","NA","2","psycho","1024","2","48000","-16","experiment","SSSSS","0","even","52566.60354096675","NA","NA","68044.84391596634","6435.284000006504","NA","NA","72799.10512501374","NA","6552.417957980651","NA","NA","71764.95916600106","72901.86658297898","73257.65258300817","72794.64974999428","72901.76491596503","NA","Flanker Task","11","5367.387457110453","13","1024"
"85","85","408","408","#3d3846","psycho","psycho","psycho","incongruent","1","undefined","1","h","0","0","0","13","0","13","0","13","0","0","0","0","13","13","13","13","13","0","Fri Sep 15 00:15:27 2023","1500","The main experiment item","True","FlankerTask23.osexp","/Users/keelihatcher/Desktop/Tarleton M.D./Advanced Quantitative Methods & Experimental Design","False","mono","False","18","no","white","no","no","768","psycho","13","13","/Users/keelihatcher/Desktop/Tarleton M.D./Advanced Quantitative Methods & Experimental Design/KH-subject-0.csv","psycho","Melodramatic Milgram","4.0.5","0","h","NA","s","NA","NA","h","347.76695899199694","NA","45992.2303329804","NA","NA","347.76695899199694","NA","NA","2","psycho","1024","2","48000","-16","experiment","SSHSS","0","even","52566.60354096675","NA","NA","68044.84391596634","6435.284000006504","NA","NA","74293.57929097023","NA","6552.417957980651","NA","NA","73260.50362497335","74396.38979098527","74745.81699998816","74289.31662498508","74396.29120798782","NA","Flanker Task","12","5715.15441610245","14","1024"
"86","86","403","403","#3d3846","psycho","psycho","psycho","congruent","1","undefined","1","h","0","0","0","14","0","14","0","14","0","0","0","0","14","14","14","14","14","0","Fri Sep 15 00:15:27 2023","1500","The main experiment item","True","FlankerTask23.osexp","/Users/keelihatcher/Desktop/Tarleton M.D./Advanced Quantitative Methods & Experimental Design","False","mono","False","18","no","white","no","no","768","psycho","14","14","/Users/keelihatcher/Desktop/Tarleton M.D./Advanced Quantitative Methods & Experimental Design/KH-subject-0.csv","psycho","Melodramatic Milgram","4.0.5","0","h","NA","s","NA","NA","h","338.9547919505276","NA","45992.2303329804","NA","NA","338.9547919505276","NA","NA","2","psycho","1024","2","48000","-16","experiment","HHHHH","0","even","52566.60354096675","NA","NA","68044.84391596634","6435.284000006504","NA","NA","75782.31454099296","NA","6552.417957980651","NA","NA","74748.90391598456","75885.14079101151","76225.70354101481","75778.11979100807","75885.04670799011","NA","Flanker Task","13","6054.109208052978","15","1024"
"87","87","399","399","#3d3846","psycho","psycho","psycho","incongruent","1","undefined","1","s","0","0","0","15","0","15","0","15","0","0","0","0","15","15","15","15","15","0","Fri Sep 15 00:15:27 2023","1500","The main experiment item","True","FlankerTask23.osexp","/Users/keelihatcher/Desktop/Tarleton M.D./Advanced Quantitative Methods & Experimental Design","False","mono","False","18","no","white","no","no","768","psycho","15","15","/Users/keelihatcher/Desktop/Tarleton M.D./Advanced Quantitative Methods & Experimental Design/KH-subject-0.csv","psycho","Melodramatic Milgram","4.0.5","0","s","NA","s","NA","NA","s","331.4997499692254","NA","45992.2303329804","NA","NA","331.4997499692254","NA","NA","2","psycho","1024","2","48000","-16","experiment","HHSHH","0","even","52566.60354096675","NA","NA","68044.84391596634","6435.284000006504","NA","NA","77261.86383300228","NA","6552.417957980651","NA","NA","76228.54595800163","77364.6152910078","77697.78554100776","77257.5880829827","77364.51549996855","NA","Flanker Task","14","6385.608958022203","16","1024"
"88","88","395","395","#3d3846","psycho","psycho","psycho","congruent","1","undefined","1","s","0","0","0","16","0","16","0","16","0","0","0","0","16","16","16","16","16","0","Fri Sep 15 00:15:27 2023","1500","The main experiment item","True","FlankerTask23.osexp","/Users/keelihatcher/Desktop/Tarleton M.D./Advanced Quantitative Methods & Experimental Design","False","mono","False","18","no","white","no","no","768","psycho","16","16","/Users/keelihatcher/Desktop/Tarleton M.D./Advanced Quantitative Methods & Experimental Design/KH-subject-0.csv","psycho","Melodramatic Milgram","4.0.5","0","s","NA","s","NA","NA","s","345.93749995110556","NA","45992.2303329804","NA","NA","345.93749995110556","NA","NA","2","psycho","1024","2","48000","-16","experiment","SSSSS","0","even","52566.60354096675","NA","NA","68044.84391596634","6435.284000006504","NA","NA","78734.66941597871","NA","6552.417957980651","NA","NA","77700.8497909992","78837.35654101474","79184.95099997381","78730.48562498298","78837.26366597693","NA","Flanker Task","15","6731.546457973309","17","1024"
"88","88","392","392","#3d3846","psycho","psycho","psycho","incongruent","1","undefined","1","h","0","0","0","17","0","17","0","17","0","0","0","0","17","17","17","17","17","0","Fri Sep 15 00:15:27 2023","1500","The main experiment item","True","FlankerTask23.osexp","/Users/keelihatcher/Desktop/Tarleton M.D./Advanced Quantitative Methods & Experimental Design","False","mono","False","18","no","white","no","no","768","psycho","17","17","/Users/keelihatcher/Desktop/Tarleton M.D./Advanced Quantitative Methods & Experimental Design/KH-subject-0.csv","psycho","Melodramatic Milgram","4.0.5","0","h","NA","s","NA","NA","h","340.3769580181688","NA","45992.2303329804","NA","NA","340.3769580181688","NA","NA","2","psycho","1024","2","48000","-16","experiment","SSHSS","0","even","52566.60354096675","NA","NA","68044.84391596634","6435.284000006504","NA","NA","80220.91583296424","NA","6552.417957980651","NA","NA","79187.64091597404","80323.54870799463","80665.53020797437","80216.5860409732","80323.44924996141","NA","Flanker Task","16","7071.923415991478","18","1024"
"84","84","388","388","#3d3846","psycho","psycho","psycho","incongruent","0","undefined","0","h","0","0","0","18","0","18","0","18","0","0","0","0","18","18","18","18","18","0","Fri Sep 15 00:15:27 2023","1500","The main experiment item","True","FlankerTask23.osexp","/Users/keelihatcher/Desktop/Tarleton M.D./Advanced Quantitative Methods & Experimental Design","False","mono","False","18","no","white","no","no","768","psycho","18","18","/Users/keelihatcher/Desktop/Tarleton M.D./Advanced Quantitative Methods & Experimental Design/KH-subject-0.csv","psycho","Melodramatic Milgram","4.0.5","0","s","NA","s","NA","NA","s","303.193082974758","NA","45992.2303329804","NA","NA","303.193082974758","NA","NA","2","psycho","1024","2","48000","-16","experiment","SSHSS","0","even","52566.60354096675","NA","NA","68044.84391596634","6435.284000006504","NA","NA","81706.20391599368","NA","6552.417957980651","NA","NA","80668.57395798434","81808.89783299062","82113.72216598829","81701.8319159979","81808.8020409923","NA","Flanker Task","16","7375.116498966236","19","1024"
"85","85","390","390","#3d3846","psycho","psycho","psycho","congruent","1","undefined","1","h","0","0","0","19","0","19","0","19","0","0","0","0","19","19","19","19","19","0","Fri Sep 15 00:15:27 2023","1500","The main experiment item","True","FlankerTask23.osexp","/Users/keelihatcher/Desktop/Tarleton M.D./Advanced Quantitative Methods & Experimental Design","False","mono","False","18","no","white","no","no","768","psycho","19","19","/Users/keelihatcher/Desktop/Tarleton M.D./Advanced Quantitative Methods & Experimental Design/KH-subject-0.csv","psycho","Melodramatic Milgram","4.0.5","0","h","NA","s","NA","NA","h","428.04241698468104","NA","45992.2303329804","NA","NA","428.04241698468104","NA","NA","2","psycho","1024","2","48000","-16","experiment","HHHHH","0","even","52566.60354096675","NA","NA","82116.69349996373","6435.284000006504","NA","NA","83653.06149999378","NA","6552.417957980651","NA","NA","82619.51145797502","83756.23495801119","84185.98737497814","83648.72566598933","83756.12554099644","NA","Flanker Task","17","7803.158915950917","20","1024"
"85","85","386","386","#3d3846","psycho","psycho","psycho","congruent","1","undefined","1","s","0","0","0","20","0","20","0","20","0","0","0","0","20","20","20","20","20","0","Fri Sep 15 00:15:27 2023","1500","The main experiment item","True","FlankerTask23.osexp","/Users/keelihatcher/Desktop/Tarleton M.D./Advanced Quantitative Methods & Experimental Design","False","mono","False","18","no","white","no","no","768","psycho","20","20","/Users/keelihatcher/Desktop/Tarleton M.D./Advanced Quantitative Methods & Experimental Design/KH-subject-0.csv","psycho","Melodramatic Milgram","4.0.5","0","s","NA","s","NA","NA","s","322.05687498208135","NA","45992.2303329804","NA","NA","322.05687498208135","NA","NA","2","psycho","1024","2","48000","-16","experiment","SSSSS","0","even","52566.60354096675","NA","NA","82116.69349996373","6435.284000006504","NA","NA","85223.76916598296","NA","6552.417957980651","NA","NA","84189.10937500186","85326.09195797704","85649.72512499662","85219.4298329996","85325.9390409803","NA","Flanker Task","18","8125.215790932998","21","1024"
"86","86","385","385","#3d3846","psycho","psycho","psycho","congruent","1","undefined","1","h","0","0","0","21","0","21","0","21","0","0","0","0","21","21","21","21","21","0","Fri Sep 15 00:15:27 2023","1500","The main experiment item","True","FlankerTask23.osexp","/Users/keelihatcher/Desktop/Tarleton M.D./Advanced Quantitative Methods & Experimental Design","False","mono","False","18","no","white","no","no","768","psycho","21","21","/Users/keelihatcher/Desktop/Tarleton M.D./Advanced Quantitative Methods & Experimental Design/KH-subject-0.csv","psycho","Melodramatic Milgram","4.0.5","0","h","NA","s","NA","NA","h","347.13958302745596","NA","45992.2303329804","NA","NA","347.13958302745596","NA","NA","2","psycho","1024","2","48000","-16","experiment","HHHHH","0","even","52566.60354096675","NA","NA","82116.69349996373","6435.284000006504","NA","NA","86685.86774996947","NA","6552.417957980651","NA","NA","85652.9551249696","86788.890582975","87137.65166600933","86681.59374996321","86788.77720801393","NA","Flanker Task","19","8472.355373960454","22","1024"
"86","86","382","382","#3d3846","psycho","psycho","psycho","congruent","1","undefined","1","s","0","0","0","22","0","22","0","22","0","0","0","0","22","22","22","22","22","0","Fri Sep 15 00:15:27 2023","1500","The main experiment item","True","FlankerTask23.osexp","/Users/keelihatcher/Desktop/Tarleton M.D./Advanced Quantitative Methods & Experimental Design","False","mono","False","18","no","white","no","no","768","psycho","22","22","/Users/keelihatcher/Desktop/Tarleton M.D./Advanced Quantitative Methods & Experimental Design/KH-subject-0.csv","psycho","Melodramatic Milgram","4.0.5","0","s","NA","s","NA","NA","s","315.7479159999639","NA","45992.2303329804","NA","NA","315.7479159999639","NA","NA","2","psycho","1024","2","48000","-16","experiment","SSSSS","0","even","52566.60354096675","NA","NA","82116.69349996373","6435.284000006504","NA","NA","88173.60049998388","NA","6552.417957980651","NA","NA","87140.84316598019","88276.3253749581","88593.70516601484","88169.77570799645","88276.2291659601","NA","Flanker Task","20","8788.103289960418","23","1024"
"87","87","384","384","#3d3846","psycho","psycho","psycho","incongruent","1","undefined","1","s","0","0","0","23","0","23","0","23","0","0","0","0","23","23","23","23","23","0","Fri Sep 15 00:15:27 2023","1500","The main experiment item","True","FlankerTask23.osexp","/Users/keelihatcher/Desktop/Tarleton M.D./Advanced Quantitative Methods & Experimental Design","False","mono","False","18","no","white","no","no","768","psycho","23","23","/Users/keelihatcher/Desktop/Tarleton M.D./Advanced Quantitative Methods & Experimental Design/KH-subject-0.csv","psycho","Melodramatic Milgram","4.0.5","0","s","NA","s","NA","NA","s","443.65004199789837","NA","45992.2303329804","NA","NA","443.65004199789837","NA","NA","2","psycho","1024","2","48000","-16","experiment","HHSHH","0","even","52566.60354096675","NA","NA","82116.69349996373","6435.284000006504","NA","NA","89629.77808300639","NA","6552.417957980651","NA","NA","88596.77633299725","89732.60120797204","90177.94774996582","89625.53099996876","89732.50258300686","NA","Flanker Task","21","9231.753331958316","24","1024"
"84","84","383","383","#3d3846","psycho","psycho","psycho","incongruent","0","undefined","0","h","0","0","0","24","0","24","0","24","0","0","0","0","24","24","24","24","24","0","Fri Sep 15 00:15:27 2023","1500","The main experiment item","True","FlankerTask23.osexp","/Users/keelihatcher/Desktop/Tarleton M.D./Advanced Quantitative Methods & Experimental Design","False","mono","False","18","no","white","no","no","768","psycho","24","24","/Users/keelihatcher/Desktop/Tarleton M.D./Advanced Quantitative Methods & Experimental Design/KH-subject-0.csv","psycho","Melodramatic Milgram","4.0.5","0","s","NA","s","NA","NA","s","346.9817910226993","NA","45992.2303329804","NA","NA","346.9817910226993","NA","NA","2","psycho","1024","2","48000","-16","experiment","SSHSS","0","even","52566.60354096675","NA","NA","82116.69349996373","6435.284000006504","NA","NA","91214.42191599635","NA","6552.417957980651","NA","NA","90180.95541599905","91317.1733749914","91665.79237498809","91210.16466600122","91317.06866598688","NA","Flanker Task","21","9578.735122981016","25","1024"
"84","84","384","384","#3d3846","psycho","psycho","psycho","incongruent","1","undefined","1","s","0","0","0","25","0","25","0","25","0","0","0","0","25","25","25","25","25","0","Fri Sep 15 00:15:27 2023","1500","The main experiment item","True","FlankerTask23.osexp","/Users/keelihatcher/Desktop/Tarleton M.D./Advanced Quantitative Methods & Experimental Design","False","mono","False","18","no","white","no","no","768","psycho","25","25","/Users/keelihatcher/Desktop/Tarleton M.D./Advanced Quantitative Methods & Experimental Design/KH-subject-0.csv","psycho","Melodramatic Milgram","4.0.5","0","s","NA","s","NA","NA","s","420.32245796872303","NA","45992.2303329804","NA","NA","420.32245796872303","NA","NA","2","psycho","1024","2","48000","-16","experiment","HHSHH","0","even","52566.60354096675","NA","NA","91668.8776249648","6435.284000006504","NA","NA","93205.43162501417","NA","6552.417957980651","NA","NA","92171.5470830095","93307.72712500766","93729.65216595912","93200.87349996902","93307.59204097558","NA","Flanker Task","22","9999.057580949739","26","1024"
"85","85","384","384","#3d3846","psycho","psycho","psycho","incongruent","1","undefined","1","s","0","0","0","26","0","26","0","26","0","0","0","0","26","26","26","26","26","0","Fri Sep 15 00:15:27 2023","1500","The main experiment item","True","FlankerTask23.osexp","/Users/keelihatcher/Desktop/Tarleton M.D./Advanced Quantitative Methods & Experimental Design","False","mono","False","18","no","white","no","no","768","psycho","26","26","/Users/keelihatcher/Desktop/Tarleton M.D./Advanced Quantitative Methods & Experimental Design/KH-subject-0.csv","psycho","Melodramatic Milgram","4.0.5","0","s","NA","s","NA","NA","s","375.0602920190431","NA","45992.2303329804","NA","NA","375.0602920190431","NA","NA","2","psycho","1024","2","48000","-16","experiment","HHSHH","0","even","52566.60354096675","NA","NA","91668.8776249648","6435.284000006504","NA","NA","94766.4661660092","NA","6552.417957980651","NA","NA","93732.594333007","94872.1965829609","95248.86645795777","94761.88195799477","94872.06208298448","NA","Flanker Task","23","10374.117872968782","27","1024"
"82","82","383","383","#3d3846","psycho","psycho","psycho","incongruent","0","undefined","0","h","0","0","0","27","0","27","0","27","0","0","0","0","27","27","27","27","27","0","Fri Sep 15 00:15:27 2023","1500","The main experiment item","True","FlankerTask23.osexp","/Users/keelihatcher/Desktop/Tarleton M.D./Advanced Quantitative Methods & Experimental Design","False","mono","False","18","no","white","no","no","768","psycho","27","27","/Users/keelihatcher/Desktop/Tarleton M.D./Advanced Quantitative Methods & Experimental Design/KH-subject-0.csv","psycho","Melodramatic Milgram","4.0.5","0","s","NA","s","NA","NA","s","364.2003749846481","NA","45992.2303329804","NA","NA","364.2003749846481","NA","NA","2","psycho","1024","2","48000","-16","experiment","SSHSS","0","even","52566.60354096675","NA","NA","91668.8776249648","6435.284000006504","NA","NA","96285.19812499871","NA","6552.417957980651","NA","NA","95251.97895796737","96387.84091599518","96753.65529098781","96280.9165409999","96387.7459159703","NA","Flanker Task","23","10738.31824795343","28","1024"
"82","82","385","385","#3d3846","psycho","psycho","psycho","incongruent","1","undefined","1","s","0","0","0","28","0","28","0","28","0","0","0","0","28","28","28","28","28","0","Fri Sep 15 00:15:27 2023","1500","The main experiment item","True","FlankerTask23.osexp","/Users/keelihatcher/Desktop/Tarleton M.D./Advanced Quantitative Methods & Experimental Design","False","mono","False","18","no","white","no","no","768","psycho","28","28","/Users/keelihatcher/Desktop/Tarleton M.D./Advanced Quantitative Methods & Experimental Design/KH-subject-0.csv","psycho","Melodramatic Milgram","4.0.5","0","s","NA","s","NA","NA","s","444.52645897399634","NA","45992.2303329804","NA","NA","444.52645897399634","NA","NA","2","psycho","1024","2","48000","-16","experiment","HHSHH","0","even","52566.60354096675","NA","NA","96756.68087496888","6435.284000006504","NA","NA","98292.88662498584","NA","6552.417957980651","NA","NA","97259.35437501175","98395.52604098571","98841.72299999045","98288.62891596509","98395.4279999598","NA","Flanker Task","24","11182.844706927426","29","1024"
"80","80","384","384","#3d3846","psycho","psycho","psycho","incongruent","0","undefined","0","h","0","0","0","29","0","29","0","29","0","0","0","0","29","29","29","29","29","0","Fri Sep 15 00:15:27 2023","1500","The main experiment item","True","FlankerTask23.osexp","/Users/keelihatcher/Desktop/Tarleton M.D./Advanced Quantitative Methods & Experimental Design","False","mono","False","18","no","white","no","no","768","psycho","29","29","/Users/keelihatcher/Desktop/Tarleton M.D./Advanced Quantitative Methods & Experimental Design/KH-subject-0.csv","psycho","Melodramatic Milgram","4.0.5","0","s","NA","s","NA","NA","s","363.3907919866033","NA","45992.2303329804","NA","NA","363.3907919866033","NA","NA","2","psycho","1024","2","48000","-16","experiment","SSHSS","0","even","52566.60354096675","NA","NA","96756.68087496888","6435.284000006504","NA","NA","99877.73974996526","NA","6552.417957980651","NA","NA","98844.64879101142","99980.74445797829","100345.78554099426","99873.51825000951","99980.62712501269","NA","Flanker Task","24","11546.23549891403","30","1024"
"80","80","383","383","#3d3846","psycho","psycho","psycho","congruent","1","undefined","1","s","0","0","0","30","0","30","0","30","0","0","0","0","30","30","30","30","30","0","Fri Sep 15 00:15:27 2023","1500","The main experiment item","True","FlankerTask23.osexp","/Users/keelihatcher/Desktop/Tarleton M.D./Advanced Quantitative Methods & Experimental Design","False","mono","False","18","no","white","no","no","768","psycho","30","30","/Users/keelihatcher/Desktop/Tarleton M.D./Advanced Quantitative Methods & Experimental Design/KH-subject-0.csv","psycho","Melodramatic Milgram","4.0.5","0","s","NA","s","NA","NA","s","355.9626669739373","NA","45992.2303329804","NA","NA","355.9626669739373","NA","NA","2","psycho","1024","2","48000","-16","experiment","SSSSS","0","even","52566.60354096675","NA","NA","100348.85041596135","6435.284000006504","NA","NA","101885.10104099987","NA","6552.417957980651","NA","NA","100851.42087499844","101988.12470800476","102345.73683299823","101880.8032500092","101988.01099997945","NA","Flanker Task","25","11902.198165887967","31","1024"
"81","81","382","382","#3d3846","psycho","psycho","psycho","congruent","1","undefined","1","h","0","0","0","31","0","31","0","31","0","0","0","0","31","31","31","31","31","0","Fri Sep 15 00:15:27 2023","1500","The main experiment item","True","FlankerTask23.osexp","/Users/keelihatcher/Desktop/Tarleton M.D./Advanced Quantitative Methods & Experimental Design","False","mono","False","18","no","white","no","no","768","psycho","31","31","/Users/keelihatcher/Desktop/Tarleton M.D./Advanced Quantitative Methods & Experimental Design/KH-subject-0.csv","psycho","Melodramatic Milgram","4.0.5","0","h","NA","s","NA","NA","h","339.3175410456024","NA","45992.2303329804","NA","NA","339.3175410456024","NA","NA","2","psycho","1024","2","48000","-16","experiment","HHHHH","0","even","52566.60354096675","NA","NA","100348.85041596135","6435.284000006504","NA","NA","103382.05083296634","NA","6552.417957980651","NA","NA","102348.67383301025","103484.7604999668","103825.74591599405","103377.5614160113","103484.65324996505","NA","Flanker Task","26","12241.51570693357","32","1024"
"81","81","382","382","#3d3846","psycho","psycho","psycho","incongruent","1","undefined","1","s","0","0","0","32","0","32","0","32","0","0","0","0","32","32","32","32","32","0","Fri Sep 15 00:15:27 2023","1500","The main experiment item","True","FlankerTask23.osexp","/Users/keelihatcher/Desktop/Tarleton M.D./Advanced Quantitative Methods & Experimental Design","False","mono","False","18","no","white","no","no","768","psycho","32","32","/Users/keelihatcher/Desktop/Tarleton M.D./Advanced Quantitative Methods & Experimental Design/KH-subject-0.csv","psycho","Melodramatic Milgram","4.0.5","0","s","NA","s","NA","NA","s","387.24816602189094","NA","45992.2303329804","NA","NA","387.24816602189094","NA","NA","2","psycho","1024","2","48000","-16","experiment","HHSHH","0","even","52566.60354096675","NA","NA","100348.85041596135","6435.284000006504","NA","NA","104862.0972079807","NA","6552.417957980651","NA","NA","103828.6662499886","104964.84924998367","105353.81712496746","104857.8414999647","104964.75395798916","NA","Flanker Task","27","12628.76387295546","33","1024"
"82","82","382","382","#3d3846","psycho","psycho","psycho","congruent","1","undefined","1","s","0","0","0","33","0","33","0","33","0","0","0","0","33","33","33","33","33","0","Fri Sep 15 00:15:27 2023","1500","The main experiment item","True","FlankerTask23.osexp","/Users/keelihatcher/Desktop/Tarleton M.D./Advanced Quantitative Methods & Experimental Design","False","mono","False","18","no","white","no","no","768","psycho","33","33","/Users/keelihatcher/Desktop/Tarleton M.D./Advanced Quantitative Methods & Experimental Design/KH-subject-0.csv","psycho","Melodramatic Milgram","4.0.5","0","s","NA","s","NA","NA","s","361.395750020165","NA","45992.2303329804","NA","NA","361.395750020165","NA","NA","2","psycho","1024","2","48000","-16","experiment","SSSSS","0","even","52566.60354096675","NA","NA","100348.85041596135","6435.284000006504","NA","NA","106391.83295797557","NA","6552.417957980651","NA","NA","105358.91879099654","106494.65083295945","106857.66924999189","106387.60862499475","106494.55050000688","NA","Flanker Task","28","12990.159622975625","34","1024"
"80","80","382","382","#3d3846","psycho","psycho","psycho","incongruent","0","undefined","0","h","0","0","0","34","0","34","0","34","0","0","0","0","34","34","34","34","34","0","Fri Sep 15 00:15:27 2023","1500","The main experiment item","True","FlankerTask23.osexp","/Users/keelihatcher/Desktop/Tarleton M.D./Advanced Quantitative Methods & Experimental Design","False","mono","False","18","no","white","no","no","768","psycho","34","34","/Users/keelihatcher/Desktop/Tarleton M.D./Advanced Quantitative Methods & Experimental Design/KH-subject-0.csv","psycho","Melodramatic Milgram","4.0.5","0","s","NA","s","NA","NA","s","386.7430000100285","NA","45992.2303329804","NA","NA","386.7430000100285","NA","NA","2","psycho","1024","2","48000","-16","experiment","SSHSS","0","even","52566.60354096675","NA","NA","100348.85041596135","6435.284000006504","NA","NA","107894.25983297406","NA","6552.417957980651","NA","NA","106860.55824998766","107997.2307079588","108385.67925000098","107890.011957963","107997.13341600727","NA","Flanker Task","28","13376.902622985654","35","1024"
"80","80","381","381","#3d3846","psycho","psycho","psycho","congruent","1","undefined","1","s","0","0","0","35","0","35","0","35","0","0","0","0","35","35","35","35","35","0","Fri Sep 15 00:15:27 2023","1500","The main experiment item","True","FlankerTask23.osexp","/Users/keelihatcher/Desktop/Tarleton M.D./Advanced Quantitative Methods & Experimental Design","False","mono","False","18","no","white","no","no","768","psycho","35","35","/Users/keelihatcher/Desktop/Tarleton M.D./Advanced Quantitative Methods & Experimental Design/KH-subject-0.csv","psycho","Melodramatic Milgram","4.0.5","0","s","NA","s","NA","NA","s","356.37733299518004","NA","45992.2303329804","NA","NA","356.37733299518004","NA","NA","2","psycho","1024","2","48000","-16","experiment","SSSSS","0","even","52566.60354096675","NA","NA","108388.89266597107","6435.284000006504","NA","NA","109924.82349998318","NA","6552.417957980651","NA","NA","108891.50095800869","110027.61158300564","110385.63770800829","109920.56612495799","110027.51516597345","NA","Flanker Task","29","13733.279955980834","36","1024"
"81","81","380","380","#3d3846","psycho","psycho","psycho","congruent","1","undefined","1","h","0","0","0","36","0","36","0","36","0","0","0","0","36","36","36","36","36","0","Fri Sep 15 00:15:27 2023","1500","The main experiment item","True","FlankerTask23.osexp","/Users/keelihatcher/Desktop/Tarleton M.D./Advanced Quantitative Methods & Experimental Design","False","mono","False","18","no","white","no","no","768","psycho","36","36","/Users/keelihatcher/Desktop/Tarleton M.D./Advanced Quantitative Methods & Experimental Design/KH-subject-0.csv","psycho","Melodramatic Milgram","4.0.5","0","h","NA","s","NA","NA","h","355.122791021131","NA","45992.2303329804","NA","NA","355.122791021131","NA","NA","2","psycho","1024","2","48000","-16","experiment","HHHHH","0","even","52566.60354096675","NA","NA","108388.89266597107","6435.284000006504","NA","NA","111422.2346660099","NA","6552.417957980651","NA","NA","110388.70870799292","111524.89762497135","111881.71845796751","111417.98458300764","111524.80095799547","NA","Flanker Task","30","14088.402747001965","37","1024"
"81","81","381","381","#3d3846","psycho","psycho","psycho","incongruent","1","undefined","1","s","0","0","0","37","0","37","0","37","0","0","0","0","37","37","37","37","37","0","Fri Sep 15 00:15:27 2023","1500","The main experiment item","True","FlankerTask23.osexp","/Users/keelihatcher/Desktop/Tarleton M.D./Advanced Quantitative Methods & Experimental Design","False","mono","False","18","no","white","no","no","768","psycho","37","37","/Users/keelihatcher/Desktop/Tarleton M.D./Advanced Quantitative Methods & Experimental Design/KH-subject-0.csv","psycho","Melodramatic Milgram","4.0.5","0","s","NA","s","NA","NA","s","427.0447500166483","NA","45992.2303329804","NA","NA","427.0447500166483","NA","NA","2","psycho","1024","2","48000","-16","experiment","HHSHH","0","even","52566.60354096675","NA","NA","108388.89266597107","6435.284000006504","NA","NA","112918.24929096038","NA","6552.417957980651","NA","NA","111884.61149996147","113020.92945796903","113449.71979100956","112913.80820795894","113020.82995796809","NA","Flanker Task","31","14515.447497018613","38","1024"
"82","82","383","383","#3d3846","psycho","psycho","psycho","congruent","1","undefined","1","s","0","0","0","38","0","38","0","38","0","0","0","0","38","38","38","38","38","0","Fri Sep 15 00:15:27 2023","1500","The main experiment item","True","FlankerTask23.osexp","/Users/keelihatcher/Desktop/Tarleton M.D./Advanced Quantitative Methods & Experimental Design","False","mono","False","18","no","white","no","no","768","psycho","38","38","/Users/keelihatcher/Desktop/Tarleton M.D./Advanced Quantitative Methods & Experimental Design/KH-subject-0.csv","psycho","Melodramatic Milgram","4.0.5","0","s","NA","s","NA","NA","s","442.89725000271574","NA","45992.2303329804","NA","NA","442.89725000271574","NA","NA","2","psycho","1024","2","48000","-16","experiment","SSSSS","0","even","52566.60354096675","NA","NA","108388.89266597107","6435.284000006504","NA","NA","114486.87083297409","NA","6552.417957980651","NA","NA","113453.05408298736","114589.15783296106","115033.70608296245","114482.48058301397","114589.01125000557","NA","Flanker Task","32","14958.344747021329","39","1024"
"82","82","382","382","#3d3846","psycho","psycho","psycho","congruent","1","undefined","1","h","0","0","0","39","0","39","0","39","0","0","0","0","39","39","39","39","39","0","Fri Sep 15 00:15:27 2023","1500","The main experiment item","True","FlankerTask23.osexp","/Users/keelihatcher/Desktop/Tarleton M.D./Advanced Quantitative Methods & Experimental Design","False","mono","False","18","no","white","no","no","768","psycho","39","39","/Users/keelihatcher/Desktop/Tarleton M.D./Advanced Quantitative Methods & Experimental Design/KH-subject-0.csv","psycho","Melodramatic Milgram","4.0.5","0","h","NA","s","NA","NA","h","323.0652500060387","NA","45992.2303329804","NA","NA","323.0652500060387","NA","NA","2","psycho","1024","2","48000","-16","experiment","HHHHH","0","even","52566.60354096675","NA","NA","108388.89266597107","6435.284000006504","NA","NA","116070.24112500949","NA","6552.417957980651","NA","NA","115036.65220801486","116172.96604096191","116497.75795801543","116065.90762495762","116172.85387497395","NA","Flanker Task","33","15281.409997027367","40","1024"
"82","82","383","383","#3d3846","psycho","psycho","psycho","congruent","1","undefined","1","h","0","0","0","40","0","40","0","40","0","0","0","0","40","40","40","40","40","0","Fri Sep 15 00:15:27 2023","1500","The main experiment item","True","FlankerTask23.osexp","/Users/keelihatcher/Desktop/Tarleton M.D./Advanced Quantitative Methods & Experimental Design","False","mono","False","18","no","white","no","no","768","psycho","40","40","/Users/keelihatcher/Desktop/Tarleton M.D./Advanced Quantitative Methods & Experimental Design/KH-subject-0.csv","psycho","Melodramatic Milgram","4.0.5","0","h","NA","s","NA","NA","h","450.7364589953795","NA","45992.2303329804","NA","NA","450.7364589953795","NA","NA","2","psycho","1024","2","48000","-16","experiment","HHHHH","0","even","52566.60354096675","NA","NA","108388.89266597107","6435.284000006504","NA","NA","117534.47145799873","NA","6552.417957980651","NA","NA","116500.82079099957","117637.29641598184","118089.7354579647","117530.19233298255","117637.19616597518","NA","Flanker Task","34","15732.146456022747","41","1024"
"83","83","382","382","#3d3846","psycho","psycho","psycho","congruent","1","undefined","1","s","0","0","0","41","0","41","0","41","0","0","0","0","41","41","41","41","41","0","Fri Sep 15 00:15:27 2023","1500","The main experiment item","True","FlankerTask23.osexp","/Users/keelihatcher/Desktop/Tarleton M.D./Advanced Quantitative Methods & Experimental Design","False","mono","False","18","no","white","no","no","768","psycho","41","41","/Users/keelihatcher/Desktop/Tarleton M.D./Advanced Quantitative Methods & Experimental Design/KH-subject-0.csv","psycho","Melodramatic Milgram","4.0.5","0","s","NA","s","NA","NA","s","316.63062499137595","NA","45992.2303329804","NA","NA","316.63062499137595","NA","NA","2","psycho","1024","2","48000","-16","experiment","SSSSS","0","even","52566.60354096675","NA","NA","108388.89266597107","6435.284000006504","NA","NA","119126.10962498002","NA","6552.417957980651","NA","NA","118092.71804097807","119228.42437500367","119546.74862499814","119121.79520796053","119228.28741598641","NA","Flanker Task","35","16048.777081014123","42","1024"
"83","83","379","379","#3d3846","psycho","psycho","psycho","congruent","1","undefined","1","h","0","0","0","42","0","42","0","42","0","0","0","0","42","42","42","42","42","0","Fri Sep 15 00:15:27 2023","1500","The main experiment item","True","FlankerTask23.osexp","/Users/keelihatcher/Desktop/Tarleton M.D./Advanced Quantitative Methods & Experimental Design","False","mono","False","18","no","white","no","no","768","psycho","42","42","/Users/keelihatcher/Desktop/Tarleton M.D./Advanced Quantitative Methods & Experimental Design/KH-subject-0.csv","psycho","Melodramatic Milgram","4.0.5","0","h","NA","s","NA","NA","h","289.62700004922226","NA","45992.2303329804","NA","NA","289.62700004922226","NA","NA","2","psycho","1024","2","48000","-16","experiment","HHHHH","0","even","52566.60354096675","NA","NA","108388.89266597107","6435.284000006504","NA","NA","120583.56979099335","NA","6552.417957980651","NA","NA","119549.82945800293","120686.37462495826","120977.7538329945","120579.22379096271","120686.27537495922","NA","Flanker Task","36","16338.404081063345","43","1024"
"84","84","378","378","#3d3846","psycho","psycho","psycho","congruent","1","undefined","1","s","0","0","0","43","0","43","0","43","0","0","0","0","43","43","43","43","43","0","Fri Sep 15 00:15:27 2023","1500","The main experiment item","True","FlankerTask23.osexp","/Users/keelihatcher/Desktop/Tarleton M.D./Advanced Quantitative Methods & Experimental Design","False","mono","False","18","no","white","no","no","768","psycho","43","43","/Users/keelihatcher/Desktop/Tarleton M.D./Advanced Quantitative Methods & Experimental Design/KH-subject-0.csv","psycho","Melodramatic Milgram","4.0.5","0","s","NA","s","NA","NA","s","307.3825419996865","NA","45992.2303329804","NA","NA","307.3825419996865","NA","NA","2","psycho","1024","2","48000","-16","experiment","SSSSS","0","even","52566.60354096675","NA","NA","108388.89266597107","6435.284000006504","NA","NA","122014.03637498152","NA","6552.417957980651","NA","NA","120980.67620798247","122116.70229100855","122425.82637496525","122009.71854099771","122116.59966601292","NA","Flanker Task","37","16645.78662306303","44","1024"
"84","84","378","378","#3d3846","psycho","psycho","psycho","congruent","1","undefined","1","s","0","0","0","44","0","44","0","44","0","0","0","0","44","44","44","44","44","0","Fri Sep 15 00:15:27 2023","1500","The main experiment item","True","FlankerTask23.osexp","/Users/keelihatcher/Desktop/Tarleton M.D./Advanced Quantitative Methods & Experimental Design","False","mono","False","18","no","white","no","no","768","psycho","44","44","/Users/keelihatcher/Desktop/Tarleton M.D./Advanced Quantitative Methods & Experimental Design/KH-subject-0.csv","psycho","Melodramatic Milgram","4.0.5","0","s","NA","s","NA","NA","s","369.38133399235085","NA","45992.2303329804","NA","NA","369.38133399235085","NA","NA","2","psycho","1024","2","48000","-16","experiment","SSSSS","0","even","52566.60354096675","NA","NA","108388.89266597107","6435.284000006504","NA","NA","123463.95512501476","NA","6552.417957980651","NA","NA","122428.88595798286","123566.6665409808","123937.76912498288","123459.63574998314","123566.5664160042","NA","Flanker Task","38","17015.167957055382","45","1024"
"84","84","377","377","#3d3846","psycho","psycho","psycho","incongruent","1","undefined","1","h","0","0","0","45","0","45","0","45","0","0","0","0","45","45","45","45","45","0","Fri Sep 15 00:15:27 2023","1500","The main experiment item","True","FlankerTask23.osexp","/Users/keelihatcher/Desktop/Tarleton M.D./Advanced Quantitative Methods & Experimental Design","False","mono","False","18","no","white","no","no","768","psycho","45","45","/Users/keelihatcher/Desktop/Tarleton M.D./Advanced Quantitative Methods & Experimental Design/KH-subject-0.csv","psycho","Melodramatic Milgram","4.0.5","0","h","NA","s","NA","NA","h","329.7975420136936","NA","45992.2303329804","NA","NA","329.7975420136936","NA","NA","2","psycho","1024","2","48000","-16","experiment","SSHSS","0","even","52566.60354096675","NA","NA","108388.89266597107","6435.284000006504","NA","NA","124975.45745800016","NA","6552.417957980651","NA","NA","123942.31141597265","125078.15216598101","125409.65045796474","124971.14641597727","125078.05837498745","NA","Flanker Task","39","17344.965499069076","46","1024"
"85","85","378","378","#3d3846","psycho","psycho","psycho","congruent","1","undefined","1","h","0","0","0","46","0","46","0","46","0","0","0","0","46","46","46","46","46","0","Fri Sep 15 00:15:27 2023","1500","The main experiment item","True","FlankerTask23.osexp","/Users/keelihatcher/Desktop/Tarleton M.D./Advanced Quantitative Methods & Experimental Design","False","mono","False","18","no","white","no","no","768","psycho","46","46","/Users/keelihatcher/Desktop/Tarleton M.D./Advanced Quantitative Methods & Experimental Design/KH-subject-0.csv","psycho","Melodramatic Milgram","4.0.5","0","h","NA","s","NA","NA","h","443.26825003372505","NA","45992.2303329804","NA","NA","443.26825003372505","NA","NA","2","psycho","1024","2","48000","-16","experiment","HHHHH","0","even","52566.60354096675","NA","NA","108388.89266597107","6435.284000006504","NA","NA","126446.17516599828","NA","6552.417957980651","NA","NA","125412.67712495755","126548.86270797579","126993.84958297014","126441.88833300723","126548.76487498404","NA","Flanker Task","40","17788.2337491028","47","1024"
"85","85","377","377","#3d3846","psycho","psycho","psycho","incongruent","1","undefined","1","s","0","0","0","47","0","47","0","47","0","0","0","0","47","47","47","47","47","0","Fri Sep 15 00:15:27 2023","1500","The main experiment item","True","FlankerTask23.osexp","/Users/keelihatcher/Desktop/Tarleton M.D./Advanced Quantitative Methods & Experimental Design","False","mono","False","18","no","white","no","no","768","psycho","47","47","/Users/keelihatcher/Desktop/Tarleton M.D./Advanced Quantitative Methods & Experimental Design/KH-subject-0.csv","psycho","Melodramatic Milgram","4.0.5","0","s","NA","s","NA","NA","s","332.47058297274634","NA","45992.2303329804","NA","NA","332.47058297274634","NA","NA","2","psycho","1024","2","48000","-16","experiment","HHSHH","0","even","52566.60354096675","NA","NA","108388.89266597107","6435.284000006504","NA","NA","128029.82762496686","NA","6552.417957980651","NA","NA","126996.695040958","128132.63583299704","128466.86554100597","128025.58483299799","128132.5385409873","NA","Flanker Task","41","18120.704332075547","48","1024"
"85","85","376","376","#3d3846","psycho","psycho","psycho","congruent","1","undefined","1","h","0","0","0","48","0","48","0","48","0","0","0","0","48","48","48","48","48","0","Fri Sep 15 00:15:27 2023","1500","The main experiment item","True","FlankerTask23.osexp","/Users/keelihatcher/Desktop/Tarleton M.D./Advanced Quantitative Methods & Experimental Design","False","mono","False","18","no","white","no","no","768","psycho","48","48","/Users/keelihatcher/Desktop/Tarleton M.D./Advanced Quantitative Methods & Experimental Design/KH-subject-0.csv","psycho","Melodramatic Milgram","4.0.5","0","h","NA","s","NA","NA","h","313.50708403624594","NA","45992.2303329804","NA","NA","313.50708403624594","NA","NA","2","psycho","1024","2","48000","-16","experiment","HHHHH","0","even","52566.60354096675","NA","NA","108388.89266597107","6435.284000006504","NA","NA","129503.54558299296","NA","6552.417957980651","NA","NA","128469.89970799768","129606.42691596877","129921.6177079943","129499.10779099446","129606.31341597764","NA","Flanker Task","42","18434.211416111793","49","1024"
"84","84","377","377","#3d3846","psycho","psycho","psycho","incongruent","0","undefined","0","h","0","0","0","49","0","49","0","49","0","0","0","0","49","49","49","49","49","0","Fri Sep 15 00:15:27 2023","1500","The main experiment item","True","FlankerTask23.osexp","/Users/keelihatcher/Desktop/Tarleton M.D./Advanced Quantitative Methods & Experimental Design","False","mono","False","18","no","white","no","no","768","psycho","49","49","/Users/keelihatcher/Desktop/Tarleton M.D./Advanced Quantitative Methods & Experimental Design/KH-subject-0.csv","psycho","Melodramatic Milgram","4.0.5","0","s","NA","s","NA","NA","s","450.41408302495256","NA","45992.2303329804","NA","NA","450.41408302495256","NA","NA","2","psycho","1024","2","48000","-16","experiment","SSHSS","0","even","52566.60354096675","NA","NA","108388.89266597107","6435.284000006504","NA","NA","130958.94670800772","NA","6552.417957980651","NA","NA","129925.54029100575","131061.61574996077","131513.84425000288","130954.70287499484","131061.5114159882","NA","Flanker Task","42","18884.625499136746","50","1024"
"82","82","377","377","#3d3846","psycho","psycho","psycho","incongruent","0","undefined","0","s","0","0","0","50","0","50","0","50","0","0","0","0","50","50","50","50","50","0","Fri Sep 15 00:15:27 2023","1500","The main experiment item","True","FlankerTask23.osexp","/Users/keelihatcher/Desktop/Tarleton M.D./Advanced Quantitative Methods & Experimental Design","False","mono","False","18","no","white","no","no","768","psycho","50","50","/Users/keelihatcher/Desktop/Tarleton M.D./Advanced Quantitative Methods & Experimental Design/KH-subject-0.csv","psycho","Melodramatic Milgram","4.0.5","0","h","NA","s","NA","NA","h","371.8854170292616","NA","45992.2303329804","NA","NA","371.8854170292616","NA","NA","2","psycho","1024","2","48000","-16","experiment","HHSHH","0","even","52566.60354096675","NA","NA","131517.01287500327","6435.284000006504","NA","NA","133053.27912501525","NA","6552.417957980651","NA","NA","132019.4483330124","133156.15483297734","133529.84891599044","133048.72675001388","133156.0589579749","NA","Flanker Task","42","19256.510916166008","51","1024"
"82","82","376","376","#3d3846","psycho","psycho","psycho","incongruent","1","undefined","1","h","0","0","0","51","0","51","0","51","0","0","0","0","51","51","51","51","51","0","Fri Sep 15 00:15:27 2023","1500","The main experiment item","True","FlankerTask23.osexp","/Users/keelihatcher/Desktop/Tarleton M.D./Advanced Quantitative Methods & Experimental Design","False","mono","False","18","no","white","no","no","768","psycho","51","51","/Users/keelihatcher/Desktop/Tarleton M.D./Advanced Quantitative Methods & Experimental Design/KH-subject-0.csv","psycho","Melodramatic Milgram","4.0.5","0","h","NA","s","NA","NA","h","331.8809579941444","NA","45992.2303329804","NA","NA","331.8809579941444","NA","NA","2","psycho","1024","2","48000","-16","experiment","SSHSS","0","even","52566.60354096675","NA","NA","133533.56683300808","6435.284000006504","NA","NA","135069.34779096628","NA","6552.417957980651","NA","NA","134036.1120409798","135172.10570798488","135505.784375011","135065.0677079684","135172.00637498172","NA","Flanker Task","43","19588.391874160152","52","1024"
"83","83","375","375","#3d3846","psycho","psycho","psycho","congruent","1","undefined","1","s","0","0","0","52","0","52","0","52","0","0","0","0","52","52","52","52","52","0","Fri Sep 15 00:15:27 2023","1500","The main experiment item","True","FlankerTask23.osexp","/Users/keelihatcher/Desktop/Tarleton M.D./Advanced Quantitative Methods & Experimental Design","False","mono","False","18","no","white","no","no","768","psycho","52","52","/Users/keelihatcher/Desktop/Tarleton M.D./Advanced Quantitative Methods & Experimental Design/KH-subject-0.csv","psycho","Melodramatic Milgram","4.0.5","0","s","NA","s","NA","NA","s","322.97975005349144","NA","45992.2303329804","NA","NA","322.97975005349144","NA","NA","2","psycho","1024","2","48000","-16","experiment","SSSSS","0","even","52566.60354096675","NA","NA","133533.56683300808","6435.284000006504","NA","NA","136542.0799999847","NA","6552.417957980651","NA","NA","135508.82408296457","136645.03412495833","136969.73558299942","136537.8281250014","136644.931082963","NA","Flanker Task","44","19911.371624213643","53","1024"
"83","83","374","374","#3d3846","psycho","psycho","psycho","congruent","1","undefined","1","h","0","0","0","53","0","53","0","53","0","0","0","0","53","53","53","53","53","0","Fri Sep 15 00:15:27 2023","1500","The main experiment item","True","FlankerTask23.osexp","/Users/keelihatcher/Desktop/Tarleton M.D./Advanced Quantitative Methods & Experimental Design","False","mono","False","18","no","white","no","no","768","psycho","53","53","/Users/keelihatcher/Desktop/Tarleton M.D./Advanced Quantitative Methods & Experimental Design/KH-subject-0.csv","psycho","Melodramatic Milgram","4.0.5","0","h","NA","s","NA","NA","h","299.44908298784867","NA","45992.2303329804","NA","NA","299.44908298784867","NA","NA","2","psycho","1024","2","48000","-16","experiment","HHHHH","0","even","52566.60354096675","NA","NA","133533.56683300808","6435.284000006504","NA","NA","138005.7791660074","NA","6552.417957980651","NA","NA","136972.6507079904","138108.51824999554","138409.66166596627","138001.5338329831","138108.42274996685","NA","Flanker Task","45","20210.820707201492","54","1024"
"81","81","373","373","#3d3846","psycho","psycho","psycho","incongruent","0","undefined","0","h","0","0","0","54","0","54","0","54","0","0","0","0","54","54","54","54","54","0","Fri Sep 15 00:15:27 2023","1500","The main experiment item","True","FlankerTask23.osexp","/Users/keelihatcher/Desktop/Tarleton M.D./Advanced Quantitative Methods & Experimental Design","False","mono","False","18","no","white","no","no","768","psycho","54","54","/Users/keelihatcher/Desktop/Tarleton M.D./Advanced Quantitative Methods & Experimental Design/KH-subject-0.csv","psycho","Melodramatic Milgram","4.0.5","0","s","NA","s","NA","NA","s","338.7727080262266","NA","45992.2303329804","NA","NA","338.7727080262266","NA","NA","2","psycho","1024","2","48000","-16","experiment","SSHSS","0","even","52566.60354096675","NA","NA","133533.56683300808","6435.284000006504","NA","NA","139446.19962497381","NA","6552.417957980651","NA","NA","138412.59650001302","139549.17283297982","139889.67837498058","139441.86908297706","139549.06799999299","NA","Flanker Task","45","20549.59341522772","55","1024"
"82","82","373","373","#3d3846","psycho","psycho","psycho","incongruent","1","undefined","1","h","0","0","0","55","0","55","0","55","0","0","0","0","55","55","55","55","55","0","Fri Sep 15 00:15:27 2023","1500","The main experiment item","True","FlankerTask23.osexp","/Users/keelihatcher/Desktop/Tarleton M.D./Advanced Quantitative Methods & Experimental Design","False","mono","False","18","no","white","no","no","768","psycho","55","55","/Users/keelihatcher/Desktop/Tarleton M.D./Advanced Quantitative Methods & Experimental Design/KH-subject-0.csv","psycho","Melodramatic Milgram","4.0.5","0","h","NA","s","NA","NA","h","364.3919579917565","NA","45992.2303329804","NA","NA","364.3919579917565","NA","NA","2","psycho","1024","2","48000","-16","experiment","SSHSS","0","even","52566.60354096675","NA","NA","139892.75158301461","6435.284000006504","NA","NA","141428.82812500466","NA","6552.417957980651","NA","NA","140395.30433301115","141531.63083299296","141897.79116597492","141424.58587500732","141531.5351249883","NA","Flanker Task","46","20913.985373219475","56","1024"
"82","82","372","372","#3d3846","psycho","psycho","psycho","incongruent","1","undefined","1","s","0","0","0","56","0","56","0","56","0","0","0","0","56","56","56","56","56","0","Fri Sep 15 00:15:27 2023","1500","The main experiment item","True","FlankerTask23.osexp","/Users/keelihatcher/Desktop/Tarleton M.D./Advanced Quantitative Methods & Experimental Design","False","mono","False","18","no","white","no","no","768","psycho","56","56","/Users/keelihatcher/Desktop/Tarleton M.D./Advanced Quantitative Methods & Experimental Design/KH-subject-0.csv","psycho","Melodramatic Milgram","4.0.5","0","s","NA","s","NA","NA","s","338.4097090456635","NA","45992.2303329804","NA","NA","338.4097090456635","NA","NA","2","psycho","1024","2","48000","-16","experiment","HHSHH","0","even","52566.60354096675","NA","NA","139892.75158301461","6435.284000006504","NA","NA","142934.67979098205","NA","6552.417957980651","NA","NA","141900.93370800605","143037.485290959","143377.59824999375","142930.14241597848","143037.3829579912","NA","Flanker Task","47","21252.39508226514","57","1024"
"82","82","372","372","#3d3846","psycho","psycho","psycho","incongruent","1","undefined","1","h","0","0","0","57","0","57","0","57","0","0","0","0","57","57","57","57","57","0","Fri Sep 15 00:15:27 2023","1500","The main experiment item","True","FlankerTask23.osexp","/Users/keelihatcher/Desktop/Tarleton M.D./Advanced Quantitative Methods & Experimental Design","False","mono","False","18","no","white","no","no","768","psycho","57","57","/Users/keelihatcher/Desktop/Tarleton M.D./Advanced Quantitative Methods & Experimental Design/KH-subject-0.csv","psycho","Melodramatic Milgram","4.0.5","0","h","NA","s","NA","NA","h","354.8774999799207","NA","45992.2303329804","NA","NA","354.8774999799207","NA","NA","2","psycho","1024","2","48000","-16","experiment","SSHSS","0","even","52566.60354096675","NA","NA","139892.75158301461","6435.284000006504","NA","NA","144414.1103749862","NA","6552.417957980651","NA","NA","143380.47991599888","144517.0310829999","144873.64700000035","144409.51170801418","144516.93070796318","NA","Flanker Task","48","21607.27258224506","58","1024"
"81","81","372","372","#3d3846","psycho","psycho","psycho","incongruent","0","undefined","0","h","0","0","0","58","0","58","0","58","0","0","0","0","58","58","58","58","58","0","Fri Sep 15 00:15:27 2023","1500","The main experiment item","True","FlankerTask23.osexp","/Users/keelihatcher/Desktop/Tarleton M.D./Advanced Quantitative Methods & Experimental Design","False","mono","False","18","no","white","no","no","768","psycho","58","58","/Users/keelihatcher/Desktop/Tarleton M.D./Advanced Quantitative Methods & Experimental Design/KH-subject-0.csv","psycho","Melodramatic Milgram","4.0.5","0","s","NA","s","NA","NA","s","395.01054194988683","NA","45992.2303329804","NA","NA","395.01054194988683","NA","NA","2","psycho","1024","2","48000","-16","experiment","SSHSS","0","even","52566.60354096675","NA","NA","139892.75158301461","6435.284000006504","NA","NA","145910.18183296546","NA","6552.417957980651","NA","NA","144876.70949997846","146012.8668330144","146409.61133298697","145905.8009579894","146012.76895799674","NA","Flanker Task","48","22002.283124194946","59","1024"
"81","81","373","373","#3d3846","psycho","psycho","psycho","incongruent","1","undefined","1","h","0","0","0","59","0","59","0","59","0","0","0","0","59","59","59","59","59","0","Fri Sep 15 00:15:27 2023","1500","The main experiment item","True","FlankerTask23.osexp","/Users/keelihatcher/Desktop/Tarleton M.D./Advanced Quantitative Methods & Experimental Design","False","mono","False","18","no","white","no","no","768","psycho","59","59","/Users/keelihatcher/Desktop/Tarleton M.D./Advanced Quantitative Methods & Experimental Design/KH-subject-0.csv","psycho","Melodramatic Milgram","4.0.5","0","h","NA","s","NA","NA","h","428.50208299933","NA","45992.2303329804","NA","NA","428.50208299933","NA","NA","2","psycho","1024","2","48000","-16","experiment","SSHSS","0","even","52566.60354096675","NA","NA","146412.5747079961","6435.284000006504","NA","NA","147948.61675001448","NA","6552.417957980651","NA","NA","146915.19958298886","148051.42112501198","148481.60904098768","147944.2703750101","148051.32629099535","NA","Flanker Task","49","22430.785207194276","60","1024"
"81","81","373","373","#3d3846","psycho","psycho","psycho","congruent","1","undefined","1","h","0","0","0","60","0","60","0","60","0","0","0","0","60","60","60","60","60","0","Fri Sep 15 00:15:27 2023","1500","The main experiment item","True","FlankerTask23.osexp","/Users/keelihatcher/Desktop/Tarleton M.D./Advanced Quantitative Methods & Experimental Design","False","mono","False","18","no","white","no","no","768","psycho","60","60","/Users/keelihatcher/Desktop/Tarleton M.D./Advanced Quantitative Methods & Experimental Design/KH-subject-0.csv","psycho","Melodramatic Milgram","4.0.5","0","h","NA","s","NA","NA","h","379.0666660061106","NA","45992.2303329804","NA","NA","379.0666660061106","NA","NA","2","psycho","1024","2","48000","-16","experiment","HHHHH","0","even","52566.60354096675","NA","NA","146412.5747079961","6435.284000006504","NA","NA","149518.07674998417","NA","6552.417957980651","NA","NA","148484.49674999574","149620.8787499927","150001.78916600998","149513.8196659973","149620.766750013","NA","Flanker Task","50","22809.851873200387","61","1024"
"82","82","376","376","#3d3846","psycho","psycho","psycho","incongruent","1","undefined","1","h","0","0","0","61","0","61","0","61","0","0","0","0","61","61","61","61","61","0","Fri Sep 15 00:15:27 2023","1500","The main experiment item","True","FlankerTask23.osexp","/Users/keelihatcher/Desktop/Tarleton M.D./Advanced Quantitative Methods & Experimental Design","False","mono","False","18","no","white","no","no","768","psycho","61","61","/Users/keelihatcher/Desktop/Tarleton M.D./Advanced Quantitative Methods & Experimental Design/KH-subject-0.csv","psycho","Melodramatic Milgram","4.0.5","0","h","NA","s","NA","NA","h","530.9494579560123","NA","45992.2303329804","NA","NA","530.9494579560123","NA","NA","2","psycho","1024","2","48000","-16","experiment","SSHSS","0","even","52566.60354096675","NA","NA","146412.5747079961","6435.284000006504","NA","NA","151038.0954159773","NA","6552.417957980651","NA","NA","150004.89549996564","151140.7972080051","151673.40116598643","151033.71841600165","151140.6964159687","NA","Flanker Task","51","23340.8013311564","62","1024"
"82","82","376","376","#3d3846","psycho","psycho","psycho","incongruent","1","undefined","1","s","0","0","0","62","0","62","0","62","0","0","0","0","62","62","62","62","62","0","Fri Sep 15 00:15:27 2023","1500","The main experiment item","True","FlankerTask23.osexp","/Users/keelihatcher/Desktop/Tarleton M.D./Advanced Quantitative Methods & Experimental Design","False","mono","False","18","no","white","no","no","768","psycho","62","62","/Users/keelihatcher/Desktop/Tarleton M.D./Advanced Quantitative Methods & Experimental Design/KH-subject-0.csv","psycho","Melodramatic Milgram","4.0.5","0","s","NA","s","NA","NA","s","394.81516601517797","NA","45992.2303329804","NA","NA","394.81516601517797","NA","NA","2","psycho","1024","2","48000","-16","experiment","HHSHH","0","even","52566.60354096675","NA","NA","146412.5747079961","6435.284000006504","NA","NA","152710.09649999905","NA","6552.417957980651","NA","NA","151676.2635409832","152813.1483749603","153209.70570796635","152705.70420799777","152813.03316599224","NA","Flanker Task","52","23735.616497171577","63","1024"
"82","82","376","376","#3d3846","psycho","psycho","psycho","congruent","1","undefined","1","h","0","0","0","63","0","63","0","63","0","0","0","0","63","63","63","63","63","0","Fri Sep 15 00:15:27 2023","1500","The main experiment item","True","FlankerTask23.osexp","/Users/keelihatcher/Desktop/Tarleton M.D./Advanced Quantitative Methods & Experimental Design","False","mono","False","18","no","white","no","no","768","psycho","63","63","/Users/keelihatcher/Desktop/Tarleton M.D./Advanced Quantitative Methods & Experimental Design/KH-subject-0.csv","psycho","Melodramatic Milgram","4.0.5","0","h","NA","s","NA","NA","h","339.174541993998","NA","45992.2303329804","NA","NA","339.174541993998","NA","NA","2","psycho","1024","2","48000","-16","experiment","HHHHH","0","even","52566.60354096675","NA","NA","146412.5747079961","6435.284000006504","NA","NA","154246.1953329621","NA","6552.417957980651","NA","NA","153212.60224998696","154348.80791598698","154689.63249999797","154241.88266601413","154348.70812500594","NA","Flanker Task","53","24074.791039165575","64","1024"
"83","83","376","376","#3d3846","psycho","psycho","psycho","incongruent","1","undefined","1","h","0","0","0","64","0","64","0","64","0","0","0","0","64","64","64","64","64","0","Fri Sep 15 00:15:27 2023","1500","The main experiment item","True","FlankerTask23.osexp","/Users/keelihatcher/Desktop/Tarleton M.D./Advanced Quantitative Methods & Experimental Design","False","mono","False","18","no","white","no","no","768","psycho","64","64","/Users/keelihatcher/Desktop/Tarleton M.D./Advanced Quantitative Methods & Experimental Design/KH-subject-0.csv","psycho","Melodramatic Milgram","4.0.5","0","h","NA","s","NA","NA","h","394.6735409554094","NA","45992.2303329804","NA","NA","394.6735409554094","NA","NA","2","psycho","1024","2","48000","-16","experiment","SSHSS","0","even","52566.60354096675","NA","NA","146412.5747079961","6435.284000006504","NA","NA","155726.20733297663","NA","6552.417957980651","NA","NA","154692.54233298125","155829.20400000876","156225.6602079724","155721.88954096055","155829.09304101486","NA","Flanker Task","54","24469.464580120984","65","1024"
"83","83","379","379","#3d3846","psycho","psycho","psycho","congruent","1","undefined","1","h","0","0","0","65","0","65","0","65","0","0","0","0","65","65","65","65","65","0","Fri Sep 15 00:15:27 2023","1500","The main experiment item","True","FlankerTask23.osexp","/Users/keelihatcher/Desktop/Tarleton M.D./Advanced Quantitative Methods & Experimental Design","False","mono","False","18","no","white","no","no","768","psycho","65","65","/Users/keelihatcher/Desktop/Tarleton M.D./Advanced Quantitative Methods & Experimental Design/KH-subject-0.csv","psycho","Melodramatic Milgram","4.0.5","0","h","NA","s","NA","NA","h","555.0637500127777","NA","45992.2303329804","NA","NA","555.0637500127777","NA","NA","2","psycho","1024","2","48000","-16","experiment","HHHHH","0","even","52566.60354096675","NA","NA","146412.5747079961","6435.284000006504","NA","NA","157262.00712501304","NA","6552.417957980651","NA","NA","156228.5339999944","157364.87804097123","157921.75479099387","157257.6932499651","157364.78125001304","NA","Flanker Task","55","25024.528330133762","66","1024"
"83","83","379","379","#3d3846","psycho","psycho","psycho","congruent","1","undefined","1","h","0","0","0","66","0","66","0","66","0","0","0","0","66","66","66","66","66","0","Fri Sep 15 00:15:27 2023","1500","The main experiment item","True","FlankerTask23.osexp","/Users/keelihatcher/Desktop/Tarleton M.D./Advanced Quantitative Methods & Experimental Design","False","mono","False","18","no","white","no","no","768","psycho","66","66","/Users/keelihatcher/Desktop/Tarleton M.D./Advanced Quantitative Methods & Experimental Design/KH-subject-0.csv","psycho","Melodramatic Milgram","4.0.5","0","h","NA","s","NA","NA","h","425.7866669795476","NA","45992.2303329804","NA","NA","425.7866669795476","NA","NA","2","psycho","1024","2","48000","-16","experiment","HHHHH","0","even","52566.60354096675","NA","NA","146412.5747079961","6435.284000006504","NA","NA","158959.29779100697","NA","6552.417957980651","NA","NA","157925.6966249668","159062.13866599137","159489.68683299609","158955.0201249658","159062.0235829847","NA","Flanker Task","56","25450.31499711331","67","1024"
"82","82","379","379","#3d3846","psycho","psycho","psycho","incongruent","0","undefined","0","s","0","0","0","67","0","67","0","67","0","0","0","0","67","67","67","67","67","0","Fri Sep 15 00:15:27 2023","1500","The main experiment item","True","FlankerTask23.osexp","/Users/keelihatcher/Desktop/Tarleton M.D./Advanced Quantitative Methods & Experimental Design","False","mono","False","18","no","white","no","no","768","psycho","67","67","/Users/keelihatcher/Desktop/Tarleton M.D./Advanced Quantitative Methods & Experimental Design/KH-subject-0.csv","psycho","Melodramatic Milgram","4.0.5","0","h","NA","s","NA","NA","h","370.92204100918025","NA","45992.2303329804","NA","NA","370.92204100918025","NA","NA","2","psycho","1024","2","48000","-16","experiment","HHSHH","0","even","52566.60354096675","NA","NA","146412.5747079961","6435.284000006504","NA","NA","160526.04641596554","NA","6552.417957980651","NA","NA","159492.6158330054","160629.0143749793","161001.75333296647","160521.8098749756","160628.90249997145","NA","Flanker Task","56","25821.23703812249","68","1024"
"82","82","379","379","#3d3846","psycho","psycho","psycho","congruent","1","undefined","1","s","0","0","0","68","0","68","0","68","0","0","0","0","68","68","68","68","68","0","Fri Sep 15 00:15:27 2023","1500","The main experiment item","True","FlankerTask23.osexp","/Users/keelihatcher/Desktop/Tarleton M.D./Advanced Quantitative Methods & Experimental Design","False","mono","False","18","no","white","no","no","768","psycho","68","68","/Users/keelihatcher/Desktop/Tarleton M.D./Advanced Quantitative Methods & Experimental Design/KH-subject-0.csv","psycho","Melodramatic Milgram","4.0.5","0","s","NA","s","NA","NA","s","378.1199590303004","NA","45992.2303329804","NA","NA","378.1199590303004","NA","NA","2","psycho","1024","2","48000","-16","experiment","SSSSS","0","even","52566.60354096675","NA","NA","161004.99062496237","6435.284000006504","NA","NA","162542.9767500027","NA","6552.417957980651","NA","NA","161507.57762498688","162645.7687909715","163025.6948749884","162538.50570798386","162645.66620800178","NA","Flanker Task","57","26199.35699715279","69","1024"
"82","82","378","378","#3d3846","psycho","psycho","psycho","congruent","1","undefined","1","h","0","0","0","69","0","69","0","69","0","0","0","0","69","69","69","69","69","0","Fri Sep 15 00:15:27 2023","1500","The main experiment item","True","FlankerTask23.osexp","/Users/keelihatcher/Desktop/Tarleton M.D./Advanced Quantitative Methods & Experimental Design","False","mono","False","18","no","white","no","no","768","psycho","69","69","/Users/keelihatcher/Desktop/Tarleton M.D./Advanced Quantitative Methods & Experimental Design/KH-subject-0.csv","psycho","Melodramatic Milgram","4.0.5","0","h","NA","s","NA","NA","h","315.3510419651866","NA","45992.2303329804","NA","NA","315.3510419651866","NA","NA","2","psycho","1024","2","48000","-16","experiment","HHHHH","0","even","52566.60354096675","NA","NA","161004.99062496237","6435.284000006504","NA","NA","164061.8567909696","NA","6552.417957980651","NA","NA","163028.7295829621","164164.5138330059","164481.6005830071","164057.5855000061","164164.41379097523","NA","Flanker Task","58","26514.708039117977","70","1024"
"83","83","380","380","#3d3846","psycho","psycho","psycho","incongruent","1","undefined","1","h","0","0","0","70","0","70","0","70","0","0","0","0","70","70","70","70","70","0","Fri Sep 15 00:15:27 2023","1500","The main experiment item","True","FlankerTask23.osexp","/Users/keelihatcher/Desktop/Tarleton M.D./Advanced Quantitative Methods & Experimental Design","False","mono","False","18","no","white","no","no","768","psycho","70","70","/Users/keelihatcher/Desktop/Tarleton M.D./Advanced Quantitative Methods & Experimental Design/KH-subject-0.csv","psycho","Melodramatic Milgram","4.0.5","0","h","NA","s","NA","NA","h","515.3538330341689","NA","45992.2303329804","NA","NA","515.3538330341689","NA","NA","2","psycho","1024","2","48000","-16","experiment","SSHSS","0","even","52566.60354096675","NA","NA","161004.99062496237","6435.284000006504","NA","NA","165517.87195797078","NA","6552.417957980651","NA","NA","164484.48787501547","165620.61674997676","166137.85770797404","165513.57341598487","165620.522540994","NA","Flanker Task","59","27030.061872152146","71","1024"
"83","83","380","380","#3d3846","psycho","psycho","psycho","congruent","1","undefined","1","h","0","0","0","71","0","71","0","71","0","0","0","0","71","71","71","71","71","0","Fri Sep 15 00:15:27 2023","1500","The main experiment item","True","FlankerTask23.osexp","/Users/keelihatcher/Desktop/Tarleton M.D./Advanced Quantitative Methods & Experimental Design","False","mono","False","18","no","white","no","no","768","psycho","71","71","/Users/keelihatcher/Desktop/Tarleton M.D./Advanced Quantitative Methods & Experimental Design/KH-subject-0.csv","psycho","Melodramatic Milgram","4.0.5","0","h","NA","s","NA","NA","h","363.31812501884997","NA","45992.2303329804","NA","NA","363.31812501884997","NA","NA","2","psycho","1024","2","48000","-16","experiment","HHHHH","0","even","52566.60354096675","NA","NA","161004.99062496237","6435.284000006504","NA","NA","167173.9384579705","NA","6552.417957980651","NA","NA","166140.96304099075","167276.58983296715","167641.7328749667","167169.6517909877","167276.48895798484","NA","Flanker Task","60","27393.379997170996","72","1024"
"82","82","380","380","#3d3846","psycho","psycho","psycho","incongruent","0","undefined","0","s","0","0","0","72","0","72","0","72","0","0","0","0","72","72","72","72","72","0","Fri Sep 15 00:15:27 2023","1500","The main experiment item","True","FlankerTask23.osexp","/Users/keelihatcher/Desktop/Tarleton M.D./Advanced Quantitative Methods & Experimental Design","False","mono","False","18","no","white","no","no","768","psycho","72","72","/Users/keelihatcher/Desktop/Tarleton M.D./Advanced Quantitative Methods & Experimental Design/KH-subject-0.csv","psycho","Melodramatic Milgram","4.0.5","0","h","NA","s","NA","NA","h","379.1065830155276","NA","45992.2303329804","NA","NA","379.1065830155276","NA","NA","2","psycho","1024","2","48000","-16","experiment","HHSHH","0","even","52566.60354096675","NA","NA","161004.99062496237","6435.284000006504","NA","NA","168677.965165989","NA","6552.417957980651","NA","NA","167644.6306660073","168780.8269999805","169161.77283297293","168673.69870800758","168780.71983298287","NA","Flanker Task","60","27772.486580186523","73","1024"
"82","82","379","379","#3d3846","psycho","psycho","psycho","congruent","1","undefined","1","h","0","0","0","73","0","73","0","73","0","0","0","0","73","73","73","73","73","0","Fri Sep 15 00:15:27 2023","1500","The main experiment item","True","FlankerTask23.osexp","/Users/keelihatcher/Desktop/Tarleton M.D./Advanced Quantitative Methods & Experimental Design","False","mono","False","18","no","white","no","no","768","psycho","73","73","/Users/keelihatcher/Desktop/Tarleton M.D./Advanced Quantitative Methods & Experimental Design/KH-subject-0.csv","psycho","Melodramatic Milgram","4.0.5","0","h","NA","s","NA","NA","h","324.41616599680856","NA","45992.2303329804","NA","NA","324.41616599680856","NA","NA","2","psycho","1024","2","48000","-16","experiment","HHHHH","0","even","52566.60354096675","NA","NA","169165.0368749979","6435.284000006504","NA","NA","170700.7636660128","NA","6552.417957980651","NA","NA","169667.55216597812","170803.4722500015","171129.68404096318","170696.46137498785","170803.3617080073","NA","Flanker Task","61","28096.902746183332","74","1024"
"81","81","380","380","#3d3846","psycho","psycho","psycho","incongruent","0","undefined","0","h","0","0","0","74","0","74","0","74","0","0","0","0","74","74","74","74","74","0","Fri Sep 15 00:15:27 2023","1500","The main experiment item","True","FlankerTask23.osexp","/Users/keelihatcher/Desktop/Tarleton M.D./Advanced Quantitative Methods & Experimental Design","False","mono","False","18","no","white","no","no","768","psycho","74","74","/Users/keelihatcher/Desktop/Tarleton M.D./Advanced Quantitative Methods & Experimental Design/KH-subject-0.csv","psycho","Melodramatic Milgram","4.0.5","0","s","NA","s","NA","NA","s","450.9033340145834","NA","45992.2303329804","NA","NA","450.9033340145834","NA","NA","2","psycho","1024","2","48000","-16","experiment","SSHSS","0","even","52566.60354096675","NA","NA","169165.0368749979","6435.284000006504","NA","NA","172166.03716596728","NA","6552.417957980651","NA","NA","171132.69100000616","172268.91929097474","172721.58970800228","172161.72429098515","172268.8228749903","NA","Flanker Task","61","28547.806080197915","75","1024"
"81","81","381","381","#3d3846","psycho","psycho","psycho","congruent","1","undefined","1","s","0","0","0","75","0","75","0","75","0","0","0","0","75","75","75","75","75","0","Fri Sep 15 00:15:27 2023","1500","The main experiment item","True","FlankerTask23.osexp","/Users/keelihatcher/Desktop/Tarleton M.D./Advanced Quantitative Methods & Experimental Design","False","mono","False","18","no","white","no","no","768","psycho","75","75","/Users/keelihatcher/Desktop/Tarleton M.D./Advanced Quantitative Methods & Experimental Design/KH-subject-0.csv","psycho","Melodramatic Milgram","4.0.5","0","s","NA","s","NA","NA","s","412.6212499686517","NA","45992.2303329804","NA","NA","412.6212499686517","NA","NA","2","psycho","1024","2","48000","-16","experiment","SSSSS","0","even","52566.60354096675","NA","NA","172724.86683301395","6435.284000006504","NA","NA","174260.58654097142","NA","6552.417957980651","NA","NA","173227.52404096536","174363.29829099122","174777.69579098094","174256.3029580051","174363.20124997292","NA","Flanker Task","62","28960.427330166567","76","1024"
"80","80","380","380","#3d3846","psycho","psycho","psycho","incongruent","0","undefined","0","s","0","0","0","76","0","76","0","76","0","0","0","0","76","76","76","76","76","0","Fri Sep 15 00:15:27 2023","1500","The main experiment item","True","FlankerTask23.osexp","/Users/keelihatcher/Desktop/Tarleton M.D./Advanced Quantitative Methods & Experimental Design","False","mono","False","18","no","white","no","no","768","psycho","76","76","/Users/keelihatcher/Desktop/Tarleton M.D./Advanced Quantitative Methods & Experimental Design/KH-subject-0.csv","psycho","Melodramatic Milgram","4.0.5","0","h","NA","s","NA","NA","h","306.9550840300508","NA","45992.2303329804","NA","NA","306.9550840300508","NA","NA","2","psycho","1024","2","48000","-16","experiment","HHSHH","0","even","52566.60354096675","NA","NA","172724.86683301395","6435.284000006504","NA","NA","175814.0152079868","NA","6552.417957980651","NA","NA","174780.5499159731","175916.90654098056","176225.7264580112","175809.76095801452","175916.80687497137","NA","Flanker Task","62","29267.382414196618","77","1024"
"80","80","380","380","#3d3846","psycho","psycho","psycho","congruent","1","undefined","1","s","0","0","0","77","0","77","0","77","0","0","0","0","77","77","77","77","77","0","Fri Sep 15 00:15:27 2023","1500","The main experiment item","True","FlankerTask23.osexp","/Users/keelihatcher/Desktop/Tarleton M.D./Advanced Quantitative Methods & Experimental Design","False","mono","False","18","no","white","no","no","768","psycho","77","77","/Users/keelihatcher/Desktop/Tarleton M.D./Advanced Quantitative Methods & Experimental Design/KH-subject-0.csv","psycho","Melodramatic Milgram","4.0.5","0","s","NA","s","NA","NA","s","437.1322499937378","NA","45992.2303329804","NA","NA","437.1322499937378","NA","NA","2","psycho","1024","2","48000","-16","experiment","SSSSS","0","even","52566.60354096675","NA","NA","176228.90783299226","6435.284000006504","NA","NA","177764.00500000454","NA","6552.417957980651","NA","NA","176731.3737499644","177866.70399998548","178305.68841600325","177760.15920797363","177866.60099995788","NA","Flanker Task","63","29704.514664190356","78","1024"
"81","81","382","382","#3d3846","psycho","psycho","psycho","incongruent","1","undefined","1","s","0","0","0","78","0","78","0","78","0","0","0","0","78","78","78","78","78","0","Fri Sep 15 00:15:27 2023","1500","The main experiment item","True","FlankerTask23.osexp","/Users/keelihatcher/Desktop/Tarleton M.D./Advanced Quantitative Methods & Experimental Design","False","mono","False","18","no","white","no","no","768","psycho","78","78","/Users/keelihatcher/Desktop/Tarleton M.D./Advanced Quantitative Methods & Experimental Design/KH-subject-0.csv","psycho","Melodramatic Milgram","4.0.5","0","s","NA","s","NA","NA","s","546.7380420304835","NA","45992.2303329804","NA","NA","546.7380420304835","NA","NA","2","psycho","1024","2","48000","-16","experiment","HHSHH","0","even","52566.60354096675","NA","NA","176228.90783299226","6435.284000006504","NA","NA","179342.44749997742","NA","6552.417957980651","NA","NA","178308.78516600933","179445.15020796098","179993.68095799582","179338.11737498036","179445.04999998026","NA","Flanker Task","64","30251.25270622084","79","1024"
"81","81","382","382","#3d3846","psycho","psycho","psycho","congruent","1","undefined","1","s","0","0","0","79","0","79","0","79","0","0","0","0","79","79","79","79","79","0","Fri Sep 15 00:15:27 2023","1500","The main experiment item","True","FlankerTask23.osexp","/Users/keelihatcher/Desktop/Tarleton M.D./Advanced Quantitative Methods & Experimental Design","False","mono","False","18","no","white","no","no","768","psycho","79","79","/Users/keelihatcher/Desktop/Tarleton M.D./Advanced Quantitative Methods & Experimental Design/KH-subject-0.csv","psycho","Melodramatic Milgram","4.0.5","0","s","NA","s","NA","NA","s","388.30587500706315","NA","45992.2303329804","NA","NA","388.30587500706315","NA","NA","2","psycho","1024","2","48000","-16","experiment","SSSSS","0","even","52566.60354096675","NA","NA","176228.90783299226","6435.284000006504","NA","NA","181029.1150409612","NA","6552.417957980651","NA","NA","179996.37174996315","181131.47670798935","181521.61279099528","181025.318333006","181131.33720797487","NA","Flanker Task","65","30639.558581227902","80","1024"
