acc,accuracy,average_response_time,avg_rt,background,canvas_backend,clock_backend,color_backend,compensation,condition,coordinates,correct,correct_instructions1_1,correct_keyboard_response,correct_response,count_ISI,count_block1,count_block2,count_block3,count_errorFeedback,count_experiment,count_faster,count_finish,count_fixation,count_instructions1,count_instructions1_1,count_instructions2,count_instructions3,count_keyboard_response,count_logger,count_sequence,count_stimulus,datetime,deadline,description,disable_garbage_collection,experiment_file,experiment_path,font_bold,font_family,font_italic,font_size,font_underline,foreground,form_clicks,fullscreen,height,keyboard_backend,live_row,live_row_block1,logfile,mouse_backend,opensesame_codename,opensesame_version,repeat_cycle,response,response_finish,response_instructions1,response_instructions1_1,response_instructions2,response_instructions3,response_keyboard_response,response_time,response_time_finish,response_time_instructions1,response_time_instructions1_1,response_time_instructions2,response_time_instructions3,response_time_keyboard_response,round_decimals,sampler_backend,sound_buf_size,sound_channels,sound_freq,sound_sample_size,start,stimulus,subject_nr,subject_parity,time_ISI,time_block1,time_block2,time_block3,time_errorFeedback,time_experiment,time_faster,time_finish,time_fixation,time_instructions1,time_instructions1_1,time_instructions2,time_instructions3,time_keyboard_response,time_logger,time_sequence,time_stimulus,title,total_correct,total_response_time,total_responses,uniform_coordinates,width
0,0,1501,1501,black,legacy,legacy,legacy,0,incongruent,uniform,0,undefined,0,s,0,0,0,0,0,0,0,0,0,NA,0,0,0,0,0,0,0,9/29/19 15:58,1500,The main experiment item,yes,BR-Flankertask.osexp,C:/Users/Breena Riley/Desktop/2019 Fall/MultQuant/lab 2.1,no,mono,no,18,no,white,no,yes,768,legacy,0,0,C:/Users/Breena Riley/Desktop/2019 Fall/MultQuant/lab 2.1/BR-subject-4.csv,legacy,Kafkaesque Koffka,3.2.8,0,None,NA,NA,s,NA,NA,None,1501,NA,NA,36347,NA,NA,1501,2,legacy,1024,2,48000,-16,experiment,HHSHH,4,even,NA,38796,NA,NA,NA,2444,NA,NA,38921,NA,2449,NA,NA,39022,40523,38918,39022,Flankertask,0,1501,1,yes,1024
50,50,1156,1156,black,legacy,legacy,legacy,0,incongruent,uniform,1,undefined,1,s,1,0,0,0,1,0,1,0,1,NA,0,0,0,1,1,1,1,9/29/19 15:58,1500,The main experiment item,yes,BR-Flankertask.osexp,C:/Users/Breena Riley/Desktop/2019 Fall/MultQuant/lab 2.1,no,mono,no,18,no,white,no,yes,768,legacy,1,1,C:/Users/Breena Riley/Desktop/2019 Fall/MultQuant/lab 2.1/BR-subject-4.csv,legacy,Kafkaesque Koffka,3.2.8,0,s,NA,NA,s,NA,NA,s,811,NA,NA,36347,NA,NA,811,2,legacy,1024,2,48000,-16,experiment,HHSHH,4,even,41538,38796,NA,NA,40535,2444,41036,NA,42612,NA,2449,NA,NA,42715,43527,42609,42714,Flankertask,1,2312,2,yes,1024
66.66666667,66.66666667,950.3333333,950.3333333,black,legacy,legacy,legacy,0,congruent,uniform,1,undefined,1,h,2,0,0,0,2,0,2,0,2,NA,0,0,0,2,2,2,2,9/29/19 15:58,1500,The main experiment item,yes,BR-Flankertask.osexp,C:/Users/Breena Riley/Desktop/2019 Fall/MultQuant/lab 2.1,no,mono,no,18,no,white,no,yes,768,legacy,2,2,C:/Users/Breena Riley/Desktop/2019 Fall/MultQuant/lab 2.1/BR-subject-4.csv,legacy,Kafkaesque Koffka,3.2.8,0,h,NA,NA,s,NA,NA,h,539,NA,NA,36347,NA,NA,539,2,legacy,1024,2,48000,-16,experiment,HHHHH,4,even,43535,38796,NA,NA,40535,2444,41036,NA,44609,NA,2449,NA,NA,44710,45249,44606,44710,Flankertask,2,2851,3,yes,1024
75,75,853.25,853.25,black,legacy,legacy,legacy,0,congruent,uniform,1,undefined,1,s,3,0,0,0,3,0,3,0,3,NA,0,0,0,3,3,3,3,9/29/19 15:58,1500,The main experiment item,yes,BR-Flankertask.osexp,C:/Users/Breena Riley/Desktop/2019 Fall/MultQuant/lab 2.1,no,mono,no,18,no,white,no,yes,768,legacy,3,3,C:/Users/Breena Riley/Desktop/2019 Fall/MultQuant/lab 2.1/BR-subject-4.csv,legacy,Kafkaesque Koffka,3.2.8,0,s,NA,NA,s,NA,NA,s,562,NA,NA,36347,NA,NA,562,2,legacy,1024,2,48000,-16,experiment,SSSSS,4,even,45258,38796,NA,NA,40535,2444,41036,NA,46332,NA,2449,NA,NA,46433,46996,46329,46433,Flankertask,3,3413,4,yes,1024
80,80,807.6,807.6,black,legacy,legacy,legacy,0,incongruent,uniform,1,undefined,1,s,4,0,0,0,4,0,4,0,4,NA,0,0,0,4,4,4,4,9/29/19 15:58,1500,The main experiment item,yes,BR-Flankertask.osexp,C:/Users/Breena Riley/Desktop/2019 Fall/MultQuant/lab 2.1,no,mono,no,18,no,white,no,yes,768,legacy,4,4,C:/Users/Breena Riley/Desktop/2019 Fall/MultQuant/lab 2.1/BR-subject-4.csv,legacy,Kafkaesque Koffka,3.2.8,0,s,NA,NA,s,NA,NA,s,625,NA,NA,36347,NA,NA,625,2,legacy,1024,2,48000,-16,experiment,HHSHH,4,even,47004,38796,NA,NA,40535,2444,41036,NA,48079,NA,2449,NA,NA,48181,48807,48076,48181,Flankertask,4,4038,5,yes,1024
83.33333333,83.33333333,779.1666667,779.1666667,black,legacy,legacy,legacy,0,incongruent,uniform,1,undefined,1,h,5,0,0,0,5,0,5,0,5,NA,0,0,0,5,5,5,5,9/29/19 15:58,1500,The main experiment item,yes,BR-Flankertask.osexp,C:/Users/Breena Riley/Desktop/2019 Fall/MultQuant/lab 2.1,no,mono,no,18,no,white,no,yes,768,legacy,5,5,C:/Users/Breena Riley/Desktop/2019 Fall/MultQuant/lab 2.1/BR-subject-4.csv,legacy,Kafkaesque Koffka,3.2.8,0,h,NA,NA,s,NA,NA,h,637,NA,NA,36347,NA,NA,637,2,legacy,1024,2,48000,-16,experiment,SSHSS,4,even,48815,38796,NA,NA,40535,2444,41036,NA,49891,NA,2449,NA,NA,49993,50631,49888,49992,Flankertask,5,4675,6,yes,1024
85.71428571,85.71428571,746.2857143,746.2857143,black,legacy,legacy,legacy,0,congruent,uniform,1,undefined,1,h,6,0,0,0,6,0,6,0,6,NA,0,0,0,6,6,6,6,9/29/19 15:58,1500,The main experiment item,yes,BR-Flankertask.osexp,C:/Users/Breena Riley/Desktop/2019 Fall/MultQuant/lab 2.1,no,mono,no,18,no,white,no,yes,768,legacy,6,6,C:/Users/Breena Riley/Desktop/2019 Fall/MultQuant/lab 2.1/BR-subject-4.csv,legacy,Kafkaesque Koffka,3.2.8,0,h,NA,NA,s,NA,NA,h,549,NA,NA,36347,NA,NA,549,2,legacy,1024,2,48000,-16,experiment,HHHHH,4,even,50640,38796,NA,NA,40535,2444,41036,NA,51714,NA,2449,NA,NA,51815,52365,51711,51815,Flankertask,6,5224,7,yes,1024
87.5,87.5,713.5,713.5,black,legacy,legacy,legacy,0,congruent,uniform,1,undefined,1,s,7,0,0,0,7,0,7,0,7,NA,0,0,0,7,7,7,7,9/29/19 15:58,1500,The main experiment item,yes,BR-Flankertask.osexp,C:/Users/Breena Riley/Desktop/2019 Fall/MultQuant/lab 2.1,no,mono,no,18,no,white,no,yes,768,legacy,7,7,C:/Users/Breena Riley/Desktop/2019 Fall/MultQuant/lab 2.1/BR-subject-4.csv,legacy,Kafkaesque Koffka,3.2.8,0,s,NA,NA,s,NA,NA,s,484,NA,NA,36347,NA,NA,484,2,legacy,1024,2,48000,-16,experiment,SSSSS,4,even,52373,38796,NA,NA,40535,2444,41036,NA,53449,NA,2449,NA,NA,53550,54034,53447,53550,Flankertask,7,5708,8,yes,1024
88.88888889,88.88888889,699.1111111,699.1111111,black,legacy,legacy,legacy,0,incongruent,uniform,1,undefined,1,h,8,0,0,0,8,0,8,0,8,NA,0,0,0,8,8,8,8,9/29/19 15:58,1500,The main experiment item,yes,BR-Flankertask.osexp,C:/Users/Breena Riley/Desktop/2019 Fall/MultQuant/lab 2.1,no,mono,no,18,no,white,no,yes,768,legacy,8,8,C:/Users/Breena Riley/Desktop/2019 Fall/MultQuant/lab 2.1/BR-subject-4.csv,legacy,Kafkaesque Koffka,3.2.8,0,h,NA,NA,s,NA,NA,h,584,NA,NA,36347,NA,NA,584,2,legacy,1024,2,48000,-16,experiment,SSHSS,4,even,54043,38796,NA,NA,40535,2444,41036,NA,55118,NA,2449,NA,NA,55219,55803,55115,55219,Flankertask,8,6292,9,yes,1024
90,90,683.9,683.9,black,legacy,legacy,legacy,0,congruent,uniform,1,undefined,1,h,9,0,0,0,9,0,9,0,9,NA,0,0,0,9,9,9,9,9/29/19 15:58,1500,The main experiment item,yes,BR-Flankertask.osexp,C:/Users/Breena Riley/Desktop/2019 Fall/MultQuant/lab 2.1,no,mono,no,18,no,white,no,yes,768,legacy,9,9,C:/Users/Breena Riley/Desktop/2019 Fall/MultQuant/lab 2.1/BR-subject-4.csv,legacy,Kafkaesque Koffka,3.2.8,0,h,NA,NA,s,NA,NA,h,547,NA,NA,36347,NA,NA,547,2,legacy,1024,2,48000,-16,experiment,HHHHH,4,even,55812,38796,NA,NA,40535,2444,41036,NA,56885,NA,2449,NA,NA,56987,57535,56883,56987,Flankertask,9,6839,10,yes,1024
90.90909091,90.90909091,668.2727273,668.2727273,black,legacy,legacy,legacy,0,congruent,uniform,1,undefined,1,h,10,0,0,0,10,0,10,0,10,NA,0,0,0,10,10,10,10,9/29/19 15:58,1500,The main experiment item,yes,BR-Flankertask.osexp,C:/Users/Breena Riley/Desktop/2019 Fall/MultQuant/lab 2.1,no,mono,no,18,no,white,no,yes,768,legacy,10,10,C:/Users/Breena Riley/Desktop/2019 Fall/MultQuant/lab 2.1/BR-subject-4.csv,legacy,Kafkaesque Koffka,3.2.8,0,h,NA,NA,s,NA,NA,h,512,NA,NA,36347,NA,NA,512,2,legacy,1024,2,48000,-16,experiment,HHHHH,4,even,57543,38796,NA,NA,40535,2444,41036,NA,58619,NA,2449,NA,NA,58720,59233,58616,58720,Flankertask,10,7351,11,yes,1024
91.66666667,91.66666667,651.9166667,651.9166667,black,legacy,legacy,legacy,0,congruent,uniform,1,undefined,1,h,11,0,0,0,11,0,11,0,11,NA,0,0,0,11,11,11,11,9/29/19 15:58,1500,The main experiment item,yes,BR-Flankertask.osexp,C:/Users/Breena Riley/Desktop/2019 Fall/MultQuant/lab 2.1,no,mono,no,18,no,white,no,yes,768,legacy,11,11,C:/Users/Breena Riley/Desktop/2019 Fall/MultQuant/lab 2.1/BR-subject-4.csv,legacy,Kafkaesque Koffka,3.2.8,0,h,NA,NA,s,NA,NA,h,472,NA,NA,36347,NA,NA,472,2,legacy,1024,2,48000,-16,experiment,HHHHH,4,even,59242,38796,NA,NA,40535,2444,41036,NA,60319,NA,2449,NA,NA,60422,60895,60317,60421,Flankertask,11,7823,12,yes,1024
92.30769231,92.30769231,637.9230769,637.9230769,black,legacy,legacy,legacy,0,congruent,uniform,1,undefined,1,h,12,0,0,0,12,0,12,0,12,NA,0,0,0,12,12,12,12,9/29/19 15:58,1500,The main experiment item,yes,BR-Flankertask.osexp,C:/Users/Breena Riley/Desktop/2019 Fall/MultQuant/lab 2.1,no,mono,no,18,no,white,no,yes,768,legacy,12,12,C:/Users/Breena Riley/Desktop/2019 Fall/MultQuant/lab 2.1/BR-subject-4.csv,legacy,Kafkaesque Koffka,3.2.8,0,h,NA,NA,s,NA,NA,h,470,NA,NA,36347,NA,NA,470,2,legacy,1024,2,48000,-16,experiment,HHHHH,4,even,60903,38796,NA,NA,40535,2444,41036,NA,61978,NA,2449,NA,NA,62079,62549,61976,62079,Flankertask,12,8293,13,yes,1024
92.85714286,92.85714286,637.5714286,637.5714286,black,legacy,legacy,legacy,0,congruent,uniform,1,undefined,1,s,13,0,0,0,13,0,13,0,13,NA,0,0,0,13,13,13,13,9/29/19 15:58,1500,The main experiment item,yes,BR-Flankertask.osexp,C:/Users/Breena Riley/Desktop/2019 Fall/MultQuant/lab 2.1,no,mono,no,18,no,white,no,yes,768,legacy,13,13,C:/Users/Breena Riley/Desktop/2019 Fall/MultQuant/lab 2.1/BR-subject-4.csv,legacy,Kafkaesque Koffka,3.2.8,0,s,NA,NA,s,NA,NA,s,633,NA,NA,36347,NA,NA,633,2,legacy,1024,2,48000,-16,experiment,SSSSS,4,even,62557,38796,NA,NA,40535,2444,41036,NA,63630,NA,2449,NA,NA,63732,64366,63627,63731,Flankertask,13,8926,14,yes,1024
93.33333333,93.33333333,627.2,627.2,black,legacy,legacy,legacy,0,congruent,uniform,1,undefined,1,s,14,0,0,0,14,0,14,0,14,NA,0,0,0,14,14,14,14,9/29/19 15:58,1500,The main experiment item,yes,BR-Flankertask.osexp,C:/Users/Breena Riley/Desktop/2019 Fall/MultQuant/lab 2.1,no,mono,no,18,no,white,no,yes,768,legacy,14,14,C:/Users/Breena Riley/Desktop/2019 Fall/MultQuant/lab 2.1/BR-subject-4.csv,legacy,Kafkaesque Koffka,3.2.8,0,s,NA,NA,s,NA,NA,s,482,NA,NA,36347,NA,NA,482,2,legacy,1024,2,48000,-16,experiment,SSSSS,4,even,64374,38796,NA,NA,40535,2444,41036,NA,65449,NA,2449,NA,NA,65550,66033,65446,65550,Flankertask,14,9408,15,yes,1024
93.75,93.75,622,622,black,legacy,legacy,legacy,0,congruent,uniform,1,undefined,1,h,15,0,0,0,15,0,15,0,15,NA,0,0,0,15,15,15,15,9/29/19 15:58,1500,The main experiment item,yes,BR-Flankertask.osexp,C:/Users/Breena Riley/Desktop/2019 Fall/MultQuant/lab 2.1,no,mono,no,18,no,white,no,yes,768,legacy,15,15,C:/Users/Breena Riley/Desktop/2019 Fall/MultQuant/lab 2.1/BR-subject-4.csv,legacy,Kafkaesque Koffka,3.2.8,0,h,NA,NA,s,NA,NA,h,544,NA,NA,36347,NA,NA,544,2,legacy,1024,2,48000,-16,experiment,HHHHH,4,even,66041,38796,NA,NA,40535,2444,41036,NA,67114,NA,2449,NA,NA,67215,67760,67111,67215,Flankertask,15,9952,16,yes,1024
94.11764706,94.11764706,625.5294118,625.5294118,black,legacy,legacy,legacy,0,incongruent,uniform,1,undefined,1,h,16,0,0,0,16,0,16,0,16,NA,0,0,0,16,16,16,16,9/29/19 15:58,1500,The main experiment item,yes,BR-Flankertask.osexp,C:/Users/Breena Riley/Desktop/2019 Fall/MultQuant/lab 2.1,no,mono,no,18,no,white,no,yes,768,legacy,16,16,C:/Users/Breena Riley/Desktop/2019 Fall/MultQuant/lab 2.1/BR-subject-4.csv,legacy,Kafkaesque Koffka,3.2.8,0,h,NA,NA,s,NA,NA,h,682,NA,NA,36347,NA,NA,682,2,legacy,1024,2,48000,-16,experiment,SSHSS,4,even,67768,38796,NA,NA,40535,2444,41036,NA,68840,NA,2449,NA,NA,68942,69624,68838,68941,Flankertask,16,10634,17,yes,1024
88.88888889,88.88888889,623.2777778,623.2777778,black,legacy,legacy,legacy,0,incongruent,uniform,0,undefined,0,s,17,0,0,0,17,0,17,0,17,NA,0,0,0,17,17,17,17,9/29/19 15:58,1500,The main experiment item,yes,BR-Flankertask.osexp,C:/Users/Breena Riley/Desktop/2019 Fall/MultQuant/lab 2.1,no,mono,no,18,no,white,no,yes,768,legacy,17,17,C:/Users/Breena Riley/Desktop/2019 Fall/MultQuant/lab 2.1/BR-subject-4.csv,legacy,Kafkaesque Koffka,3.2.8,0,h,NA,NA,s,NA,NA,h,585,NA,NA,36347,NA,NA,585,2,legacy,1024,2,48000,-16,experiment,HHSHH,4,even,69633,38796,NA,NA,40535,2444,41036,NA,70714,NA,2449,NA,NA,70815,71400,70711,70815,Flankertask,16,11219,18,yes,1024
89.47368421,89.47368421,625.7894737,625.7894737,black,legacy,legacy,legacy,0,incongruent,uniform,1,undefined,1,h,18,0,0,0,18,0,18,0,18,NA,0,0,0,18,18,18,18,9/29/19 15:58,1500,The main experiment item,yes,BR-Flankertask.osexp,C:/Users/Breena Riley/Desktop/2019 Fall/MultQuant/lab 2.1,no,mono,no,18,no,white,no,yes,768,legacy,18,18,C:/Users/Breena Riley/Desktop/2019 Fall/MultQuant/lab 2.1/BR-subject-4.csv,legacy,Kafkaesque Koffka,3.2.8,0,h,NA,NA,s,NA,NA,h,671,NA,NA,36347,NA,NA,671,2,legacy,1024,2,48000,-16,experiment,SSHSS,4,even,71912,38796,NA,NA,71411,2444,41036,NA,72987,NA,2449,NA,NA,73088,73760,72985,73088,Flankertask,17,11890,19,yes,1024
90,90,619.8,619.8,black,legacy,legacy,legacy,0,congruent,uniform,1,undefined,1,s,19,0,0,0,19,0,19,0,19,NA,0,0,0,19,19,19,19,9/29/19 15:58,1500,The main experiment item,yes,BR-Flankertask.osexp,C:/Users/Breena Riley/Desktop/2019 Fall/MultQuant/lab 2.1,no,mono,no,18,no,white,no,yes,768,legacy,19,19,C:/Users/Breena Riley/Desktop/2019 Fall/MultQuant/lab 2.1/BR-subject-4.csv,legacy,Kafkaesque Koffka,3.2.8,0,s,NA,NA,s,NA,NA,s,506,NA,NA,36347,NA,NA,506,2,legacy,1024,2,48000,-16,experiment,SSSSS,4,even,73768,38796,NA,NA,71411,2444,41036,NA,74841,NA,2449,NA,NA,74943,75450,74838,74942,Flankertask,18,12396,20,yes,1024
90.47619048,90.47619048,621.2857143,621.2857143,black,legacy,legacy,legacy,0,incongruent,uniform,1,undefined,1,h,20,0,0,0,20,0,20,0,20,NA,0,0,0,20,20,20,20,9/29/19 15:58,1500,The main experiment item,yes,BR-Flankertask.osexp,C:/Users/Breena Riley/Desktop/2019 Fall/MultQuant/lab 2.1,no,mono,no,18,no,white,no,yes,768,legacy,20,20,C:/Users/Breena Riley/Desktop/2019 Fall/MultQuant/lab 2.1/BR-subject-4.csv,legacy,Kafkaesque Koffka,3.2.8,0,h,NA,NA,s,NA,NA,h,651,NA,NA,36347,NA,NA,651,2,legacy,1024,2,48000,-16,experiment,SSHSS,4,even,75458,38796,NA,NA,71411,2444,41036,NA,76532,NA,2449,NA,NA,76634,77285,76529,76633,Flankertask,19,13047,21,yes,1024
90.90909091,90.90909091,619.5,619.5,black,legacy,legacy,legacy,0,incongruent,uniform,1,undefined,1,s,21,0,0,0,21,0,21,0,21,NA,0,0,0,21,21,21,21,9/29/19 15:58,1500,The main experiment item,yes,BR-Flankertask.osexp,C:/Users/Breena Riley/Desktop/2019 Fall/MultQuant/lab 2.1,no,mono,no,18,no,white,no,yes,768,legacy,21,21,C:/Users/Breena Riley/Desktop/2019 Fall/MultQuant/lab 2.1/BR-subject-4.csv,legacy,Kafkaesque Koffka,3.2.8,0,s,NA,NA,s,NA,NA,s,582,NA,NA,36347,NA,NA,582,2,legacy,1024,2,48000,-16,experiment,HHSHH,4,even,77294,38796,NA,NA,71411,2444,41036,NA,78371,NA,2449,NA,NA,78472,79055,78369,78472,Flankertask,20,13629,22,yes,1024
91.30434783,91.30434783,617.826087,617.826087,black,legacy,legacy,legacy,0,incongruent,uniform,1,undefined,1,s,22,0,0,0,22,0,22,0,22,NA,0,0,0,22,22,22,22,9/29/19 15:58,1500,The main experiment item,yes,BR-Flankertask.osexp,C:/Users/Breena Riley/Desktop/2019 Fall/MultQuant/lab 2.1,no,mono,no,18,no,white,no,yes,768,legacy,22,22,C:/Users/Breena Riley/Desktop/2019 Fall/MultQuant/lab 2.1/BR-subject-4.csv,legacy,Kafkaesque Koffka,3.2.8,0,s,NA,NA,s,NA,NA,s,581,NA,NA,36347,NA,NA,581,2,legacy,1024,2,48000,-16,experiment,HHSHH,4,even,79063,38796,NA,NA,71411,2444,41036,NA,80139,NA,2449,NA,NA,80241,80823,80136,80241,Flankertask,21,14210,23,yes,1024
91.66666667,91.66666667,615.875,615.875,black,legacy,legacy,legacy,0,incongruent,uniform,1,undefined,1,h,23,0,0,0,23,0,23,0,23,NA,0,0,0,23,23,23,23,9/29/19 15:58,1500,The main experiment item,yes,BR-Flankertask.osexp,C:/Users/Breena Riley/Desktop/2019 Fall/MultQuant/lab 2.1,no,mono,no,18,no,white,no,yes,768,legacy,23,23,C:/Users/Breena Riley/Desktop/2019 Fall/MultQuant/lab 2.1/BR-subject-4.csv,legacy,Kafkaesque Koffka,3.2.8,0,h,NA,NA,s,NA,NA,h,571,NA,NA,36347,NA,NA,571,2,legacy,1024,2,48000,-16,experiment,SSHSS,4,even,80831,38796,NA,NA,71411,2444,41036,NA,81904,NA,2449,NA,NA,82005,82576,81902,82005,Flankertask,22,14781,24,yes,1024
92,92,618.08,618.08,black,legacy,legacy,legacy,0,incongruent,uniform,1,undefined,1,h,24,0,0,0,24,0,24,0,24,NA,0,0,0,24,24,24,24,9/29/19 15:58,1500,The main experiment item,yes,BR-Flankertask.osexp,C:/Users/Breena Riley/Desktop/2019 Fall/MultQuant/lab 2.1,no,mono,no,18,no,white,no,yes,768,legacy,24,24,C:/Users/Breena Riley/Desktop/2019 Fall/MultQuant/lab 2.1/BR-subject-4.csv,legacy,Kafkaesque Koffka,3.2.8,0,h,NA,NA,s,NA,NA,h,671,NA,NA,36347,NA,NA,671,2,legacy,1024,2,48000,-16,experiment,SSHSS,4,even,82585,38796,NA,NA,71411,2444,41036,NA,83662,NA,2449,NA,NA,83764,84435,83659,83763,Flankertask,23,15452,25,yes,1024
92.30769231,92.30769231,616.4230769,616.4230769,black,legacy,legacy,legacy,0,incongruent,uniform,1,undefined,1,s,25,0,0,0,25,0,25,0,25,NA,0,0,0,25,25,25,25,9/29/19 15:58,1500,The main experiment item,yes,BR-Flankertask.osexp,C:/Users/Breena Riley/Desktop/2019 Fall/MultQuant/lab 2.1,no,mono,no,18,no,white,no,yes,768,legacy,25,25,C:/Users/Breena Riley/Desktop/2019 Fall/MultQuant/lab 2.1/BR-subject-4.csv,legacy,Kafkaesque Koffka,3.2.8,0,s,NA,NA,s,NA,NA,s,575,NA,NA,36347,NA,NA,575,2,legacy,1024,2,48000,-16,experiment,HHSHH,4,even,84444,38796,NA,NA,71411,2444,41036,NA,85519,NA,2449,NA,NA,85620,86196,85516,85620,Flankertask,24,16027,26,yes,1024
92.59259259,92.59259259,615.1481481,615.1481481,black,legacy,legacy,legacy,0,congruent,uniform,1,undefined,1,s,26,0,0,0,26,0,26,0,26,NA,0,0,0,26,26,26,26,9/29/19 15:58,1500,The main experiment item,yes,BR-Flankertask.osexp,C:/Users/Breena Riley/Desktop/2019 Fall/MultQuant/lab 2.1,no,mono,no,18,no,white,no,yes,768,legacy,26,26,C:/Users/Breena Riley/Desktop/2019 Fall/MultQuant/lab 2.1/BR-subject-4.csv,legacy,Kafkaesque Koffka,3.2.8,0,s,NA,NA,s,NA,NA,s,582,NA,NA,36347,NA,NA,582,2,legacy,1024,2,48000,-16,experiment,SSSSS,4,even,86204,38796,NA,NA,71411,2444,41036,NA,87283,NA,2449,NA,NA,87384,87967,87281,87384,Flankertask,25,16609,27,yes,1024
92.85714286,92.85714286,614.75,614.75,black,legacy,legacy,legacy,0,incongruent,uniform,1,undefined,1,h,27,0,0,0,27,0,27,0,27,NA,0,0,0,27,27,27,27,9/29/19 15:58,1500,The main experiment item,yes,BR-Flankertask.osexp,C:/Users/Breena Riley/Desktop/2019 Fall/MultQuant/lab 2.1,no,mono,no,18,no,white,no,yes,768,legacy,27,27,C:/Users/Breena Riley/Desktop/2019 Fall/MultQuant/lab 2.1/BR-subject-4.csv,legacy,Kafkaesque Koffka,3.2.8,0,h,NA,NA,s,NA,NA,h,604,NA,NA,36347,NA,NA,604,2,legacy,1024,2,48000,-16,experiment,SSHSS,4,even,87975,38796,NA,NA,71411,2444,41036,NA,89051,NA,2449,NA,NA,89153,89758,89049,89152,Flankertask,26,17213,28,yes,1024
93.10344828,93.10344828,614.7931034,614.7931034,black,legacy,legacy,legacy,0,incongruent,uniform,1,undefined,1,h,28,0,0,0,28,0,28,0,28,NA,0,0,0,28,28,28,28,9/29/19 15:58,1500,The main experiment item,yes,BR-Flankertask.osexp,C:/Users/Breena Riley/Desktop/2019 Fall/MultQuant/lab 2.1,no,mono,no,18,no,white,no,yes,768,legacy,28,28,C:/Users/Breena Riley/Desktop/2019 Fall/MultQuant/lab 2.1/BR-subject-4.csv,legacy,Kafkaesque Koffka,3.2.8,0,h,NA,NA,s,NA,NA,h,616,NA,NA,36347,NA,NA,616,2,legacy,1024,2,48000,-16,experiment,SSHSS,4,even,89766,38796,NA,NA,71411,2444,41036,NA,90840,NA,2449,NA,NA,90941,91558,90838,90941,Flankertask,27,17829,29,yes,1024
93.33333333,93.33333333,614.9,614.9,black,legacy,legacy,legacy,0,incongruent,uniform,1,undefined,1,s,29,0,0,0,29,0,29,0,29,NA,0,0,0,29,29,29,29,9/29/19 15:58,1500,The main experiment item,yes,BR-Flankertask.osexp,C:/Users/Breena Riley/Desktop/2019 Fall/MultQuant/lab 2.1,no,mono,no,18,no,white,no,yes,768,legacy,29,29,C:/Users/Breena Riley/Desktop/2019 Fall/MultQuant/lab 2.1/BR-subject-4.csv,legacy,Kafkaesque Koffka,3.2.8,0,s,NA,NA,s,NA,NA,s,618,NA,NA,36347,NA,NA,618,2,legacy,1024,2,48000,-16,experiment,HHSHH,4,even,91566,38796,NA,NA,71411,2444,41036,NA,92637,NA,2449,NA,NA,92739,93357,92634,92739,Flankertask,28,18447,30,yes,1024
93.5483871,93.5483871,614,614,black,legacy,legacy,legacy,0,incongruent,uniform,1,undefined,1,s,30,0,0,0,30,0,30,0,30,NA,0,0,0,30,30,30,30,9/29/19 15:58,1500,The main experiment item,yes,BR-Flankertask.osexp,C:/Users/Breena Riley/Desktop/2019 Fall/MultQuant/lab 2.1,no,mono,no,18,no,white,no,yes,768,legacy,30,30,C:/Users/Breena Riley/Desktop/2019 Fall/MultQuant/lab 2.1/BR-subject-4.csv,legacy,Kafkaesque Koffka,3.2.8,0,s,NA,NA,s,NA,NA,s,587,NA,NA,36347,NA,NA,587,2,legacy,1024,2,48000,-16,experiment,HHSHH,4,even,93362,38796,NA,NA,71411,2444,41036,NA,94452,NA,2449,NA,NA,94554,95142,94449,94553,Flankertask,29,19034,31,yes,1024
93.75,93.75,610.90625,610.90625,black,legacy,legacy,legacy,0,congruent,uniform,1,undefined,1,s,31,0,0,0,31,0,31,0,31,NA,0,0,0,31,31,31,31,9/29/19 15:58,1500,The main experiment item,yes,BR-Flankertask.osexp,C:/Users/Breena Riley/Desktop/2019 Fall/MultQuant/lab 2.1,no,mono,no,18,no,white,no,yes,768,legacy,31,31,C:/Users/Breena Riley/Desktop/2019 Fall/MultQuant/lab 2.1/BR-subject-4.csv,legacy,Kafkaesque Koffka,3.2.8,0,s,NA,NA,s,NA,NA,s,515,NA,NA,36347,NA,NA,515,2,legacy,1024,2,48000,-16,experiment,SSSSS,4,even,95151,38796,NA,NA,71411,2444,41036,NA,96225,NA,2449,NA,NA,96326,96841,96222,96326,Flankertask,30,19549,32,yes,1024
93.93939394,93.93939394,608.8484848,608.8484848,black,legacy,legacy,legacy,0,congruent,uniform,1,undefined,1,s,32,0,0,0,32,0,32,0,32,NA,0,0,0,32,32,32,32,9/29/19 15:58,1500,The main experiment item,yes,BR-Flankertask.osexp,C:/Users/Breena Riley/Desktop/2019 Fall/MultQuant/lab 2.1,no,mono,no,18,no,white,no,yes,768,legacy,32,32,C:/Users/Breena Riley/Desktop/2019 Fall/MultQuant/lab 2.1/BR-subject-4.csv,legacy,Kafkaesque Koffka,3.2.8,0,s,NA,NA,s,NA,NA,s,543,NA,NA,36347,NA,NA,543,2,legacy,1024,2,48000,-16,experiment,SSSSS,4,even,96846,38796,NA,NA,71411,2444,41036,NA,97920,NA,2449,NA,NA,98021,98565,97917,98021,Flankertask,31,20092,33,yes,1024
94.11764706,94.11764706,605.5294118,605.5294118,black,legacy,legacy,legacy,0,congruent,uniform,1,undefined,1,s,33,0,0,0,33,0,33,0,33,NA,0,0,0,33,33,33,33,9/29/19 15:58,1500,The main experiment item,yes,BR-Flankertask.osexp,C:/Users/Breena Riley/Desktop/2019 Fall/MultQuant/lab 2.1,no,mono,no,18,no,white,no,yes,768,legacy,33,33,C:/Users/Breena Riley/Desktop/2019 Fall/MultQuant/lab 2.1/BR-subject-4.csv,legacy,Kafkaesque Koffka,3.2.8,0,s,NA,NA,s,NA,NA,s,496,NA,NA,36347,NA,NA,496,2,legacy,1024,2,48000,-16,experiment,SSSSS,4,even,98574,38796,NA,NA,71411,2444,41036,NA,99650,NA,2449,NA,NA,99751,100248,99647,99751,Flankertask,32,20588,34,yes,1024
94.28571429,94.28571429,604.7428571,604.7428571,black,legacy,legacy,legacy,0,congruent,uniform,1,undefined,1,h,34,0,0,0,34,0,34,0,34,NA,0,0,0,34,34,34,34,9/29/19 15:58,1500,The main experiment item,yes,BR-Flankertask.osexp,C:/Users/Breena Riley/Desktop/2019 Fall/MultQuant/lab 2.1,no,mono,no,18,no,white,no,yes,768,legacy,34,34,C:/Users/Breena Riley/Desktop/2019 Fall/MultQuant/lab 2.1/BR-subject-4.csv,legacy,Kafkaesque Koffka,3.2.8,0,h,NA,NA,s,NA,NA,h,578,NA,NA,36347,NA,NA,578,2,legacy,1024,2,48000,-16,experiment,HHHHH,4,even,100255,38796,NA,NA,71411,2444,41036,NA,101329,NA,2449,NA,NA,101430,102008,101327,101430,Flankertask,33,21166,35,yes,1024
94.44444444,94.44444444,602.5555556,602.5555556,black,legacy,legacy,legacy,0,congruent,uniform,1,undefined,1,h,35,0,0,0,35,0,35,0,35,NA,0,0,0,35,35,35,35,9/29/19 15:58,1500,The main experiment item,yes,BR-Flankertask.osexp,C:/Users/Breena Riley/Desktop/2019 Fall/MultQuant/lab 2.1,no,mono,no,18,no,white,no,yes,768,legacy,35,35,C:/Users/Breena Riley/Desktop/2019 Fall/MultQuant/lab 2.1/BR-subject-4.csv,legacy,Kafkaesque Koffka,3.2.8,0,h,NA,NA,s,NA,NA,h,526,NA,NA,36347,NA,NA,526,2,legacy,1024,2,48000,-16,experiment,HHHHH,4,even,102016,38796,NA,NA,71411,2444,41036,NA,103091,NA,2449,NA,NA,103193,103719,103088,103193,Flankertask,34,21692,36,yes,1024
94.59459459,94.59459459,599.4864865,599.4864865,black,legacy,legacy,legacy,0,congruent,uniform,1,undefined,1,s,36,0,0,0,36,0,36,0,36,NA,0,0,0,36,36,36,36,9/29/19 15:58,1500,The main experiment item,yes,BR-Flankertask.osexp,C:/Users/Breena Riley/Desktop/2019 Fall/MultQuant/lab 2.1,no,mono,no,18,no,white,no,yes,768,legacy,36,36,C:/Users/Breena Riley/Desktop/2019 Fall/MultQuant/lab 2.1/BR-subject-4.csv,legacy,Kafkaesque Koffka,3.2.8,0,s,NA,NA,s,NA,NA,s,489,NA,NA,36347,NA,NA,489,2,legacy,1024,2,48000,-16,experiment,SSSSS,4,even,103728,38796,NA,NA,71411,2444,41036,NA,104803,NA,2449,NA,NA,104905,105395,104800,104904,Flankertask,35,22181,37,yes,1024
94.73684211,94.73684211,598.1052632,598.1052632,black,legacy,legacy,legacy,0,incongruent,uniform,1,undefined,1,h,37,0,0,0,37,0,37,0,37,NA,0,0,0,37,37,37,37,9/29/19 15:58,1500,The main experiment item,yes,BR-Flankertask.osexp,C:/Users/Breena Riley/Desktop/2019 Fall/MultQuant/lab 2.1,no,mono,no,18,no,white,no,yes,768,legacy,37,37,C:/Users/Breena Riley/Desktop/2019 Fall/MultQuant/lab 2.1/BR-subject-4.csv,legacy,Kafkaesque Koffka,3.2.8,0,h,NA,NA,s,NA,NA,h,547,NA,NA,36347,NA,NA,547,2,legacy,1024,2,48000,-16,experiment,SSHSS,4,even,105403,38796,NA,NA,71411,2444,41036,NA,106477,NA,2449,NA,NA,106578,107126,106474,106578,Flankertask,36,22728,38,yes,1024
94.87179487,94.87179487,596.3076923,596.3076923,black,legacy,legacy,legacy,0,congruent,uniform,1,undefined,1,h,38,0,0,0,38,0,38,0,38,NA,0,0,0,38,38,38,38,9/29/19 15:58,1500,The main experiment item,yes,BR-Flankertask.osexp,C:/Users/Breena Riley/Desktop/2019 Fall/MultQuant/lab 2.1,no,mono,no,18,no,white,no,yes,768,legacy,38,38,C:/Users/Breena Riley/Desktop/2019 Fall/MultQuant/lab 2.1/BR-subject-4.csv,legacy,Kafkaesque Koffka,3.2.8,0,h,NA,NA,s,NA,NA,h,528,NA,NA,36347,NA,NA,528,2,legacy,1024,2,48000,-16,experiment,HHHHH,4,even,107134,38796,NA,NA,71411,2444,41036,NA,108210,NA,2449,NA,NA,108312,108841,108207,108312,Flankertask,37,23256,39,yes,1024
95,95,593.75,593.75,black,legacy,legacy,legacy,0,incongruent,uniform,1,undefined,1,s,39,0,0,0,39,0,39,0,39,NA,0,0,0,39,39,39,39,9/29/19 15:58,1500,The main experiment item,yes,BR-Flankertask.osexp,C:/Users/Breena Riley/Desktop/2019 Fall/MultQuant/lab 2.1,no,mono,no,18,no,white,no,yes,768,legacy,39,39,C:/Users/Breena Riley/Desktop/2019 Fall/MultQuant/lab 2.1/BR-subject-4.csv,legacy,Kafkaesque Koffka,3.2.8,0,s,NA,NA,s,NA,NA,s,494,NA,NA,36347,NA,NA,494,2,legacy,1024,2,48000,-16,experiment,HHSHH,4,even,108850,38796,NA,NA,71411,2444,41036,NA,109924,NA,2449,NA,NA,110026,110521,109920,110026,Flankertask,38,23750,40,yes,1024
95.12195122,95.12195122,592.5365854,592.5365854,black,legacy,legacy,legacy,0,congruent,uniform,1,undefined,1,s,40,0,0,0,40,0,40,0,40,NA,0,0,0,40,40,40,40,9/29/19 15:58,1500,The main experiment item,yes,BR-Flankertask.osexp,C:/Users/Breena Riley/Desktop/2019 Fall/MultQuant/lab 2.1,no,mono,no,18,no,white,no,yes,768,legacy,40,40,C:/Users/Breena Riley/Desktop/2019 Fall/MultQuant/lab 2.1/BR-subject-4.csv,legacy,Kafkaesque Koffka,3.2.8,0,s,NA,NA,s,NA,NA,s,544,NA,NA,36347,NA,NA,544,2,legacy,1024,2,48000,-16,experiment,SSSSS,4,even,110529,38796,NA,NA,71411,2444,41036,NA,111604,NA,2449,NA,NA,111705,112250,111601,111705,Flankertask,39,24294,41,yes,1024
95.23809524,95.23809524,591.547619,591.547619,black,legacy,legacy,legacy,0,incongruent,uniform,1,undefined,1,s,41,0,0,0,41,0,41,0,41,NA,0,0,0,41,41,41,41,9/29/19 15:58,1500,The main experiment item,yes,BR-Flankertask.osexp,C:/Users/Breena Riley/Desktop/2019 Fall/MultQuant/lab 2.1,no,mono,no,18,no,white,no,yes,768,legacy,41,41,C:/Users/Breena Riley/Desktop/2019 Fall/MultQuant/lab 2.1/BR-subject-4.csv,legacy,Kafkaesque Koffka,3.2.8,0,s,NA,NA,s,NA,NA,s,551,NA,NA,36347,NA,NA,551,2,legacy,1024,2,48000,-16,experiment,HHSHH,4,even,112259,38796,NA,NA,71411,2444,41036,NA,113334,NA,2449,NA,NA,113435,113987,113331,113435,Flankertask,40,24845,42,yes,1024
95.34883721,95.34883721,590.8604651,590.8604651,black,legacy,legacy,legacy,0,congruent,uniform,1,undefined,1,s,42,0,0,0,42,0,42,0,42,NA,0,0,0,42,42,42,42,9/29/19 15:58,1500,The main experiment item,yes,BR-Flankertask.osexp,C:/Users/Breena Riley/Desktop/2019 Fall/MultQuant/lab 2.1,no,mono,no,18,no,white,no,yes,768,legacy,42,42,C:/Users/Breena Riley/Desktop/2019 Fall/MultQuant/lab 2.1/BR-subject-4.csv,legacy,Kafkaesque Koffka,3.2.8,0,s,NA,NA,s,NA,NA,s,562,NA,NA,36347,NA,NA,562,2,legacy,1024,2,48000,-16,experiment,SSSSS,4,even,113994,38796,NA,NA,71411,2444,41036,NA,115067,NA,2449,NA,NA,115168,115731,115065,115168,Flankertask,41,25407,43,yes,1024
95.45454545,95.45454545,594.1818182,594.1818182,black,legacy,legacy,legacy,0,incongruent,uniform,1,undefined,1,s,43,0,0,0,43,0,43,0,43,NA,0,0,0,43,43,43,43,9/29/19 15:58,1500,The main experiment item,yes,BR-Flankertask.osexp,C:/Users/Breena Riley/Desktop/2019 Fall/MultQuant/lab 2.1,no,mono,no,18,no,white,no,yes,768,legacy,43,43,C:/Users/Breena Riley/Desktop/2019 Fall/MultQuant/lab 2.1/BR-subject-4.csv,legacy,Kafkaesque Koffka,3.2.8,0,s,NA,NA,s,NA,NA,s,737,NA,NA,36347,NA,NA,737,2,legacy,1024,2,48000,-16,experiment,HHSHH,4,even,115735,38796,NA,NA,71411,2444,41036,NA,116810,NA,2449,NA,NA,116911,117650,116807,116911,Flankertask,42,26144,44,yes,1024
95.55555556,95.55555556,592.2444444,592.2444444,black,legacy,legacy,legacy,0,congruent,uniform,1,undefined,1,h,44,0,0,0,44,0,44,0,44,NA,0,0,0,44,44,44,44,9/29/19 15:58,1500,The main experiment item,yes,BR-Flankertask.osexp,C:/Users/Breena Riley/Desktop/2019 Fall/MultQuant/lab 2.1,no,mono,no,18,no,white,no,yes,768,legacy,44,44,C:/Users/Breena Riley/Desktop/2019 Fall/MultQuant/lab 2.1/BR-subject-4.csv,legacy,Kafkaesque Koffka,3.2.8,0,h,NA,NA,s,NA,NA,h,507,NA,NA,36347,NA,NA,507,2,legacy,1024,2,48000,-16,experiment,HHHHH,4,even,117655,38796,NA,NA,71411,2444,41036,NA,118729,NA,2449,NA,NA,118831,119338,118726,118830,Flankertask,43,26651,45,yes,1024
95.65217391,95.65217391,593.2826087,593.2826087,black,legacy,legacy,legacy,0,incongruent,uniform,1,undefined,1,h,45,0,0,0,45,0,45,0,45,NA,0,0,0,45,45,45,45,9/29/19 15:58,1500,The main experiment item,yes,BR-Flankertask.osexp,C:/Users/Breena Riley/Desktop/2019 Fall/MultQuant/lab 2.1,no,mono,no,18,no,white,no,yes,768,legacy,45,45,C:/Users/Breena Riley/Desktop/2019 Fall/MultQuant/lab 2.1/BR-subject-4.csv,legacy,Kafkaesque Koffka,3.2.8,0,h,NA,NA,s,NA,NA,h,640,NA,NA,36347,NA,NA,640,2,legacy,1024,2,48000,-16,experiment,SSHSS,4,even,119346,38796,NA,NA,71411,2444,41036,NA,120421,NA,2449,NA,NA,120522,121162,120418,120522,Flankertask,44,27291,46,yes,1024
95.74468085,95.74468085,593.2765957,593.2765957,black,legacy,legacy,legacy,0,congruent,uniform,1,undefined,1,h,46,0,0,0,46,0,46,0,46,NA,0,0,0,46,46,46,46,9/29/19 15:58,1500,The main experiment item,yes,BR-Flankertask.osexp,C:/Users/Breena Riley/Desktop/2019 Fall/MultQuant/lab 2.1,no,mono,no,18,no,white,no,yes,768,legacy,46,46,C:/Users/Breena Riley/Desktop/2019 Fall/MultQuant/lab 2.1/BR-subject-4.csv,legacy,Kafkaesque Koffka,3.2.8,0,h,NA,NA,s,NA,NA,h,593,NA,NA,36347,NA,NA,593,2,legacy,1024,2,48000,-16,experiment,HHHHH,4,even,121171,38796,NA,NA,71411,2444,41036,NA,122258,NA,2449,NA,NA,122359,122953,122255,122359,Flankertask,45,27884,47,yes,1024
95.83333333,95.83333333,591.5208333,591.5208333,black,legacy,legacy,legacy,0,incongruent,uniform,1,undefined,1,h,47,0,0,0,47,0,47,0,47,NA,0,0,0,47,47,47,47,9/29/19 15:58,1500,The main experiment item,yes,BR-Flankertask.osexp,C:/Users/Breena Riley/Desktop/2019 Fall/MultQuant/lab 2.1,no,mono,no,18,no,white,no,yes,768,legacy,47,47,C:/Users/Breena Riley/Desktop/2019 Fall/MultQuant/lab 2.1/BR-subject-4.csv,legacy,Kafkaesque Koffka,3.2.8,0,h,NA,NA,s,NA,NA,h,509,NA,NA,36347,NA,NA,509,2,legacy,1024,2,48000,-16,experiment,SSHSS,4,even,122961,38796,NA,NA,71411,2444,41036,NA,124035,NA,2449,NA,NA,124136,124646,124033,124136,Flankertask,46,28393,48,yes,1024
95.91836735,95.91836735,591.1428571,591.1428571,black,legacy,legacy,legacy,0,incongruent,uniform,1,undefined,1,h,48,0,0,0,48,0,48,0,48,NA,0,0,0,48,48,48,48,9/29/19 15:58,1500,The main experiment item,yes,BR-Flankertask.osexp,C:/Users/Breena Riley/Desktop/2019 Fall/MultQuant/lab 2.1,no,mono,no,18,no,white,no,yes,768,legacy,48,48,C:/Users/Breena Riley/Desktop/2019 Fall/MultQuant/lab 2.1/BR-subject-4.csv,legacy,Kafkaesque Koffka,3.2.8,0,h,NA,NA,s,NA,NA,h,573,NA,NA,36347,NA,NA,573,2,legacy,1024,2,48000,-16,experiment,SSHSS,4,even,124654,38796,NA,NA,71411,2444,41036,NA,125730,NA,2449,NA,NA,125831,126405,125727,125831,Flankertask,47,28966,49,yes,1024
96,96,587.74,587.74,black,legacy,legacy,legacy,0,congruent,uniform,1,undefined,1,s,49,0,0,0,49,0,49,0,49,NA,0,0,0,49,49,49,49,9/29/19 15:58,1500,The main experiment item,yes,BR-Flankertask.osexp,C:/Users/Breena Riley/Desktop/2019 Fall/MultQuant/lab 2.1,no,mono,no,18,no,white,no,yes,768,legacy,49,49,C:/Users/Breena Riley/Desktop/2019 Fall/MultQuant/lab 2.1/BR-subject-4.csv,legacy,Kafkaesque Koffka,3.2.8,0,s,NA,NA,s,NA,NA,s,421,NA,NA,36347,NA,NA,421,2,legacy,1024,2,48000,-16,experiment,SSSSS,4,even,126413,38796,NA,NA,71411,2444,41036,NA,127487,NA,2449,NA,NA,127588,128009,127484,127588,Flankertask,48,29387,50,yes,1024
96.07843137,96.07843137,588.2156863,588.2156863,black,legacy,legacy,legacy,0,incongruent,uniform,1,undefined,1,s,50,0,0,0,50,0,50,0,50,NA,0,0,0,50,50,50,50,9/29/19 15:58,1500,The main experiment item,yes,BR-Flankertask.osexp,C:/Users/Breena Riley/Desktop/2019 Fall/MultQuant/lab 2.1,no,mono,no,18,no,white,no,yes,768,legacy,50,50,C:/Users/Breena Riley/Desktop/2019 Fall/MultQuant/lab 2.1/BR-subject-4.csv,legacy,Kafkaesque Koffka,3.2.8,0,s,NA,NA,s,NA,NA,s,612,NA,NA,36347,NA,NA,612,2,legacy,1024,2,48000,-16,experiment,HHSHH,4,even,128017,38796,NA,NA,71411,2444,41036,NA,129091,NA,2449,NA,NA,129192,129805,129089,129192,Flankertask,49,29999,51,yes,1024
96.15384615,96.15384615,586.75,586.75,black,legacy,legacy,legacy,0,congruent,uniform,1,undefined,1,s,51,0,0,0,51,0,51,0,51,NA,0,0,0,51,51,51,51,9/29/19 15:58,1500,The main experiment item,yes,BR-Flankertask.osexp,C:/Users/Breena Riley/Desktop/2019 Fall/MultQuant/lab 2.1,no,mono,no,18,no,white,no,yes,768,legacy,51,51,C:/Users/Breena Riley/Desktop/2019 Fall/MultQuant/lab 2.1/BR-subject-4.csv,legacy,Kafkaesque Koffka,3.2.8,0,s,NA,NA,s,NA,NA,s,512,NA,NA,36347,NA,NA,512,2,legacy,1024,2,48000,-16,experiment,SSSSS,4,even,129813,38796,NA,NA,71411,2444,41036,NA,130888,NA,2449,NA,NA,130990,131502,130885,130989,Flankertask,50,30511,52,yes,1024
96.22641509,96.22641509,586.490566,586.490566,black,legacy,legacy,legacy,0,incongruent,uniform,1,undefined,1,h,52,0,0,0,52,0,52,0,52,NA,0,0,0,52,52,52,52,9/29/19 15:58,1500,The main experiment item,yes,BR-Flankertask.osexp,C:/Users/Breena Riley/Desktop/2019 Fall/MultQuant/lab 2.1,no,mono,no,18,no,white,no,yes,768,legacy,52,52,C:/Users/Breena Riley/Desktop/2019 Fall/MultQuant/lab 2.1/BR-subject-4.csv,legacy,Kafkaesque Koffka,3.2.8,0,h,NA,NA,s,NA,NA,h,573,NA,NA,36347,NA,NA,573,2,legacy,1024,2,48000,-16,experiment,SSHSS,4,even,131511,38796,NA,NA,71411,2444,41036,NA,132584,NA,2449,NA,NA,132686,133260,132582,132686,Flankertask,51,31084,53,yes,1024
96.2962963,96.2962963,585.3148148,585.3148148,black,legacy,legacy,legacy,0,congruent,uniform,1,undefined,1,s,53,0,0,0,53,0,53,0,53,NA,0,0,0,53,53,53,53,9/29/19 15:58,1500,The main experiment item,yes,BR-Flankertask.osexp,C:/Users/Breena Riley/Desktop/2019 Fall/MultQuant/lab 2.1,no,mono,no,18,no,white,no,yes,768,legacy,53,53,C:/Users/Breena Riley/Desktop/2019 Fall/MultQuant/lab 2.1/BR-subject-4.csv,legacy,Kafkaesque Koffka,3.2.8,0,s,NA,NA,s,NA,NA,s,523,NA,NA,36347,NA,NA,523,2,legacy,1024,2,48000,-16,experiment,SSSSS,4,even,133268,38796,NA,NA,71411,2444,41036,NA,134343,NA,2449,NA,NA,134445,134968,134341,134445,Flankertask,52,31607,54,yes,1024
96.36363636,96.36363636,583.2,583.2,black,legacy,legacy,legacy,0,congruent,uniform,1,undefined,1,h,54,0,0,0,54,0,54,0,54,NA,0,0,0,54,54,54,54,9/29/19 15:58,1500,The main experiment item,yes,BR-Flankertask.osexp,C:/Users/Breena Riley/Desktop/2019 Fall/MultQuant/lab 2.1,no,mono,no,18,no,white,no,yes,768,legacy,54,54,C:/Users/Breena Riley/Desktop/2019 Fall/MultQuant/lab 2.1/BR-subject-4.csv,legacy,Kafkaesque Koffka,3.2.8,0,h,NA,NA,s,NA,NA,h,469,NA,NA,36347,NA,NA,469,2,legacy,1024,2,48000,-16,experiment,HHHHH,4,even,134977,38796,NA,NA,71411,2444,41036,NA,136050,NA,2449,NA,NA,136151,136621,136047,136151,Flankertask,53,32076,55,yes,1024
96.42857143,96.42857143,583.2321429,583.2321429,black,legacy,legacy,legacy,0,incongruent,uniform,1,undefined,1,h,55,0,0,0,55,0,55,0,55,NA,0,0,0,55,55,55,55,9/29/19 15:58,1500,The main experiment item,yes,BR-Flankertask.osexp,C:/Users/Breena Riley/Desktop/2019 Fall/MultQuant/lab 2.1,no,mono,no,18,no,white,no,yes,768,legacy,55,55,C:/Users/Breena Riley/Desktop/2019 Fall/MultQuant/lab 2.1/BR-subject-4.csv,legacy,Kafkaesque Koffka,3.2.8,0,h,NA,NA,s,NA,NA,h,585,NA,NA,36347,NA,NA,585,2,legacy,1024,2,48000,-16,experiment,SSHSS,4,even,136630,38796,NA,NA,71411,2444,41036,NA,137708,NA,2449,NA,NA,137809,138395,137706,137809,Flankertask,54,32661,56,yes,1024
96.49122807,96.49122807,581.5789474,581.5789474,black,legacy,legacy,legacy,0,incongruent,uniform,1,undefined,1,h,56,0,0,0,56,0,56,0,56,NA,0,0,0,56,56,56,56,9/29/19 15:58,1500,The main experiment item,yes,BR-Flankertask.osexp,C:/Users/Breena Riley/Desktop/2019 Fall/MultQuant/lab 2.1,no,mono,no,18,no,white,no,yes,768,legacy,56,56,C:/Users/Breena Riley/Desktop/2019 Fall/MultQuant/lab 2.1/BR-subject-4.csv,legacy,Kafkaesque Koffka,3.2.8,0,h,NA,NA,s,NA,NA,h,489,NA,NA,36347,NA,NA,489,2,legacy,1024,2,48000,-16,experiment,SSHSS,4,even,138403,38796,NA,NA,71411,2444,41036,NA,139486,NA,2449,NA,NA,139587,140076,139483,139587,Flankertask,55,33150,57,yes,1024
96.55172414,96.55172414,583,583,black,legacy,legacy,legacy,0,incongruent,uniform,1,undefined,1,s,57,0,0,0,57,0,57,0,57,NA,0,0,0,57,57,57,57,9/29/19 15:58,1500,The main experiment item,yes,BR-Flankertask.osexp,C:/Users/Breena Riley/Desktop/2019 Fall/MultQuant/lab 2.1,no,mono,no,18,no,white,no,yes,768,legacy,57,57,C:/Users/Breena Riley/Desktop/2019 Fall/MultQuant/lab 2.1/BR-subject-4.csv,legacy,Kafkaesque Koffka,3.2.8,0,s,NA,NA,s,NA,NA,s,664,NA,NA,36347,NA,NA,664,2,legacy,1024,2,48000,-16,experiment,HHSHH,4,even,140085,38796,NA,NA,71411,2444,41036,NA,141159,NA,2449,NA,NA,141261,141926,141156,141260,Flankertask,56,33814,58,yes,1024
96.61016949,96.61016949,580.8983051,580.8983051,black,legacy,legacy,legacy,0,congruent,uniform,1,undefined,1,s,58,0,0,0,58,0,58,0,58,NA,0,0,0,58,58,58,58,9/29/19 15:58,1500,The main experiment item,yes,BR-Flankertask.osexp,C:/Users/Breena Riley/Desktop/2019 Fall/MultQuant/lab 2.1,no,mono,no,18,no,white,no,yes,768,legacy,58,58,C:/Users/Breena Riley/Desktop/2019 Fall/MultQuant/lab 2.1/BR-subject-4.csv,legacy,Kafkaesque Koffka,3.2.8,0,s,NA,NA,s,NA,NA,s,459,NA,NA,36347,NA,NA,459,2,legacy,1024,2,48000,-16,experiment,SSSSS,4,even,141934,38796,NA,NA,71411,2444,41036,NA,143010,NA,2449,NA,NA,143112,143572,143007,143112,Flankertask,57,34273,59,yes,1024
96.66666667,96.66666667,579.5166667,579.5166667,black,legacy,legacy,legacy,0,incongruent,uniform,1,undefined,1,h,59,0,0,0,59,0,59,0,59,NA,0,0,0,59,59,59,59,9/29/19 15:58,1500,The main experiment item,yes,BR-Flankertask.osexp,C:/Users/Breena Riley/Desktop/2019 Fall/MultQuant/lab 2.1,no,mono,no,18,no,white,no,yes,768,legacy,59,59,C:/Users/Breena Riley/Desktop/2019 Fall/MultQuant/lab 2.1/BR-subject-4.csv,legacy,Kafkaesque Koffka,3.2.8,0,h,NA,NA,s,NA,NA,h,498,NA,NA,36347,NA,NA,498,2,legacy,1024,2,48000,-16,experiment,SSHSS,4,even,143581,38796,NA,NA,71411,2444,41036,NA,144655,NA,2449,NA,NA,144756,145255,144653,144756,Flankertask,58,34771,60,yes,1024
96.72131148,96.72131148,579.1803279,579.1803279,black,legacy,legacy,legacy,0,congruent,uniform,1,undefined,1,s,60,0,0,0,60,0,60,0,60,NA,0,0,0,60,60,60,60,9/29/19 15:58,1500,The main experiment item,yes,BR-Flankertask.osexp,C:/Users/Breena Riley/Desktop/2019 Fall/MultQuant/lab 2.1,no,mono,no,18,no,white,no,yes,768,legacy,60,60,C:/Users/Breena Riley/Desktop/2019 Fall/MultQuant/lab 2.1/BR-subject-4.csv,legacy,Kafkaesque Koffka,3.2.8,0,s,NA,NA,s,NA,NA,s,559,NA,NA,36347,NA,NA,559,2,legacy,1024,2,48000,-16,experiment,SSSSS,4,even,145264,38796,NA,NA,71411,2444,41036,NA,146338,NA,2449,NA,NA,146439,146999,146335,146439,Flankertask,59,35330,61,yes,1024
96.77419355,96.77419355,579.9193548,579.9193548,black,legacy,legacy,legacy,0,congruent,uniform,1,undefined,1,s,61,0,0,0,61,0,61,0,61,NA,0,0,0,61,61,61,61,9/29/19 15:58,1500,The main experiment item,yes,BR-Flankertask.osexp,C:/Users/Breena Riley/Desktop/2019 Fall/MultQuant/lab 2.1,no,mono,no,18,no,white,no,yes,768,legacy,61,61,C:/Users/Breena Riley/Desktop/2019 Fall/MultQuant/lab 2.1/BR-subject-4.csv,legacy,Kafkaesque Koffka,3.2.8,0,s,NA,NA,s,NA,NA,s,625,NA,NA,36347,NA,NA,625,2,legacy,1024,2,48000,-16,experiment,SSSSS,4,even,147007,38796,NA,NA,71411,2444,41036,NA,148080,NA,2449,NA,NA,148181,148807,148078,148181,Flankertask,60,35955,62,yes,1024
96.82539683,96.82539683,580.2857143,580.2857143,black,legacy,legacy,legacy,0,incongruent,uniform,1,undefined,1,s,62,0,0,0,62,0,62,0,62,NA,0,0,0,62,62,62,62,9/29/19 15:58,1500,The main experiment item,yes,BR-Flankertask.osexp,C:/Users/Breena Riley/Desktop/2019 Fall/MultQuant/lab 2.1,no,mono,no,18,no,white,no,yes,768,legacy,62,62,C:/Users/Breena Riley/Desktop/2019 Fall/MultQuant/lab 2.1/BR-subject-4.csv,legacy,Kafkaesque Koffka,3.2.8,0,s,NA,NA,s,NA,NA,s,603,NA,NA,36347,NA,NA,603,2,legacy,1024,2,48000,-16,experiment,HHSHH,4,even,148816,38796,NA,NA,71411,2444,41036,NA,149890,NA,2449,NA,NA,149991,150595,149887,149991,Flankertask,61,36558,63,yes,1024
96.875,96.875,577.609375,577.609375,black,legacy,legacy,legacy,0,congruent,uniform,1,undefined,1,s,63,0,0,0,63,0,63,0,63,NA,0,0,0,63,63,63,63,9/29/19 15:58,1500,The main experiment item,yes,BR-Flankertask.osexp,C:/Users/Breena Riley/Desktop/2019 Fall/MultQuant/lab 2.1,no,mono,no,18,no,white,no,yes,768,legacy,63,63,C:/Users/Breena Riley/Desktop/2019 Fall/MultQuant/lab 2.1/BR-subject-4.csv,legacy,Kafkaesque Koffka,3.2.8,0,s,NA,NA,s,NA,NA,s,409,NA,NA,36347,NA,NA,409,2,legacy,1024,2,48000,-16,experiment,SSSSS,4,even,150604,38796,NA,NA,71411,2444,41036,NA,151677,NA,2449,NA,NA,151779,152189,151674,151779,Flankertask,62,36967,64,yes,1024
96.92307692,96.92307692,577.0923077,577.0923077,black,legacy,legacy,legacy,0,congruent,uniform,1,undefined,1,h,64,0,0,0,64,0,64,0,64,NA,0,0,0,64,64,64,64,9/29/19 15:58,1500,The main experiment item,yes,BR-Flankertask.osexp,C:/Users/Breena Riley/Desktop/2019 Fall/MultQuant/lab 2.1,no,mono,no,18,no,white,no,yes,768,legacy,64,64,C:/Users/Breena Riley/Desktop/2019 Fall/MultQuant/lab 2.1/BR-subject-4.csv,legacy,Kafkaesque Koffka,3.2.8,0,h,NA,NA,s,NA,NA,h,544,NA,NA,36347,NA,NA,544,2,legacy,1024,2,48000,-16,experiment,HHHHH,4,even,152197,38796,NA,NA,71411,2444,41036,NA,153271,NA,2449,NA,NA,153373,153918,153268,153373,Flankertask,63,37511,65,yes,1024
96.96969697,96.96969697,577.3939394,577.3939394,black,legacy,legacy,legacy,0,incongruent,uniform,1,undefined,1,s,65,0,0,0,65,0,65,0,65,NA,0,0,0,65,65,65,65,9/29/19 15:58,1500,The main experiment item,yes,BR-Flankertask.osexp,C:/Users/Breena Riley/Desktop/2019 Fall/MultQuant/lab 2.1,no,mono,no,18,no,white,no,yes,768,legacy,65,65,C:/Users/Breena Riley/Desktop/2019 Fall/MultQuant/lab 2.1/BR-subject-4.csv,legacy,Kafkaesque Koffka,3.2.8,0,s,NA,NA,s,NA,NA,s,597,NA,NA,36347,NA,NA,597,2,legacy,1024,2,48000,-16,experiment,HHSHH,4,even,153927,38796,NA,NA,71411,2444,41036,NA,155001,NA,2449,NA,NA,155103,155701,154999,155103,Flankertask,64,38108,66,yes,1024
97.01492537,97.01492537,576.6865672,576.6865672,black,legacy,legacy,legacy,0,incongruent,uniform,1,undefined,1,s,66,0,0,0,66,0,66,0,66,NA,0,0,0,66,66,66,66,9/29/19 15:58,1500,The main experiment item,yes,BR-Flankertask.osexp,C:/Users/Breena Riley/Desktop/2019 Fall/MultQuant/lab 2.1,no,mono,no,18,no,white,no,yes,768,legacy,66,66,C:/Users/Breena Riley/Desktop/2019 Fall/MultQuant/lab 2.1/BR-subject-4.csv,legacy,Kafkaesque Koffka,3.2.8,0,s,NA,NA,s,NA,NA,s,530,NA,NA,36347,NA,NA,530,2,legacy,1024,2,48000,-16,experiment,HHSHH,4,even,155709,38796,NA,NA,71411,2444,41036,NA,156784,NA,2449,NA,NA,156885,157416,156781,156885,Flankertask,65,38638,67,yes,1024
97.05882353,97.05882353,575.8235294,575.8235294,black,legacy,legacy,legacy,0,congruent,uniform,1,undefined,1,h,67,0,0,0,67,0,67,0,67,NA,0,0,0,67,67,67,67,9/29/19 15:58,1500,The main experiment item,yes,BR-Flankertask.osexp,C:/Users/Breena Riley/Desktop/2019 Fall/MultQuant/lab 2.1,no,mono,no,18,no,white,no,yes,768,legacy,67,67,C:/Users/Breena Riley/Desktop/2019 Fall/MultQuant/lab 2.1/BR-subject-4.csv,legacy,Kafkaesque Koffka,3.2.8,0,h,NA,NA,s,NA,NA,h,518,NA,NA,36347,NA,NA,518,2,legacy,1024,2,48000,-16,experiment,HHHHH,4,even,157421,38796,NA,NA,71411,2444,41036,NA,158498,NA,2449,NA,NA,158600,159119,158495,158600,Flankertask,66,39156,68,yes,1024
97.10144928,97.10144928,576,576,black,legacy,legacy,legacy,0,incongruent,uniform,1,undefined,1,s,68,0,0,0,68,0,68,0,68,NA,0,0,0,68,68,68,68,9/29/19 15:58,1500,The main experiment item,yes,BR-Flankertask.osexp,C:/Users/Breena Riley/Desktop/2019 Fall/MultQuant/lab 2.1,no,mono,no,18,no,white,no,yes,768,legacy,68,68,C:/Users/Breena Riley/Desktop/2019 Fall/MultQuant/lab 2.1/BR-subject-4.csv,legacy,Kafkaesque Koffka,3.2.8,0,s,NA,NA,s,NA,NA,s,588,NA,NA,36347,NA,NA,588,2,legacy,1024,2,48000,-16,experiment,HHSHH,4,even,159128,38796,NA,NA,71411,2444,41036,NA,160205,NA,2449,NA,NA,160307,160896,160202,160306,Flankertask,67,39744,69,yes,1024
97.14285714,97.14285714,575.1571429,575.1571429,black,legacy,legacy,legacy,0,congruent,uniform,1,undefined,1,s,69,0,0,0,69,0,69,0,69,NA,0,0,0,69,69,69,69,9/29/19 15:58,1500,The main experiment item,yes,BR-Flankertask.osexp,C:/Users/Breena Riley/Desktop/2019 Fall/MultQuant/lab 2.1,no,mono,no,18,no,white,no,yes,768,legacy,69,69,C:/Users/Breena Riley/Desktop/2019 Fall/MultQuant/lab 2.1/BR-subject-4.csv,legacy,Kafkaesque Koffka,3.2.8,0,s,NA,NA,s,NA,NA,s,517,NA,NA,36347,NA,NA,517,2,legacy,1024,2,48000,-16,experiment,SSSSS,4,even,160904,38796,NA,NA,71411,2444,41036,NA,161979,NA,2449,NA,NA,162081,162598,161976,162080,Flankertask,68,40261,70,yes,1024
97.18309859,97.18309859,573.7323944,573.7323944,black,legacy,legacy,legacy,0,congruent,uniform,1,undefined,1,h,70,0,0,0,70,0,70,0,70,NA,0,0,0,70,70,70,70,9/29/19 15:58,1500,The main experiment item,yes,BR-Flankertask.osexp,C:/Users/Breena Riley/Desktop/2019 Fall/MultQuant/lab 2.1,no,mono,no,18,no,white,no,yes,768,legacy,70,70,C:/Users/Breena Riley/Desktop/2019 Fall/MultQuant/lab 2.1/BR-subject-4.csv,legacy,Kafkaesque Koffka,3.2.8,0,h,NA,NA,s,NA,NA,h,474,NA,NA,36347,NA,NA,474,2,legacy,1024,2,48000,-16,experiment,HHHHH,4,even,162607,38796,NA,NA,71411,2444,41036,NA,163685,NA,2449,NA,NA,163786,164261,163681,163786,Flankertask,69,40735,71,yes,1024
97.22222222,97.22222222,573.7361111,573.7361111,black,legacy,legacy,legacy,0,incongruent,uniform,1,undefined,1,h,71,0,0,0,71,0,71,0,71,NA,0,0,0,71,71,71,71,9/29/19 15:58,1500,The main experiment item,yes,BR-Flankertask.osexp,C:/Users/Breena Riley/Desktop/2019 Fall/MultQuant/lab 2.1,no,mono,no,18,no,white,no,yes,768,legacy,71,71,C:/Users/Breena Riley/Desktop/2019 Fall/MultQuant/lab 2.1/BR-subject-4.csv,legacy,Kafkaesque Koffka,3.2.8,0,h,NA,NA,s,NA,NA,h,574,NA,NA,36347,NA,NA,574,2,legacy,1024,2,48000,-16,experiment,SSHSS,4,even,164270,38796,NA,NA,71411,2444,41036,NA,165344,NA,2449,NA,NA,165445,166020,165341,165445,Flankertask,70,41309,72,yes,1024
97.26027397,97.26027397,571.8767123,571.8767123,black,legacy,legacy,legacy,0,incongruent,uniform,1,undefined,1,h,72,0,0,0,72,0,72,0,72,NA,0,0,0,72,72,72,72,9/29/19 15:58,1500,The main experiment item,yes,BR-Flankertask.osexp,C:/Users/Breena Riley/Desktop/2019 Fall/MultQuant/lab 2.1,no,mono,no,18,no,white,no,yes,768,legacy,72,72,C:/Users/Breena Riley/Desktop/2019 Fall/MultQuant/lab 2.1/BR-subject-4.csv,legacy,Kafkaesque Koffka,3.2.8,0,h,NA,NA,s,NA,NA,h,438,NA,NA,36347,NA,NA,438,2,legacy,1024,2,48000,-16,experiment,SSHSS,4,even,166028,38796,NA,NA,71411,2444,41036,NA,167103,NA,2449,NA,NA,167205,167644,167101,167205,Flankertask,71,41747,73,yes,1024
97.2972973,97.2972973,570.0810811,570.0810811,black,legacy,legacy,legacy,0,congruent,uniform,1,undefined,1,h,73,0,0,0,73,0,73,0,73,NA,0,0,0,73,73,73,73,9/29/19 15:58,1500,The main experiment item,yes,BR-Flankertask.osexp,C:/Users/Breena Riley/Desktop/2019 Fall/MultQuant/lab 2.1,no,mono,no,18,no,white,no,yes,768,legacy,73,73,C:/Users/Breena Riley/Desktop/2019 Fall/MultQuant/lab 2.1/BR-subject-4.csv,legacy,Kafkaesque Koffka,3.2.8,0,h,NA,NA,s,NA,NA,h,439,NA,NA,36347,NA,NA,439,2,legacy,1024,2,48000,-16,experiment,HHHHH,4,even,167652,38796,NA,NA,71411,2444,41036,NA,168727,NA,2449,NA,NA,168829,169269,168724,168829,Flankertask,72,42186,74,yes,1024
97.33333333,97.33333333,569.4,569.4,black,legacy,legacy,legacy,0,incongruent,uniform,1,undefined,1,h,74,0,0,0,74,0,74,0,74,NA,0,0,0,74,74,74,74,9/29/19 15:58,1500,The main experiment item,yes,BR-Flankertask.osexp,C:/Users/Breena Riley/Desktop/2019 Fall/MultQuant/lab 2.1,no,mono,no,18,no,white,no,yes,768,legacy,74,74,C:/Users/Breena Riley/Desktop/2019 Fall/MultQuant/lab 2.1/BR-subject-4.csv,legacy,Kafkaesque Koffka,3.2.8,0,h,NA,NA,s,NA,NA,h,519,NA,NA,36347,NA,NA,519,2,legacy,1024,2,48000,-16,experiment,SSHSS,4,even,169278,38796,NA,NA,71411,2444,41036,NA,170357,NA,2449,NA,NA,170459,170978,170354,170459,Flankertask,73,42705,75,yes,1024
97.36842105,97.36842105,571.0657895,571.0657895,black,legacy,legacy,legacy,0,incongruent,uniform,1,undefined,1,s,75,0,0,0,75,0,75,0,75,NA,0,0,0,75,75,75,75,9/29/19 15:58,1500,The main experiment item,yes,BR-Flankertask.osexp,C:/Users/Breena Riley/Desktop/2019 Fall/MultQuant/lab 2.1,no,mono,no,18,no,white,no,yes,768,legacy,75,75,C:/Users/Breena Riley/Desktop/2019 Fall/MultQuant/lab 2.1/BR-subject-4.csv,legacy,Kafkaesque Koffka,3.2.8,0,s,NA,NA,s,NA,NA,s,696,NA,NA,36347,NA,NA,696,2,legacy,1024,2,48000,-16,experiment,HHSHH,4,even,170987,38796,NA,NA,71411,2444,41036,NA,172062,NA,2449,NA,NA,172164,172861,172060,172163,Flankertask,74,43401,76,yes,1024
97.4025974,97.4025974,570.012987,570.012987,black,legacy,legacy,legacy,0,congruent,uniform,1,undefined,1,h,76,0,0,0,76,0,76,0,76,NA,0,0,0,76,76,76,76,9/29/19 15:58,1500,The main experiment item,yes,BR-Flankertask.osexp,C:/Users/Breena Riley/Desktop/2019 Fall/MultQuant/lab 2.1,no,mono,no,18,no,white,no,yes,768,legacy,76,76,C:/Users/Breena Riley/Desktop/2019 Fall/MultQuant/lab 2.1/BR-subject-4.csv,legacy,Kafkaesque Koffka,3.2.8,0,h,NA,NA,s,NA,NA,h,490,NA,NA,36347,NA,NA,490,2,legacy,1024,2,48000,-16,experiment,HHHHH,4,even,172869,38796,NA,NA,71411,2444,41036,NA,173944,NA,2449,NA,NA,174045,174536,173941,174045,Flankertask,75,43891,77,yes,1024
97.43589744,97.43589744,569.1923077,569.1923077,black,legacy,legacy,legacy,0,congruent,uniform,1,undefined,1,h,77,0,0,0,77,0,77,0,77,NA,0,0,0,77,77,77,77,9/29/19 15:58,1500,The main experiment item,yes,BR-Flankertask.osexp,C:/Users/Breena Riley/Desktop/2019 Fall/MultQuant/lab 2.1,no,mono,no,18,no,white,no,yes,768,legacy,77,77,C:/Users/Breena Riley/Desktop/2019 Fall/MultQuant/lab 2.1/BR-subject-4.csv,legacy,Kafkaesque Koffka,3.2.8,0,h,NA,NA,s,NA,NA,h,506,NA,NA,36347,NA,NA,506,2,legacy,1024,2,48000,-16,experiment,HHHHH,4,even,174543,38796,NA,NA,71411,2444,41036,NA,175619,NA,2449,NA,NA,175720,176227,175616,175720,Flankertask,76,44397,78,yes,1024
97.46835443,97.46835443,567.3670886,567.3670886,black,legacy,legacy,legacy,0,congruent,uniform,1,undefined,1,h,78,0,0,0,78,0,78,0,78,NA,0,0,0,78,78,78,78,9/29/19 15:58,1500,The main experiment item,yes,BR-Flankertask.osexp,C:/Users/Breena Riley/Desktop/2019 Fall/MultQuant/lab 2.1,no,mono,no,18,no,white,no,yes,768,legacy,78,78,C:/Users/Breena Riley/Desktop/2019 Fall/MultQuant/lab 2.1/BR-subject-4.csv,legacy,Kafkaesque Koffka,3.2.8,0,h,NA,NA,s,NA,NA,h,425,NA,NA,36347,NA,NA,425,2,legacy,1024,2,48000,-16,experiment,HHHHH,4,even,176236,38796,NA,NA,71411,2444,41036,NA,177311,NA,2449,NA,NA,177412,177838,177308,177412,Flankertask,77,44822,79,yes,1024
97.5,97.5,567.3625,567.3625,black,legacy,legacy,legacy,0,incongruent,uniform,1,undefined,1,s,79,0,0,0,79,0,79,0,79,NA,0,0,0,79,79,79,79,9/29/19 15:58,1500,The main experiment item,yes,BR-Flankertask.osexp,C:/Users/Breena Riley/Desktop/2019 Fall/MultQuant/lab 2.1,no,mono,no,18,no,white,no,yes,768,legacy,79,79,C:/Users/Breena Riley/Desktop/2019 Fall/MultQuant/lab 2.1/BR-subject-4.csv,legacy,Kafkaesque Koffka,3.2.8,0,s,NA,NA,s,NA,NA,s,567,NA,NA,36347,NA,NA,567,2,legacy,1024,2,48000,-16,experiment,HHSHH,4,even,177846,38796,NA,NA,71411,2444,41036,NA,178921,NA,2449,NA,NA,179024,179592,178919,179023,Flankertask,78,45389,80,yes,1024
96.2962963,96.2962963,566.2839506,566.2839506,black,legacy,legacy,legacy,0,incongruent,uniform,0,undefined,0,h,80,0,0,0,80,0,80,0,80,NA,0,0,0,80,80,80,80,9/29/19 15:58,600,The main experiment item,yes,BR-Flankertask.osexp,C:/Users/Breena Riley/Desktop/2019 Fall/MultQuant/lab 2.1,no,mono,no,18,no,white,no,yes,768,legacy,0,79,C:/Users/Breena Riley/Desktop/2019 Fall/MultQuant/lab 2.1/BR-subject-4.csv,legacy,Kafkaesque Koffka,3.2.8,0,s,NA,NA,s,s,NA,s,480,NA,NA,36347,16720,NA,480,2,legacy,1024,2,48000,-16,experiment,SSHSS,4,even,179601,38796,197337,NA,71411,2444,41036,NA,197414,NA,2449,180615,NA,197516,197997,197412,197515,Flankertask,78,45869,81,yes,1024
96.34146341,96.34146341,566.3902439,566.3902439,black,legacy,legacy,legacy,0,incongruent,uniform,1,undefined,1,h,81,0,0,0,81,0,81,0,81,NA,0,0,0,81,81,81,81,9/29/19 15:58,600,The main experiment item,yes,BR-Flankertask.osexp,C:/Users/Breena Riley/Desktop/2019 Fall/MultQuant/lab 2.1,no,mono,no,18,no,white,no,yes,768,legacy,1,79,C:/Users/Breena Riley/Desktop/2019 Fall/MultQuant/lab 2.1/BR-subject-4.csv,legacy,Kafkaesque Koffka,3.2.8,0,h,NA,NA,s,s,NA,h,575,NA,NA,36347,16720,NA,575,2,legacy,1024,2,48000,-16,experiment,SSHSS,4,even,198507,38796,197337,NA,198006,2444,41036,NA,199585,NA,2449,180615,NA,199687,200263,199582,199687,Flankertask,79,46444,82,yes,1024
96.38554217,96.38554217,564.7590361,564.7590361,black,legacy,legacy,legacy,0,congruent,uniform,1,undefined,1,h,82,0,0,0,82,0,82,0,82,NA,0,0,0,82,82,82,82,9/29/19 15:58,600,The main experiment item,yes,BR-Flankertask.osexp,C:/Users/Breena Riley/Desktop/2019 Fall/MultQuant/lab 2.1,no,mono,no,18,no,white,no,yes,768,legacy,2,79,C:/Users/Breena Riley/Desktop/2019 Fall/MultQuant/lab 2.1/BR-subject-4.csv,legacy,Kafkaesque Koffka,3.2.8,0,h,NA,NA,s,s,NA,h,431,NA,NA,36347,16720,NA,431,2,legacy,1024,2,48000,-16,experiment,HHHHH,4,even,200272,38796,197337,NA,198006,2444,41036,NA,201350,NA,2449,180615,NA,201451,201882,201347,201451,Flankertask,80,46875,83,yes,1024
96.42857143,96.42857143,564.4166667,564.4166667,black,legacy,legacy,legacy,0,incongruent,uniform,1,undefined,1,s,83,0,0,0,83,0,83,0,83,NA,0,0,0,83,83,83,83,9/29/19 15:58,600,The main experiment item,yes,BR-Flankertask.osexp,C:/Users/Breena Riley/Desktop/2019 Fall/MultQuant/lab 2.1,no,mono,no,18,no,white,no,yes,768,legacy,3,79,C:/Users/Breena Riley/Desktop/2019 Fall/MultQuant/lab 2.1/BR-subject-4.csv,legacy,Kafkaesque Koffka,3.2.8,0,s,NA,NA,s,s,NA,s,536,NA,NA,36347,16720,NA,536,2,legacy,1024,2,48000,-16,experiment,HHSHH,4,even,201891,38796,197337,NA,198006,2444,41036,NA,202967,NA,2449,180615,NA,203069,203606,202964,203069,Flankertask,81,47411,84,yes,1024
96.47058824,96.47058824,564.6117647,564.6117647,black,legacy,legacy,legacy,0,incongruent,uniform,1,undefined,1,h,84,0,0,0,84,0,84,0,84,NA,0,0,0,84,84,84,84,9/29/19 15:58,600,The main experiment item,yes,BR-Flankertask.osexp,C:/Users/Breena Riley/Desktop/2019 Fall/MultQuant/lab 2.1,no,mono,no,18,no,white,no,yes,768,legacy,4,79,C:/Users/Breena Riley/Desktop/2019 Fall/MultQuant/lab 2.1/BR-subject-4.csv,legacy,Kafkaesque Koffka,3.2.8,0,h,NA,NA,s,s,NA,h,581,NA,NA,36347,16720,NA,581,2,legacy,1024,2,48000,-16,experiment,SSHSS,4,even,203615,38796,197337,NA,198006,2444,41036,NA,204690,NA,2449,180615,NA,204791,205372,204688,204791,Flankertask,82,47992,85,yes,1024
96.51162791,96.51162791,563.8604651,563.8604651,black,legacy,legacy,legacy,0,congruent,uniform,1,undefined,1,h,85,0,0,0,85,0,85,0,85,NA,0,0,0,85,85,85,85,9/29/19 15:58,600,The main experiment item,yes,BR-Flankertask.osexp,C:/Users/Breena Riley/Desktop/2019 Fall/MultQuant/lab 2.1,no,mono,no,18,no,white,no,yes,768,legacy,5,79,C:/Users/Breena Riley/Desktop/2019 Fall/MultQuant/lab 2.1/BR-subject-4.csv,legacy,Kafkaesque Koffka,3.2.8,0,h,NA,NA,s,s,NA,h,500,NA,NA,36347,16720,NA,500,2,legacy,1024,2,48000,-16,experiment,HHHHH,4,even,205381,38796,197337,NA,198006,2444,41036,NA,206454,NA,2449,180615,NA,206556,207056,206451,206554,Flankertask,83,48492,86,yes,1024
96.55172414,96.55172414,561.6436782,561.6436782,black,legacy,legacy,legacy,0,congruent,uniform,1,undefined,1,h,86,0,0,0,86,0,86,0,86,NA,0,0,0,86,86,86,86,9/29/19 15:58,600,The main experiment item,yes,BR-Flankertask.osexp,C:/Users/Breena Riley/Desktop/2019 Fall/MultQuant/lab 2.1,no,mono,no,18,no,white,no,yes,768,legacy,6,79,C:/Users/Breena Riley/Desktop/2019 Fall/MultQuant/lab 2.1/BR-subject-4.csv,legacy,Kafkaesque Koffka,3.2.8,0,h,NA,NA,s,s,NA,h,371,NA,NA,36347,16720,NA,371,2,legacy,1024,2,48000,-16,experiment,HHHHH,4,even,207065,38796,197337,NA,198006,2444,41036,NA,208140,NA,2449,180615,NA,208241,208613,208137,208241,Flankertask,84,48863,87,yes,1024
96.59090909,96.59090909,561.9886364,561.9886364,black,legacy,legacy,legacy,0,incongruent,uniform,1,undefined,1,h,87,0,0,0,87,0,87,0,87,NA,0,0,0,87,87,87,87,9/29/19 15:58,600,The main experiment item,yes,BR-Flankertask.osexp,C:/Users/Breena Riley/Desktop/2019 Fall/MultQuant/lab 2.1,no,mono,no,18,no,white,no,yes,768,legacy,7,79,C:/Users/Breena Riley/Desktop/2019 Fall/MultQuant/lab 2.1/BR-subject-4.csv,legacy,Kafkaesque Koffka,3.2.8,0,h,NA,NA,s,s,NA,h,592,NA,NA,36347,16720,NA,592,2,legacy,1024,2,48000,-16,experiment,SSHSS,4,even,208622,38796,197337,NA,198006,2444,41036,NA,209697,NA,2449,180615,NA,209798,210390,209694,209798,Flankertask,85,49455,88,yes,1024
96.62921348,96.62921348,561.3595506,561.3595506,black,legacy,legacy,legacy,0,incongruent,uniform,1,undefined,1,h,88,0,0,0,88,0,88,0,88,NA,0,0,0,88,88,88,88,9/29/19 15:58,600,The main experiment item,yes,BR-Flankertask.osexp,C:/Users/Breena Riley/Desktop/2019 Fall/MultQuant/lab 2.1,no,mono,no,18,no,white,no,yes,768,legacy,8,79,C:/Users/Breena Riley/Desktop/2019 Fall/MultQuant/lab 2.1/BR-subject-4.csv,legacy,Kafkaesque Koffka,3.2.8,0,h,NA,NA,s,s,NA,h,506,NA,NA,36347,16720,NA,506,2,legacy,1024,2,48000,-16,experiment,SSHSS,4,even,210398,38796,197337,NA,198006,2444,41036,NA,211474,NA,2449,180615,NA,211575,212082,211472,211575,Flankertask,86,49961,89,yes,1024
96.66666667,96.66666667,559.8,559.8,black,legacy,legacy,legacy,0,incongruent,uniform,1,undefined,1,h,89,0,0,0,89,0,89,0,89,NA,0,0,0,89,89,89,89,9/29/19 15:58,600,The main experiment item,yes,BR-Flankertask.osexp,C:/Users/Breena Riley/Desktop/2019 Fall/MultQuant/lab 2.1,no,mono,no,18,no,white,no,yes,768,legacy,9,79,C:/Users/Breena Riley/Desktop/2019 Fall/MultQuant/lab 2.1/BR-subject-4.csv,legacy,Kafkaesque Koffka,3.2.8,0,h,NA,NA,s,s,NA,h,421,NA,NA,36347,16720,NA,421,2,legacy,1024,2,48000,-16,experiment,SSHSS,4,even,212091,38796,197337,NA,198006,2444,41036,NA,213165,NA,2449,180615,NA,213266,213688,213162,213266,Flankertask,87,50382,90,yes,1024
96.7032967,96.7032967,558.4395604,558.4395604,black,legacy,legacy,legacy,0,congruent,uniform,1,undefined,1,s,90,0,0,0,90,0,90,0,90,NA,0,0,0,90,90,90,90,9/29/19 15:58,600,The main experiment item,yes,BR-Flankertask.osexp,C:/Users/Breena Riley/Desktop/2019 Fall/MultQuant/lab 2.1,no,mono,no,18,no,white,no,yes,768,legacy,10,79,C:/Users/Breena Riley/Desktop/2019 Fall/MultQuant/lab 2.1/BR-subject-4.csv,legacy,Kafkaesque Koffka,3.2.8,0,s,NA,NA,s,s,NA,s,436,NA,NA,36347,16720,NA,436,2,legacy,1024,2,48000,-16,experiment,SSSSS,4,even,213693,38796,197337,NA,198006,2444,41036,NA,214772,NA,2449,180615,NA,214873,215309,214769,214873,Flankertask,88,50818,91,yes,1024
96.73913043,96.73913043,557.173913,557.173913,black,legacy,legacy,legacy,0,congruent,uniform,1,undefined,1,h,91,0,0,0,91,0,91,0,91,NA,0,0,0,91,91,91,91,9/29/19 15:58,600,The main experiment item,yes,BR-Flankertask.osexp,C:/Users/Breena Riley/Desktop/2019 Fall/MultQuant/lab 2.1,no,mono,no,18,no,white,no,yes,768,legacy,11,79,C:/Users/Breena Riley/Desktop/2019 Fall/MultQuant/lab 2.1/BR-subject-4.csv,legacy,Kafkaesque Koffka,3.2.8,0,h,NA,NA,s,s,NA,h,442,NA,NA,36347,16720,NA,442,2,legacy,1024,2,48000,-16,experiment,HHHHH,4,even,215317,38796,197337,NA,198006,2444,41036,NA,216392,NA,2449,180615,NA,216494,216938,216390,216494,Flankertask,89,51260,92,yes,1024
96.77419355,96.77419355,556.9569892,556.9569892,black,legacy,legacy,legacy,0,congruent,uniform,1,undefined,1,s,92,0,0,0,92,0,92,0,92,NA,0,0,0,92,92,92,92,9/29/19 15:58,600,The main experiment item,yes,BR-Flankertask.osexp,C:/Users/Breena Riley/Desktop/2019 Fall/MultQuant/lab 2.1,no,mono,no,18,no,white,no,yes,768,legacy,12,79,C:/Users/Breena Riley/Desktop/2019 Fall/MultQuant/lab 2.1/BR-subject-4.csv,legacy,Kafkaesque Koffka,3.2.8,0,s,NA,NA,s,s,NA,s,537,NA,NA,36347,16720,NA,537,2,legacy,1024,2,48000,-16,experiment,SSSSS,4,even,216946,38796,197337,NA,198006,2444,41036,NA,218019,NA,2449,180615,NA,218121,218659,218016,218120,Flankertask,90,51797,93,yes,1024
96.80851064,96.80851064,556.0851064,556.0851064,black,legacy,legacy,legacy,0,congruent,uniform,1,undefined,1,h,93,0,0,0,93,0,93,0,93,NA,0,0,0,93,93,93,93,9/29/19 15:58,600,The main experiment item,yes,BR-Flankertask.osexp,C:/Users/Breena Riley/Desktop/2019 Fall/MultQuant/lab 2.1,no,mono,no,18,no,white,no,yes,768,legacy,13,79,C:/Users/Breena Riley/Desktop/2019 Fall/MultQuant/lab 2.1/BR-subject-4.csv,legacy,Kafkaesque Koffka,3.2.8,0,h,NA,NA,s,s,NA,h,475,NA,NA,36347,16720,NA,475,2,legacy,1024,2,48000,-16,experiment,HHHHH,4,even,218667,38796,197337,NA,198006,2444,41036,NA,219741,NA,2449,180615,NA,219843,220318,219738,219843,Flankertask,91,52272,94,yes,1024
96.84210526,96.84210526,555.4315789,555.4315789,black,legacy,legacy,legacy,0,congruent,uniform,1,undefined,1,s,94,0,0,0,94,0,94,0,94,NA,0,0,0,94,94,94,94,9/29/19 15:58,600,The main experiment item,yes,BR-Flankertask.osexp,C:/Users/Breena Riley/Desktop/2019 Fall/MultQuant/lab 2.1,no,mono,no,18,no,white,no,yes,768,legacy,14,79,C:/Users/Breena Riley/Desktop/2019 Fall/MultQuant/lab 2.1/BR-subject-4.csv,legacy,Kafkaesque Koffka,3.2.8,0,s,NA,NA,s,s,NA,s,494,NA,NA,36347,16720,NA,494,2,legacy,1024,2,48000,-16,experiment,SSSSS,4,even,220327,38796,197337,NA,198006,2444,41036,NA,221403,NA,2449,180615,NA,221505,222000,221400,221504,Flankertask,92,52766,95,yes,1024
96.875,96.875,554.7916667,554.7916667,black,legacy,legacy,legacy,0,congruent,uniform,1,undefined,1,h,95,0,0,0,95,0,95,0,95,NA,0,0,0,95,95,95,95,9/29/19 15:58,600,The main experiment item,yes,BR-Flankertask.osexp,C:/Users/Breena Riley/Desktop/2019 Fall/MultQuant/lab 2.1,no,mono,no,18,no,white,no,yes,768,legacy,15,79,C:/Users/Breena Riley/Desktop/2019 Fall/MultQuant/lab 2.1/BR-subject-4.csv,legacy,Kafkaesque Koffka,3.2.8,0,h,NA,NA,s,s,NA,h,494,NA,NA,36347,16720,NA,494,2,legacy,1024,2,48000,-16,experiment,HHHHH,4,even,222008,38796,197337,NA,198006,2444,41036,NA,223083,NA,2449,180615,NA,223185,223681,223080,223185,Flankertask,93,53260,96,yes,1024
96.90721649,96.90721649,554.3917526,554.3917526,black,legacy,legacy,legacy,0,incongruent,uniform,1,undefined,1,s,96,0,0,0,96,0,96,0,96,NA,0,0,0,96,96,96,96,9/29/19 15:58,600,The main experiment item,yes,BR-Flankertask.osexp,C:/Users/Breena Riley/Desktop/2019 Fall/MultQuant/lab 2.1,no,mono,no,18,no,white,no,yes,768,legacy,16,79,C:/Users/Breena Riley/Desktop/2019 Fall/MultQuant/lab 2.1/BR-subject-4.csv,legacy,Kafkaesque Koffka,3.2.8,0,s,NA,NA,s,s,NA,s,516,NA,NA,36347,16720,NA,516,2,legacy,1024,2,48000,-16,experiment,HHSHH,4,even,223686,38796,197337,NA,198006,2444,41036,NA,224762,NA,2449,180615,NA,224863,225380,224759,224863,Flankertask,94,53776,97,yes,1024
96.93877551,96.93877551,554.2244898,554.2244898,black,legacy,legacy,legacy,0,congruent,uniform,1,undefined,1,s,97,0,0,0,97,0,97,0,97,NA,0,0,0,97,97,97,97,9/29/19 15:58,600,The main experiment item,yes,BR-Flankertask.osexp,C:/Users/Breena Riley/Desktop/2019 Fall/MultQuant/lab 2.1,no,mono,no,18,no,white,no,yes,768,legacy,17,79,C:/Users/Breena Riley/Desktop/2019 Fall/MultQuant/lab 2.1/BR-subject-4.csv,legacy,Kafkaesque Koffka,3.2.8,0,s,NA,NA,s,s,NA,s,538,NA,NA,36347,16720,NA,538,2,legacy,1024,2,48000,-16,experiment,SSSSS,4,even,225389,38796,197337,NA,198006,2444,41036,NA,226463,NA,2449,180615,NA,226565,227104,226460,226564,Flankertask,95,54314,98,yes,1024
96.96969697,96.96969697,554.3030303,554.3030303,black,legacy,legacy,legacy,0,incongruent,uniform,1,undefined,1,h,98,0,0,0,98,0,98,0,98,NA,0,0,0,98,98,98,98,9/29/19 15:58,600,The main experiment item,yes,BR-Flankertask.osexp,C:/Users/Breena Riley/Desktop/2019 Fall/MultQuant/lab 2.1,no,mono,no,18,no,white,no,yes,768,legacy,18,79,C:/Users/Breena Riley/Desktop/2019 Fall/MultQuant/lab 2.1/BR-subject-4.csv,legacy,Kafkaesque Koffka,3.2.8,0,h,NA,NA,s,s,NA,h,562,NA,NA,36347,16720,NA,562,2,legacy,1024,2,48000,-16,experiment,SSHSS,4,even,227112,38796,197337,NA,198006,2444,41036,NA,228188,NA,2449,180615,NA,228290,228853,228185,228289,Flankertask,96,54876,99,yes,1024
97,97,553.71,553.71,black,legacy,legacy,legacy,0,congruent,uniform,1,undefined,1,s,99,0,0,0,99,0,99,0,99,NA,0,0,0,99,99,99,99,9/29/19 15:58,600,The main experiment item,yes,BR-Flankertask.osexp,C:/Users/Breena Riley/Desktop/2019 Fall/MultQuant/lab 2.1,no,mono,no,18,no,white,no,yes,768,legacy,19,79,C:/Users/Breena Riley/Desktop/2019 Fall/MultQuant/lab 2.1/BR-subject-4.csv,legacy,Kafkaesque Koffka,3.2.8,0,s,NA,NA,s,s,NA,s,495,NA,NA,36347,16720,NA,495,2,legacy,1024,2,48000,-16,experiment,SSSSS,4,even,228862,38796,197337,NA,198006,2444,41036,NA,229937,NA,2449,180615,NA,230038,230535,229934,230038,Flankertask,97,55371,100,yes,1024
97.02970297,97.02970297,557.2970297,557.2970297,black,legacy,legacy,legacy,0,incongruent,uniform,1,undefined,1,h,100,0,0,0,100,0,100,0,100,NA,0,0,0,100,100,100,100,9/29/19 15:58,600,The main experiment item,yes,BR-Flankertask.osexp,C:/Users/Breena Riley/Desktop/2019 Fall/MultQuant/lab 2.1,no,mono,no,18,no,white,no,yes,768,legacy,20,79,C:/Users/Breena Riley/Desktop/2019 Fall/MultQuant/lab 2.1/BR-subject-4.csv,legacy,Kafkaesque Koffka,3.2.8,0,h,NA,NA,s,s,NA,h,916,NA,NA,36347,16720,NA,916,2,legacy,1024,2,48000,-16,experiment,SSHSS,4,even,230543,38796,197337,NA,198006,2444,41036,NA,231617,NA,2449,180615,NA,231719,232637,231614,231718,Flankertask,98,56287,101,yes,1024
97.05882353,97.05882353,558.1568627,558.1568627,black,legacy,legacy,legacy,0,incongruent,uniform,1,undefined,1,h,101,0,0,0,101,0,101,0,101,NA,0,0,0,101,101,101,101,9/29/19 15:58,600,The main experiment item,yes,BR-Flankertask.osexp,C:/Users/Breena Riley/Desktop/2019 Fall/MultQuant/lab 2.1,no,mono,no,18,no,white,no,yes,768,legacy,21,79,C:/Users/Breena Riley/Desktop/2019 Fall/MultQuant/lab 2.1/BR-subject-4.csv,legacy,Kafkaesque Koffka,3.2.8,0,h,NA,NA,s,s,NA,h,645,NA,NA,36347,16720,NA,645,2,legacy,1024,2,48000,-16,experiment,SSHSS,4,even,233146,38796,197337,NA,198006,2444,232645,NA,234218,NA,2449,180615,NA,234319,234965,234215,234319,Flankertask,99,56932,102,yes,1024
96.11650485,96.11650485,556.4174757,556.4174757,black,legacy,legacy,legacy,0,incongruent,uniform,0,undefined,0,h,102,0,0,0,102,0,102,0,102,NA,0,0,0,102,102,102,102,9/29/19 15:58,600,The main experiment item,yes,BR-Flankertask.osexp,C:/Users/Breena Riley/Desktop/2019 Fall/MultQuant/lab 2.1,no,mono,no,18,no,white,no,yes,768,legacy,22,79,C:/Users/Breena Riley/Desktop/2019 Fall/MultQuant/lab 2.1/BR-subject-4.csv,legacy,Kafkaesque Koffka,3.2.8,0,s,NA,NA,s,s,NA,s,379,NA,NA,36347,16720,NA,379,2,legacy,1024,2,48000,-16,experiment,SSHSS,4,even,235476,38796,197337,NA,198006,2444,234974,NA,236549,NA,2449,180615,NA,236651,237032,236547,236650,Flankertask,99,57311,103,yes,1024
96.15384615,96.15384615,557.1153846,557.1153846,black,legacy,legacy,legacy,0,incongruent,uniform,1,undefined,1,s,103,0,0,0,103,0,103,0,103,NA,0,0,0,103,103,103,103,9/29/19 15:58,600,The main experiment item,yes,BR-Flankertask.osexp,C:/Users/Breena Riley/Desktop/2019 Fall/MultQuant/lab 2.1,no,mono,no,18,no,white,no,yes,768,legacy,23,79,C:/Users/Breena Riley/Desktop/2019 Fall/MultQuant/lab 2.1/BR-subject-4.csv,legacy,Kafkaesque Koffka,3.2.8,0,s,NA,NA,s,s,NA,s,629,NA,NA,36347,16720,NA,629,2,legacy,1024,2,48000,-16,experiment,HHSHH,4,even,237540,38796,197337,NA,237039,2444,234974,NA,238614,NA,2449,180615,NA,238715,239344,238612,238715,Flankertask,100,57940,104,yes,1024
96.19047619,96.19047619,556.9142857,556.9142857,black,legacy,legacy,legacy,0,incongruent,uniform,1,undefined,1,s,104,0,0,0,104,0,104,0,104,NA,0,0,0,104,104,104,104,9/29/19 15:58,600,The main experiment item,yes,BR-Flankertask.osexp,C:/Users/Breena Riley/Desktop/2019 Fall/MultQuant/lab 2.1,no,mono,no,18,no,white,no,yes,768,legacy,24,79,C:/Users/Breena Riley/Desktop/2019 Fall/MultQuant/lab 2.1/BR-subject-4.csv,legacy,Kafkaesque Koffka,3.2.8,0,s,NA,NA,s,s,NA,s,536,NA,NA,36347,16720,NA,536,2,legacy,1024,2,48000,-16,experiment,HHSHH,4,even,239855,38796,197337,NA,237039,2444,239354,NA,240932,NA,2449,180615,NA,241034,241572,240928,241033,Flankertask,101,58476,105,yes,1024
96.22641509,96.22641509,554.8396226,554.8396226,black,legacy,legacy,legacy,0,congruent,uniform,1,undefined,1,h,105,0,0,0,105,0,105,0,105,NA,0,0,0,105,105,105,105,9/29/19 15:58,600,The main experiment item,yes,BR-Flankertask.osexp,C:/Users/Breena Riley/Desktop/2019 Fall/MultQuant/lab 2.1,no,mono,no,18,no,white,no,yes,768,legacy,25,79,C:/Users/Breena Riley/Desktop/2019 Fall/MultQuant/lab 2.1/BR-subject-4.csv,legacy,Kafkaesque Koffka,3.2.8,0,h,NA,NA,s,s,NA,h,337,NA,NA,36347,16720,NA,337,2,legacy,1024,2,48000,-16,experiment,HHHHH,4,even,241580,38796,197337,NA,237039,2444,239354,NA,242656,NA,2449,180615,NA,242758,243096,242653,242757,Flankertask,102,58813,106,yes,1024
95.3271028,95.3271028,553.4485981,553.4485981,black,legacy,legacy,legacy,0,incongruent,uniform,0,undefined,0,s,106,0,0,0,106,0,106,0,106,NA,0,0,0,106,106,106,106,9/29/19 15:58,600,The main experiment item,yes,BR-Flankertask.osexp,C:/Users/Breena Riley/Desktop/2019 Fall/MultQuant/lab 2.1,no,mono,no,18,no,white,no,yes,768,legacy,26,79,C:/Users/Breena Riley/Desktop/2019 Fall/MultQuant/lab 2.1/BR-subject-4.csv,legacy,Kafkaesque Koffka,3.2.8,0,h,NA,NA,s,s,NA,h,406,NA,NA,36347,16720,NA,406,2,legacy,1024,2,48000,-16,experiment,HHSHH,4,even,243103,38796,197337,NA,237039,2444,239354,NA,244179,NA,2449,180615,NA,244280,244687,244176,244280,Flankertask,102,59219,107,yes,1024
95.37037037,95.37037037,552.8703704,552.8703704,black,legacy,legacy,legacy,0,incongruent,uniform,1,undefined,1,s,107,0,0,0,107,0,107,0,107,NA,0,0,0,107,107,107,107,9/29/19 15:58,600,The main experiment item,yes,BR-Flankertask.osexp,C:/Users/Breena Riley/Desktop/2019 Fall/MultQuant/lab 2.1,no,mono,no,18,no,white,no,yes,768,legacy,27,79,C:/Users/Breena Riley/Desktop/2019 Fall/MultQuant/lab 2.1/BR-subject-4.csv,legacy,Kafkaesque Koffka,3.2.8,0,s,NA,NA,s,s,NA,s,491,NA,NA,36347,16720,NA,491,2,legacy,1024,2,48000,-16,experiment,HHSHH,4,even,245197,38796,197337,NA,244695,2444,239354,NA,246271,NA,2449,180615,NA,246373,246866,246268,246372,Flankertask,103,59710,108,yes,1024
95.41284404,95.41284404,551.5779817,551.5779817,black,legacy,legacy,legacy,0,incongruent,uniform,1,undefined,1,s,108,0,0,0,108,0,108,0,108,NA,0,0,0,108,108,108,108,9/29/19 15:58,600,The main experiment item,yes,BR-Flankertask.osexp,C:/Users/Breena Riley/Desktop/2019 Fall/MultQuant/lab 2.1,no,mono,no,18,no,white,no,yes,768,legacy,28,79,C:/Users/Breena Riley/Desktop/2019 Fall/MultQuant/lab 2.1/BR-subject-4.csv,legacy,Kafkaesque Koffka,3.2.8,0,s,NA,NA,s,s,NA,s,412,NA,NA,36347,16720,NA,412,2,legacy,1024,2,48000,-16,experiment,HHSHH,4,even,246873,38796,197337,NA,244695,2444,239354,NA,247953,NA,2449,180615,NA,248055,248468,247950,248055,Flankertask,104,60122,109,yes,1024
95.45454545,95.45454545,549.7454545,549.7454545,black,legacy,legacy,legacy,0,congruent,uniform,1,undefined,1,s,109,0,0,0,109,0,109,0,109,NA,0,0,0,109,109,109,109,9/29/19 15:58,600,The main experiment item,yes,BR-Flankertask.osexp,C:/Users/Breena Riley/Desktop/2019 Fall/MultQuant/lab 2.1,no,mono,no,18,no,white,no,yes,768,legacy,29,79,C:/Users/Breena Riley/Desktop/2019 Fall/MultQuant/lab 2.1/BR-subject-4.csv,legacy,Kafkaesque Koffka,3.2.8,0,s,NA,NA,s,s,NA,s,350,NA,NA,36347,16720,NA,350,2,legacy,1024,2,48000,-16,experiment,SSSSS,4,even,248477,38796,197337,NA,244695,2444,239354,NA,249552,NA,2449,180615,NA,249654,250005,249550,249653,Flankertask,105,60472,110,yes,1024
95.4954955,95.4954955,548.2792793,548.2792793,black,legacy,legacy,legacy,0,incongruent,uniform,1,undefined,1,s,110,0,0,0,110,0,110,0,110,NA,0,0,0,110,110,110,110,9/29/19 15:58,600,The main experiment item,yes,BR-Flankertask.osexp,C:/Users/Breena Riley/Desktop/2019 Fall/MultQuant/lab 2.1,no,mono,no,18,no,white,no,yes,768,legacy,30,79,C:/Users/Breena Riley/Desktop/2019 Fall/MultQuant/lab 2.1/BR-subject-4.csv,legacy,Kafkaesque Koffka,3.2.8,0,s,NA,NA,s,s,NA,s,387,NA,NA,36347,16720,NA,387,2,legacy,1024,2,48000,-16,experiment,HHSHH,4,even,250013,38796,197337,NA,244695,2444,239354,NA,251089,NA,2449,180615,NA,251191,251580,251087,251191,Flankertask,106,60859,111,yes,1024
95.53571429,95.53571429,547.5535714,547.5535714,black,legacy,legacy,legacy,0,congruent,uniform,1,undefined,1,h,111,0,0,0,111,0,111,0,111,NA,0,0,0,111,111,111,111,9/29/19 15:58,600,The main experiment item,yes,BR-Flankertask.osexp,C:/Users/Breena Riley/Desktop/2019 Fall/MultQuant/lab 2.1,no,mono,no,18,no,white,no,yes,768,legacy,31,79,C:/Users/Breena Riley/Desktop/2019 Fall/MultQuant/lab 2.1/BR-subject-4.csv,legacy,Kafkaesque Koffka,3.2.8,0,h,NA,NA,s,s,NA,h,467,NA,NA,36347,16720,NA,467,2,legacy,1024,2,48000,-16,experiment,HHHHH,4,even,251584,38796,197337,NA,244695,2444,239354,NA,252658,NA,2449,180615,NA,252760,253228,252656,252760,Flankertask,107,61326,112,yes,1024
95.57522124,95.57522124,546.2300885,546.2300885,black,legacy,legacy,legacy,0,congruent,uniform,1,undefined,1,h,112,0,0,0,112,0,112,0,112,NA,0,0,0,112,112,112,112,9/29/19 15:58,600,The main experiment item,yes,BR-Flankertask.osexp,C:/Users/Breena Riley/Desktop/2019 Fall/MultQuant/lab 2.1,no,mono,no,18,no,white,no,yes,768,legacy,32,79,C:/Users/Breena Riley/Desktop/2019 Fall/MultQuant/lab 2.1/BR-subject-4.csv,legacy,Kafkaesque Koffka,3.2.8,0,h,NA,NA,s,s,NA,h,398,NA,NA,36347,16720,NA,398,2,legacy,1024,2,48000,-16,experiment,HHHHH,4,even,253237,38796,197337,NA,244695,2444,239354,NA,254313,NA,2449,180615,NA,254415,254814,254311,254415,Flankertask,108,61724,113,yes,1024
95.61403509,95.61403509,545.6754386,545.6754386,black,legacy,legacy,legacy,0,congruent,uniform,1,undefined,1,h,113,0,0,0,113,0,113,0,113,NA,0,0,0,113,113,113,113,9/29/19 15:58,600,The main experiment item,yes,BR-Flankertask.osexp,C:/Users/Breena Riley/Desktop/2019 Fall/MultQuant/lab 2.1,no,mono,no,18,no,white,no,yes,768,legacy,33,79,C:/Users/Breena Riley/Desktop/2019 Fall/MultQuant/lab 2.1/BR-subject-4.csv,legacy,Kafkaesque Koffka,3.2.8,0,h,NA,NA,s,s,NA,h,483,NA,NA,36347,16720,NA,483,2,legacy,1024,2,48000,-16,experiment,HHHHH,4,even,254823,38796,197337,NA,244695,2444,239354,NA,255902,NA,2449,180615,NA,256004,256488,255899,256003,Flankertask,109,62207,114,yes,1024
95.65217391,95.65217391,545.7652174,545.7652174,black,legacy,legacy,legacy,0,incongruent,uniform,1,undefined,1,s,114,0,0,0,114,0,114,0,114,NA,0,0,0,114,114,114,114,9/29/19 15:58,600,The main experiment item,yes,BR-Flankertask.osexp,C:/Users/Breena Riley/Desktop/2019 Fall/MultQuant/lab 2.1,no,mono,no,18,no,white,no,yes,768,legacy,34,79,C:/Users/Breena Riley/Desktop/2019 Fall/MultQuant/lab 2.1/BR-subject-4.csv,legacy,Kafkaesque Koffka,3.2.8,0,s,NA,NA,s,s,NA,s,556,NA,NA,36347,16720,NA,556,2,legacy,1024,2,48000,-16,experiment,HHSHH,4,even,256495,38796,197337,NA,244695,2444,239354,NA,257572,NA,2449,180615,NA,257673,258230,257570,257673,Flankertask,110,62763,115,yes,1024
95.68965517,95.68965517,545.9655172,545.9655172,black,legacy,legacy,legacy,0,congruent,uniform,1,undefined,1,s,115,0,0,0,115,0,115,0,115,NA,0,0,0,115,115,115,115,9/29/19 15:58,600,The main experiment item,yes,BR-Flankertask.osexp,C:/Users/Breena Riley/Desktop/2019 Fall/MultQuant/lab 2.1,no,mono,no,18,no,white,no,yes,768,legacy,35,79,C:/Users/Breena Riley/Desktop/2019 Fall/MultQuant/lab 2.1/BR-subject-4.csv,legacy,Kafkaesque Koffka,3.2.8,0,s,NA,NA,s,s,NA,s,569,NA,NA,36347,16720,NA,569,2,legacy,1024,2,48000,-16,experiment,SSSSS,4,even,258238,38796,197337,NA,244695,2444,239354,NA,259313,NA,2449,180615,NA,259415,259985,259310,259415,Flankertask,111,63332,116,yes,1024
95.72649573,95.72649573,545.3675214,545.3675214,black,legacy,legacy,legacy,0,incongruent,uniform,1,undefined,1,s,116,0,0,0,116,0,116,0,116,NA,0,0,0,116,116,116,116,9/29/19 15:58,600,The main experiment item,yes,BR-Flankertask.osexp,C:/Users/Breena Riley/Desktop/2019 Fall/MultQuant/lab 2.1,no,mono,no,18,no,white,no,yes,768,legacy,36,79,C:/Users/Breena Riley/Desktop/2019 Fall/MultQuant/lab 2.1/BR-subject-4.csv,legacy,Kafkaesque Koffka,3.2.8,0,s,NA,NA,s,s,NA,s,476,NA,NA,36347,16720,NA,476,2,legacy,1024,2,48000,-16,experiment,HHSHH,4,even,259993,38796,197337,NA,244695,2444,239354,NA,261075,NA,2449,180615,NA,261176,261653,261072,261176,Flankertask,112,63808,117,yes,1024
95.76271186,95.76271186,545.1694915,545.1694915,black,legacy,legacy,legacy,0,incongruent,uniform,1,undefined,1,h,117,0,0,0,117,0,117,0,117,NA,0,0,0,117,117,117,117,9/29/19 15:58,600,The main experiment item,yes,BR-Flankertask.osexp,C:/Users/Breena Riley/Desktop/2019 Fall/MultQuant/lab 2.1,no,mono,no,18,no,white,no,yes,768,legacy,37,79,C:/Users/Breena Riley/Desktop/2019 Fall/MultQuant/lab 2.1/BR-subject-4.csv,legacy,Kafkaesque Koffka,3.2.8,0,h,NA,NA,s,s,NA,h,522,NA,NA,36347,16720,NA,522,2,legacy,1024,2,48000,-16,experiment,SSHSS,4,even,261663,38796,197337,NA,244695,2444,239354,NA,262737,NA,2449,180615,NA,262840,263364,262736,262840,Flankertask,113,64330,118,yes,1024
95.79831933,95.79831933,545.4201681,545.4201681,black,legacy,legacy,legacy,0,incongruent,uniform,1,undefined,1,s,118,0,0,0,118,0,118,0,118,NA,0,0,0,118,118,118,118,9/29/19 15:58,600,The main experiment item,yes,BR-Flankertask.osexp,C:/Users/Breena Riley/Desktop/2019 Fall/MultQuant/lab 2.1,no,mono,no,18,no,white,no,yes,768,legacy,38,79,C:/Users/Breena Riley/Desktop/2019 Fall/MultQuant/lab 2.1/BR-subject-4.csv,legacy,Kafkaesque Koffka,3.2.8,0,s,NA,NA,s,s,NA,s,575,NA,NA,36347,16720,NA,575,2,legacy,1024,2,48000,-16,experiment,HHSHH,4,even,263372,38796,197337,NA,244695,2444,239354,NA,264458,NA,2449,180615,NA,264559,265135,264455,264559,Flankertask,114,64905,119,yes,1024
95.83333333,95.83333333,545.1666667,545.1666667,black,legacy,legacy,legacy,0,incongruent,uniform,1,undefined,1,h,119,0,0,0,119,0,119,0,119,NA,0,0,0,119,119,119,119,9/29/19 15:58,600,The main experiment item,yes,BR-Flankertask.osexp,C:/Users/Breena Riley/Desktop/2019 Fall/MultQuant/lab 2.1,no,mono,no,18,no,white,no,yes,768,legacy,39,79,C:/Users/Breena Riley/Desktop/2019 Fall/MultQuant/lab 2.1/BR-subject-4.csv,legacy,Kafkaesque Koffka,3.2.8,0,h,NA,NA,s,s,NA,h,515,NA,NA,36347,16720,NA,515,2,legacy,1024,2,48000,-16,experiment,SSHSS,4,even,265140,38796,197337,NA,244695,2444,239354,NA,266223,NA,2449,180615,NA,266324,266840,266220,266324,Flankertask,115,65420,120,yes,1024
95.8677686,95.8677686,545.214876,545.214876,black,legacy,legacy,legacy,0,incongruent,uniform,1,undefined,1,h,120,0,0,0,120,0,120,0,120,NA,0,0,0,120,120,120,120,9/29/19 15:58,600,The main experiment item,yes,BR-Flankertask.osexp,C:/Users/Breena Riley/Desktop/2019 Fall/MultQuant/lab 2.1,no,mono,no,18,no,white,no,yes,768,legacy,40,79,C:/Users/Breena Riley/Desktop/2019 Fall/MultQuant/lab 2.1/BR-subject-4.csv,legacy,Kafkaesque Koffka,3.2.8,0,h,NA,NA,s,s,NA,h,551,NA,NA,36347,16720,NA,551,2,legacy,1024,2,48000,-16,experiment,SSHSS,4,even,266849,38796,197337,NA,244695,2444,239354,NA,267922,NA,2449,180615,NA,268023,268575,267920,268023,Flankertask,116,65971,121,yes,1024
95.90163934,95.90163934,545.1885246,545.1885246,black,legacy,legacy,legacy,0,incongruent,uniform,1,undefined,1,h,121,0,0,0,121,0,121,0,121,NA,0,0,0,121,121,121,121,9/29/19 15:58,600,The main experiment item,yes,BR-Flankertask.osexp,C:/Users/Breena Riley/Desktop/2019 Fall/MultQuant/lab 2.1,no,mono,no,18,no,white,no,yes,768,legacy,41,79,C:/Users/Breena Riley/Desktop/2019 Fall/MultQuant/lab 2.1/BR-subject-4.csv,legacy,Kafkaesque Koffka,3.2.8,0,h,NA,NA,s,s,NA,h,542,NA,NA,36347,16720,NA,542,2,legacy,1024,2,48000,-16,experiment,SSHSS,4,even,268583,38796,197337,NA,244695,2444,239354,NA,269658,NA,2449,180615,NA,269760,270304,269655,269759,Flankertask,117,66513,122,yes,1024
95.93495935,95.93495935,544.2764228,544.2764228,black,legacy,legacy,legacy,0,incongruent,uniform,1,undefined,1,h,122,0,0,0,122,0,122,0,122,NA,0,0,0,122,122,122,122,9/29/19 15:58,600,The main experiment item,yes,BR-Flankertask.osexp,C:/Users/Breena Riley/Desktop/2019 Fall/MultQuant/lab 2.1,no,mono,no,18,no,white,no,yes,768,legacy,42,79,C:/Users/Breena Riley/Desktop/2019 Fall/MultQuant/lab 2.1/BR-subject-4.csv,legacy,Kafkaesque Koffka,3.2.8,0,h,NA,NA,s,s,NA,h,433,NA,NA,36347,16720,NA,433,2,legacy,1024,2,48000,-16,experiment,SSHSS,4,even,270311,38796,197337,NA,244695,2444,239354,NA,271386,NA,2449,180615,NA,271488,271922,271382,271486,Flankertask,118,66946,123,yes,1024
95.96774194,95.96774194,544.4516129,544.4516129,black,legacy,legacy,legacy,0,incongruent,uniform,1,undefined,1,s,123,0,0,0,123,0,123,0,123,NA,0,0,0,123,123,123,123,9/29/19 15:58,600,The main experiment item,yes,BR-Flankertask.osexp,C:/Users/Breena Riley/Desktop/2019 Fall/MultQuant/lab 2.1,no,mono,no,18,no,white,no,yes,768,legacy,43,79,C:/Users/Breena Riley/Desktop/2019 Fall/MultQuant/lab 2.1/BR-subject-4.csv,legacy,Kafkaesque Koffka,3.2.8,0,s,NA,NA,s,s,NA,s,566,NA,NA,36347,16720,NA,566,2,legacy,1024,2,48000,-16,experiment,HHSHH,4,even,271927,38796,197337,NA,244695,2444,239354,NA,273002,NA,2449,180615,NA,273103,273670,272999,273103,Flankertask,119,67512,124,yes,1024
96,96,544.136,544.136,black,legacy,legacy,legacy,0,incongruent,uniform,1,undefined,1,s,124,0,0,0,124,0,124,0,124,NA,0,0,0,124,124,124,124,9/29/19 15:58,600,The main experiment item,yes,BR-Flankertask.osexp,C:/Users/Breena Riley/Desktop/2019 Fall/MultQuant/lab 2.1,no,mono,no,18,no,white,no,yes,768,legacy,44,79,C:/Users/Breena Riley/Desktop/2019 Fall/MultQuant/lab 2.1/BR-subject-4.csv,legacy,Kafkaesque Koffka,3.2.8,0,s,NA,NA,s,s,NA,s,505,NA,NA,36347,16720,NA,505,2,legacy,1024,2,48000,-16,experiment,HHSHH,4,even,273678,38796,197337,NA,244695,2444,239354,NA,274752,NA,2449,180615,NA,274854,275360,274750,274854,Flankertask,120,68017,125,yes,1024
96.03174603,96.03174603,543.1428571,543.1428571,black,legacy,legacy,legacy,0,congruent,uniform,1,undefined,1,s,125,0,0,0,125,0,125,0,125,NA,0,0,0,125,125,125,125,9/29/19 15:58,600,The main experiment item,yes,BR-Flankertask.osexp,C:/Users/Breena Riley/Desktop/2019 Fall/MultQuant/lab 2.1,no,mono,no,18,no,white,no,yes,768,legacy,45,79,C:/Users/Breena Riley/Desktop/2019 Fall/MultQuant/lab 2.1/BR-subject-4.csv,legacy,Kafkaesque Koffka,3.2.8,0,s,NA,NA,s,s,NA,s,419,NA,NA,36347,16720,NA,419,2,legacy,1024,2,48000,-16,experiment,SSSSS,4,even,275369,38796,197337,NA,244695,2444,239354,NA,276443,NA,2449,180615,NA,276545,276965,276440,276544,Flankertask,121,68436,126,yes,1024
96.06299213,96.06299213,541.9133858,541.9133858,black,legacy,legacy,legacy,0,congruent,uniform,1,undefined,1,h,126,0,0,0,126,0,126,0,126,NA,0,0,0,126,126,126,126,9/29/19 15:58,600,The main experiment item,yes,BR-Flankertask.osexp,C:/Users/Breena Riley/Desktop/2019 Fall/MultQuant/lab 2.1,no,mono,no,18,no,white,no,yes,768,legacy,46,79,C:/Users/Breena Riley/Desktop/2019 Fall/MultQuant/lab 2.1/BR-subject-4.csv,legacy,Kafkaesque Koffka,3.2.8,0,h,NA,NA,s,s,NA,h,387,NA,NA,36347,16720,NA,387,2,legacy,1024,2,48000,-16,experiment,HHHHH,4,even,276973,38796,197337,NA,244695,2444,239354,NA,278047,NA,2449,180615,NA,278149,278538,278045,278148,Flankertask,122,68823,127,yes,1024
96.09375,96.09375,541.03125,541.03125,black,legacy,legacy,legacy,0,incongruent,uniform,1,undefined,1,h,127,0,0,0,127,0,127,0,127,NA,0,0,0,127,127,127,127,9/29/19 15:58,600,The main experiment item,yes,BR-Flankertask.osexp,C:/Users/Breena Riley/Desktop/2019 Fall/MultQuant/lab 2.1,no,mono,no,18,no,white,no,yes,768,legacy,47,79,C:/Users/Breena Riley/Desktop/2019 Fall/MultQuant/lab 2.1/BR-subject-4.csv,legacy,Kafkaesque Koffka,3.2.8,0,h,NA,NA,s,s,NA,h,429,NA,NA,36347,16720,NA,429,2,legacy,1024,2,48000,-16,experiment,SSHSS,4,even,278546,38796,197337,NA,244695,2444,239354,NA,279621,NA,2449,180615,NA,279723,280153,279618,279723,Flankertask,123,69252,128,yes,1024
96.12403101,96.12403101,540.8837209,540.8837209,black,legacy,legacy,legacy,0,congruent,uniform,1,undefined,1,s,128,0,0,0,128,0,128,0,128,NA,0,0,0,128,128,128,128,9/29/19 15:58,600,The main experiment item,yes,BR-Flankertask.osexp,C:/Users/Breena Riley/Desktop/2019 Fall/MultQuant/lab 2.1,no,mono,no,18,no,white,no,yes,768,legacy,48,79,C:/Users/Breena Riley/Desktop/2019 Fall/MultQuant/lab 2.1/BR-subject-4.csv,legacy,Kafkaesque Koffka,3.2.8,0,s,NA,NA,s,s,NA,s,522,NA,NA,36347,16720,NA,522,2,legacy,1024,2,48000,-16,experiment,SSSSS,4,even,280162,38796,197337,NA,244695,2444,239354,NA,281236,NA,2449,180615,NA,281337,281861,281234,281337,Flankertask,124,69774,129,yes,1024
96.15384615,96.15384615,540.6846154,540.6846154,black,legacy,legacy,legacy,0,congruent,uniform,1,undefined,1,s,129,0,0,0,129,0,129,0,129,NA,0,0,0,129,129,129,129,9/29/19 15:58,600,The main experiment item,yes,BR-Flankertask.osexp,C:/Users/Breena Riley/Desktop/2019 Fall/MultQuant/lab 2.1,no,mono,no,18,no,white,no,yes,768,legacy,49,79,C:/Users/Breena Riley/Desktop/2019 Fall/MultQuant/lab 2.1/BR-subject-4.csv,legacy,Kafkaesque Koffka,3.2.8,0,s,NA,NA,s,s,NA,s,515,NA,NA,36347,16720,NA,515,2,legacy,1024,2,48000,-16,experiment,SSSSS,4,even,281869,38796,197337,NA,244695,2444,239354,NA,282943,NA,2449,180615,NA,283045,283562,282941,283045,Flankertask,125,70289,130,yes,1024
96.18320611,96.18320611,540.1145038,540.1145038,black,legacy,legacy,legacy,0,incongruent,uniform,1,undefined,1,h,130,0,0,0,130,0,130,0,130,NA,0,0,0,130,130,130,130,9/29/19 15:58,600,The main experiment item,yes,BR-Flankertask.osexp,C:/Users/Breena Riley/Desktop/2019 Fall/MultQuant/lab 2.1,no,mono,no,18,no,white,no,yes,768,legacy,50,79,C:/Users/Breena Riley/Desktop/2019 Fall/MultQuant/lab 2.1/BR-subject-4.csv,legacy,Kafkaesque Koffka,3.2.8,0,h,NA,NA,s,s,NA,h,466,NA,NA,36347,16720,NA,466,2,legacy,1024,2,48000,-16,experiment,SSHSS,4,even,283570,38796,197337,NA,244695,2444,239354,NA,284646,NA,2449,180615,NA,284748,285216,284644,284747,Flankertask,126,70755,131,yes,1024
96.21212121,96.21212121,539.25,539.25,black,legacy,legacy,legacy,0,congruent,uniform,1,undefined,1,h,131,0,0,0,131,0,131,0,131,NA,0,0,0,131,131,131,131,9/29/19 15:58,600,The main experiment item,yes,BR-Flankertask.osexp,C:/Users/Breena Riley/Desktop/2019 Fall/MultQuant/lab 2.1,no,mono,no,18,no,white,no,yes,768,legacy,51,79,C:/Users/Breena Riley/Desktop/2019 Fall/MultQuant/lab 2.1/BR-subject-4.csv,legacy,Kafkaesque Koffka,3.2.8,0,h,NA,NA,s,s,NA,h,426,NA,NA,36347,16720,NA,426,2,legacy,1024,2,48000,-16,experiment,HHHHH,4,even,285224,38796,197337,NA,244695,2444,239354,NA,286300,NA,2449,180615,NA,286402,286830,286297,286401,Flankertask,127,71181,132,yes,1024
96.2406015,96.2406015,538.2105263,538.2105263,black,legacy,legacy,legacy,0,incongruent,uniform,1,undefined,1,h,132,0,0,0,132,0,132,0,132,NA,0,0,0,132,132,132,132,9/29/19 15:58,600,The main experiment item,yes,BR-Flankertask.osexp,C:/Users/Breena Riley/Desktop/2019 Fall/MultQuant/lab 2.1,no,mono,no,18,no,white,no,yes,768,legacy,52,79,C:/Users/Breena Riley/Desktop/2019 Fall/MultQuant/lab 2.1/BR-subject-4.csv,legacy,Kafkaesque Koffka,3.2.8,0,h,NA,NA,s,s,NA,h,401,NA,NA,36347,16720,NA,401,2,legacy,1024,2,48000,-16,experiment,SSHSS,4,even,286838,38796,197337,NA,244695,2444,239354,NA,287914,NA,2449,180615,NA,288015,288418,287911,288015,Flankertask,128,71582,133,yes,1024
96.26865672,96.26865672,537.0671642,537.0671642,black,legacy,legacy,legacy,0,congruent,uniform,1,undefined,1,h,133,0,0,0,133,0,133,0,133,NA,0,0,0,133,133,133,133,9/29/19 15:58,600,The main experiment item,yes,BR-Flankertask.osexp,C:/Users/Breena Riley/Desktop/2019 Fall/MultQuant/lab 2.1,no,mono,no,18,no,white,no,yes,768,legacy,53,79,C:/Users/Breena Riley/Desktop/2019 Fall/MultQuant/lab 2.1/BR-subject-4.csv,legacy,Kafkaesque Koffka,3.2.8,0,h,NA,NA,s,s,NA,h,385,NA,NA,36347,16720,NA,385,2,legacy,1024,2,48000,-16,experiment,HHHHH,4,even,288427,38796,197337,NA,244695,2444,239354,NA,289506,NA,2449,180615,NA,289607,289993,289503,289607,Flankertask,129,71967,134,yes,1024
96.2962963,96.2962963,535.9777778,535.9777778,black,legacy,legacy,legacy,0,congruent,uniform,1,undefined,1,s,134,0,0,0,134,0,134,0,134,NA,0,0,0,134,134,134,134,9/29/19 15:58,600,The main experiment item,yes,BR-Flankertask.osexp,C:/Users/Breena Riley/Desktop/2019 Fall/MultQuant/lab 2.1,no,mono,no,18,no,white,no,yes,768,legacy,54,79,C:/Users/Breena Riley/Desktop/2019 Fall/MultQuant/lab 2.1/BR-subject-4.csv,legacy,Kafkaesque Koffka,3.2.8,0,s,NA,NA,s,s,NA,s,390,NA,NA,36347,16720,NA,390,2,legacy,1024,2,48000,-16,experiment,SSSSS,4,even,290001,38796,197337,NA,244695,2444,239354,NA,291075,NA,2449,180615,NA,291176,291567,291072,291176,Flankertask,130,72357,135,yes,1024
96.32352941,96.32352941,535.1617647,535.1617647,black,legacy,legacy,legacy,0,congruent,uniform,1,undefined,1,h,135,0,0,0,135,0,135,0,135,NA,0,0,0,135,135,135,135,9/29/19 15:58,600,The main experiment item,yes,BR-Flankertask.osexp,C:/Users/Breena Riley/Desktop/2019 Fall/MultQuant/lab 2.1,no,mono,no,18,no,white,no,yes,768,legacy,55,79,C:/Users/Breena Riley/Desktop/2019 Fall/MultQuant/lab 2.1/BR-subject-4.csv,legacy,Kafkaesque Koffka,3.2.8,0,h,NA,NA,s,s,NA,h,425,NA,NA,36347,16720,NA,425,2,legacy,1024,2,48000,-16,experiment,HHHHH,4,even,291576,38796,197337,NA,244695,2444,239354,NA,292667,NA,2449,180615,NA,292769,293194,292664,292769,Flankertask,131,72782,136,yes,1024
96.35036496,96.35036496,533.8467153,533.8467153,black,legacy,legacy,legacy,0,congruent,uniform,1,undefined,1,s,136,0,0,0,136,0,136,0,136,NA,0,0,0,136,136,136,136,9/29/19 15:58,600,The main experiment item,yes,BR-Flankertask.osexp,C:/Users/Breena Riley/Desktop/2019 Fall/MultQuant/lab 2.1,no,mono,no,18,no,white,no,yes,768,legacy,56,79,C:/Users/Breena Riley/Desktop/2019 Fall/MultQuant/lab 2.1/BR-subject-4.csv,legacy,Kafkaesque Koffka,3.2.8,0,s,NA,NA,s,s,NA,s,355,NA,NA,36347,16720,NA,355,2,legacy,1024,2,48000,-16,experiment,SSSSS,4,even,293203,38796,197337,NA,244695,2444,239354,NA,294277,NA,2449,180615,NA,294379,294734,294274,294379,Flankertask,132,73137,137,yes,1024
96.37681159,96.37681159,533.2826087,533.2826087,black,legacy,legacy,legacy,0,incongruent,uniform,1,undefined,1,s,137,0,0,0,137,0,137,0,137,NA,0,0,0,137,137,137,137,9/29/19 15:58,600,The main experiment item,yes,BR-Flankertask.osexp,C:/Users/Breena Riley/Desktop/2019 Fall/MultQuant/lab 2.1,no,mono,no,18,no,white,no,yes,768,legacy,57,79,C:/Users/Breena Riley/Desktop/2019 Fall/MultQuant/lab 2.1/BR-subject-4.csv,legacy,Kafkaesque Koffka,3.2.8,0,s,NA,NA,s,s,NA,s,456,NA,NA,36347,16720,NA,456,2,legacy,1024,2,48000,-16,experiment,HHSHH,4,even,294742,38796,197337,NA,244695,2444,239354,NA,295816,NA,2449,180615,NA,295918,296375,295814,295917,Flankertask,133,73593,138,yes,1024
96.4028777,96.4028777,532.1007194,532.1007194,black,legacy,legacy,legacy,0,congruent,uniform,1,undefined,1,h,138,0,0,0,138,0,138,0,138,NA,0,0,0,138,138,138,138,9/29/19 15:58,600,The main experiment item,yes,BR-Flankertask.osexp,C:/Users/Breena Riley/Desktop/2019 Fall/MultQuant/lab 2.1,no,mono,no,18,no,white,no,yes,768,legacy,58,79,C:/Users/Breena Riley/Desktop/2019 Fall/MultQuant/lab 2.1/BR-subject-4.csv,legacy,Kafkaesque Koffka,3.2.8,0,h,NA,NA,s,s,NA,h,369,NA,NA,36347,16720,NA,369,2,legacy,1024,2,48000,-16,experiment,HHHHH,4,even,296383,38796,197337,NA,244695,2444,239354,NA,297458,NA,2449,180615,NA,297559,297929,297455,297559,Flankertask,134,73962,139,yes,1024
95.71428571,95.71428571,531.1714286,531.1714286,black,legacy,legacy,legacy,0,incongruent,uniform,0,undefined,0,s,139,0,0,0,139,0,139,0,139,NA,0,0,0,139,139,139,139,9/29/19 15:58,600,The main experiment item,yes,BR-Flankertask.osexp,C:/Users/Breena Riley/Desktop/2019 Fall/MultQuant/lab 2.1,no,mono,no,18,no,white,no,yes,768,legacy,59,79,C:/Users/Breena Riley/Desktop/2019 Fall/MultQuant/lab 2.1/BR-subject-4.csv,legacy,Kafkaesque Koffka,3.2.8,0,h,NA,NA,s,s,NA,h,402,NA,NA,36347,16720,NA,402,2,legacy,1024,2,48000,-16,experiment,HHSHH,4,even,297938,38796,197337,NA,244695,2444,239354,NA,299014,NA,2449,180615,NA,299116,299519,299011,299115,Flankertask,134,74364,140,yes,1024
95.74468085,95.74468085,530.2978723,530.2978723,black,legacy,legacy,legacy,0,congruent,uniform,1,undefined,1,s,140,0,0,0,140,0,140,0,140,NA,0,0,0,140,140,140,140,9/29/19 15:58,600,The main experiment item,yes,BR-Flankertask.osexp,C:/Users/Breena Riley/Desktop/2019 Fall/MultQuant/lab 2.1,no,mono,no,18,no,white,no,yes,768,legacy,60,79,C:/Users/Breena Riley/Desktop/2019 Fall/MultQuant/lab 2.1/BR-subject-4.csv,legacy,Kafkaesque Koffka,3.2.8,0,s,NA,NA,s,s,NA,s,408,NA,NA,36347,16720,NA,408,2,legacy,1024,2,48000,-16,experiment,SSSSS,4,even,300029,38796,197337,NA,299527,2444,239354,NA,301103,NA,2449,180615,NA,301204,301615,301101,301204,Flankertask,135,74772,141,yes,1024
95.77464789,95.77464789,529.3239437,529.3239437,black,legacy,legacy,legacy,0,congruent,uniform,1,undefined,1,s,141,0,0,0,141,0,141,0,141,NA,0,0,0,141,141,141,141,9/29/19 15:58,600,The main experiment item,yes,BR-Flankertask.osexp,C:/Users/Breena Riley/Desktop/2019 Fall/MultQuant/lab 2.1,no,mono,no,18,no,white,no,yes,768,legacy,61,79,C:/Users/Breena Riley/Desktop/2019 Fall/MultQuant/lab 2.1/BR-subject-4.csv,legacy,Kafkaesque Koffka,3.2.8,0,s,NA,NA,s,s,NA,s,392,NA,NA,36347,16720,NA,392,2,legacy,1024,2,48000,-16,experiment,SSSSS,4,even,301623,38796,197337,NA,299527,2444,239354,NA,302701,NA,2449,180615,NA,302802,303196,302698,302802,Flankertask,136,75164,142,yes,1024
95.8041958,95.8041958,528.4825175,528.4825175,black,legacy,legacy,legacy,0,incongruent,uniform,1,undefined,1,s,142,0,0,0,142,0,142,0,142,NA,0,0,0,142,142,142,142,9/29/19 15:58,600,The main experiment item,yes,BR-Flankertask.osexp,C:/Users/Breena Riley/Desktop/2019 Fall/MultQuant/lab 2.1,no,mono,no,18,no,white,no,yes,768,legacy,62,79,C:/Users/Breena Riley/Desktop/2019 Fall/MultQuant/lab 2.1/BR-subject-4.csv,legacy,Kafkaesque Koffka,3.2.8,0,s,NA,NA,s,s,NA,s,409,NA,NA,36347,16720,NA,409,2,legacy,1024,2,48000,-16,experiment,HHSHH,4,even,303206,38796,197337,NA,299527,2444,239354,NA,304287,NA,2449,180615,NA,304389,304800,304284,304389,Flankertask,137,75573,143,yes,1024
95.83333333,95.83333333,527.7013889,527.7013889,black,legacy,legacy,legacy,0,congruent,uniform,1,undefined,1,s,143,0,0,0,143,0,143,0,143,NA,0,0,0,143,143,143,143,9/29/19 15:58,600,The main experiment item,yes,BR-Flankertask.osexp,C:/Users/Breena Riley/Desktop/2019 Fall/MultQuant/lab 2.1,no,mono,no,18,no,white,no,yes,768,legacy,63,79,C:/Users/Breena Riley/Desktop/2019 Fall/MultQuant/lab 2.1/BR-subject-4.csv,legacy,Kafkaesque Koffka,3.2.8,0,s,NA,NA,s,s,NA,s,416,NA,NA,36347,16720,NA,416,2,legacy,1024,2,48000,-16,experiment,SSSSS,4,even,304808,38796,197337,NA,299527,2444,239354,NA,305881,NA,2449,180615,NA,305983,306400,305879,305982,Flankertask,138,75989,144,yes,1024
95.86206897,95.86206897,527.4758621,527.4758621,black,legacy,legacy,legacy,0,congruent,uniform,1,undefined,1,h,144,0,0,0,144,0,144,0,144,NA,0,0,0,144,144,144,144,9/29/19 15:58,600,The main experiment item,yes,BR-Flankertask.osexp,C:/Users/Breena Riley/Desktop/2019 Fall/MultQuant/lab 2.1,no,mono,no,18,no,white,no,yes,768,legacy,64,79,C:/Users/Breena Riley/Desktop/2019 Fall/MultQuant/lab 2.1/BR-subject-4.csv,legacy,Kafkaesque Koffka,3.2.8,0,h,NA,NA,s,s,NA,h,495,NA,NA,36347,16720,NA,495,2,legacy,1024,2,48000,-16,experiment,HHHHH,4,even,306408,38796,197337,NA,299527,2444,239354,NA,307482,NA,2449,180615,NA,307583,308080,307479,307583,Flankertask,139,76484,145,yes,1024
95.89041096,95.89041096,527.2054795,527.2054795,black,legacy,legacy,legacy,0,congruent,uniform,1,undefined,1,s,145,0,0,0,145,0,145,0,145,NA,0,0,0,145,145,145,145,9/29/19 15:58,600,The main experiment item,yes,BR-Flankertask.osexp,C:/Users/Breena Riley/Desktop/2019 Fall/MultQuant/lab 2.1,no,mono,no,18,no,white,no,yes,768,legacy,65,79,C:/Users/Breena Riley/Desktop/2019 Fall/MultQuant/lab 2.1/BR-subject-4.csv,legacy,Kafkaesque Koffka,3.2.8,0,s,NA,NA,s,s,NA,s,488,NA,NA,36347,16720,NA,488,2,legacy,1024,2,48000,-16,experiment,SSSSS,4,even,308088,38796,197337,NA,299527,2444,239354,NA,309163,NA,2449,180615,NA,309264,309754,309160,309264,Flankertask,140,76972,146,yes,1024
95.91836735,95.91836735,526.8367347,526.8367347,black,legacy,legacy,legacy,0,incongruent,uniform,1,undefined,1,s,146,0,0,0,146,0,146,0,146,NA,0,0,0,146,146,146,146,9/29/19 15:58,600,The main experiment item,yes,BR-Flankertask.osexp,C:/Users/Breena Riley/Desktop/2019 Fall/MultQuant/lab 2.1,no,mono,no,18,no,white,no,yes,768,legacy,66,79,C:/Users/Breena Riley/Desktop/2019 Fall/MultQuant/lab 2.1/BR-subject-4.csv,legacy,Kafkaesque Koffka,3.2.8,0,s,NA,NA,s,s,NA,s,473,NA,NA,36347,16720,NA,473,2,legacy,1024,2,48000,-16,experiment,HHSHH,4,even,309763,38796,197337,NA,299527,2444,239354,NA,310839,NA,2449,180615,NA,310940,311417,310836,310940,Flankertask,141,77445,147,yes,1024
95.94594595,95.94594595,526.6891892,526.6891892,black,legacy,legacy,legacy,0,congruent,uniform,1,undefined,1,s,147,0,0,0,147,0,147,0,147,NA,0,0,0,147,147,147,147,9/29/19 15:58,600,The main experiment item,yes,BR-Flankertask.osexp,C:/Users/Breena Riley/Desktop/2019 Fall/MultQuant/lab 2.1,no,mono,no,18,no,white,no,yes,768,legacy,67,79,C:/Users/Breena Riley/Desktop/2019 Fall/MultQuant/lab 2.1/BR-subject-4.csv,legacy,Kafkaesque Koffka,3.2.8,0,s,NA,NA,s,s,NA,s,505,NA,NA,36347,16720,NA,505,2,legacy,1024,2,48000,-16,experiment,SSSSS,4,even,311425,38796,197337,NA,299527,2444,239354,NA,312509,NA,2449,180615,NA,312610,313117,312506,312610,Flankertask,142,77950,148,yes,1024
95.97315436,95.97315436,526.4563758,526.4563758,black,legacy,legacy,legacy,0,incongruent,uniform,1,undefined,1,s,148,0,0,0,148,0,148,0,148,NA,0,0,0,148,148,148,148,9/29/19 15:58,600,The main experiment item,yes,BR-Flankertask.osexp,C:/Users/Breena Riley/Desktop/2019 Fall/MultQuant/lab 2.1,no,mono,no,18,no,white,no,yes,768,legacy,68,79,C:/Users/Breena Riley/Desktop/2019 Fall/MultQuant/lab 2.1/BR-subject-4.csv,legacy,Kafkaesque Koffka,3.2.8,0,s,NA,NA,s,s,NA,s,492,NA,NA,36347,16720,NA,492,2,legacy,1024,2,48000,-16,experiment,HHSHH,4,even,313124,38796,197337,NA,299527,2444,239354,NA,314199,NA,2449,180615,NA,314301,314794,314197,314300,Flankertask,143,78442,149,yes,1024
96,96,525.8733333,525.8733333,black,legacy,legacy,legacy,0,congruent,uniform,1,undefined,1,s,149,0,0,0,149,0,149,0,149,NA,0,0,0,149,149,149,149,9/29/19 15:58,600,The main experiment item,yes,BR-Flankertask.osexp,C:/Users/Breena Riley/Desktop/2019 Fall/MultQuant/lab 2.1,no,mono,no,18,no,white,no,yes,768,legacy,69,79,C:/Users/Breena Riley/Desktop/2019 Fall/MultQuant/lab 2.1/BR-subject-4.csv,legacy,Kafkaesque Koffka,3.2.8,0,s,NA,NA,s,s,NA,s,439,NA,NA,36347,16720,NA,439,2,legacy,1024,2,48000,-16,experiment,SSSSS,4,even,314803,38796,197337,NA,299527,2444,239354,NA,315876,NA,2449,180615,NA,315977,316418,315873,315976,Flankertask,144,78881,150,yes,1024
