acc,accuracy,average_response_time,avg_rt,background,canvas_backend,clock_backend,color_backend,condition,correct,correct_Instuctions1,correct_keyboard_response,correct_response,count_Block1,count_Block2,count_Block3,count_ISI,count_Instructions2,count_Instructions3,count_Instuctions1,count_errorFeedback,count_experiment,count_faster,count_finish,count_fixation,count_keyboard_response,count_logger,count_sequence,count_stimulus,datetime,deadline,description,disable_garbage_collection,experiment_file,experiment_path,font_bold,font_family,font_italic,font_size,font_underline,foreground,form_clicks,fullscreen,height,keyboard_backend,live_row,live_row_Block1,logfile,mouse_backend,opensesame_codename,opensesame_version,repeat_cycle,response,response_Instructions2,response_Instructions3,response_Instuctions1,response_finish,response_keyboard_response,response_time,response_time_Instructions2,response_time_Instructions3,response_time_Instuctions1,response_time_finish,response_time_keyboard_response,round_decimals,sampler_backend,sound_buf_size,sound_channels,sound_freq,sound_sample_size,start,stimulus,subject_nr,subject_parity,time_Block1,time_Block2,time_Block3,time_ISI,time_Instructions2,time_Instructions3,time_Instuctions1,time_errorFeedback,time_experiment,time_faster,time_finish,time_fixation,time_keyboard_response,time_logger,time_sequence,time_stimulus,title,total_correct,total_response_time,total_responses,width
100,100,895,895,#000000,legacy,legacy,legacy,incongruent,1,undefined,1,h,0,0,0,0,0,0,0,0,0,0,0,0,0,0,0,0,Sun Sep 17 17:03:49 2023,1500,The main experiment item,TRUE,FlankerTask.osexp,C:/Users/Hannah Laskoskie/Downloads,FALSE,mono,FALSE,18,no,white,no,yes,768,legacy,0,0,C:/Users/Hannah Laskoskie/Downloads/HL-subject-1.csv,legacy,Melodramatic Milgram,4.0.5,0,h,NA,NA,s,NA,h,895,NA,NA,16555,NA,895,2,legacy,1024,2,48000,-16,experiment,SSHSS,1,odd,18118,NA,NA,NA,NA,NA,1562,NA,1560,NA,NA,18166,18266,19161,18165,18266,Flanker Task,1,895,1,1024
100,100,838,838,#000000,legacy,legacy,legacy,incongruent,1,undefined,1,s,0,0,0,1,0,0,0,1,0,1,0,1,1,1,1,1,Sun Sep 17 17:03:49 2023,1500,The main experiment item,TRUE,FlankerTask.osexp,C:/Users/Hannah Laskoskie/Downloads,FALSE,mono,FALSE,18,no,white,no,yes,768,legacy,1,1,C:/Users/Hannah Laskoskie/Downloads/HL-subject-1.csv,legacy,Melodramatic Milgram,4.0.5,0,s,NA,NA,s,NA,s,782,NA,NA,16555,NA,782,2,legacy,1024,2,48000,-16,experiment,HHSHH,1,odd,18118,NA,NA,19171,NA,NA,1562,NA,1560,NA,NA,20192,20293,21075,20191,20293,Flanker Task,2,1677,2,1024
100,100,737,737,#000000,legacy,legacy,legacy,incongruent,1,undefined,1,s,0,0,0,2,0,0,0,2,0,2,0,2,2,2,2,2,Sun Sep 17 17:03:49 2023,1500,The main experiment item,TRUE,FlankerTask.osexp,C:/Users/Hannah Laskoskie/Downloads,FALSE,mono,FALSE,18,no,white,no,yes,768,legacy,2,2,C:/Users/Hannah Laskoskie/Downloads/HL-subject-1.csv,legacy,Melodramatic Milgram,4.0.5,0,s,NA,NA,s,NA,s,535,NA,NA,16555,NA,535,2,legacy,1024,2,48000,-16,experiment,HHSHH,1,odd,18118,NA,NA,21077,NA,NA,1562,NA,1560,NA,NA,22099,22199,22734,22098,22199,Flanker Task,3,2212,3,1024
100,100,676,676,#000000,legacy,legacy,legacy,incongruent,1,undefined,1,s,0,0,0,3,0,0,0,3,0,3,0,3,3,3,3,3,Sun Sep 17 17:03:49 2023,1500,The main experiment item,TRUE,FlankerTask.osexp,C:/Users/Hannah Laskoskie/Downloads,FALSE,mono,FALSE,18,no,white,no,yes,768,legacy,3,3,C:/Users/Hannah Laskoskie/Downloads/HL-subject-1.csv,legacy,Melodramatic Milgram,4.0.5,0,s,NA,NA,s,NA,s,493,NA,NA,16555,NA,493,2,legacy,1024,2,48000,-16,experiment,HHSHH,1,odd,18118,NA,NA,22742,NA,NA,1562,NA,1560,NA,NA,23766,23867,24360,23765,23867,Flanker Task,4,2705,4,1024
100,100,665,665,#000000,legacy,legacy,legacy,congruent,1,undefined,1,s,0,0,0,4,0,0,0,4,0,4,0,4,4,4,4,4,Sun Sep 17 17:03:49 2023,1500,The main experiment item,TRUE,FlankerTask.osexp,C:/Users/Hannah Laskoskie/Downloads,FALSE,mono,FALSE,18,no,white,no,yes,768,legacy,4,4,C:/Users/Hannah Laskoskie/Downloads/HL-subject-1.csv,legacy,Melodramatic Milgram,4.0.5,0,s,NA,NA,s,NA,s,620,NA,NA,16555,NA,620,2,legacy,1024,2,48000,-16,experiment,SSSSS,1,odd,18118,NA,NA,24368,NA,NA,1562,NA,1560,NA,NA,25391,25491,26111,25390,25491,Flanker Task,5,3325,5,1024
100,100,630,630,#000000,legacy,legacy,legacy,congruent,1,undefined,1,h,0,0,0,5,0,0,0,5,0,5,0,5,5,5,5,5,Sun Sep 17 17:03:49 2023,1500,The main experiment item,TRUE,FlankerTask.osexp,C:/Users/Hannah Laskoskie/Downloads,FALSE,mono,FALSE,18,no,white,no,yes,768,legacy,5,5,C:/Users/Hannah Laskoskie/Downloads/HL-subject-1.csv,legacy,Melodramatic Milgram,4.0.5,0,h,NA,NA,s,NA,h,456,NA,NA,16555,NA,456,2,legacy,1024,2,48000,-16,experiment,HHHHH,1,odd,18118,NA,NA,26119,NA,NA,1562,NA,1560,NA,NA,27141,27241,27698,27140,27241,Flanker Task,6,3781,6,1024
100,100,610,610,#000000,legacy,legacy,legacy,congruent,1,undefined,1,h,0,0,0,6,0,0,0,6,0,6,0,6,6,6,6,6,Sun Sep 17 17:03:49 2023,1500,The main experiment item,TRUE,FlankerTask.osexp,C:/Users/Hannah Laskoskie/Downloads,FALSE,mono,FALSE,18,no,white,no,yes,768,legacy,6,6,C:/Users/Hannah Laskoskie/Downloads/HL-subject-1.csv,legacy,Melodramatic Milgram,4.0.5,0,h,NA,NA,s,NA,h,493,NA,NA,16555,NA,493,2,legacy,1024,2,48000,-16,experiment,HHHHH,1,odd,18118,NA,NA,27705,NA,NA,1562,NA,1560,NA,NA,28727,28828,29321,28726,28828,Flanker Task,7,4274,7,1024
100,100,591,591,#000000,legacy,legacy,legacy,congruent,1,undefined,1,h,0,0,0,7,0,0,0,7,0,7,0,7,7,7,7,7,Sun Sep 17 17:03:49 2023,1500,The main experiment item,TRUE,FlankerTask.osexp,C:/Users/Hannah Laskoskie/Downloads,FALSE,mono,FALSE,18,no,white,no,yes,768,legacy,7,7,C:/Users/Hannah Laskoskie/Downloads/HL-subject-1.csv,legacy,Melodramatic Milgram,4.0.5,0,h,NA,NA,s,NA,h,454,NA,NA,16555,NA,454,2,legacy,1024,2,48000,-16,experiment,HHHHH,1,odd,18118,NA,NA,29323,NA,NA,1562,NA,1560,NA,NA,30346,30447,30903,30345,30447,Flanker Task,8,4728,8,1024
100,100,578,578,#000000,legacy,legacy,legacy,incongruent,1,undefined,1,s,0,0,0,8,0,0,0,8,0,8,0,8,8,8,8,8,Sun Sep 17 17:03:49 2023,1500,The main experiment item,TRUE,FlankerTask.osexp,C:/Users/Hannah Laskoskie/Downloads,FALSE,mono,FALSE,18,no,white,no,yes,768,legacy,8,8,C:/Users/Hannah Laskoskie/Downloads/HL-subject-1.csv,legacy,Melodramatic Milgram,4.0.5,0,s,NA,NA,s,NA,s,478,NA,NA,16555,NA,478,2,legacy,1024,2,48000,-16,experiment,HHSHH,1,odd,18118,NA,NA,30906,NA,NA,1562,NA,1560,NA,NA,31931,32032,32511,31930,32032,Flanker Task,9,5206,9,1024
100,100,566,566,#000000,legacy,legacy,legacy,congruent,1,undefined,1,s,0,0,0,9,0,0,0,9,0,9,0,9,9,9,9,9,Sun Sep 17 17:03:49 2023,1500,The main experiment item,TRUE,FlankerTask.osexp,C:/Users/Hannah Laskoskie/Downloads,FALSE,mono,FALSE,18,no,white,no,yes,768,legacy,9,9,C:/Users/Hannah Laskoskie/Downloads/HL-subject-1.csv,legacy,Melodramatic Milgram,4.0.5,0,s,NA,NA,s,NA,s,454,NA,NA,16555,NA,454,2,legacy,1024,2,48000,-16,experiment,SSSSS,1,odd,18118,NA,NA,32519,NA,NA,1562,NA,1560,NA,NA,33540,33640,34095,33538,33640,Flanker Task,10,5660,10,1024
100,100,558,558,#000000,legacy,legacy,legacy,incongruent,1,undefined,1,h,0,0,0,10,0,0,0,10,0,10,0,10,10,10,10,10,Sun Sep 17 17:03:49 2023,1500,The main experiment item,TRUE,FlankerTask.osexp,C:/Users/Hannah Laskoskie/Downloads,FALSE,mono,FALSE,18,no,white,no,yes,768,legacy,10,10,C:/Users/Hannah Laskoskie/Downloads/HL-subject-1.csv,legacy,Melodramatic Milgram,4.0.5,0,h,NA,NA,s,NA,h,478,NA,NA,16555,NA,478,2,legacy,1024,2,48000,-16,experiment,SSHSS,1,odd,18118,NA,NA,34102,NA,NA,1562,NA,1560,NA,NA,35125,35225,35704,35124,35225,Flanker Task,11,6138,11,1024
100,100,548,548,#000000,legacy,legacy,legacy,incongruent,1,undefined,1,h,0,0,0,11,0,0,0,11,0,11,0,11,11,11,11,11,Sun Sep 17 17:03:49 2023,1500,The main experiment item,TRUE,FlankerTask.osexp,C:/Users/Hannah Laskoskie/Downloads,FALSE,mono,FALSE,18,no,white,no,yes,768,legacy,11,11,C:/Users/Hannah Laskoskie/Downloads/HL-subject-1.csv,legacy,Melodramatic Milgram,4.0.5,0,h,NA,NA,s,NA,h,445,NA,NA,16555,NA,445,2,legacy,1024,2,48000,-16,experiment,SSHSS,1,odd,18118,NA,NA,35712,NA,NA,1562,NA,1560,NA,NA,36733,36833,37279,36731,36833,Flanker Task,12,6583,12,1024
100,100,543,543,#000000,legacy,legacy,legacy,congruent,1,undefined,1,h,0,0,0,12,0,0,0,12,0,12,0,12,12,12,12,12,Sun Sep 17 17:03:49 2023,1500,The main experiment item,TRUE,FlankerTask.osexp,C:/Users/Hannah Laskoskie/Downloads,FALSE,mono,FALSE,18,no,white,no,yes,768,legacy,12,12,C:/Users/Hannah Laskoskie/Downloads/HL-subject-1.csv,legacy,Melodramatic Milgram,4.0.5,0,h,NA,NA,s,NA,h,478,NA,NA,16555,NA,478,2,legacy,1024,2,48000,-16,experiment,HHHHH,1,odd,18118,NA,NA,37287,NA,NA,1562,NA,1560,NA,NA,38308,38409,38887,38306,38409,Flanker Task,13,7061,13,1024
100,100,535,535,#000000,legacy,legacy,legacy,congruent,1,undefined,1,s,0,0,0,13,0,0,0,13,0,13,0,13,13,13,13,13,Sun Sep 17 17:03:49 2023,1500,The main experiment item,TRUE,FlankerTask.osexp,C:/Users/Hannah Laskoskie/Downloads,FALSE,mono,FALSE,18,no,white,no,yes,768,legacy,13,13,C:/Users/Hannah Laskoskie/Downloads/HL-subject-1.csv,legacy,Melodramatic Milgram,4.0.5,0,s,NA,NA,s,NA,s,438,NA,NA,16555,NA,438,2,legacy,1024,2,48000,-16,experiment,SSSSS,1,odd,18118,NA,NA,38890,NA,NA,1562,NA,1560,NA,NA,39912,40012,40451,39910,40012,Flanker Task,14,7499,14,1024
100,100,525,525,#000000,legacy,legacy,legacy,incongruent,1,undefined,1,s,0,0,0,14,0,0,0,14,0,14,0,14,14,14,14,14,Sun Sep 17 17:03:49 2023,1500,The main experiment item,TRUE,FlankerTask.osexp,C:/Users/Hannah Laskoskie/Downloads,FALSE,mono,FALSE,18,no,white,no,yes,768,legacy,14,14,C:/Users/Hannah Laskoskie/Downloads/HL-subject-1.csv,legacy,Melodramatic Milgram,4.0.5,0,s,NA,NA,s,NA,s,390,NA,NA,16555,NA,390,2,legacy,1024,2,48000,-16,experiment,HHSHH,1,odd,18118,NA,NA,40458,NA,NA,1562,NA,1560,NA,NA,41482,41582,41972,41480,41582,Flanker Task,15,7889,15,1024
93,93,521,521,#000000,legacy,legacy,legacy,incongruent,0,undefined,0,h,0,0,0,15,0,0,0,15,0,15,0,15,15,15,15,15,Sun Sep 17 17:03:49 2023,1500,The main experiment item,TRUE,FlankerTask.osexp,C:/Users/Hannah Laskoskie/Downloads,FALSE,mono,FALSE,18,no,white,no,yes,768,legacy,15,15,C:/Users/Hannah Laskoskie/Downloads/HL-subject-1.csv,legacy,Melodramatic Milgram,4.0.5,0,s,NA,NA,s,NA,s,448,NA,NA,16555,NA,448,2,legacy,1024,2,48000,-16,experiment,SSHSS,1,odd,18118,NA,NA,41974,NA,NA,1562,NA,1560,NA,NA,42996,43096,43545,42995,43096,Flanker Task,15,8337,16,1024
94,94,526,526,#000000,legacy,legacy,legacy,incongruent,1,undefined,1,s,0,0,0,16,0,0,0,16,0,16,0,16,16,16,16,16,Sun Sep 17 17:03:49 2023,1500,The main experiment item,TRUE,FlankerTask.osexp,C:/Users/Hannah Laskoskie/Downloads,FALSE,mono,FALSE,18,no,white,no,yes,768,legacy,16,16,C:/Users/Hannah Laskoskie/Downloads/HL-subject-1.csv,legacy,Melodramatic Milgram,4.0.5,0,s,NA,NA,s,NA,s,614,NA,NA,16555,NA,614,2,legacy,1024,2,48000,-16,experiment,HHSHH,1,odd,18118,NA,NA,44053,NA,NA,1562,43552,1560,NA,NA,45074,45174,45788,45073,45174,Flanker Task,16,8951,17,1024
94,94,526,526,#000000,legacy,legacy,legacy,incongruent,1,undefined,1,s,0,0,0,17,0,0,0,17,0,17,0,17,17,17,17,17,Sun Sep 17 17:03:49 2023,1500,The main experiment item,TRUE,FlankerTask.osexp,C:/Users/Hannah Laskoskie/Downloads,FALSE,mono,FALSE,18,no,white,no,yes,768,legacy,17,17,C:/Users/Hannah Laskoskie/Downloads/HL-subject-1.csv,legacy,Melodramatic Milgram,4.0.5,0,s,NA,NA,s,NA,s,532,NA,NA,16555,NA,532,2,legacy,1024,2,48000,-16,experiment,HHSHH,1,odd,18118,NA,NA,45796,NA,NA,1562,43552,1560,NA,NA,46821,46921,47454,46820,46921,Flanker Task,17,9483,18,1024
94,94,529,529,#000000,legacy,legacy,legacy,congruent,1,undefined,1,s,0,0,0,18,0,0,0,18,0,18,0,18,18,18,18,18,Sun Sep 17 17:03:49 2023,1500,The main experiment item,TRUE,FlankerTask.osexp,C:/Users/Hannah Laskoskie/Downloads,FALSE,mono,FALSE,18,no,white,no,yes,768,legacy,18,18,C:/Users/Hannah Laskoskie/Downloads/HL-subject-1.csv,legacy,Melodramatic Milgram,4.0.5,0,s,NA,NA,s,NA,s,583,NA,NA,16555,NA,583,2,legacy,1024,2,48000,-16,experiment,SSSSS,1,odd,18118,NA,NA,47461,NA,NA,1562,43552,1560,NA,NA,48481,48582,49165,48481,48582,Flanker Task,18,10066,19,1024
95,95,526,526,#000000,legacy,legacy,legacy,congruent,1,undefined,1,h,0,0,0,19,0,0,0,19,0,19,0,19,19,19,19,19,Sun Sep 17 17:03:49 2023,1500,The main experiment item,TRUE,FlankerTask.osexp,C:/Users/Hannah Laskoskie/Downloads,FALSE,mono,FALSE,18,no,white,no,yes,768,legacy,19,19,C:/Users/Hannah Laskoskie/Downloads/HL-subject-1.csv,legacy,Melodramatic Milgram,4.0.5,0,h,NA,NA,s,NA,h,470,NA,NA,16555,NA,470,2,legacy,1024,2,48000,-16,experiment,HHHHH,1,odd,18118,NA,NA,49173,NA,NA,1562,43552,1560,NA,NA,50197,50297,50768,50194,50297,Flanker Task,19,10536,20,1024
95,95,521,521,#000000,legacy,legacy,legacy,congruent,1,undefined,1,h,0,0,0,20,0,0,0,20,0,20,0,20,20,20,20,20,Sun Sep 17 17:03:49 2023,1500,The main experiment item,TRUE,FlankerTask.osexp,C:/Users/Hannah Laskoskie/Downloads,FALSE,mono,FALSE,18,no,white,no,yes,768,legacy,20,20,C:/Users/Hannah Laskoskie/Downloads/HL-subject-1.csv,legacy,Melodramatic Milgram,4.0.5,0,h,NA,NA,s,NA,h,420,NA,NA,16555,NA,420,2,legacy,1024,2,48000,-16,experiment,HHHHH,1,odd,18118,NA,NA,50775,NA,NA,1562,43552,1560,NA,NA,51796,51896,52317,51795,51896,Flanker Task,20,10956,21,1024
95,95,517,517,#000000,legacy,legacy,legacy,congruent,1,undefined,1,h,0,0,0,21,0,0,0,21,0,21,0,21,21,21,21,21,Sun Sep 17 17:03:49 2023,1500,The main experiment item,TRUE,FlankerTask.osexp,C:/Users/Hannah Laskoskie/Downloads,FALSE,mono,FALSE,18,no,white,no,yes,768,legacy,21,21,C:/Users/Hannah Laskoskie/Downloads/HL-subject-1.csv,legacy,Melodramatic Milgram,4.0.5,0,h,NA,NA,s,NA,h,420,NA,NA,16555,NA,420,2,legacy,1024,2,48000,-16,experiment,HHHHH,1,odd,18118,NA,NA,52319,NA,NA,1562,43552,1560,NA,NA,53340,53441,53862,53338,53441,Flanker Task,21,11376,22,1024
95,95,512,512,#000000,legacy,legacy,legacy,incongruent,1,undefined,1,h,0,0,0,22,0,0,0,22,0,22,0,22,22,22,22,22,Sun Sep 17 17:03:49 2023,1500,The main experiment item,TRUE,FlankerTask.osexp,C:/Users/Hannah Laskoskie/Downloads,FALSE,mono,FALSE,18,no,white,no,yes,768,legacy,22,22,C:/Users/Hannah Laskoskie/Downloads/HL-subject-1.csv,legacy,Melodramatic Milgram,4.0.5,0,h,NA,NA,s,NA,h,404,NA,NA,16555,NA,404,2,legacy,1024,2,48000,-16,experiment,SSHSS,1,odd,18118,NA,NA,53870,NA,NA,1562,43552,1560,NA,NA,54891,54991,55396,54890,54991,Flanker Task,22,11780,23,1024
95,95,509,509,#000000,legacy,legacy,legacy,incongruent,1,undefined,1,h,0,0,0,23,0,0,0,23,0,23,0,23,23,23,23,23,Sun Sep 17 17:03:49 2023,1500,The main experiment item,TRUE,FlankerTask.osexp,C:/Users/Hannah Laskoskie/Downloads,FALSE,mono,FALSE,18,no,white,no,yes,768,legacy,23,23,C:/Users/Hannah Laskoskie/Downloads/HL-subject-1.csv,legacy,Melodramatic Milgram,4.0.5,0,h,NA,NA,s,NA,h,452,NA,NA,16555,NA,452,2,legacy,1024,2,48000,-16,experiment,SSHSS,1,odd,18118,NA,NA,55403,NA,NA,1562,43552,1560,NA,NA,56425,56525,56977,56424,56525,Flanker Task,23,12232,24,1024
96,96,507,507,#000000,legacy,legacy,legacy,incongruent,1,undefined,1,h,0,0,0,24,0,0,0,24,0,24,0,24,24,24,24,24,Sun Sep 17 17:03:49 2023,1500,The main experiment item,TRUE,FlankerTask.osexp,C:/Users/Hannah Laskoskie/Downloads,FALSE,mono,FALSE,18,no,white,no,yes,768,legacy,24,24,C:/Users/Hannah Laskoskie/Downloads/HL-subject-1.csv,legacy,Melodramatic Milgram,4.0.5,0,h,NA,NA,s,NA,h,464,NA,NA,16555,NA,464,2,legacy,1024,2,48000,-16,experiment,SSHSS,1,odd,18118,NA,NA,56979,NA,NA,1562,43552,1560,NA,NA,58000,58100,58564,57999,58100,Flanker Task,24,12696,25,1024
96,96,506,506,#000000,legacy,legacy,legacy,incongruent,1,undefined,1,s,0,0,0,25,0,0,0,25,0,25,0,25,25,25,25,25,Sun Sep 17 17:03:49 2023,1500,The main experiment item,TRUE,FlankerTask.osexp,C:/Users/Hannah Laskoskie/Downloads,FALSE,mono,FALSE,18,no,white,no,yes,768,legacy,25,25,C:/Users/Hannah Laskoskie/Downloads/HL-subject-1.csv,legacy,Melodramatic Milgram,4.0.5,0,s,NA,NA,s,NA,s,477,NA,NA,16555,NA,477,2,legacy,1024,2,48000,-16,experiment,HHSHH,1,odd,18118,NA,NA,58572,NA,NA,1562,43552,1560,NA,NA,59595,59695,60172,59594,59695,Flanker Task,25,13173,26,1024
96,96,502,502,#000000,legacy,legacy,legacy,congruent,1,undefined,1,h,0,0,0,26,0,0,0,26,0,26,0,26,26,26,26,26,Sun Sep 17 17:03:49 2023,1500,The main experiment item,TRUE,FlankerTask.osexp,C:/Users/Hannah Laskoskie/Downloads,FALSE,mono,FALSE,18,no,white,no,yes,768,legacy,26,26,C:/Users/Hannah Laskoskie/Downloads/HL-subject-1.csv,legacy,Melodramatic Milgram,4.0.5,0,h,NA,NA,s,NA,h,399,NA,NA,16555,NA,399,2,legacy,1024,2,48000,-16,experiment,HHHHH,1,odd,18118,NA,NA,60180,NA,NA,1562,43552,1560,NA,NA,61205,61305,61705,61204,61305,Flanker Task,26,13572,27,1024
96,96,502,502,#000000,legacy,legacy,legacy,incongruent,1,undefined,1,s,0,0,0,27,0,0,0,27,0,27,0,27,27,27,27,27,Sun Sep 17 17:03:49 2023,1500,The main experiment item,TRUE,FlankerTask.osexp,C:/Users/Hannah Laskoskie/Downloads,FALSE,mono,FALSE,18,no,white,no,yes,768,legacy,27,27,C:/Users/Hannah Laskoskie/Downloads/HL-subject-1.csv,legacy,Melodramatic Milgram,4.0.5,0,s,NA,NA,s,NA,s,485,NA,NA,16555,NA,485,2,legacy,1024,2,48000,-16,experiment,HHSHH,1,odd,18118,NA,NA,61714,NA,NA,1562,43552,1560,NA,NA,62735,62835,63321,62734,62835,Flanker Task,27,14057,28,1024
96,96,503,503,#000000,legacy,legacy,legacy,incongruent,1,undefined,1,s,0,0,0,28,0,0,0,28,0,28,0,28,28,28,28,28,Sun Sep 17 17:03:49 2023,1500,The main experiment item,TRUE,FlankerTask.osexp,C:/Users/Hannah Laskoskie/Downloads,FALSE,mono,FALSE,18,no,white,no,yes,768,legacy,28,28,C:/Users/Hannah Laskoskie/Downloads/HL-subject-1.csv,legacy,Melodramatic Milgram,4.0.5,0,s,NA,NA,s,NA,s,549,NA,NA,16555,NA,549,2,legacy,1024,2,48000,-16,experiment,HHSHH,1,odd,18118,NA,NA,63329,NA,NA,1562,43552,1560,NA,NA,64352,64452,65002,64350,64452,Flanker Task,28,14606,29,1024
96,96,503,503,#000000,legacy,legacy,legacy,congruent,1,undefined,1,h,0,0,0,29,0,0,0,29,0,29,0,29,29,29,29,29,Sun Sep 17 17:03:49 2023,1500,The main experiment item,TRUE,FlankerTask.osexp,C:/Users/Hannah Laskoskie/Downloads,FALSE,mono,FALSE,18,no,white,no,yes,768,legacy,29,29,C:/Users/Hannah Laskoskie/Downloads/HL-subject-1.csv,legacy,Melodramatic Milgram,4.0.5,0,h,NA,NA,s,NA,h,493,NA,NA,16555,NA,493,2,legacy,1024,2,48000,-16,experiment,HHHHH,1,odd,18118,NA,NA,65004,NA,NA,1562,43552,1560,NA,NA,66024,66125,66618,66024,66125,Flanker Task,29,15099,30,1024
96,96,501,501,#000000,legacy,legacy,legacy,congruent,1,undefined,1,s,0,0,0,30,0,0,0,30,0,30,0,30,30,30,30,30,Sun Sep 17 17:03:49 2023,1500,The main experiment item,TRUE,FlankerTask.osexp,C:/Users/Hannah Laskoskie/Downloads,FALSE,mono,FALSE,18,no,white,no,yes,768,legacy,30,30,C:/Users/Hannah Laskoskie/Downloads/HL-subject-1.csv,legacy,Melodramatic Milgram,4.0.5,0,s,NA,NA,s,NA,s,434,NA,NA,16555,NA,434,2,legacy,1024,2,48000,-16,experiment,SSSSS,1,odd,18118,NA,NA,66626,NA,NA,1562,43552,1560,NA,NA,67647,67747,68181,67646,67747,Flanker Task,30,15533,31,1024
96,96,498,498,#000000,legacy,legacy,legacy,congruent,1,undefined,1,h,0,0,0,31,0,0,0,31,0,31,0,31,31,31,31,31,Sun Sep 17 17:03:49 2023,1500,The main experiment item,TRUE,FlankerTask.osexp,C:/Users/Hannah Laskoskie/Downloads,FALSE,mono,FALSE,18,no,white,no,yes,768,legacy,31,31,C:/Users/Hannah Laskoskie/Downloads/HL-subject-1.csv,legacy,Melodramatic Milgram,4.0.5,0,h,NA,NA,s,NA,h,417,NA,NA,16555,NA,417,2,legacy,1024,2,48000,-16,experiment,HHHHH,1,odd,18118,NA,NA,68189,NA,NA,1562,43552,1560,NA,NA,69210,69310,69728,69209,69310,Flanker Task,31,15950,32,1024
96,96,497,497,#000000,legacy,legacy,legacy,incongruent,1,undefined,1,s,0,0,0,32,0,0,0,32,0,32,0,32,32,32,32,32,Sun Sep 17 17:03:49 2023,1500,The main experiment item,TRUE,FlankerTask.osexp,C:/Users/Hannah Laskoskie/Downloads,FALSE,mono,FALSE,18,no,white,no,yes,768,legacy,32,32,C:/Users/Hannah Laskoskie/Downloads/HL-subject-1.csv,legacy,Melodramatic Milgram,4.0.5,0,s,NA,NA,s,NA,s,465,NA,NA,16555,NA,465,2,legacy,1024,2,48000,-16,experiment,HHSHH,1,odd,18118,NA,NA,69736,NA,NA,1562,43552,1560,NA,NA,70762,70862,71328,70761,70862,Flanker Task,32,16415,33,1024
97,97,498,498,#000000,legacy,legacy,legacy,incongruent,1,undefined,1,h,0,0,0,33,0,0,0,33,0,33,0,33,33,33,33,33,Sun Sep 17 17:03:49 2023,1500,The main experiment item,TRUE,FlankerTask.osexp,C:/Users/Hannah Laskoskie/Downloads,FALSE,mono,FALSE,18,no,white,no,yes,768,legacy,33,33,C:/Users/Hannah Laskoskie/Downloads/HL-subject-1.csv,legacy,Melodramatic Milgram,4.0.5,0,h,NA,NA,s,NA,h,522,NA,NA,16555,NA,522,2,legacy,1024,2,48000,-16,experiment,SSHSS,1,odd,18118,NA,NA,71337,NA,NA,1562,43552,1560,NA,NA,72359,72459,72981,72358,72459,Flanker Task,33,16937,34,1024
97,97,496,496,#000000,legacy,legacy,legacy,congruent,1,undefined,1,s,0,0,0,34,0,0,0,34,0,34,0,34,34,34,34,34,Sun Sep 17 17:03:49 2023,1500,The main experiment item,TRUE,FlankerTask.osexp,C:/Users/Hannah Laskoskie/Downloads,FALSE,mono,FALSE,18,no,white,no,yes,768,legacy,34,34,C:/Users/Hannah Laskoskie/Downloads/HL-subject-1.csv,legacy,Melodramatic Milgram,4.0.5,0,s,NA,NA,s,NA,s,437,NA,NA,16555,NA,437,2,legacy,1024,2,48000,-16,experiment,SSSSS,1,odd,18118,NA,NA,72989,NA,NA,1562,43552,1560,NA,NA,74010,74110,74548,74008,74110,Flanker Task,34,17374,35,1024
97,97,493,493,#000000,legacy,legacy,legacy,congruent,1,undefined,1,s,0,0,0,35,0,0,0,35,0,35,0,35,35,35,35,35,Sun Sep 17 17:03:49 2023,1500,The main experiment item,TRUE,FlankerTask.osexp,C:/Users/Hannah Laskoskie/Downloads,FALSE,mono,FALSE,18,no,white,no,yes,768,legacy,35,35,C:/Users/Hannah Laskoskie/Downloads/HL-subject-1.csv,legacy,Melodramatic Milgram,4.0.5,0,s,NA,NA,s,NA,s,387,NA,NA,16555,NA,387,2,legacy,1024,2,48000,-16,experiment,SSSSS,1,odd,18118,NA,NA,74556,NA,NA,1562,43552,1560,NA,NA,75581,75681,76069,75580,75681,Flanker Task,35,17761,36,1024
97,97,491,491,#000000,legacy,legacy,legacy,congruent,1,undefined,1,h,0,0,0,36,0,0,0,36,0,36,0,36,36,36,36,36,Sun Sep 17 17:03:49 2023,1500,The main experiment item,TRUE,FlankerTask.osexp,C:/Users/Hannah Laskoskie/Downloads,FALSE,mono,FALSE,18,no,white,no,yes,768,legacy,36,36,C:/Users/Hannah Laskoskie/Downloads/HL-subject-1.csv,legacy,Melodramatic Milgram,4.0.5,0,h,NA,NA,s,NA,h,434,NA,NA,16555,NA,434,2,legacy,1024,2,48000,-16,experiment,HHHHH,1,odd,18118,NA,NA,76077,NA,NA,1562,43552,1560,NA,NA,77097,77197,77632,77096,77197,Flanker Task,36,18195,37,1024
97,97,491,491,#000000,legacy,legacy,legacy,incongruent,1,undefined,1,s,0,0,0,37,0,0,0,37,0,37,0,37,37,37,37,37,Sun Sep 17 17:03:49 2023,1500,The main experiment item,TRUE,FlankerTask.osexp,C:/Users/Hannah Laskoskie/Downloads,FALSE,mono,FALSE,18,no,white,no,yes,768,legacy,37,37,C:/Users/Hannah Laskoskie/Downloads/HL-subject-1.csv,legacy,Melodramatic Milgram,4.0.5,0,s,NA,NA,s,NA,s,493,NA,NA,16555,NA,493,2,legacy,1024,2,48000,-16,experiment,HHSHH,1,odd,18118,NA,NA,77634,NA,NA,1562,43552,1560,NA,NA,78656,78757,79250,78655,78757,Flanker Task,37,18688,38,1024
97,97,490,490,#000000,legacy,legacy,legacy,congruent,1,undefined,1,s,0,0,0,38,0,0,0,38,0,38,0,38,38,38,38,38,Sun Sep 17 17:03:49 2023,1500,The main experiment item,TRUE,FlankerTask.osexp,C:/Users/Hannah Laskoskie/Downloads,FALSE,mono,FALSE,18,no,white,no,yes,768,legacy,38,38,C:/Users/Hannah Laskoskie/Downloads/HL-subject-1.csv,legacy,Melodramatic Milgram,4.0.5,0,s,NA,NA,s,NA,s,433,NA,NA,16555,NA,433,2,legacy,1024,2,48000,-16,experiment,SSSSS,1,odd,18118,NA,NA,79258,NA,NA,1562,43552,1560,NA,NA,80278,80378,80812,80277,80378,Flanker Task,38,19121,39,1024
97,97,488,488,#000000,legacy,legacy,legacy,incongruent,1,undefined,1,s,0,0,0,39,0,0,0,39,0,39,0,39,39,39,39,39,Sun Sep 17 17:03:49 2023,1500,The main experiment item,TRUE,FlankerTask.osexp,C:/Users/Hannah Laskoskie/Downloads,FALSE,mono,FALSE,18,no,white,no,yes,768,legacy,39,39,C:/Users/Hannah Laskoskie/Downloads/HL-subject-1.csv,legacy,Melodramatic Milgram,4.0.5,0,s,NA,NA,s,NA,s,425,NA,NA,16555,NA,425,2,legacy,1024,2,48000,-16,experiment,HHSHH,1,odd,18118,NA,NA,80820,NA,NA,1562,43552,1560,NA,NA,81841,81941,82367,81839,81941,Flanker Task,39,19546,40,1024
97,97,488,488,#000000,legacy,legacy,legacy,incongruent,1,undefined,1,s,0,0,0,40,0,0,0,40,0,40,0,40,40,40,40,40,Sun Sep 17 17:03:49 2023,1500,The main experiment item,TRUE,FlankerTask.osexp,C:/Users/Hannah Laskoskie/Downloads,FALSE,mono,FALSE,18,no,white,no,yes,768,legacy,40,40,C:/Users/Hannah Laskoskie/Downloads/HL-subject-1.csv,legacy,Melodramatic Milgram,4.0.5,0,s,NA,NA,s,NA,s,465,NA,NA,16555,NA,465,2,legacy,1024,2,48000,-16,experiment,HHSHH,1,odd,18118,NA,NA,82375,NA,NA,1562,43552,1560,NA,NA,83396,83496,83962,83395,83496,Flanker Task,40,20011,41,1024
97,97,489,489,#000000,legacy,legacy,legacy,incongruent,1,undefined,1,s,0,0,0,41,0,0,0,41,0,41,0,41,41,41,41,41,Sun Sep 17 17:03:49 2023,1500,The main experiment item,TRUE,FlankerTask.osexp,C:/Users/Hannah Laskoskie/Downloads,FALSE,mono,FALSE,18,no,white,no,yes,768,legacy,41,41,C:/Users/Hannah Laskoskie/Downloads/HL-subject-1.csv,legacy,Melodramatic Milgram,4.0.5,0,s,NA,NA,s,NA,s,544,NA,NA,16555,NA,544,2,legacy,1024,2,48000,-16,experiment,HHSHH,1,odd,18118,NA,NA,83969,NA,NA,1562,43552,1560,NA,NA,84995,85095,85640,84993,85095,Flanker Task,41,20555,42,1024
97,97,488,488,#000000,legacy,legacy,legacy,incongruent,1,undefined,1,s,0,0,0,42,0,0,0,42,0,42,0,42,42,42,42,42,Sun Sep 17 17:03:49 2023,1500,The main experiment item,TRUE,FlankerTask.osexp,C:/Users/Hannah Laskoskie/Downloads,FALSE,mono,FALSE,18,no,white,no,yes,768,legacy,42,42,C:/Users/Hannah Laskoskie/Downloads/HL-subject-1.csv,legacy,Melodramatic Milgram,4.0.5,0,s,NA,NA,s,NA,s,470,NA,NA,16555,NA,470,2,legacy,1024,2,48000,-16,experiment,HHSHH,1,odd,18118,NA,NA,85648,NA,NA,1562,43552,1560,NA,NA,86669,86769,87240,86668,86769,Flanker Task,42,21025,43,1024
97,97,485,485,#000000,legacy,legacy,legacy,congruent,1,undefined,1,s,0,0,0,43,0,0,0,43,0,43,0,43,43,43,43,43,Sun Sep 17 17:03:49 2023,1500,The main experiment item,TRUE,FlankerTask.osexp,C:/Users/Hannah Laskoskie/Downloads,FALSE,mono,FALSE,18,no,white,no,yes,768,legacy,43,43,C:/Users/Hannah Laskoskie/Downloads/HL-subject-1.csv,legacy,Melodramatic Milgram,4.0.5,0,s,NA,NA,s,NA,s,352,NA,NA,16555,NA,352,2,legacy,1024,2,48000,-16,experiment,SSSSS,1,odd,18118,NA,NA,87242,NA,NA,1562,43552,1560,NA,NA,88263,88364,88718,88262,88363,Flanker Task,43,21377,44,1024
97,97,482,482,#000000,legacy,legacy,legacy,incongruent,1,undefined,1,h,0,0,0,44,0,0,0,44,0,44,0,44,44,44,44,44,Sun Sep 17 17:03:49 2023,1500,The main experiment item,TRUE,FlankerTask.osexp,C:/Users/Hannah Laskoskie/Downloads,FALSE,mono,FALSE,18,no,white,no,yes,768,legacy,44,44,C:/Users/Hannah Laskoskie/Downloads/HL-subject-1.csv,legacy,Melodramatic Milgram,4.0.5,0,h,NA,NA,s,NA,h,348,NA,NA,16555,NA,348,2,legacy,1024,2,48000,-16,experiment,SSHSS,1,odd,18118,NA,NA,88725,NA,NA,1562,43552,1560,NA,NA,89751,89852,90201,89749,89852,Flanker Task,44,21725,45,1024
97,97,480,480,#000000,legacy,legacy,legacy,congruent,1,undefined,1,s,0,0,0,45,0,0,0,45,0,45,0,45,45,45,45,45,Sun Sep 17 17:03:49 2023,1500,The main experiment item,TRUE,FlankerTask.osexp,C:/Users/Hannah Laskoskie/Downloads,FALSE,mono,FALSE,18,no,white,no,yes,768,legacy,45,45,C:/Users/Hannah Laskoskie/Downloads/HL-subject-1.csv,legacy,Melodramatic Milgram,4.0.5,0,s,NA,NA,s,NA,s,385,NA,NA,16555,NA,385,2,legacy,1024,2,48000,-16,experiment,SSSSS,1,odd,18118,NA,NA,90209,NA,NA,1562,43552,1560,NA,NA,91230,91330,91716,91228,91330,Flanker Task,45,22110,46,1024
97,97,477,477,#000000,legacy,legacy,legacy,congruent,1,undefined,1,s,0,0,0,46,0,0,0,46,0,46,0,46,46,46,46,46,Sun Sep 17 17:03:49 2023,1500,The main experiment item,TRUE,FlankerTask.osexp,C:/Users/Hannah Laskoskie/Downloads,FALSE,mono,FALSE,18,no,white,no,yes,768,legacy,46,46,C:/Users/Hannah Laskoskie/Downloads/HL-subject-1.csv,legacy,Melodramatic Milgram,4.0.5,0,s,NA,NA,s,NA,s,355,NA,NA,16555,NA,355,2,legacy,1024,2,48000,-16,experiment,SSSSS,1,odd,18118,NA,NA,91724,NA,NA,1562,43552,1560,NA,NA,92746,92848,93204,92746,92848,Flanker Task,46,22465,47,1024
95,95,475,475,#000000,legacy,legacy,legacy,incongruent,0,undefined,0,h,0,0,0,47,0,0,0,47,0,47,0,47,47,47,47,47,Sun Sep 17 17:03:49 2023,1500,The main experiment item,TRUE,FlankerTask.osexp,C:/Users/Hannah Laskoskie/Downloads,FALSE,mono,FALSE,18,no,white,no,yes,768,legacy,47,47,C:/Users/Hannah Laskoskie/Downloads/HL-subject-1.csv,legacy,Melodramatic Milgram,4.0.5,0,s,NA,NA,s,NA,s,341,NA,NA,16555,NA,341,2,legacy,1024,2,48000,-16,experiment,SSHSS,1,odd,18118,NA,NA,93206,NA,NA,1562,43552,1560,NA,NA,94228,94328,94670,94226,94328,Flanker Task,46,22806,48,1024
95,95,475,475,#000000,legacy,legacy,legacy,incongruent,1,undefined,1,h,0,0,0,48,0,0,0,48,0,48,0,48,48,48,48,48,Sun Sep 17 17:03:49 2023,1500,The main experiment item,TRUE,FlankerTask.osexp,C:/Users/Hannah Laskoskie/Downloads,FALSE,mono,FALSE,18,no,white,no,yes,768,legacy,48,48,C:/Users/Hannah Laskoskie/Downloads/HL-subject-1.csv,legacy,Melodramatic Milgram,4.0.5,0,h,NA,NA,s,NA,h,489,NA,NA,16555,NA,489,2,legacy,1024,2,48000,-16,experiment,SSHSS,1,odd,18118,NA,NA,95171,NA,NA,1562,94671,1560,NA,NA,96191,96292,96781,96191,96292,Flanker Task,47,23295,49,1024
96,96,475,475,#000000,legacy,legacy,legacy,congruent,1,undefined,1,s,0,0,0,49,0,0,0,49,0,49,0,49,49,49,49,49,Sun Sep 17 17:03:49 2023,1500,The main experiment item,TRUE,FlankerTask.osexp,C:/Users/Hannah Laskoskie/Downloads,FALSE,mono,FALSE,18,no,white,no,yes,768,legacy,49,49,C:/Users/Hannah Laskoskie/Downloads/HL-subject-1.csv,legacy,Melodramatic Milgram,4.0.5,0,s,NA,NA,s,NA,s,461,NA,NA,16555,NA,461,2,legacy,1024,2,48000,-16,experiment,SSSSS,1,odd,18118,NA,NA,96789,NA,NA,1562,94671,1560,NA,NA,97810,97913,98375,97809,97913,Flanker Task,48,23756,50,1024
96,96,475,475,#000000,legacy,legacy,legacy,congruent,1,undefined,1,h,0,0,0,50,0,0,0,50,0,50,0,50,50,50,50,50,Sun Sep 17 17:03:49 2023,1500,The main experiment item,TRUE,FlankerTask.osexp,C:/Users/Hannah Laskoskie/Downloads,FALSE,mono,FALSE,18,no,white,no,yes,768,legacy,50,50,C:/Users/Hannah Laskoskie/Downloads/HL-subject-1.csv,legacy,Melodramatic Milgram,4.0.5,0,h,NA,NA,s,NA,h,479,NA,NA,16555,NA,479,2,legacy,1024,2,48000,-16,experiment,HHHHH,1,odd,18118,NA,NA,98383,NA,NA,1562,94671,1560,NA,NA,99405,99505,99985,99404,99505,Flanker Task,49,24235,51,1024
94,94,474,474,#000000,legacy,legacy,legacy,incongruent,0,undefined,0,h,0,0,0,51,0,0,0,51,0,51,0,51,51,51,51,51,Sun Sep 17 17:03:49 2023,1500,The main experiment item,TRUE,FlankerTask.osexp,C:/Users/Hannah Laskoskie/Downloads,FALSE,mono,FALSE,18,no,white,no,yes,768,legacy,51,51,C:/Users/Hannah Laskoskie/Downloads/HL-subject-1.csv,legacy,Melodramatic Milgram,4.0.5,0,s,NA,NA,s,NA,s,433,NA,NA,16555,NA,433,2,legacy,1024,2,48000,-16,experiment,SSHSS,1,odd,18118,NA,NA,99992,NA,NA,1562,94671,1560,NA,NA,101013,101113,101546,101011,101113,Flanker Task,49,24668,52,1024
94,94,475,475,#000000,legacy,legacy,legacy,congruent,1,undefined,1,s,0,0,0,52,0,0,0,52,0,52,0,52,52,52,52,52,Sun Sep 17 17:03:49 2023,1500,The main experiment item,TRUE,FlankerTask.osexp,C:/Users/Hannah Laskoskie/Downloads,FALSE,mono,FALSE,18,no,white,no,yes,768,legacy,52,52,C:/Users/Hannah Laskoskie/Downloads/HL-subject-1.csv,legacy,Melodramatic Milgram,4.0.5,0,s,NA,NA,s,NA,s,521,NA,NA,16555,NA,521,2,legacy,1024,2,48000,-16,experiment,SSSSS,1,odd,18118,NA,NA,102055,NA,NA,1562,101554,1560,NA,NA,103077,103177,103699,103076,103177,Flanker Task,50,25189,53,1024
94,94,474,474,#000000,legacy,legacy,legacy,congruent,1,undefined,1,h,0,0,0,53,0,0,0,53,0,53,0,53,53,53,53,53,Sun Sep 17 17:03:49 2023,1500,The main experiment item,TRUE,FlankerTask.osexp,C:/Users/Hannah Laskoskie/Downloads,FALSE,mono,FALSE,18,no,white,no,yes,768,legacy,53,53,C:/Users/Hannah Laskoskie/Downloads/HL-subject-1.csv,legacy,Melodramatic Milgram,4.0.5,0,h,NA,NA,s,NA,h,414,NA,NA,16555,NA,414,2,legacy,1024,2,48000,-16,experiment,HHHHH,1,odd,18118,NA,NA,103706,NA,NA,1562,101554,1560,NA,NA,104732,104833,105248,104731,104833,Flanker Task,51,25603,54,1024
94,94,472,472,#000000,legacy,legacy,legacy,congruent,1,undefined,1,h,0,0,0,54,0,0,0,54,0,54,0,54,54,54,54,54,Sun Sep 17 17:03:49 2023,1500,The main experiment item,TRUE,FlankerTask.osexp,C:/Users/Hannah Laskoskie/Downloads,FALSE,mono,FALSE,18,no,white,no,yes,768,legacy,54,54,C:/Users/Hannah Laskoskie/Downloads/HL-subject-1.csv,legacy,Melodramatic Milgram,4.0.5,0,h,NA,NA,s,NA,h,397,NA,NA,16555,NA,397,2,legacy,1024,2,48000,-16,experiment,HHHHH,1,odd,18118,NA,NA,105256,NA,NA,1562,101554,1560,NA,NA,106277,106378,106776,106275,106378,Flanker Task,52,26000,55,1024
94,94,472,472,#000000,legacy,legacy,legacy,incongruent,1,undefined,1,s,0,0,0,55,0,0,0,55,0,55,0,55,55,55,55,55,Sun Sep 17 17:03:49 2023,1500,The main experiment item,TRUE,FlankerTask.osexp,C:/Users/Hannah Laskoskie/Downloads,FALSE,mono,FALSE,18,no,white,no,yes,768,legacy,55,55,C:/Users/Hannah Laskoskie/Downloads/HL-subject-1.csv,legacy,Melodramatic Milgram,4.0.5,0,s,NA,NA,s,NA,s,468,NA,NA,16555,NA,468,2,legacy,1024,2,48000,-16,experiment,HHSHH,1,odd,18118,NA,NA,106784,NA,NA,1562,101554,1560,NA,NA,107806,107906,108375,107805,107906,Flanker Task,53,26468,56,1024
94,94,471,471,#000000,legacy,legacy,legacy,congruent,1,undefined,1,s,0,0,0,56,0,0,0,56,0,56,0,56,56,56,56,56,Sun Sep 17 17:03:49 2023,1500,The main experiment item,TRUE,FlankerTask.osexp,C:/Users/Hannah Laskoskie/Downloads,FALSE,mono,FALSE,18,no,white,no,yes,768,legacy,56,56,C:/Users/Hannah Laskoskie/Downloads/HL-subject-1.csv,legacy,Melodramatic Milgram,4.0.5,0,s,NA,NA,s,NA,s,434,NA,NA,16555,NA,434,2,legacy,1024,2,48000,-16,experiment,SSSSS,1,odd,18118,NA,NA,108383,NA,NA,1562,101554,1560,NA,NA,109404,109504,109938,109402,109504,Flanker Task,54,26902,57,1024
94,94,470,470,#000000,legacy,legacy,legacy,congruent,1,undefined,1,s,0,0,0,57,0,0,0,57,0,57,0,57,57,57,57,57,Sun Sep 17 17:03:49 2023,1500,The main experiment item,TRUE,FlankerTask.osexp,C:/Users/Hannah Laskoskie/Downloads,FALSE,mono,FALSE,18,no,white,no,yes,768,legacy,57,57,C:/Users/Hannah Laskoskie/Downloads/HL-subject-1.csv,legacy,Melodramatic Milgram,4.0.5,0,s,NA,NA,s,NA,s,360,NA,NA,16555,NA,360,2,legacy,1024,2,48000,-16,experiment,SSSSS,1,odd,18118,NA,NA,109946,NA,NA,1562,101554,1560,NA,NA,110966,111067,111428,110965,111067,Flanker Task,55,27262,58,1024
94,94,468,468,#000000,legacy,legacy,legacy,congruent,1,undefined,1,s,0,0,0,58,0,0,0,58,0,58,0,58,58,58,58,58,Sun Sep 17 17:03:49 2023,1500,The main experiment item,TRUE,FlankerTask.osexp,C:/Users/Hannah Laskoskie/Downloads,FALSE,mono,FALSE,18,no,white,no,yes,768,legacy,58,58,C:/Users/Hannah Laskoskie/Downloads/HL-subject-1.csv,legacy,Melodramatic Milgram,4.0.5,0,s,NA,NA,s,NA,s,387,NA,NA,16555,NA,387,2,legacy,1024,2,48000,-16,experiment,SSSSS,1,odd,18118,NA,NA,111436,NA,NA,1562,101554,1560,NA,NA,112457,112557,112945,112455,112557,Flanker Task,56,27649,59,1024
95,95,467,467,#000000,legacy,legacy,legacy,congruent,1,undefined,1,s,0,0,0,59,0,0,0,59,0,59,0,59,59,59,59,59,Sun Sep 17 17:03:49 2023,1500,The main experiment item,TRUE,FlankerTask.osexp,C:/Users/Hannah Laskoskie/Downloads,FALSE,mono,FALSE,18,no,white,no,yes,768,legacy,59,59,C:/Users/Hannah Laskoskie/Downloads/HL-subject-1.csv,legacy,Melodramatic Milgram,4.0.5,0,s,NA,NA,s,NA,s,391,NA,NA,16555,NA,391,2,legacy,1024,2,48000,-16,experiment,SSSSS,1,odd,18118,NA,NA,112952,NA,NA,1562,101554,1560,NA,NA,113975,114075,114467,113973,114075,Flanker Task,57,28040,60,1024
95,95,467,467,#000000,legacy,legacy,legacy,incongruent,1,undefined,1,h,0,0,0,60,0,0,0,60,0,60,0,60,60,60,60,60,Sun Sep 17 17:03:49 2023,1500,The main experiment item,TRUE,FlankerTask.osexp,C:/Users/Hannah Laskoskie/Downloads,FALSE,mono,FALSE,18,no,white,no,yes,768,legacy,60,60,C:/Users/Hannah Laskoskie/Downloads/HL-subject-1.csv,legacy,Melodramatic Milgram,4.0.5,0,h,NA,NA,s,NA,h,466,NA,NA,16555,NA,466,2,legacy,1024,2,48000,-16,experiment,SSHSS,1,odd,18118,NA,NA,114474,NA,NA,1562,101554,1560,NA,NA,115496,115596,116063,115494,115596,Flanker Task,58,28506,61,1024
95,95,466,466,#000000,legacy,legacy,legacy,incongruent,1,undefined,1,s,0,0,0,61,0,0,0,61,0,61,0,61,61,61,61,61,Sun Sep 17 17:03:49 2023,1500,The main experiment item,TRUE,FlankerTask.osexp,C:/Users/Hannah Laskoskie/Downloads,FALSE,mono,FALSE,18,no,white,no,yes,768,legacy,61,61,C:/Users/Hannah Laskoskie/Downloads/HL-subject-1.csv,legacy,Melodramatic Milgram,4.0.5,0,s,NA,NA,s,NA,s,412,NA,NA,16555,NA,412,2,legacy,1024,2,48000,-16,experiment,HHSHH,1,odd,18118,NA,NA,116065,NA,NA,1562,101554,1560,NA,NA,117087,117187,117600,117085,117187,Flanker Task,59,28918,62,1024
95,95,464,464,#000000,legacy,legacy,legacy,congruent,1,undefined,1,h,0,0,0,62,0,0,0,62,0,62,0,62,62,62,62,62,Sun Sep 17 17:03:49 2023,1500,The main experiment item,TRUE,FlankerTask.osexp,C:/Users/Hannah Laskoskie/Downloads,FALSE,mono,FALSE,18,no,white,no,yes,768,legacy,62,62,C:/Users/Hannah Laskoskie/Downloads/HL-subject-1.csv,legacy,Melodramatic Milgram,4.0.5,0,h,NA,NA,s,NA,h,372,NA,NA,16555,NA,372,2,legacy,1024,2,48000,-16,experiment,HHHHH,1,odd,18118,NA,NA,117608,NA,NA,1562,101554,1560,NA,NA,118639,118739,119112,118638,118739,Flanker Task,60,29290,63,1024
95,95,464,464,#000000,legacy,legacy,legacy,congruent,1,undefined,1,s,0,0,0,63,0,0,0,63,0,63,0,63,63,63,63,63,Sun Sep 17 17:03:49 2023,1500,The main experiment item,TRUE,FlankerTask.osexp,C:/Users/Hannah Laskoskie/Downloads,FALSE,mono,FALSE,18,no,white,no,yes,768,legacy,63,63,C:/Users/Hannah Laskoskie/Downloads/HL-subject-1.csv,legacy,Melodramatic Milgram,4.0.5,0,s,NA,NA,s,NA,s,462,NA,NA,16555,NA,462,2,legacy,1024,2,48000,-16,experiment,SSSSS,1,odd,18118,NA,NA,119114,NA,NA,1562,101554,1560,NA,NA,120135,120236,120698,120134,120236,Flanker Task,61,29752,64,1024
95,95,464,464,#000000,legacy,legacy,legacy,incongruent,1,undefined,1,h,0,0,0,64,0,0,0,64,0,64,0,64,64,64,64,64,Sun Sep 17 17:03:49 2023,1500,The main experiment item,TRUE,FlankerTask.osexp,C:/Users/Hannah Laskoskie/Downloads,FALSE,mono,FALSE,18,no,white,no,yes,768,legacy,64,64,C:/Users/Hannah Laskoskie/Downloads/HL-subject-1.csv,legacy,Melodramatic Milgram,4.0.5,0,h,NA,NA,s,NA,h,416,NA,NA,16555,NA,416,2,legacy,1024,2,48000,-16,experiment,SSHSS,1,odd,18118,NA,NA,120706,NA,NA,1562,101554,1560,NA,NA,121727,121827,122244,121726,121827,Flanker Task,62,30168,65,1024
95,95,462,462,#000000,legacy,legacy,legacy,incongruent,1,undefined,1,h,0,0,0,65,0,0,0,65,0,65,0,65,65,65,65,65,Sun Sep 17 17:03:49 2023,1500,The main experiment item,TRUE,FlankerTask.osexp,C:/Users/Hannah Laskoskie/Downloads,FALSE,mono,FALSE,18,no,white,no,yes,768,legacy,65,65,C:/Users/Hannah Laskoskie/Downloads/HL-subject-1.csv,legacy,Melodramatic Milgram,4.0.5,0,h,NA,NA,s,NA,h,371,NA,NA,16555,NA,371,2,legacy,1024,2,48000,-16,experiment,SSHSS,1,odd,18118,NA,NA,122246,NA,NA,1562,101554,1560,NA,NA,123270,123371,123743,123269,123371,Flanker Task,63,30539,66,1024
95,95,461,461,#000000,legacy,legacy,legacy,congruent,1,undefined,1,h,0,0,0,66,0,0,0,66,0,66,0,66,66,66,66,66,Sun Sep 17 17:03:49 2023,1500,The main experiment item,TRUE,FlankerTask.osexp,C:/Users/Hannah Laskoskie/Downloads,FALSE,mono,FALSE,18,no,white,no,yes,768,legacy,66,66,C:/Users/Hannah Laskoskie/Downloads/HL-subject-1.csv,legacy,Melodramatic Milgram,4.0.5,0,h,NA,NA,s,NA,h,409,NA,NA,16555,NA,409,2,legacy,1024,2,48000,-16,experiment,HHHHH,1,odd,18118,NA,NA,123750,NA,NA,1562,101554,1560,NA,NA,124773,124873,125283,124772,124873,Flanker Task,64,30948,67,1024
95,95,459,459,#000000,legacy,legacy,legacy,congruent,1,undefined,1,h,0,0,0,67,0,0,0,67,0,67,0,67,67,67,67,67,Sun Sep 17 17:03:49 2023,1500,The main experiment item,TRUE,FlankerTask.osexp,C:/Users/Hannah Laskoskie/Downloads,FALSE,mono,FALSE,18,no,white,no,yes,768,legacy,67,67,C:/Users/Hannah Laskoskie/Downloads/HL-subject-1.csv,legacy,Melodramatic Milgram,4.0.5,0,h,NA,NA,s,NA,h,328,NA,NA,16555,NA,328,2,legacy,1024,2,48000,-16,experiment,HHHHH,1,odd,18118,NA,NA,125291,NA,NA,1562,101554,1560,NA,NA,126311,126411,126740,126310,126411,Flanker Task,65,31276,68,1024
95,95,458,458,#000000,legacy,legacy,legacy,congruent,1,undefined,1,h,0,0,0,68,0,0,0,68,0,68,0,68,68,68,68,68,Sun Sep 17 17:03:49 2023,1500,The main experiment item,TRUE,FlankerTask.osexp,C:/Users/Hannah Laskoskie/Downloads,FALSE,mono,FALSE,18,no,white,no,yes,768,legacy,68,68,C:/Users/Hannah Laskoskie/Downloads/HL-subject-1.csv,legacy,Melodramatic Milgram,4.0.5,0,h,NA,NA,s,NA,h,387,NA,NA,16555,NA,387,2,legacy,1024,2,48000,-16,experiment,HHHHH,1,odd,18118,NA,NA,126748,NA,NA,1562,101554,1560,NA,NA,127768,127869,128257,127767,127869,Flanker Task,66,31663,69,1024
95,95,457,457,#000000,legacy,legacy,legacy,congruent,1,undefined,1,s,0,0,0,69,0,0,0,69,0,69,0,69,69,69,69,69,Sun Sep 17 17:03:49 2023,1500,The main experiment item,TRUE,FlankerTask.osexp,C:/Users/Hannah Laskoskie/Downloads,FALSE,mono,FALSE,18,no,white,no,yes,768,legacy,69,69,C:/Users/Hannah Laskoskie/Downloads/HL-subject-1.csv,legacy,Melodramatic Milgram,4.0.5,0,s,NA,NA,s,NA,s,386,NA,NA,16555,NA,386,2,legacy,1024,2,48000,-16,experiment,SSSSS,1,odd,18118,NA,NA,128265,NA,NA,1562,101554,1560,NA,NA,129288,129388,129775,129286,129388,Flanker Task,67,32049,70,1024
94,94,456,456,#000000,legacy,legacy,legacy,incongruent,0,undefined,0,s,0,0,0,70,0,0,0,70,0,70,0,70,70,70,70,70,Sun Sep 17 17:03:49 2023,1500,The main experiment item,TRUE,FlankerTask.osexp,C:/Users/Hannah Laskoskie/Downloads,FALSE,mono,FALSE,18,no,white,no,yes,768,legacy,70,70,C:/Users/Hannah Laskoskie/Downloads/HL-subject-1.csv,legacy,Melodramatic Milgram,4.0.5,0,h,NA,NA,s,NA,h,395,NA,NA,16555,NA,395,2,legacy,1024,2,48000,-16,experiment,HHSHH,1,odd,18118,NA,NA,129783,NA,NA,1562,101554,1560,NA,NA,130802,130903,131299,130801,130903,Flanker Task,67,32444,71,1024
94,94,458,458,#000000,legacy,legacy,legacy,congruent,1,undefined,1,h,0,0,0,71,0,0,0,71,0,71,0,71,71,71,71,71,Sun Sep 17 17:03:49 2023,1500,The main experiment item,TRUE,FlankerTask.osexp,C:/Users/Hannah Laskoskie/Downloads,FALSE,mono,FALSE,18,no,white,no,yes,768,legacy,71,71,C:/Users/Hannah Laskoskie/Downloads/HL-subject-1.csv,legacy,Melodramatic Milgram,4.0.5,0,h,NA,NA,s,NA,h,579,NA,NA,16555,NA,579,2,legacy,1024,2,48000,-16,experiment,HHHHH,1,odd,18118,NA,NA,131808,NA,NA,1562,131306,1560,NA,NA,132833,132934,133513,132832,132934,Flanker Task,68,33023,72,1024
94,94,459,459,#000000,legacy,legacy,legacy,incongruent,1,undefined,1,h,0,0,0,72,0,0,0,72,0,72,0,72,72,72,72,72,Sun Sep 17 17:03:49 2023,1500,The main experiment item,TRUE,FlankerTask.osexp,C:/Users/Hannah Laskoskie/Downloads,FALSE,mono,FALSE,18,no,white,no,yes,768,legacy,72,72,C:/Users/Hannah Laskoskie/Downloads/HL-subject-1.csv,legacy,Melodramatic Milgram,4.0.5,0,h,NA,NA,s,NA,h,521,NA,NA,16555,NA,521,2,legacy,1024,2,48000,-16,experiment,SSHSS,1,odd,18118,NA,NA,133522,NA,NA,1562,131306,1560,NA,NA,134543,134643,135165,134542,134643,Flanker Task,69,33544,73,1024
94,94,458,458,#000000,legacy,legacy,legacy,congruent,1,undefined,1,h,0,0,0,73,0,0,0,73,0,73,0,73,73,73,73,73,Sun Sep 17 17:03:49 2023,1500,The main experiment item,TRUE,FlankerTask.osexp,C:/Users/Hannah Laskoskie/Downloads,FALSE,mono,FALSE,18,no,white,no,yes,768,legacy,73,73,C:/Users/Hannah Laskoskie/Downloads/HL-subject-1.csv,legacy,Melodramatic Milgram,4.0.5,0,h,NA,NA,s,NA,h,416,NA,NA,16555,NA,416,2,legacy,1024,2,48000,-16,experiment,HHHHH,1,odd,18118,NA,NA,135167,NA,NA,1562,131306,1560,NA,NA,136187,136287,136704,136186,136287,Flanker Task,70,33960,74,1024
94,94,459,459,#000000,legacy,legacy,legacy,congruent,1,undefined,1,s,0,0,0,74,0,0,0,74,0,74,0,74,74,74,74,74,Sun Sep 17 17:03:49 2023,1500,The main experiment item,TRUE,FlankerTask.osexp,C:/Users/Hannah Laskoskie/Downloads,FALSE,mono,FALSE,18,no,white,no,yes,768,legacy,74,74,C:/Users/Hannah Laskoskie/Downloads/HL-subject-1.csv,legacy,Melodramatic Milgram,4.0.5,0,s,NA,NA,s,NA,s,504,NA,NA,16555,NA,504,2,legacy,1024,2,48000,-16,experiment,SSSSS,1,odd,18118,NA,NA,136711,NA,NA,1562,131306,1560,NA,NA,137734,137834,138339,137732,137834,Flanker Task,71,34464,75,1024
94,94,460,460,#000000,legacy,legacy,legacy,incongruent,1,undefined,1,s,0,0,0,75,0,0,0,75,0,75,0,75,75,75,75,75,Sun Sep 17 17:03:49 2023,1500,The main experiment item,TRUE,FlankerTask.osexp,C:/Users/Hannah Laskoskie/Downloads,FALSE,mono,FALSE,18,no,white,no,yes,768,legacy,75,75,C:/Users/Hannah Laskoskie/Downloads/HL-subject-1.csv,legacy,Melodramatic Milgram,4.0.5,0,s,NA,NA,s,NA,s,528,NA,NA,16555,NA,528,2,legacy,1024,2,48000,-16,experiment,HHSHH,1,odd,18118,NA,NA,138347,NA,NA,1562,131306,1560,NA,NA,139369,139469,139998,139367,139469,Flanker Task,72,34992,76,1024
94,94,460,460,#000000,legacy,legacy,legacy,incongruent,1,undefined,1,h,0,0,0,76,0,0,0,76,0,76,0,76,76,76,76,76,Sun Sep 17 17:03:49 2023,1500,The main experiment item,TRUE,FlankerTask.osexp,C:/Users/Hannah Laskoskie/Downloads,FALSE,mono,FALSE,18,no,white,no,yes,768,legacy,76,76,C:/Users/Hannah Laskoskie/Downloads/HL-subject-1.csv,legacy,Melodramatic Milgram,4.0.5,0,h,NA,NA,s,NA,h,442,NA,NA,16555,NA,442,2,legacy,1024,2,48000,-16,experiment,SSHSS,1,odd,18118,NA,NA,140006,NA,NA,1562,131306,1560,NA,NA,141027,141128,141571,141026,141127,Flanker Task,73,35434,77,1024
94,94,460,460,#000000,legacy,legacy,legacy,incongruent,1,undefined,1,h,0,0,0,77,0,0,0,77,0,77,0,77,77,77,77,77,Sun Sep 17 17:03:49 2023,1500,The main experiment item,TRUE,FlankerTask.osexp,C:/Users/Hannah Laskoskie/Downloads,FALSE,mono,FALSE,18,no,white,no,yes,768,legacy,77,77,C:/Users/Hannah Laskoskie/Downloads/HL-subject-1.csv,legacy,Melodramatic Milgram,4.0.5,0,h,NA,NA,s,NA,h,474,NA,NA,16555,NA,474,2,legacy,1024,2,48000,-16,experiment,SSHSS,1,odd,18118,NA,NA,141579,NA,NA,1562,131306,1560,NA,NA,142601,142701,143175,142599,142701,Flanker Task,74,35908,78,1024
94,94,460,460,#000000,legacy,legacy,legacy,incongruent,1,undefined,1,h,0,0,0,78,0,0,0,78,0,78,0,78,78,78,78,78,Sun Sep 17 17:03:49 2023,1500,The main experiment item,TRUE,FlankerTask.osexp,C:/Users/Hannah Laskoskie/Downloads,FALSE,mono,FALSE,18,no,white,no,yes,768,legacy,78,78,C:/Users/Hannah Laskoskie/Downloads/HL-subject-1.csv,legacy,Melodramatic Milgram,4.0.5,0,h,NA,NA,s,NA,h,435,NA,NA,16555,NA,435,2,legacy,1024,2,48000,-16,experiment,SSHSS,1,odd,18118,NA,NA,143183,NA,NA,1562,131306,1560,NA,NA,144206,144306,144743,144205,144306,Flanker Task,75,36343,79,1024
95,95,460,460,#000000,legacy,legacy,legacy,incongruent,1,undefined,1,h,0,0,0,79,0,0,0,79,0,79,0,79,79,79,79,79,Sun Sep 17 17:03:49 2023,1500,The main experiment item,TRUE,FlankerTask.osexp,C:/Users/Hannah Laskoskie/Downloads,FALSE,mono,FALSE,18,no,white,no,yes,768,legacy,79,79,C:/Users/Hannah Laskoskie/Downloads/HL-subject-1.csv,legacy,Melodramatic Milgram,4.0.5,0,h,NA,NA,s,NA,h,467,NA,NA,16555,NA,467,2,legacy,1024,2,48000,-16,experiment,SSHSS,1,odd,18118,NA,NA,144744,NA,NA,1562,131306,1560,NA,NA,145764,145864,146331,145764,145864,Flanker Task,76,36810,80,1024
95,95,463,463,#000000,legacy,legacy,legacy,incongruent,1,undefined,1,s,0,0,0,80,0,0,0,80,0,80,0,80,80,80,80,80,Sun Sep 17 17:03:49 2023,600,The main experiment item,TRUE,FlankerTask.osexp,C:/Users/Hannah Laskoskie/Downloads,FALSE,mono,FALSE,18,no,white,no,yes,768,legacy,0,79,C:/Users/Hannah Laskoskie/Downloads/HL-subject-1.csv,legacy,Melodramatic Milgram,4.0.5,0,s,s,NA,s,NA,s,704,21678,NA,16555,NA,704,2,legacy,1024,2,48000,-16,experiment,HHSHH,1,odd,18118,169018,NA,146339,147339,NA,1562,131306,1560,NA,NA,169052,169154,169859,169052,169153,Flanker Task,77,37514,81,1024
95,95,463,463,#000000,legacy,legacy,legacy,congruent,1,undefined,1,h,0,0,0,81,0,0,0,81,0,81,0,81,81,81,81,81,Sun Sep 17 17:03:49 2023,600,The main experiment item,TRUE,FlankerTask.osexp,C:/Users/Hannah Laskoskie/Downloads,FALSE,mono,FALSE,18,no,white,no,yes,768,legacy,1,79,C:/Users/Hannah Laskoskie/Downloads/HL-subject-1.csv,legacy,Melodramatic Milgram,4.0.5,0,h,s,NA,s,NA,h,461,21678,NA,16555,NA,461,2,legacy,1024,2,48000,-16,experiment,HHHHH,1,odd,18118,169018,NA,170367,147339,NA,1562,131306,1560,169867,NA,171389,171489,171951,171388,171489,Flanker Task,78,37975,82,1024
95,95,461,461,#000000,legacy,legacy,legacy,incongruent,1,undefined,1,s,0,0,0,82,0,0,0,82,0,82,0,82,82,82,82,82,Sun Sep 17 17:03:49 2023,600,The main experiment item,TRUE,FlankerTask.osexp,C:/Users/Hannah Laskoskie/Downloads,FALSE,mono,FALSE,18,no,white,no,yes,768,legacy,2,79,C:/Users/Hannah Laskoskie/Downloads/HL-subject-1.csv,legacy,Melodramatic Milgram,4.0.5,0,s,s,NA,s,NA,s,313,21678,NA,16555,NA,313,2,legacy,1024,2,48000,-16,experiment,HHSHH,1,odd,18118,169018,NA,171959,147339,NA,1562,131306,1560,169867,NA,172980,173080,173394,172979,173080,Flanker Task,79,38288,83,1024
95,95,460,460,#000000,legacy,legacy,legacy,incongruent,1,undefined,1,h,0,0,0,83,0,0,0,83,0,83,0,83,83,83,83,83,Sun Sep 17 17:03:49 2023,600,The main experiment item,TRUE,FlankerTask.osexp,C:/Users/Hannah Laskoskie/Downloads,FALSE,mono,FALSE,18,no,white,no,yes,768,legacy,3,79,C:/Users/Hannah Laskoskie/Downloads/HL-subject-1.csv,legacy,Melodramatic Milgram,4.0.5,0,h,s,NA,s,NA,h,413,21678,NA,16555,NA,413,2,legacy,1024,2,48000,-16,experiment,SSHSS,1,odd,18118,169018,NA,173401,147339,NA,1562,131306,1560,169867,NA,174423,174523,174937,174422,174523,Flanker Task,80,38701,84,1024
95,95,459,459,#000000,legacy,legacy,legacy,congruent,1,undefined,1,s,0,0,0,84,0,0,0,84,0,84,0,84,84,84,84,84,Sun Sep 17 17:03:49 2023,600,The main experiment item,TRUE,FlankerTask.osexp,C:/Users/Hannah Laskoskie/Downloads,FALSE,mono,FALSE,18,no,white,no,yes,768,legacy,4,79,C:/Users/Hannah Laskoskie/Downloads/HL-subject-1.csv,legacy,Melodramatic Milgram,4.0.5,0,s,s,NA,s,NA,s,332,21678,NA,16555,NA,332,2,legacy,1024,2,48000,-16,experiment,SSSSS,1,odd,18118,169018,NA,174945,147339,NA,1562,131306,1560,169867,NA,175967,176067,176400,175965,176067,Flanker Task,81,39033,85,1024
95,95,458,458,#000000,legacy,legacy,legacy,congruent,1,undefined,1,s,0,0,0,85,0,0,0,85,0,85,0,85,85,85,85,85,Sun Sep 17 17:03:49 2023,600,The main experiment item,TRUE,FlankerTask.osexp,C:/Users/Hannah Laskoskie/Downloads,FALSE,mono,FALSE,18,no,white,no,yes,768,legacy,5,79,C:/Users/Hannah Laskoskie/Downloads/HL-subject-1.csv,legacy,Melodramatic Milgram,4.0.5,0,s,s,NA,s,NA,s,370,21678,NA,16555,NA,370,2,legacy,1024,2,48000,-16,experiment,SSSSS,1,odd,18118,169018,NA,176407,147339,NA,1562,131306,1560,169867,NA,177428,177528,177899,177426,177528,Flanker Task,82,39403,86,1024
95,95,456,456,#000000,legacy,legacy,legacy,incongruent,1,undefined,1,h,0,0,0,86,0,0,0,86,0,86,0,86,86,86,86,86,Sun Sep 17 17:03:49 2023,600,The main experiment item,TRUE,FlankerTask.osexp,C:/Users/Hannah Laskoskie/Downloads,FALSE,mono,FALSE,18,no,white,no,yes,768,legacy,6,79,C:/Users/Hannah Laskoskie/Downloads/HL-subject-1.csv,legacy,Melodramatic Milgram,4.0.5,0,h,s,NA,s,NA,h,331,21678,NA,16555,NA,331,2,legacy,1024,2,48000,-16,experiment,SSHSS,1,odd,18118,169018,NA,177907,147339,NA,1562,131306,1560,169867,NA,178929,179030,179362,178928,179030,Flanker Task,83,39734,87,1024
95,95,456,456,#000000,legacy,legacy,legacy,incongruent,1,undefined,1,h,0,0,0,87,0,0,0,87,0,87,0,87,87,87,87,87,Sun Sep 17 17:03:49 2023,600,The main experiment item,TRUE,FlankerTask.osexp,C:/Users/Hannah Laskoskie/Downloads,FALSE,mono,FALSE,18,no,white,no,yes,768,legacy,7,79,C:/Users/Hannah Laskoskie/Downloads/HL-subject-1.csv,legacy,Melodramatic Milgram,4.0.5,0,h,s,NA,s,NA,h,411,21678,NA,16555,NA,411,2,legacy,1024,2,48000,-16,experiment,SSHSS,1,odd,18118,169018,NA,179369,147339,NA,1562,131306,1560,169867,NA,180393,180493,180904,180392,180493,Flanker Task,84,40145,88,1024
95,95,455,455,#000000,legacy,legacy,legacy,congruent,1,undefined,1,h,0,0,0,88,0,0,0,88,0,88,0,88,88,88,88,88,Sun Sep 17 17:03:49 2023,600,The main experiment item,TRUE,FlankerTask.osexp,C:/Users/Hannah Laskoskie/Downloads,FALSE,mono,FALSE,18,no,white,no,yes,768,legacy,8,79,C:/Users/Hannah Laskoskie/Downloads/HL-subject-1.csv,legacy,Melodramatic Milgram,4.0.5,0,h,s,NA,s,NA,h,432,21678,NA,16555,NA,432,2,legacy,1024,2,48000,-16,experiment,HHHHH,1,odd,18118,169018,NA,180913,147339,NA,1562,131306,1560,169867,NA,181934,182034,182467,181932,182034,Flanker Task,85,40577,89,1024
95,95,455,455,#000000,legacy,legacy,legacy,congruent,1,undefined,1,s,0,0,0,89,0,0,0,89,0,89,0,89,89,89,89,89,Sun Sep 17 17:03:49 2023,600,The main experiment item,TRUE,FlankerTask.osexp,C:/Users/Hannah Laskoskie/Downloads,FALSE,mono,FALSE,18,no,white,no,yes,768,legacy,9,79,C:/Users/Hannah Laskoskie/Downloads/HL-subject-1.csv,legacy,Melodramatic Milgram,4.0.5,0,s,s,NA,s,NA,s,381,21678,NA,16555,NA,381,2,legacy,1024,2,48000,-16,experiment,SSSSS,1,odd,18118,169018,NA,182475,147339,NA,1562,131306,1560,169867,NA,183495,183595,183977,183494,183595,Flanker Task,86,40958,90,1024
95,95,455,455,#000000,legacy,legacy,legacy,incongruent,1,undefined,1,h,0,0,0,90,0,0,0,90,0,90,0,90,90,90,90,90,Sun Sep 17 17:03:49 2023,600,The main experiment item,TRUE,FlankerTask.osexp,C:/Users/Hannah Laskoskie/Downloads,FALSE,mono,FALSE,18,no,white,no,yes,768,legacy,10,79,C:/Users/Hannah Laskoskie/Downloads/HL-subject-1.csv,legacy,Melodramatic Milgram,4.0.5,0,h,s,NA,s,NA,h,473,21678,NA,16555,NA,473,2,legacy,1024,2,48000,-16,experiment,SSHSS,1,odd,18118,169018,NA,183985,147339,NA,1562,131306,1560,169867,NA,185008,185108,185582,185007,185108,Flanker Task,87,41431,91,1024
95,95,454,454,#000000,legacy,legacy,legacy,congruent,1,undefined,1,h,0,0,0,91,0,0,0,91,0,91,0,91,91,91,91,91,Sun Sep 17 17:03:49 2023,600,The main experiment item,TRUE,FlankerTask.osexp,C:/Users/Hannah Laskoskie/Downloads,FALSE,mono,FALSE,18,no,white,no,yes,768,legacy,11,79,C:/Users/Hannah Laskoskie/Downloads/HL-subject-1.csv,legacy,Melodramatic Milgram,4.0.5,0,h,s,NA,s,NA,h,373,21678,NA,16555,NA,373,2,legacy,1024,2,48000,-16,experiment,HHHHH,1,odd,18118,169018,NA,185584,147339,NA,1562,131306,1560,169867,NA,186604,186705,187079,186603,186705,Flanker Task,88,41804,92,1024
95,95,453,453,#000000,legacy,legacy,legacy,incongruent,1,undefined,1,h,0,0,0,92,0,0,0,92,0,92,0,92,92,92,92,92,Sun Sep 17 17:03:49 2023,600,The main experiment item,TRUE,FlankerTask.osexp,C:/Users/Hannah Laskoskie/Downloads,FALSE,mono,FALSE,18,no,white,no,yes,768,legacy,12,79,C:/Users/Hannah Laskoskie/Downloads/HL-subject-1.csv,legacy,Melodramatic Milgram,4.0.5,0,h,s,NA,s,NA,h,349,21678,NA,16555,NA,349,2,legacy,1024,2,48000,-16,experiment,SSHSS,1,odd,18118,169018,NA,187081,147339,NA,1562,131306,1560,169867,NA,188104,188204,188554,188102,188204,Flanker Task,89,42153,93,1024
94,94,451,451,#000000,legacy,legacy,legacy,incongruent,0,undefined,0,s,0,0,0,93,0,0,0,93,0,93,0,93,93,93,93,93,Sun Sep 17 17:03:49 2023,600,The main experiment item,TRUE,FlankerTask.osexp,C:/Users/Hannah Laskoskie/Downloads,FALSE,mono,FALSE,18,no,white,no,yes,768,legacy,13,79,C:/Users/Hannah Laskoskie/Downloads/HL-subject-1.csv,legacy,Melodramatic Milgram,4.0.5,0,h,s,NA,s,NA,h,322,21678,NA,16555,NA,322,2,legacy,1024,2,48000,-16,experiment,HHSHH,1,odd,18118,169018,NA,188556,147339,NA,1562,131306,1560,169867,NA,189577,189677,190000,189576,189677,Flanker Task,89,42475,94,1024
94,94,452,452,#000000,legacy,legacy,legacy,incongruent,1,undefined,1,s,0,0,0,94,0,0,0,94,0,94,0,94,94,94,94,94,Sun Sep 17 17:03:49 2023,600,The main experiment item,TRUE,FlankerTask.osexp,C:/Users/Hannah Laskoskie/Downloads,FALSE,mono,FALSE,18,no,white,no,yes,768,legacy,14,79,C:/Users/Hannah Laskoskie/Downloads/HL-subject-1.csv,legacy,Melodramatic Milgram,4.0.5,0,s,s,NA,s,NA,s,492,21678,NA,16555,NA,492,2,legacy,1024,2,48000,-16,experiment,HHSHH,1,odd,18118,169018,NA,190502,147339,NA,1562,190002,1560,169867,NA,191525,191626,192119,191524,191626,Flanker Task,90,42967,95,1024
94,94,451,451,#000000,legacy,legacy,legacy,incongruent,1,undefined,1,s,0,0,0,95,0,0,0,95,0,95,0,95,95,95,95,95,Sun Sep 17 17:03:49 2023,600,The main experiment item,TRUE,FlankerTask.osexp,C:/Users/Hannah Laskoskie/Downloads,FALSE,mono,FALSE,18,no,white,no,yes,768,legacy,15,79,C:/Users/Hannah Laskoskie/Downloads/HL-subject-1.csv,legacy,Melodramatic Milgram,4.0.5,0,s,s,NA,s,NA,s,357,21678,NA,16555,NA,357,2,legacy,1024,2,48000,-16,experiment,HHSHH,1,odd,18118,169018,NA,192127,147339,NA,1562,190002,1560,169867,NA,193149,193250,193608,193147,193250,Flanker Task,91,43324,96,1024
94,94,450,450,#000000,legacy,legacy,legacy,congruent,1,undefined,1,s,0,0,0,96,0,0,0,96,0,96,0,96,96,96,96,96,Sun Sep 17 17:03:49 2023,600,The main experiment item,TRUE,FlankerTask.osexp,C:/Users/Hannah Laskoskie/Downloads,FALSE,mono,FALSE,18,no,white,no,yes,768,legacy,16,79,C:/Users/Hannah Laskoskie/Downloads/HL-subject-1.csv,legacy,Melodramatic Milgram,4.0.5,0,s,s,NA,s,NA,s,365,21678,NA,16555,NA,365,2,legacy,1024,2,48000,-16,experiment,SSSSS,1,odd,18118,169018,NA,193616,147339,NA,1562,190002,1560,169867,NA,194641,194742,195108,194640,194742,Flanker Task,92,43689,97,1024
93,93,449,449,#000000,legacy,legacy,legacy,incongruent,0,undefined,0,s,0,0,0,97,0,0,0,97,0,97,0,97,97,97,97,97,Sun Sep 17 17:03:49 2023,600,The main experiment item,TRUE,FlankerTask.osexp,C:/Users/Hannah Laskoskie/Downloads,FALSE,mono,FALSE,18,no,white,no,yes,768,legacy,17,79,C:/Users/Hannah Laskoskie/Downloads/HL-subject-1.csv,legacy,Melodramatic Milgram,4.0.5,0,h,s,NA,s,NA,h,329,21678,NA,16555,NA,329,2,legacy,1024,2,48000,-16,experiment,HHSHH,1,odd,18118,169018,NA,195115,147339,NA,1562,190002,1560,169867,NA,196136,196236,196566,196135,196236,Flanker Task,92,44018,98,1024
93,93,449,449,#000000,legacy,legacy,legacy,congruent,1,undefined,1,h,0,0,0,98,0,0,0,98,0,98,0,98,98,98,98,98,Sun Sep 17 17:03:49 2023,600,The main experiment item,TRUE,FlankerTask.osexp,C:/Users/Hannah Laskoskie/Downloads,FALSE,mono,FALSE,18,no,white,no,yes,768,legacy,18,79,C:/Users/Hannah Laskoskie/Downloads/HL-subject-1.csv,legacy,Melodramatic Milgram,4.0.5,0,h,s,NA,s,NA,h,496,21678,NA,16555,NA,496,2,legacy,1024,2,48000,-16,experiment,HHHHH,1,odd,18118,169018,NA,197074,147339,NA,1562,196574,1560,169867,NA,198095,198195,198693,198094,198195,Flanker Task,93,44514,99,1024
94,94,448,448,#000000,legacy,legacy,legacy,congruent,1,undefined,1,h,0,0,0,99,0,0,0,99,0,99,0,99,99,99,99,99,Sun Sep 17 17:03:49 2023,600,The main experiment item,TRUE,FlankerTask.osexp,C:/Users/Hannah Laskoskie/Downloads,FALSE,mono,FALSE,18,no,white,no,yes,768,legacy,19,79,C:/Users/Hannah Laskoskie/Downloads/HL-subject-1.csv,legacy,Melodramatic Milgram,4.0.5,0,h,s,NA,s,NA,h,374,21678,NA,16555,NA,374,2,legacy,1024,2,48000,-16,experiment,HHHHH,1,odd,18118,169018,NA,198701,147339,NA,1562,196574,1560,169867,NA,199725,199826,200201,199723,199826,Flanker Task,94,44888,100,1024
94,94,448,448,#000000,legacy,legacy,legacy,incongruent,1,undefined,1,s,0,0,0,100,0,0,0,100,0,100,0,100,100,100,100,100,Sun Sep 17 17:03:49 2023,600,The main experiment item,TRUE,FlankerTask.osexp,C:/Users/Hannah Laskoskie/Downloads,FALSE,mono,FALSE,18,no,white,no,yes,768,legacy,20,79,C:/Users/Hannah Laskoskie/Downloads/HL-subject-1.csv,legacy,Melodramatic Milgram,4.0.5,0,s,s,NA,s,NA,s,423,21678,NA,16555,NA,423,2,legacy,1024,2,48000,-16,experiment,HHSHH,1,odd,18118,169018,NA,200209,147339,NA,1562,196574,1560,169867,NA,201230,201330,201754,201229,201330,Flanker Task,95,45311,101,1024
94,94,447,447,#000000,legacy,legacy,legacy,congruent,1,undefined,1,h,0,0,0,101,0,0,0,101,0,101,0,101,101,101,101,101,Sun Sep 17 17:03:49 2023,600,The main experiment item,TRUE,FlankerTask.osexp,C:/Users/Hannah Laskoskie/Downloads,FALSE,mono,FALSE,18,no,white,no,yes,768,legacy,21,79,C:/Users/Hannah Laskoskie/Downloads/HL-subject-1.csv,legacy,Melodramatic Milgram,4.0.5,0,h,s,NA,s,NA,h,376,21678,NA,16555,NA,376,2,legacy,1024,2,48000,-16,experiment,HHHHH,1,odd,18118,169018,NA,201756,147339,NA,1562,196574,1560,169867,NA,202777,202877,203254,202776,202877,Flanker Task,96,45687,102,1024
94,94,447,447,#000000,legacy,legacy,legacy,congruent,1,undefined,1,s,0,0,0,102,0,0,0,102,0,102,0,102,102,102,102,102,Sun Sep 17 17:03:49 2023,600,The main experiment item,TRUE,FlankerTask.osexp,C:/Users/Hannah Laskoskie/Downloads,FALSE,mono,FALSE,18,no,white,no,yes,768,legacy,22,79,C:/Users/Hannah Laskoskie/Downloads/HL-subject-1.csv,legacy,Melodramatic Milgram,4.0.5,0,s,s,NA,s,NA,s,400,21678,NA,16555,NA,400,2,legacy,1024,2,48000,-16,experiment,SSSSS,1,odd,18118,169018,NA,203262,147339,NA,1562,196574,1560,169867,NA,204284,204385,204785,204282,204385,Flanker Task,97,46087,103,1024
94,94,446,446,#000000,legacy,legacy,legacy,congruent,1,undefined,1,h,0,0,0,103,0,0,0,103,0,103,0,103,103,103,103,103,Sun Sep 17 17:03:49 2023,600,The main experiment item,TRUE,FlankerTask.osexp,C:/Users/Hannah Laskoskie/Downloads,FALSE,mono,FALSE,18,no,white,no,yes,768,legacy,23,79,C:/Users/Hannah Laskoskie/Downloads/HL-subject-1.csv,legacy,Melodramatic Milgram,4.0.5,0,h,s,NA,s,NA,h,380,21678,NA,16555,NA,380,2,legacy,1024,2,48000,-16,experiment,HHHHH,1,odd,18118,169018,NA,204787,147339,NA,1562,196574,1560,169867,NA,205810,205911,206292,205808,205911,Flanker Task,98,46467,104,1024
94,94,445,445,#000000,legacy,legacy,legacy,incongruent,1,undefined,1,s,0,0,0,104,0,0,0,104,0,104,0,104,104,104,104,104,Sun Sep 17 17:03:49 2023,600,The main experiment item,TRUE,FlankerTask.osexp,C:/Users/Hannah Laskoskie/Downloads,FALSE,mono,FALSE,18,no,white,no,yes,768,legacy,24,79,C:/Users/Hannah Laskoskie/Downloads/HL-subject-1.csv,legacy,Melodramatic Milgram,4.0.5,0,s,s,NA,s,NA,s,350,21678,NA,16555,NA,350,2,legacy,1024,2,48000,-16,experiment,HHSHH,1,odd,18118,169018,NA,206294,147339,NA,1562,196574,1560,169867,NA,207317,207418,207769,207316,207418,Flanker Task,99,46817,105,1024
94,94,445,445,#000000,legacy,legacy,legacy,congruent,1,undefined,1,s,0,0,0,105,0,0,0,105,0,105,0,105,105,105,105,105,Sun Sep 17 17:03:49 2023,600,The main experiment item,TRUE,FlankerTask.osexp,C:/Users/Hannah Laskoskie/Downloads,FALSE,mono,FALSE,18,no,white,no,yes,768,legacy,25,79,C:/Users/Hannah Laskoskie/Downloads/HL-subject-1.csv,legacy,Melodramatic Milgram,4.0.5,0,s,s,NA,s,NA,s,390,21678,NA,16555,NA,390,2,legacy,1024,2,48000,-16,experiment,SSSSS,1,odd,18118,169018,NA,207770,147339,NA,1562,196574,1560,169867,NA,208796,208897,209288,208795,208897,Flanker Task,100,47207,106,1024
94,94,444,444,#000000,legacy,legacy,legacy,incongruent,1,undefined,1,s,0,0,0,106,0,0,0,106,0,106,0,106,106,106,106,106,Sun Sep 17 17:03:49 2023,600,The main experiment item,TRUE,FlankerTask.osexp,C:/Users/Hannah Laskoskie/Downloads,FALSE,mono,FALSE,18,no,white,no,yes,768,legacy,26,79,C:/Users/Hannah Laskoskie/Downloads/HL-subject-1.csv,legacy,Melodramatic Milgram,4.0.5,0,s,s,NA,s,NA,s,316,21678,NA,16555,NA,316,2,legacy,1024,2,48000,-16,experiment,HHSHH,1,odd,18118,169018,NA,209296,147339,NA,1562,196574,1560,169867,NA,210317,210417,210734,210316,210417,Flanker Task,101,47523,107,1024
94,94,443,443,#000000,legacy,legacy,legacy,congruent,1,undefined,1,s,0,0,0,107,0,0,0,107,0,107,0,107,107,107,107,107,Sun Sep 17 17:03:49 2023,600,The main experiment item,TRUE,FlankerTask.osexp,C:/Users/Hannah Laskoskie/Downloads,FALSE,mono,FALSE,18,no,white,no,yes,768,legacy,27,79,C:/Users/Hannah Laskoskie/Downloads/HL-subject-1.csv,legacy,Melodramatic Milgram,4.0.5,0,s,s,NA,s,NA,s,340,21678,NA,16555,NA,340,2,legacy,1024,2,48000,-16,experiment,SSSSS,1,odd,18118,169018,NA,210742,147339,NA,1562,196574,1560,169867,NA,211763,211863,212204,211761,211863,Flanker Task,102,47863,108,1024
94,94,442,442,#000000,legacy,legacy,legacy,incongruent,1,undefined,1,s,0,0,0,108,0,0,0,108,0,108,0,108,108,108,108,108,Sun Sep 17 17:03:49 2023,600,The main experiment item,TRUE,FlankerTask.osexp,C:/Users/Hannah Laskoskie/Downloads,FALSE,mono,FALSE,18,no,white,no,yes,768,legacy,28,79,C:/Users/Hannah Laskoskie/Downloads/HL-subject-1.csv,legacy,Melodramatic Milgram,4.0.5,0,s,s,NA,s,NA,s,418,21678,NA,16555,NA,418,2,legacy,1024,2,48000,-16,experiment,HHSHH,1,odd,18118,169018,NA,212211,147339,NA,1562,196574,1560,169867,NA,213234,213335,213753,213233,213334,Flanker Task,103,48281,109,1024
94,94,442,442,#000000,legacy,legacy,legacy,incongruent,1,undefined,1,s,0,0,0,109,0,0,0,109,0,109,0,109,109,109,109,109,Sun Sep 17 17:03:49 2023,600,The main experiment item,TRUE,FlankerTask.osexp,C:/Users/Hannah Laskoskie/Downloads,FALSE,mono,FALSE,18,no,white,no,yes,768,legacy,29,79,C:/Users/Hannah Laskoskie/Downloads/HL-subject-1.csv,legacy,Melodramatic Milgram,4.0.5,0,s,s,NA,s,NA,s,354,21678,NA,16555,NA,354,2,legacy,1024,2,48000,-16,experiment,HHSHH,1,odd,18118,169018,NA,213756,147339,NA,1562,196574,1560,169867,NA,214778,214878,215233,214777,214878,Flanker Task,104,48635,110,1024
94,94,441,441,#000000,legacy,legacy,legacy,congruent,1,undefined,1,s,0,0,0,110,0,0,0,110,0,110,0,110,110,110,110,110,Sun Sep 17 17:03:49 2023,600,The main experiment item,TRUE,FlankerTask.osexp,C:/Users/Hannah Laskoskie/Downloads,FALSE,mono,FALSE,18,no,white,no,yes,768,legacy,30,79,C:/Users/Hannah Laskoskie/Downloads/HL-subject-1.csv,legacy,Melodramatic Milgram,4.0.5,0,s,s,NA,s,NA,s,360,21678,NA,16555,NA,360,2,legacy,1024,2,48000,-16,experiment,SSSSS,1,odd,18118,169018,NA,215242,147339,NA,1562,196574,1560,169867,NA,216264,216364,216725,216263,216364,Flanker Task,105,48995,111,1024
94,94,441,441,#000000,legacy,legacy,legacy,congruent,1,undefined,1,h,0,0,0,111,0,0,0,111,0,111,0,111,111,111,111,111,Sun Sep 17 17:03:49 2023,600,The main experiment item,TRUE,FlankerTask.osexp,C:/Users/Hannah Laskoskie/Downloads,FALSE,mono,FALSE,18,no,white,no,yes,768,legacy,31,79,C:/Users/Hannah Laskoskie/Downloads/HL-subject-1.csv,legacy,Melodramatic Milgram,4.0.5,0,h,s,NA,s,NA,h,454,21678,NA,16555,NA,454,2,legacy,1024,2,48000,-16,experiment,HHHHH,1,odd,18118,169018,NA,216733,147339,NA,1562,196574,1560,169867,NA,217755,217856,218310,217753,217856,Flanker Task,106,49449,112,1024
94,94,440,440,#000000,legacy,legacy,legacy,congruent,1,undefined,1,h,0,0,0,112,0,0,0,112,0,112,0,112,112,112,112,112,Sun Sep 17 17:03:49 2023,600,The main experiment item,TRUE,FlankerTask.osexp,C:/Users/Hannah Laskoskie/Downloads,FALSE,mono,FALSE,18,no,white,no,yes,768,legacy,32,79,C:/Users/Hannah Laskoskie/Downloads/HL-subject-1.csv,legacy,Melodramatic Milgram,4.0.5,0,h,s,NA,s,NA,h,357,21678,NA,16555,NA,357,2,legacy,1024,2,48000,-16,experiment,HHHHH,1,odd,18118,169018,NA,218318,147339,NA,1562,196574,1560,169867,NA,219340,219441,219799,219339,219441,Flanker Task,107,49806,113,1024
93,93,439,439,#000000,legacy,legacy,legacy,incongruent,0,undefined,0,s,0,0,0,113,0,0,0,113,0,113,0,113,113,113,113,113,Sun Sep 17 17:03:49 2023,600,The main experiment item,TRUE,FlankerTask.osexp,C:/Users/Hannah Laskoskie/Downloads,FALSE,mono,FALSE,18,no,white,no,yes,768,legacy,33,79,C:/Users/Hannah Laskoskie/Downloads/HL-subject-1.csv,legacy,Melodramatic Milgram,4.0.5,0,h,s,NA,s,NA,h,353,21678,NA,16555,NA,353,2,legacy,1024,2,48000,-16,experiment,HHSHH,1,odd,18118,169018,NA,219807,147339,NA,1562,196574,1560,169867,NA,220829,220929,221283,220827,220929,Flanker Task,107,50159,114,1024
93,93,439,439,#000000,legacy,legacy,legacy,incongruent,1,undefined,1,s,0,0,0,114,0,0,0,114,0,114,0,114,114,114,114,114,Sun Sep 17 17:03:49 2023,600,The main experiment item,TRUE,FlankerTask.osexp,C:/Users/Hannah Laskoskie/Downloads,FALSE,mono,FALSE,18,no,white,no,yes,768,legacy,34,79,C:/Users/Hannah Laskoskie/Downloads/HL-subject-1.csv,legacy,Melodramatic Milgram,4.0.5,0,s,s,NA,s,NA,s,375,21678,NA,16555,NA,375,2,legacy,1024,2,48000,-16,experiment,HHSHH,1,odd,18118,169018,NA,221785,147339,NA,1562,221285,1560,169867,NA,222812,222913,223289,222811,222913,Flanker Task,108,50534,115,1024
93,93,439,439,#000000,legacy,legacy,legacy,incongruent,0,undefined,0,h,0,0,0,115,0,0,0,115,0,115,0,115,115,115,115,115,Sun Sep 17 17:03:49 2023,600,The main experiment item,TRUE,FlankerTask.osexp,C:/Users/Hannah Laskoskie/Downloads,FALSE,mono,FALSE,18,no,white,no,yes,768,legacy,35,79,C:/Users/Hannah Laskoskie/Downloads/HL-subject-1.csv,legacy,Melodramatic Milgram,4.0.5,0,s,s,NA,s,NA,s,428,21678,NA,16555,NA,428,2,legacy,1024,2,48000,-16,experiment,SSHSS,1,odd,18118,169018,NA,223297,147339,NA,1562,221285,1560,169867,NA,224319,224419,224847,224317,224419,Flanker Task,108,50962,116,1024
93,93,439,439,#000000,legacy,legacy,legacy,incongruent,1,undefined,1,s,0,0,0,116,0,0,0,116,0,116,0,116,116,116,116,116,Sun Sep 17 17:03:49 2023,600,The main experiment item,TRUE,FlankerTask.osexp,C:/Users/Hannah Laskoskie/Downloads,FALSE,mono,FALSE,18,no,white,no,yes,768,legacy,36,79,C:/Users/Hannah Laskoskie/Downloads/HL-subject-1.csv,legacy,Melodramatic Milgram,4.0.5,0,s,s,NA,s,NA,s,422,21678,NA,16555,NA,422,2,legacy,1024,2,48000,-16,experiment,HHSHH,1,odd,18118,169018,NA,225355,147339,NA,1562,224855,1560,169867,NA,226376,226476,226899,226375,226476,Flanker Task,109,51384,117,1024
93,93,438,438,#000000,legacy,legacy,legacy,congruent,1,undefined,1,h,0,0,0,117,0,0,0,117,0,117,0,117,117,117,117,117,Sun Sep 17 17:03:49 2023,600,The main experiment item,TRUE,FlankerTask.osexp,C:/Users/Hannah Laskoskie/Downloads,FALSE,mono,FALSE,18,no,white,no,yes,768,legacy,37,79,C:/Users/Hannah Laskoskie/Downloads/HL-subject-1.csv,legacy,Melodramatic Milgram,4.0.5,0,h,s,NA,s,NA,h,372,21678,NA,16555,NA,372,2,legacy,1024,2,48000,-16,experiment,HHHHH,1,odd,18118,169018,NA,226907,147339,NA,1562,224855,1560,169867,NA,227930,228031,228405,227929,228031,Flanker Task,110,51756,118,1024
93,93,437,437,#000000,legacy,legacy,legacy,incongruent,1,undefined,1,h,0,0,0,118,0,0,0,118,0,118,0,118,118,118,118,118,Sun Sep 17 17:03:49 2023,600,The main experiment item,TRUE,FlankerTask.osexp,C:/Users/Hannah Laskoskie/Downloads,FALSE,mono,FALSE,18,no,white,no,yes,768,legacy,38,79,C:/Users/Hannah Laskoskie/Downloads/HL-subject-1.csv,legacy,Melodramatic Milgram,4.0.5,0,h,s,NA,s,NA,h,324,21678,NA,16555,NA,324,2,legacy,1024,2,48000,-16,experiment,SSHSS,1,odd,18118,169018,NA,228412,147339,NA,1562,224855,1560,169867,NA,229434,229534,229859,229433,229534,Flanker Task,111,52080,119,1024
93,93,437,437,#000000,legacy,legacy,legacy,incongruent,1,undefined,1,h,0,0,0,119,0,0,0,119,0,119,0,119,119,119,119,119,Sun Sep 17 17:03:49 2023,600,The main experiment item,TRUE,FlankerTask.osexp,C:/Users/Hannah Laskoskie/Downloads,FALSE,mono,FALSE,18,no,white,no,yes,768,legacy,39,79,C:/Users/Hannah Laskoskie/Downloads/HL-subject-1.csv,legacy,Melodramatic Milgram,4.0.5,0,h,s,NA,s,NA,h,444,21678,NA,16555,NA,444,2,legacy,1024,2,48000,-16,experiment,SSHSS,1,odd,18118,169018,NA,229861,147339,NA,1562,224855,1560,169867,NA,230882,230982,231427,230881,230982,Flanker Task,112,52524,120,1024
93,93,437,437,#000000,legacy,legacy,legacy,congruent,1,undefined,1,h,0,0,0,120,0,0,0,120,0,120,0,120,120,120,120,120,Sun Sep 17 17:03:49 2023,600,The main experiment item,TRUE,FlankerTask.osexp,C:/Users/Hannah Laskoskie/Downloads,FALSE,mono,FALSE,18,no,white,no,yes,768,legacy,40,79,C:/Users/Hannah Laskoskie/Downloads/HL-subject-1.csv,legacy,Melodramatic Milgram,4.0.5,0,h,s,NA,s,NA,h,356,21678,NA,16555,NA,356,2,legacy,1024,2,48000,-16,experiment,HHHHH,1,odd,18118,169018,NA,231435,147339,NA,1562,224855,1560,169867,NA,232456,232556,232914,232455,232556,Flanker Task,113,52880,121,1024
93,93,435,435,#000000,legacy,legacy,legacy,congruent,1,undefined,1,h,0,0,0,121,0,0,0,121,0,121,0,121,121,121,121,121,Sun Sep 17 17:03:49 2023,600,The main experiment item,TRUE,FlankerTask.osexp,C:/Users/Hannah Laskoskie/Downloads,FALSE,mono,FALSE,18,no,white,no,yes,768,legacy,41,79,C:/Users/Hannah Laskoskie/Downloads/HL-subject-1.csv,legacy,Melodramatic Milgram,4.0.5,0,h,s,NA,s,NA,h,292,21678,NA,16555,NA,292,2,legacy,1024,2,48000,-16,experiment,HHHHH,1,odd,18118,169018,NA,232922,147339,NA,1562,224855,1560,169867,NA,233943,234044,234336,233942,234043,Flanker Task,114,53172,122,1024
93,93,435,435,#000000,legacy,legacy,legacy,congruent,1,undefined,1,s,0,0,0,122,0,0,0,122,0,122,0,122,122,122,122,122,Sun Sep 17 17:03:49 2023,600,The main experiment item,TRUE,FlankerTask.osexp,C:/Users/Hannah Laskoskie/Downloads,FALSE,mono,FALSE,18,no,white,no,yes,768,legacy,42,79,C:/Users/Hannah Laskoskie/Downloads/HL-subject-1.csv,legacy,Melodramatic Milgram,4.0.5,0,s,s,NA,s,NA,s,403,21678,NA,16555,NA,403,2,legacy,1024,2,48000,-16,experiment,SSSSS,1,odd,18118,169018,NA,234344,147339,NA,1562,224855,1560,169867,NA,235366,235467,235871,235365,235467,Flanker Task,115,53575,123,1024
93,93,434,434,#000000,legacy,legacy,legacy,congruent,1,undefined,1,s,0,0,0,123,0,0,0,123,0,123,0,123,123,123,123,123,Sun Sep 17 17:03:49 2023,600,The main experiment item,TRUE,FlankerTask.osexp,C:/Users/Hannah Laskoskie/Downloads,FALSE,mono,FALSE,18,no,white,no,yes,768,legacy,43,79,C:/Users/Hannah Laskoskie/Downloads/HL-subject-1.csv,legacy,Melodramatic Milgram,4.0.5,0,s,s,NA,s,NA,s,320,21678,NA,16555,NA,320,2,legacy,1024,2,48000,-16,experiment,SSSSS,1,odd,18118,169018,NA,235879,147339,NA,1562,224855,1560,169867,NA,236904,237005,237326,236903,237004,Flanker Task,116,53895,124,1024
92,92,434,434,#000000,legacy,legacy,legacy,incongruent,0,undefined,0,s,0,0,0,124,0,0,0,124,0,124,0,124,124,124,124,124,Sun Sep 17 17:03:49 2023,600,The main experiment item,TRUE,FlankerTask.osexp,C:/Users/Hannah Laskoskie/Downloads,FALSE,mono,FALSE,18,no,white,no,yes,768,legacy,44,79,C:/Users/Hannah Laskoskie/Downloads/HL-subject-1.csv,legacy,Melodramatic Milgram,4.0.5,0,h,s,NA,s,NA,h,429,21678,NA,16555,NA,429,2,legacy,1024,2,48000,-16,experiment,HHSHH,1,odd,18118,169018,NA,237335,147339,NA,1562,224855,1560,169867,NA,238357,238457,238887,238355,238457,Flanker Task,116,54324,125,1024
92,92,435,435,#000000,legacy,legacy,legacy,incongruent,1,undefined,1,s,0,0,0,125,0,0,0,125,0,125,0,125,125,125,125,125,Sun Sep 17 17:03:49 2023,600,The main experiment item,TRUE,FlankerTask.osexp,C:/Users/Hannah Laskoskie/Downloads,FALSE,mono,FALSE,18,no,white,no,yes,768,legacy,45,79,C:/Users/Hannah Laskoskie/Downloads/HL-subject-1.csv,legacy,Melodramatic Milgram,4.0.5,0,s,s,NA,s,NA,s,523,21678,NA,16555,NA,523,2,legacy,1024,2,48000,-16,experiment,HHSHH,1,odd,18118,169018,NA,239390,147339,NA,1562,238889,1560,169867,NA,240412,240512,241036,240410,240512,Flanker Task,117,54847,126,1024
92,92,435,435,#000000,legacy,legacy,legacy,incongruent,1,undefined,1,s,0,0,0,126,0,0,0,126,0,126,0,126,126,126,126,126,Sun Sep 17 17:03:49 2023,600,The main experiment item,TRUE,FlankerTask.osexp,C:/Users/Hannah Laskoskie/Downloads,FALSE,mono,FALSE,18,no,white,no,yes,768,legacy,46,79,C:/Users/Hannah Laskoskie/Downloads/HL-subject-1.csv,legacy,Melodramatic Milgram,4.0.5,0,s,s,NA,s,NA,s,468,21678,NA,16555,NA,468,2,legacy,1024,2,48000,-16,experiment,HHSHH,1,odd,18118,169018,NA,241044,147339,NA,1562,238889,1560,169867,NA,242068,242168,242637,242066,242168,Flanker Task,118,55315,127,1024
92,92,435,435,#000000,legacy,legacy,legacy,congruent,1,undefined,1,s,0,0,0,127,0,0,0,127,0,127,0,127,127,127,127,127,Sun Sep 17 17:03:49 2023,600,The main experiment item,TRUE,FlankerTask.osexp,C:/Users/Hannah Laskoskie/Downloads,FALSE,mono,FALSE,18,no,white,no,yes,768,legacy,47,79,C:/Users/Hannah Laskoskie/Downloads/HL-subject-1.csv,legacy,Melodramatic Milgram,4.0.5,0,s,s,NA,s,NA,s,467,21678,NA,16555,NA,467,2,legacy,1024,2,48000,-16,experiment,SSSSS,1,odd,18118,169018,NA,242645,147339,NA,1562,238889,1560,169867,NA,243666,243766,244234,243665,243766,Flanker Task,119,55782,128,1024
93,93,436,436,#000000,legacy,legacy,legacy,incongruent,1,undefined,1,h,0,0,0,128,0,0,0,128,0,128,0,128,128,128,128,128,Sun Sep 17 17:03:49 2023,600,The main experiment item,TRUE,FlankerTask.osexp,C:/Users/Hannah Laskoskie/Downloads,FALSE,mono,FALSE,18,no,white,no,yes,768,legacy,48,79,C:/Users/Hannah Laskoskie/Downloads/HL-subject-1.csv,legacy,Melodramatic Milgram,4.0.5,0,h,s,NA,s,NA,h,471,21678,NA,16555,NA,471,2,legacy,1024,2,48000,-16,experiment,SSHSS,1,odd,18118,169018,NA,244242,147339,NA,1562,238889,1560,169867,NA,245263,245363,245835,245262,245363,Flanker Task,120,56253,129,1024
93,93,435,435,#000000,legacy,legacy,legacy,congruent,1,undefined,1,h,0,0,0,129,0,0,0,129,0,129,0,129,129,129,129,129,Sun Sep 17 17:03:49 2023,600,The main experiment item,TRUE,FlankerTask.osexp,C:/Users/Hannah Laskoskie/Downloads,FALSE,mono,FALSE,18,no,white,no,yes,768,legacy,49,79,C:/Users/Hannah Laskoskie/Downloads/HL-subject-1.csv,legacy,Melodramatic Milgram,4.0.5,0,h,s,NA,s,NA,h,356,21678,NA,16555,NA,356,2,legacy,1024,2,48000,-16,experiment,HHHHH,1,odd,18118,169018,NA,245843,147339,NA,1562,238889,1560,169867,NA,246864,246964,247321,246863,246964,Flanker Task,121,56609,130,1024
93,93,434,434,#000000,legacy,legacy,legacy,incongruent,1,undefined,1,h,0,0,0,130,0,0,0,130,0,130,0,130,130,130,130,130,Sun Sep 17 17:03:49 2023,600,The main experiment item,TRUE,FlankerTask.osexp,C:/Users/Hannah Laskoskie/Downloads,FALSE,mono,FALSE,18,no,white,no,yes,768,legacy,50,79,C:/Users/Hannah Laskoskie/Downloads/HL-subject-1.csv,legacy,Melodramatic Milgram,4.0.5,0,h,s,NA,s,NA,h,350,21678,NA,16555,NA,350,2,legacy,1024,2,48000,-16,experiment,SSHSS,1,odd,18118,169018,NA,247323,147339,NA,1562,238889,1560,169867,NA,248346,248446,248797,248345,248446,Flanker Task,122,56959,131,1024
93,93,434,434,#000000,legacy,legacy,legacy,congruent,1,undefined,1,s,0,0,0,131,0,0,0,131,0,131,0,131,131,131,131,131,Sun Sep 17 17:03:49 2023,600,The main experiment item,TRUE,FlankerTask.osexp,C:/Users/Hannah Laskoskie/Downloads,FALSE,mono,FALSE,18,no,white,no,yes,768,legacy,51,79,C:/Users/Hannah Laskoskie/Downloads/HL-subject-1.csv,legacy,Melodramatic Milgram,4.0.5,0,s,s,NA,s,NA,s,413,21678,NA,16555,NA,413,2,legacy,1024,2,48000,-16,experiment,SSSSS,1,odd,18118,169018,NA,248804,147339,NA,1562,238889,1560,169867,NA,249828,249928,250342,249827,249928,Flanker Task,123,57372,132,1024
93,93,434,434,#000000,legacy,legacy,legacy,congruent,1,undefined,1,h,0,0,0,132,0,0,0,132,0,132,0,132,132,132,132,132,Sun Sep 17 17:03:49 2023,600,The main experiment item,TRUE,FlankerTask.osexp,C:/Users/Hannah Laskoskie/Downloads,FALSE,mono,FALSE,18,no,white,no,yes,768,legacy,52,79,C:/Users/Hannah Laskoskie/Downloads/HL-subject-1.csv,legacy,Melodramatic Milgram,4.0.5,0,h,s,NA,s,NA,h,358,21678,NA,16555,NA,358,2,legacy,1024,2,48000,-16,experiment,HHHHH,1,odd,18118,169018,NA,250350,147339,NA,1562,238889,1560,169867,NA,251375,251475,251834,251374,251475,Flanker Task,124,57730,133,1024
93,93,433,433,#000000,legacy,legacy,legacy,incongruent,1,undefined,1,h,0,0,0,133,0,0,0,133,0,133,0,133,133,133,133,133,Sun Sep 17 17:03:49 2023,600,The main experiment item,TRUE,FlankerTask.osexp,C:/Users/Hannah Laskoskie/Downloads,FALSE,mono,FALSE,18,no,white,no,yes,768,legacy,53,79,C:/Users/Hannah Laskoskie/Downloads/HL-subject-1.csv,legacy,Melodramatic Milgram,4.0.5,0,h,s,NA,s,NA,h,355,21678,NA,16555,NA,355,2,legacy,1024,2,48000,-16,experiment,SSHSS,1,odd,18118,169018,NA,251842,147339,NA,1562,238889,1560,169867,NA,252863,252963,253320,252862,252963,Flanker Task,125,58085,134,1024
93,93,433,433,#000000,legacy,legacy,legacy,congruent,1,undefined,1,s,0,0,0,134,0,0,0,134,0,134,0,134,134,134,134,134,Sun Sep 17 17:03:49 2023,600,The main experiment item,TRUE,FlankerTask.osexp,C:/Users/Hannah Laskoskie/Downloads,FALSE,mono,FALSE,18,no,white,no,yes,768,legacy,54,79,C:/Users/Hannah Laskoskie/Downloads/HL-subject-1.csv,legacy,Melodramatic Milgram,4.0.5,0,s,s,NA,s,NA,s,418,21678,NA,16555,NA,418,2,legacy,1024,2,48000,-16,experiment,SSSSS,1,odd,18118,169018,NA,253327,147339,NA,1562,238889,1560,169867,NA,254348,254448,254867,254346,254448,Flanker Task,126,58503,135,1024
93,93,432,432,#000000,legacy,legacy,legacy,congruent,1,undefined,1,h,0,0,0,135,0,0,0,135,0,135,0,135,135,135,135,135,Sun Sep 17 17:03:49 2023,600,The main experiment item,TRUE,FlankerTask.osexp,C:/Users/Hannah Laskoskie/Downloads,FALSE,mono,FALSE,18,no,white,no,yes,768,legacy,55,79,C:/Users/Hannah Laskoskie/Downloads/HL-subject-1.csv,legacy,Melodramatic Milgram,4.0.5,0,h,s,NA,s,NA,h,344,21678,NA,16555,NA,344,2,legacy,1024,2,48000,-16,experiment,HHHHH,1,odd,18118,169018,NA,254875,147339,NA,1562,238889,1560,169867,NA,255898,255998,256343,255896,255998,Flanker Task,127,58847,136,1024
93,93,431,431,#000000,legacy,legacy,legacy,incongruent,1,undefined,1,h,0,0,0,136,0,0,0,136,0,136,0,136,136,136,136,136,Sun Sep 17 17:03:49 2023,600,The main experiment item,TRUE,FlankerTask.osexp,C:/Users/Hannah Laskoskie/Downloads,FALSE,mono,FALSE,18,no,white,no,yes,768,legacy,56,79,C:/Users/Hannah Laskoskie/Downloads/HL-subject-1.csv,legacy,Melodramatic Milgram,4.0.5,0,h,s,NA,s,NA,h,297,21678,NA,16555,NA,297,2,legacy,1024,2,48000,-16,experiment,SSHSS,1,odd,18118,169018,NA,256351,147339,NA,1562,238889,1560,169867,NA,257372,257473,257772,257370,257473,Flanker Task,128,59144,137,1024
93,93,431,431,#000000,legacy,legacy,legacy,incongruent,1,undefined,1,h,0,0,0,137,0,0,0,137,0,137,0,137,137,137,137,137,Sun Sep 17 17:03:49 2023,600,The main experiment item,TRUE,FlankerTask.osexp,C:/Users/Hannah Laskoskie/Downloads,FALSE,mono,FALSE,18,no,white,no,yes,768,legacy,57,79,C:/Users/Hannah Laskoskie/Downloads/HL-subject-1.csv,legacy,Melodramatic Milgram,4.0.5,0,h,s,NA,s,NA,h,396,21678,NA,16555,NA,396,2,legacy,1024,2,48000,-16,experiment,SSHSS,1,odd,18118,169018,NA,257780,147339,NA,1562,238889,1560,169867,NA,258801,258901,259299,258800,258901,Flanker Task,129,59540,138,1024
93,93,430,430,#000000,legacy,legacy,legacy,congruent,1,undefined,1,h,0,0,0,138,0,0,0,138,0,138,0,138,138,138,138,138,Sun Sep 17 17:03:49 2023,600,The main experiment item,TRUE,FlankerTask.osexp,C:/Users/Hannah Laskoskie/Downloads,FALSE,mono,FALSE,18,no,white,no,yes,768,legacy,58,79,C:/Users/Hannah Laskoskie/Downloads/HL-subject-1.csv,legacy,Melodramatic Milgram,4.0.5,0,h,s,NA,s,NA,h,342,21678,NA,16555,NA,342,2,legacy,1024,2,48000,-16,experiment,HHHHH,1,odd,18118,169018,NA,259300,147339,NA,1562,238889,1560,169867,NA,260322,260422,260765,260320,260422,Flanker Task,130,59882,139,1024
93,93,430,430,#000000,legacy,legacy,legacy,congruent,1,undefined,1,s,0,0,0,139,0,0,0,139,0,139,0,139,139,139,139,139,Sun Sep 17 17:03:49 2023,600,The main experiment item,TRUE,FlankerTask.osexp,C:/Users/Hannah Laskoskie/Downloads,FALSE,mono,FALSE,18,no,white,no,yes,768,legacy,59,79,C:/Users/Hannah Laskoskie/Downloads/HL-subject-1.csv,legacy,Melodramatic Milgram,4.0.5,0,s,s,NA,s,NA,s,358,21678,NA,16555,NA,358,2,legacy,1024,2,48000,-16,experiment,SSSSS,1,odd,18118,169018,NA,260773,147339,NA,1562,238889,1560,169867,NA,261795,261895,262254,261794,261895,Flanker Task,131,60240,140,1024
92,92,429,429,#000000,legacy,legacy,legacy,incongruent,0,undefined,0,h,0,0,0,140,0,0,0,140,0,140,0,140,140,140,140,140,Sun Sep 17 17:03:49 2023,600,The main experiment item,TRUE,FlankerTask.osexp,C:/Users/Hannah Laskoskie/Downloads,FALSE,mono,FALSE,18,no,white,no,yes,768,legacy,60,79,C:/Users/Hannah Laskoskie/Downloads/HL-subject-1.csv,legacy,Melodramatic Milgram,4.0.5,0,s,s,NA,s,NA,s,320,21678,NA,16555,NA,320,2,legacy,1024,2,48000,-16,experiment,SSHSS,1,odd,18118,169018,NA,262256,147339,NA,1562,238889,1560,169867,NA,263279,263379,263700,263277,263379,Flanker Task,131,60560,141,1024
92,92,429,429,#000000,legacy,legacy,legacy,congruent,1,undefined,1,h,0,0,0,141,0,0,0,141,0,141,0,141,141,141,141,141,Sun Sep 17 17:03:49 2023,600,The main experiment item,TRUE,FlankerTask.osexp,C:/Users/Hannah Laskoskie/Downloads,FALSE,mono,FALSE,18,no,white,no,yes,768,legacy,61,79,C:/Users/Hannah Laskoskie/Downloads/HL-subject-1.csv,legacy,Melodramatic Milgram,4.0.5,0,h,s,NA,s,NA,h,380,21678,NA,16555,NA,380,2,legacy,1024,2,48000,-16,experiment,HHHHH,1,odd,18118,169018,NA,264207,147339,NA,1562,263707,1560,169867,NA,265232,265332,265713,265231,265332,Flanker Task,132,60940,142,1024
93,93,429,429,#000000,legacy,legacy,legacy,congruent,1,undefined,1,s,0,0,0,142,0,0,0,142,0,142,0,142,142,142,142,142,Sun Sep 17 17:03:49 2023,600,The main experiment item,TRUE,FlankerTask.osexp,C:/Users/Hannah Laskoskie/Downloads,FALSE,mono,FALSE,18,no,white,no,yes,768,legacy,62,79,C:/Users/Hannah Laskoskie/Downloads/HL-subject-1.csv,legacy,Melodramatic Milgram,4.0.5,0,s,s,NA,s,NA,s,408,21678,NA,16555,NA,408,2,legacy,1024,2,48000,-16,experiment,SSSSS,1,odd,18118,169018,NA,265721,147339,NA,1562,263707,1560,169867,NA,266742,266843,267252,266740,266843,Flanker Task,133,61348,143,1024
93,93,428,428,#000000,legacy,legacy,legacy,incongruent,1,undefined,1,h,0,0,0,143,0,0,0,143,0,143,0,143,143,143,143,143,Sun Sep 17 17:03:49 2023,600,The main experiment item,TRUE,FlankerTask.osexp,C:/Users/Hannah Laskoskie/Downloads,FALSE,mono,FALSE,18,no,white,no,yes,768,legacy,63,79,C:/Users/Hannah Laskoskie/Downloads/HL-subject-1.csv,legacy,Melodramatic Milgram,4.0.5,0,h,s,NA,s,NA,h,387,21678,NA,16555,NA,387,2,legacy,1024,2,48000,-16,experiment,SSHSS,1,odd,18118,169018,NA,267255,147339,NA,1562,263707,1560,169867,NA,268276,268376,268764,268275,268376,Flanker Task,134,61735,144,1024
92,92,428,428,#000000,legacy,legacy,legacy,congruent,0,undefined,0,s,0,0,0,144,0,0,0,144,0,144,0,144,144,144,144,144,Sun Sep 17 17:03:49 2023,600,The main experiment item,TRUE,FlankerTask.osexp,C:/Users/Hannah Laskoskie/Downloads,FALSE,mono,FALSE,18,no,white,no,yes,768,legacy,64,79,C:/Users/Hannah Laskoskie/Downloads/HL-subject-1.csv,legacy,Melodramatic Milgram,4.0.5,0,h,s,NA,s,NA,h,360,21678,NA,16555,NA,360,2,legacy,1024,2,48000,-16,experiment,SSSSS,1,odd,18118,169018,NA,268772,147339,NA,1562,263707,1560,169867,NA,269793,269893,270255,269792,269893,Flanker Task,134,62095,145,1024
92,92,428,428,#000000,legacy,legacy,legacy,congruent,1,undefined,1,h,0,0,0,145,0,0,0,145,0,145,0,145,145,145,145,145,Sun Sep 17 17:03:49 2023,600,The main experiment item,TRUE,FlankerTask.osexp,C:/Users/Hannah Laskoskie/Downloads,FALSE,mono,FALSE,18,no,white,no,yes,768,legacy,65,79,C:/Users/Hannah Laskoskie/Downloads/HL-subject-1.csv,legacy,Melodramatic Milgram,4.0.5,0,h,s,NA,s,NA,h,406,21678,NA,16555,NA,406,2,legacy,1024,2,48000,-16,experiment,HHHHH,1,odd,18118,169018,NA,270763,147339,NA,1562,270262,1560,169867,NA,271786,271886,272293,271785,271886,Flanker Task,135,62501,146,1024
92,92,427,427,#000000,legacy,legacy,legacy,congruent,1,undefined,1,s,0,0,0,146,0,0,0,146,0,146,0,146,146,146,146,146,Sun Sep 17 17:03:49 2023,600,The main experiment item,TRUE,FlankerTask.osexp,C:/Users/Hannah Laskoskie/Downloads,FALSE,mono,FALSE,18,no,white,no,yes,768,legacy,66,79,C:/Users/Hannah Laskoskie/Downloads/HL-subject-1.csv,legacy,Melodramatic Milgram,4.0.5,0,s,s,NA,s,NA,s,307,21678,NA,16555,NA,307,2,legacy,1024,2,48000,-16,experiment,SSSSS,1,odd,18118,169018,NA,272295,147339,NA,1562,270262,1560,169867,NA,273318,273419,273727,273317,273419,Flanker Task,136,62808,147,1024
92,92,427,427,#000000,legacy,legacy,legacy,incongruent,1,undefined,1,h,0,0,0,147,0,0,0,147,0,147,0,147,147,147,147,147,Sun Sep 17 17:03:49 2023,600,The main experiment item,TRUE,FlankerTask.osexp,C:/Users/Hannah Laskoskie/Downloads,FALSE,mono,FALSE,18,no,white,no,yes,768,legacy,67,79,C:/Users/Hannah Laskoskie/Downloads/HL-subject-1.csv,legacy,Melodramatic Milgram,4.0.5,0,h,s,NA,s,NA,h,392,21678,NA,16555,NA,392,2,legacy,1024,2,48000,-16,experiment,SSHSS,1,odd,18118,169018,NA,273735,147339,NA,1562,270262,1560,169867,NA,274756,274857,275250,274755,274856,Flanker Task,137,63200,148,1024
91,91,426,426,#000000,legacy,legacy,legacy,incongruent,0,undefined,0,h,0,0,0,148,0,0,0,148,0,148,0,148,148,148,148,148,Sun Sep 17 17:03:49 2023,600,The main experiment item,TRUE,FlankerTask.osexp,C:/Users/Hannah Laskoskie/Downloads,FALSE,mono,FALSE,18,no,white,no,yes,768,legacy,68,79,C:/Users/Hannah Laskoskie/Downloads/HL-subject-1.csv,legacy,Melodramatic Milgram,4.0.5,0,s,s,NA,s,NA,s,297,21678,NA,16555,NA,297,2,legacy,1024,2,48000,-16,experiment,SSHSS,1,odd,18118,169018,NA,275257,147339,NA,1562,270262,1560,169867,NA,276280,276380,276678,276278,276380,Flanker Task,137,63497,149,1024
92,92,426,426,#000000,legacy,legacy,legacy,congruent,1,undefined,1,h,0,0,0,149,0,0,0,149,0,149,0,149,149,149,149,149,Sun Sep 17 17:03:49 2023,600,The main experiment item,TRUE,FlankerTask.osexp,C:/Users/Hannah Laskoskie/Downloads,FALSE,mono,FALSE,18,no,white,no,yes,768,legacy,69,79,C:/Users/Hannah Laskoskie/Downloads/HL-subject-1.csv,legacy,Melodramatic Milgram,4.0.5,0,h,s,NA,s,NA,h,473,21678,NA,16555,NA,473,2,legacy,1024,2,48000,-16,experiment,HHHHH,1,odd,18118,169018,NA,277186,147339,NA,1562,276686,1560,169867,NA,278207,278308,278782,278205,278308,Flanker Task,138,63970,150,1024
92,92,426,426,#000000,legacy,legacy,legacy,congruent,1,undefined,1,s,0,0,0,150,0,0,0,150,0,150,0,150,150,150,150,150,Sun Sep 17 17:03:49 2023,600,The main experiment item,TRUE,FlankerTask.osexp,C:/Users/Hannah Laskoskie/Downloads,FALSE,mono,FALSE,18,no,white,no,yes,768,legacy,70,79,C:/Users/Hannah Laskoskie/Downloads/HL-subject-1.csv,legacy,Melodramatic Milgram,4.0.5,0,s,s,NA,s,NA,s,370,21678,NA,16555,NA,370,2,legacy,1024,2,48000,-16,experiment,SSSSS,1,odd,18118,169018,NA,278790,147339,NA,1562,276686,1560,169867,NA,279815,279915,280287,279814,279915,Flanker Task,139,64340,151,1024
92,92,425,425,#000000,legacy,legacy,legacy,incongruent,1,undefined,1,h,0,0,0,151,0,0,0,151,0,151,0,151,151,151,151,151,Sun Sep 17 17:03:49 2023,600,The main experiment item,TRUE,FlankerTask.osexp,C:/Users/Hannah Laskoskie/Downloads,FALSE,mono,FALSE,18,no,white,no,yes,768,legacy,71,79,C:/Users/Hannah Laskoskie/Downloads/HL-subject-1.csv,legacy,Melodramatic Milgram,4.0.5,0,h,s,NA,s,NA,h,389,21678,NA,16555,NA,389,2,legacy,1024,2,48000,-16,experiment,SSHSS,1,odd,18118,169018,NA,280288,147339,NA,1562,276686,1560,169867,NA,281310,281410,281800,281307,281410,Flanker Task,140,64729,152,1024
92,92,425,425,#000000,legacy,legacy,legacy,congruent,1,undefined,1,h,0,0,0,152,0,0,0,152,0,152,0,152,152,152,152,152,Sun Sep 17 17:03:49 2023,600,The main experiment item,TRUE,FlankerTask.osexp,C:/Users/Hannah Laskoskie/Downloads,FALSE,mono,FALSE,18,no,white,no,yes,768,legacy,72,79,C:/Users/Hannah Laskoskie/Downloads/HL-subject-1.csv,legacy,Melodramatic Milgram,4.0.5,0,h,s,NA,s,NA,h,423,21678,NA,16555,NA,423,2,legacy,1024,2,48000,-16,experiment,HHHHH,1,odd,18118,169018,NA,281802,147339,NA,1562,276686,1560,169867,NA,282823,282923,283347,282822,282923,Flanker Task,141,65152,153,1024
91,91,425,425,#000000,legacy,legacy,legacy,incongruent,0,undefined,0,s,0,0,0,153,0,0,0,153,0,153,0,153,153,153,153,153,Sun Sep 17 17:03:49 2023,600,The main experiment item,TRUE,FlankerTask.osexp,C:/Users/Hannah Laskoskie/Downloads,FALSE,mono,FALSE,18,no,white,no,yes,768,legacy,73,79,C:/Users/Hannah Laskoskie/Downloads/HL-subject-1.csv,legacy,Melodramatic Milgram,4.0.5,0,h,s,NA,s,NA,h,450,21678,NA,16555,NA,450,2,legacy,1024,2,48000,-16,experiment,HHSHH,1,odd,18118,169018,NA,283354,147339,NA,1562,276686,1560,169867,NA,284376,284476,284927,284375,284476,Flanker Task,141,65602,154,1024
91,91,426,426,#000000,legacy,legacy,legacy,incongruent,1,undefined,1,s,0,0,0,154,0,0,0,154,0,154,0,154,154,154,154,154,Sun Sep 17 17:03:49 2023,600,The main experiment item,TRUE,FlankerTask.osexp,C:/Users/Hannah Laskoskie/Downloads,FALSE,mono,FALSE,18,no,white,no,yes,768,legacy,74,79,C:/Users/Hannah Laskoskie/Downloads/HL-subject-1.csv,legacy,Melodramatic Milgram,4.0.5,0,s,s,NA,s,NA,s,551,21678,NA,16555,NA,551,2,legacy,1024,2,48000,-16,experiment,HHSHH,1,odd,18118,169018,NA,285430,147339,NA,1562,284929,1560,169867,NA,286450,286551,287104,286449,286551,Flanker Task,142,66153,155,1024
91,91,426,426,#000000,legacy,legacy,legacy,congruent,1,undefined,1,s,0,0,0,155,0,0,0,155,0,155,0,155,155,155,155,155,Sun Sep 17 17:03:49 2023,600,The main experiment item,TRUE,FlankerTask.osexp,C:/Users/Hannah Laskoskie/Downloads,FALSE,mono,FALSE,18,no,white,no,yes,768,legacy,75,79,C:/Users/Hannah Laskoskie/Downloads/HL-subject-1.csv,legacy,Melodramatic Milgram,4.0.5,0,s,s,NA,s,NA,s,451,21678,NA,16555,NA,451,2,legacy,1024,2,48000,-16,experiment,SSSSS,1,odd,18118,169018,NA,287111,147339,NA,1562,284929,1560,169867,NA,288134,288234,288686,288133,288234,Flanker Task,143,66604,156,1024
91,91,426,426,#000000,legacy,legacy,legacy,congruent,1,undefined,1,s,0,0,0,156,0,0,0,156,0,156,0,156,156,156,156,156,Sun Sep 17 17:03:49 2023,600,The main experiment item,TRUE,FlankerTask.osexp,C:/Users/Hannah Laskoskie/Downloads,FALSE,mono,FALSE,18,no,white,no,yes,768,legacy,76,79,C:/Users/Hannah Laskoskie/Downloads/HL-subject-1.csv,legacy,Melodramatic Milgram,4.0.5,0,s,s,NA,s,NA,s,422,21678,NA,16555,NA,422,2,legacy,1024,2,48000,-16,experiment,SSSSS,1,odd,18118,169018,NA,288694,147339,NA,1562,284929,1560,169867,NA,289714,289815,290238,289713,289815,Flanker Task,144,67026,157,1024
91,91,426,426,#000000,legacy,legacy,legacy,incongruent,1,undefined,1,h,0,0,0,157,0,0,0,157,0,157,0,157,157,157,157,157,Sun Sep 17 17:03:49 2023,600,The main experiment item,TRUE,FlankerTask.osexp,C:/Users/Hannah Laskoskie/Downloads,FALSE,mono,FALSE,18,no,white,no,yes,768,legacy,77,79,C:/Users/Hannah Laskoskie/Downloads/HL-subject-1.csv,legacy,Melodramatic Milgram,4.0.5,0,h,s,NA,s,NA,h,433,21678,NA,16555,NA,433,2,legacy,1024,2,48000,-16,experiment,SSHSS,1,odd,18118,169018,NA,290245,147339,NA,1562,284929,1560,169867,NA,291267,291367,291801,291266,291367,Flanker Task,145,67459,158,1024
91,91,428,428,#000000,legacy,legacy,legacy,incongruent,1,undefined,1,s,0,0,0,158,0,0,0,158,0,158,0,158,158,158,158,158,Sun Sep 17 17:03:49 2023,600,The main experiment item,TRUE,FlankerTask.osexp,C:/Users/Hannah Laskoskie/Downloads,FALSE,mono,FALSE,18,no,white,no,yes,768,legacy,78,79,C:/Users/Hannah Laskoskie/Downloads/HL-subject-1.csv,legacy,Melodramatic Milgram,4.0.5,0,s,s,NA,s,NA,s,600,21678,NA,16555,NA,600,2,legacy,1024,2,48000,-16,experiment,HHSHH,1,odd,18118,169018,NA,291809,147339,NA,1562,284929,1560,169867,NA,292832,292932,293533,292831,292932,Flanker Task,146,68059,159,1024
91,91,427,427,#000000,legacy,legacy,legacy,incongruent,1,undefined,1,h,0,0,0,159,0,0,0,159,0,159,0,159,159,159,159,159,Sun Sep 17 17:03:49 2023,600,The main experiment item,TRUE,FlankerTask.osexp,C:/Users/Hannah Laskoskie/Downloads,FALSE,mono,FALSE,18,no,white,no,yes,768,legacy,79,79,C:/Users/Hannah Laskoskie/Downloads/HL-subject-1.csv,legacy,Melodramatic Milgram,4.0.5,0,h,s,NA,s,NA,h,396,21678,NA,16555,NA,396,2,legacy,1024,2,48000,-16,experiment,SSHSS,1,odd,18118,169018,NA,293541,147339,NA,1562,284929,1560,169867,NA,294574,294674,295071,294572,294674,Flanker Task,147,68455,160,1024
91,91,427,427,#000000,legacy,legacy,legacy,incongruent,0,undefined,0,h,0,0,0,160,0,0,0,160,0,160,0,160,160,160,160,160,Sun Sep 17 17:03:49 2023,300,The main experiment item,TRUE,FlankerTask.osexp,C:/Users/Hannah Laskoskie/Downloads,FALSE,mono,FALSE,18,no,white,no,yes,768,legacy,0,79,C:/Users/Hannah Laskoskie/Downloads/HL-subject-1.csv,legacy,Melodramatic Milgram,4.0.5,0,s,s,s,s,NA,s,378,21678,19554,16555,NA,378,2,legacy,1024,2,48000,-16,experiment,SSHSS,1,odd,18118,169018,315628,295073,147339,296073,1562,284929,1560,169867,NA,315653,315753,316132,315653,315753,Flanker Task,147,68833,161,1024
91,91,427,427,#000000,legacy,legacy,legacy,incongruent,1,undefined,1,h,0,0,0,161,0,0,0,161,0,161,0,161,161,161,161,161,Sun Sep 17 17:03:49 2023,300,The main experiment item,TRUE,FlankerTask.osexp,C:/Users/Hannah Laskoskie/Downloads,FALSE,mono,FALSE,18,no,white,no,yes,768,legacy,1,79,C:/Users/Hannah Laskoskie/Downloads/HL-subject-1.csv,legacy,Melodramatic Milgram,4.0.5,0,h,s,s,s,NA,h,448,21678,19554,16555,NA,448,2,legacy,1024,2,48000,-16,experiment,SSHSS,1,odd,18118,169018,315628,317141,147339,296073,1562,316140,1560,316640,NA,318162,318263,318712,318161,318263,Flanker Task,148,69281,162,1024
91,91,427,427,#000000,legacy,legacy,legacy,congruent,1,undefined,1,s,0,0,0,162,0,0,0,162,0,162,0,162,162,162,162,162,Sun Sep 17 17:03:49 2023,300,The main experiment item,TRUE,FlankerTask.osexp,C:/Users/Hannah Laskoskie/Downloads,FALSE,mono,FALSE,18,no,white,no,yes,768,legacy,2,79,C:/Users/Hannah Laskoskie/Downloads/HL-subject-1.csv,legacy,Melodramatic Milgram,4.0.5,0,s,s,s,s,NA,s,366,21678,19554,16555,NA,366,2,legacy,1024,2,48000,-16,experiment,SSSSS,1,odd,18118,169018,315628,319221,147339,296073,1562,316140,1560,318720,NA,320244,320344,320711,320242,320344,Flanker Task,149,69647,163,1024
91,91,426,426,#000000,legacy,legacy,legacy,incongruent,1,undefined,1,h,0,0,0,163,0,0,0,163,0,163,0,163,163,163,163,163,Sun Sep 17 17:03:49 2023,300,The main experiment item,TRUE,FlankerTask.osexp,C:/Users/Hannah Laskoskie/Downloads,FALSE,mono,FALSE,18,no,white,no,yes,768,legacy,3,79,C:/Users/Hannah Laskoskie/Downloads/HL-subject-1.csv,legacy,Melodramatic Milgram,4.0.5,0,h,s,s,s,NA,h,258,21678,19554,16555,NA,258,2,legacy,1024,2,48000,-16,experiment,SSHSS,1,odd,18118,169018,315628,321213,147339,296073,1562,316140,1560,320713,NA,322234,322334,322593,322232,322334,Flanker Task,150,69905,164,1024
90,90,425,425,#000000,legacy,legacy,legacy,incongruent,0,undefined,0,h,0,0,0,164,0,0,0,164,0,164,0,164,164,164,164,164,Sun Sep 17 17:03:49 2023,300,The main experiment item,TRUE,FlankerTask.osexp,C:/Users/Hannah Laskoskie/Downloads,FALSE,mono,FALSE,18,no,white,no,yes,768,legacy,4,79,C:/Users/Hannah Laskoskie/Downloads/HL-subject-1.csv,legacy,Melodramatic Milgram,4.0.5,0,s,s,s,s,NA,s,273,21678,19554,16555,NA,273,2,legacy,1024,2,48000,-16,experiment,SSHSS,1,odd,18118,169018,315628,322600,147339,296073,1562,316140,1560,320713,NA,323622,323722,323997,323621,323722,Flanker Task,150,70178,165,1024
90,90,425,425,#000000,legacy,legacy,legacy,incongruent,1,undefined,1,s,0,0,0,165,0,0,0,165,0,165,0,165,165,165,165,165,Sun Sep 17 17:03:49 2023,300,The main experiment item,TRUE,FlankerTask.osexp,C:/Users/Hannah Laskoskie/Downloads,FALSE,mono,FALSE,18,no,white,no,yes,768,legacy,5,79,C:/Users/Hannah Laskoskie/Downloads/HL-subject-1.csv,legacy,Melodramatic Milgram,4.0.5,0,s,s,s,s,NA,s,422,21678,19554,16555,NA,422,2,legacy,1024,2,48000,-16,experiment,HHSHH,1,odd,18118,169018,315628,324504,147339,296073,1562,324004,1560,320713,NA,325526,325626,326049,325524,325626,Flanker Task,151,70600,166,1024
90,90,424,424,#000000,legacy,legacy,legacy,congruent,0,undefined,0,s,0,0,0,166,0,0,0,166,0,166,0,166,166,166,166,166,Sun Sep 17 17:03:49 2023,300,The main experiment item,TRUE,FlankerTask.osexp,C:/Users/Hannah Laskoskie/Downloads,FALSE,mono,FALSE,18,no,white,no,yes,768,legacy,6,79,C:/Users/Hannah Laskoskie/Downloads/HL-subject-1.csv,legacy,Melodramatic Milgram,4.0.5,0,h,s,s,s,NA,h,242,21678,19554,16555,NA,242,2,legacy,1024,2,48000,-16,experiment,SSSSS,1,odd,18118,169018,315628,326551,147339,296073,1562,324004,1560,326051,NA,327574,327674,327917,327573,327674,Flanker Task,151,70842,167,1024
90,90,424,424,#000000,legacy,legacy,legacy,congruent,1,undefined,1,s,0,0,0,167,0,0,0,167,0,167,0,167,167,167,167,167,Sun Sep 17 17:03:49 2023,300,The main experiment item,TRUE,FlankerTask.osexp,C:/Users/Hannah Laskoskie/Downloads,FALSE,mono,FALSE,18,no,white,no,yes,768,legacy,7,79,C:/Users/Hannah Laskoskie/Downloads/HL-subject-1.csv,legacy,Melodramatic Milgram,4.0.5,0,s,s,s,s,NA,s,454,21678,19554,16555,NA,454,2,legacy,1024,2,48000,-16,experiment,SSSSS,1,odd,18118,169018,315628,328425,147339,296073,1562,327925,1560,326051,NA,329446,329547,330002,329444,329547,Flanker Task,152,71296,168,1024
90,90,423,423,#000000,legacy,legacy,legacy,congruent,1,undefined,1,h,0,0,0,168,0,0,0,168,0,168,0,168,168,168,168,168,Sun Sep 17 17:03:49 2023,300,The main experiment item,TRUE,FlankerTask.osexp,C:/Users/Hannah Laskoskie/Downloads,FALSE,mono,FALSE,18,no,white,no,yes,768,legacy,8,79,C:/Users/Hannah Laskoskie/Downloads/HL-subject-1.csv,legacy,Melodramatic Milgram,4.0.5,0,h,s,s,s,NA,h,322,21678,19554,16555,NA,322,2,legacy,1024,2,48000,-16,experiment,HHHHH,1,odd,18118,169018,315628,330504,147339,296073,1562,327925,1560,330004,NA,331525,331625,331948,331524,331625,Flanker Task,153,71618,169,1024
90,90,422,422,#000000,legacy,legacy,legacy,congruent,0,undefined,0,h,0,0,0,169,0,0,0,169,0,169,0,169,169,169,169,169,Sun Sep 17 17:03:49 2023,300,The main experiment item,TRUE,FlankerTask.osexp,C:/Users/Hannah Laskoskie/Downloads,FALSE,mono,FALSE,18,no,white,no,yes,768,legacy,9,79,C:/Users/Hannah Laskoskie/Downloads/HL-subject-1.csv,legacy,Melodramatic Milgram,4.0.5,0,s,s,s,s,NA,s,238,21678,19554,16555,NA,238,2,legacy,1024,2,48000,-16,experiment,HHHHH,1,odd,18118,169018,315628,332456,147339,296073,1562,327925,1560,331956,NA,333479,333579,333818,333478,333579,Flanker Task,153,71856,170,1024
89,89,422,422,#000000,legacy,legacy,legacy,incongruent,0,undefined,0,h,0,0,0,170,0,0,0,170,0,170,0,170,170,170,170,170,Sun Sep 17 17:03:49 2023,300,The main experiment item,TRUE,FlankerTask.osexp,C:/Users/Hannah Laskoskie/Downloads,FALSE,mono,FALSE,18,no,white,no,yes,768,legacy,10,79,C:/Users/Hannah Laskoskie/Downloads/HL-subject-1.csv,legacy,Melodramatic Milgram,4.0.5,0,s,s,s,s,NA,s,378,21678,19554,16555,NA,378,2,legacy,1024,2,48000,-16,experiment,SSHSS,1,odd,18118,169018,315628,334326,147339,296073,1562,333826,1560,331956,NA,335346,335447,335826,335346,335447,Flanker Task,153,72234,171,1024
