acc,accuracy,average_response_time,avg_rt,background,canvas_backend,clock_backend,color_backend,compensation,condition,coordinates,correct,correct_instructions1,correct_keyboard_response,correct_response,count_Block1,count_Block2,count_Block3,count_ISI,count_errorFeedback,count_experiment,count_faster,count_finish,count_fixation,count_instructions1,count_instructions3,count_instrutions2,count_keyboard_response,count_logger,count_sequence,count_stimulus,datetime,deadline,description,disable_garbage_collection,experiment_file,experiment_path,font_bold,font_family,font_italic,font_size,font_underline,foreground,form_clicks,fullscreen,height,keyboard_backend,live_row,live_row_Block1,logfile,mouse_backend,opensesame_codename,opensesame_version,repeat_cycle,response,response_finish,response_instructions1,response_instructions3,response_instrutions2,response_keyboard_response,response_time,response_time_finish,response_time_instructions1,response_time_instructions3,response_time_instrutions2,response_time_keyboard_response,round_decimals,sampler_backend,sound_buf_size,sound_channels,sound_freq,sound_sample_size,start,stimulus,subject_nr,subject_parity,time_Block1,time_Block2,time_Block3,time_ISI,time_errorFeedback,time_experiment,time_faster,time_finish,time_fixation,time_instructions1,time_instructions3,time_instrutions2,time_keyboard_response,time_logger,time_sequence,time_stimulus,title,total_correct,total_response_time,total_responses,uniform_coordinates,width
100,100,724,724,black,legacy,legacy,legacy,0,incongruent,uniform,1,undefined,1,h,0,0,0,0,0,0,0,0,0,0,0,0,0,0,0,0,Sun Sep 17 11:03:44 2023,1500,The main experiment item,yes,Flankertask.osexp,/Users/Thingtwo/Desktop,no,mono,no,18,no,white,no,yes,768,legacy,0,0,/Users/Thingtwo/Desktop/nc-subject-0.csv,legacy,Lentiform Loewenfeld,3.3.14,0,h,NA,h,NA,NA,h,724,NA,4187,NA,NA,724,2,legacy,1024,2,48000,-16,experiment,SSHSS,0,even,6109,NA,NA,NA,NA,1897,NA,NA,6141,1917,NA,NA,6247,6977,6137,6247,New experiment,1,724,1,yes,1024
100,100,674.5,674.5,black,legacy,legacy,legacy,0,congruent,uniform,1,undefined,1,s,0,0,0,1,1,0,1,0,1,0,0,0,1,1,1,1,Sun Sep 17 11:03:44 2023,1500,The main experiment item,yes,Flankertask.osexp,/Users/Thingtwo/Desktop,no,mono,no,18,no,white,no,yes,768,legacy,1,1,/Users/Thingtwo/Desktop/nc-subject-0.csv,legacy,Lentiform Loewenfeld,3.3.14,0,s,NA,h,NA,NA,s,625,NA,4187,NA,NA,625,2,legacy,1024,2,48000,-16,experiment,SSSSS,0,even,6109,NA,NA,6984,NA,1897,NA,NA,8041,1917,NA,NA,8147,8772,8035,8147,New experiment,2,1349,2,yes,1024
100,100,633,633,black,legacy,legacy,legacy,0,congruent,uniform,1,undefined,1,s,0,0,0,2,2,0,2,0,2,0,0,0,2,2,2,2,Sun Sep 17 11:03:44 2023,1500,The main experiment item,yes,Flankertask.osexp,/Users/Thingtwo/Desktop,no,mono,no,18,no,white,no,yes,768,legacy,2,2,/Users/Thingtwo/Desktop/nc-subject-0.csv,legacy,Lentiform Loewenfeld,3.3.14,0,s,NA,h,NA,NA,s,550,NA,4187,NA,NA,550,2,legacy,1024,2,48000,-16,experiment,SSSSS,0,even,6109,NA,NA,8777,NA,1897,NA,NA,9830,1917,NA,NA,9936,10486,9825,9936,New experiment,3,1899,3,yes,1024
100,100,591.5,591.5,black,legacy,legacy,legacy,0,congruent,uniform,1,undefined,1,h,0,0,0,3,3,0,3,0,3,0,0,0,3,3,3,3,Sun Sep 17 11:03:44 2023,1500,The main experiment item,yes,Flankertask.osexp,/Users/Thingtwo/Desktop,no,mono,no,18,no,white,no,yes,768,legacy,3,3,/Users/Thingtwo/Desktop/nc-subject-0.csv,legacy,Lentiform Loewenfeld,3.3.14,0,h,NA,h,NA,NA,h,467,NA,4187,NA,NA,467,2,legacy,1024,2,48000,-16,experiment,HHHHH,0,even,6109,NA,NA,10491,NA,1897,NA,NA,11541,1917,NA,NA,11648,12116,11535,11647,New experiment,4,2366,4,yes,1024
100,100,567.2,567.2,black,legacy,legacy,legacy,0,incongruent,uniform,1,undefined,1,s,0,0,0,4,4,0,4,0,4,0,0,0,4,4,4,4,Sun Sep 17 11:03:44 2023,1500,The main experiment item,yes,Flankertask.osexp,/Users/Thingtwo/Desktop,no,mono,no,18,no,white,no,yes,768,legacy,4,4,/Users/Thingtwo/Desktop/nc-subject-0.csv,legacy,Lentiform Loewenfeld,3.3.14,0,s,NA,h,NA,NA,s,470,NA,4187,NA,NA,470,2,legacy,1024,2,48000,-16,experiment,HHSHH,0,even,6109,NA,NA,12121,NA,1897,NA,NA,13171,1917,NA,NA,13277,13747,13165,13277,New experiment,5,2836,5,yes,1024
100,100,547.3333333,547.3333333,black,legacy,legacy,legacy,0,congruent,uniform,1,undefined,1,s,0,0,0,5,5,0,5,0,5,0,0,0,5,5,5,5,Sun Sep 17 11:03:44 2023,1500,The main experiment item,yes,Flankertask.osexp,/Users/Thingtwo/Desktop,no,mono,no,18,no,white,no,yes,768,legacy,5,5,/Users/Thingtwo/Desktop/nc-subject-0.csv,legacy,Lentiform Loewenfeld,3.3.14,0,s,NA,h,NA,NA,s,448,NA,4187,NA,NA,448,2,legacy,1024,2,48000,-16,experiment,SSSSS,0,even,6109,NA,NA,13752,NA,1897,NA,NA,14802,1917,NA,NA,14909,15357,14797,14908,New experiment,6,3284,6,yes,1024
100,100,520.4285714,520.4285714,black,legacy,legacy,legacy,0,incongruent,uniform,1,undefined,1,s,0,0,0,6,6,0,6,0,6,0,0,0,6,6,6,6,Sun Sep 17 11:03:44 2023,1500,The main experiment item,yes,Flankertask.osexp,/Users/Thingtwo/Desktop,no,mono,no,18,no,white,no,yes,768,legacy,6,6,/Users/Thingtwo/Desktop/nc-subject-0.csv,legacy,Lentiform Loewenfeld,3.3.14,0,s,NA,h,NA,NA,s,359,NA,4187,NA,NA,359,2,legacy,1024,2,48000,-16,experiment,HHSHH,0,even,6109,NA,NA,15362,NA,1897,NA,NA,16411,1917,NA,NA,16518,16878,16405,16517,New experiment,7,3643,7,yes,1024
100,100,507.5,507.5,black,legacy,legacy,legacy,0,congruent,uniform,1,undefined,1,h,0,0,0,7,7,0,7,0,7,0,0,0,7,7,7,7,Sun Sep 17 11:03:44 2023,1500,The main experiment item,yes,Flankertask.osexp,/Users/Thingtwo/Desktop,no,mono,no,18,no,white,no,yes,768,legacy,7,7,/Users/Thingtwo/Desktop/nc-subject-0.csv,legacy,Lentiform Loewenfeld,3.3.14,0,h,NA,h,NA,NA,h,417,NA,4187,NA,NA,417,2,legacy,1024,2,48000,-16,experiment,HHHHH,0,even,6109,NA,NA,16882,NA,1897,NA,NA,17932,1917,NA,NA,18038,18455,17927,18038,New experiment,8,4060,8,yes,1024
100,100,498.5555556,498.5555556,black,legacy,legacy,legacy,0,incongruent,uniform,1,undefined,1,s,0,0,0,8,8,0,8,0,8,0,0,0,8,8,8,8,Sun Sep 17 11:03:44 2023,1500,The main experiment item,yes,Flankertask.osexp,/Users/Thingtwo/Desktop,no,mono,no,18,no,white,no,yes,768,legacy,8,8,/Users/Thingtwo/Desktop/nc-subject-0.csv,legacy,Lentiform Loewenfeld,3.3.14,0,s,NA,h,NA,NA,s,427,NA,4187,NA,NA,427,2,legacy,1024,2,48000,-16,experiment,HHSHH,0,even,6109,NA,NA,18460,NA,1897,NA,NA,19507,1917,NA,NA,19613,20040,19501,19613,New experiment,9,4487,9,yes,1024
100,100,481,481,black,legacy,legacy,legacy,0,congruent,uniform,1,undefined,1,h,0,0,0,9,9,0,9,0,9,0,0,0,9,9,9,9,Sun Sep 17 11:03:44 2023,1500,The main experiment item,yes,Flankertask.osexp,/Users/Thingtwo/Desktop,no,mono,no,18,no,white,no,yes,768,legacy,9,9,/Users/Thingtwo/Desktop/nc-subject-0.csv,legacy,Lentiform Loewenfeld,3.3.14,0,h,NA,h,NA,NA,h,323,NA,4187,NA,NA,323,2,legacy,1024,2,48000,-16,experiment,HHHHH,0,even,6109,NA,NA,20045,NA,1897,NA,NA,21091,1917,NA,NA,21197,21520,21085,21197,New experiment,10,4810,10,yes,1024
100,100,464.6363636,464.6363636,black,legacy,legacy,legacy,0,incongruent,uniform,1,undefined,1,s,0,0,0,10,10,0,10,0,10,0,0,0,10,10,10,10,Sun Sep 17 11:03:44 2023,1500,The main experiment item,yes,Flankertask.osexp,/Users/Thingtwo/Desktop,no,mono,no,18,no,white,no,yes,768,legacy,10,10,/Users/Thingtwo/Desktop/nc-subject-0.csv,legacy,Lentiform Loewenfeld,3.3.14,0,s,NA,h,NA,NA,s,301,NA,4187,NA,NA,301,2,legacy,1024,2,48000,-16,experiment,HHSHH,0,even,6109,NA,NA,21525,NA,1897,NA,NA,22569,1917,NA,NA,22675,22976,22564,22675,New experiment,11,5111,11,yes,1024
100,100,456.6666667,456.6666667,black,legacy,legacy,legacy,0,incongruent,uniform,1,undefined,1,s,0,0,0,11,11,0,11,0,11,0,0,0,11,11,11,11,Sun Sep 17 11:03:44 2023,1500,The main experiment item,yes,Flankertask.osexp,/Users/Thingtwo/Desktop,no,mono,no,18,no,white,no,yes,768,legacy,11,11,/Users/Thingtwo/Desktop/nc-subject-0.csv,legacy,Lentiform Loewenfeld,3.3.14,0,s,NA,h,NA,NA,s,369,NA,4187,NA,NA,369,2,legacy,1024,2,48000,-16,experiment,HHSHH,0,even,6109,NA,NA,22981,NA,1897,NA,NA,24024,1917,NA,NA,24130,24499,24019,24130,New experiment,12,5480,12,yes,1024
92.30769231,92.30769231,452.3076923,452.3076923,black,legacy,legacy,legacy,0,incongruent,uniform,0,undefined,0,h,0,0,0,12,12,0,12,0,12,0,0,0,12,12,12,12,Sun Sep 17 11:03:44 2023,1500,The main experiment item,yes,Flankertask.osexp,/Users/Thingtwo/Desktop,no,mono,no,18,no,white,no,yes,768,legacy,12,12,/Users/Thingtwo/Desktop/nc-subject-0.csv,legacy,Lentiform Loewenfeld,3.3.14,0,s,NA,h,NA,NA,s,400,NA,4187,NA,NA,400,2,legacy,1024,2,48000,-16,experiment,SSHSS,0,even,6109,NA,NA,24504,NA,1897,NA,NA,25552,1917,NA,NA,25658,26059,25547,25658,New experiment,12,5880,13,yes,1024
92.85714286,92.85714286,458.7142857,458.7142857,black,legacy,legacy,legacy,0,congruent,uniform,1,undefined,1,s,0,0,0,13,13,0,13,0,13,0,0,0,13,13,13,13,Sun Sep 17 11:03:44 2023,1500,The main experiment item,yes,Flankertask.osexp,/Users/Thingtwo/Desktop,no,mono,no,18,no,white,no,yes,768,legacy,13,13,/Users/Thingtwo/Desktop/nc-subject-0.csv,legacy,Lentiform Loewenfeld,3.3.14,0,s,NA,h,NA,NA,s,542,NA,4187,NA,NA,542,2,legacy,1024,2,48000,-16,experiment,SSSSS,0,even,6109,NA,NA,26574,26064,1897,NA,NA,27622,1917,NA,NA,27729,28271,27617,27728,New experiment,13,6422,14,yes,1024
93.33333333,93.33333333,455.6666667,455.6666667,black,legacy,legacy,legacy,0,incongruent,uniform,1,undefined,1,h,0,0,0,14,14,0,14,0,14,0,0,0,14,14,14,14,Sun Sep 17 11:03:44 2023,1500,The main experiment item,yes,Flankertask.osexp,/Users/Thingtwo/Desktop,no,mono,no,18,no,white,no,yes,768,legacy,14,14,/Users/Thingtwo/Desktop/nc-subject-0.csv,legacy,Lentiform Loewenfeld,3.3.14,0,h,NA,h,NA,NA,h,413,NA,4187,NA,NA,413,2,legacy,1024,2,48000,-16,experiment,SSHSS,0,even,6109,NA,NA,28276,26064,1897,NA,NA,29323,1917,NA,NA,29429,29843,29317,29429,New experiment,14,6835,15,yes,1024
93.75,93.75,450.25,450.25,black,legacy,legacy,legacy,0,congruent,uniform,1,undefined,1,s,0,0,0,15,15,0,15,0,15,0,0,0,15,15,15,15,Sun Sep 17 11:03:44 2023,1500,The main experiment item,yes,Flankertask.osexp,/Users/Thingtwo/Desktop,no,mono,no,18,no,white,no,yes,768,legacy,15,15,/Users/Thingtwo/Desktop/nc-subject-0.csv,legacy,Lentiform Loewenfeld,3.3.14,0,s,NA,h,NA,NA,s,369,NA,4187,NA,NA,369,2,legacy,1024,2,48000,-16,experiment,SSSSS,0,even,6109,NA,NA,29847,26064,1897,NA,NA,30895,1917,NA,NA,31001,31370,30889,31001,New experiment,15,7204,16,yes,1024
94.11764706,94.11764706,448,448,black,legacy,legacy,legacy,0,incongruent,uniform,1,undefined,1,h,0,0,0,16,16,0,16,0,16,0,0,0,16,16,16,16,Sun Sep 17 11:03:44 2023,1500,The main experiment item,yes,Flankertask.osexp,/Users/Thingtwo/Desktop,no,mono,no,18,no,white,no,yes,768,legacy,16,16,/Users/Thingtwo/Desktop/nc-subject-0.csv,legacy,Lentiform Loewenfeld,3.3.14,0,h,NA,h,NA,NA,h,412,NA,4187,NA,NA,412,2,legacy,1024,2,48000,-16,experiment,SSHSS,0,even,6109,NA,NA,31375,26064,1897,NA,NA,32423,1917,NA,NA,32530,32943,32417,32530,New experiment,16,7616,17,yes,1024
94.44444444,94.44444444,441.6666667,441.6666667,black,legacy,legacy,legacy,0,congruent,uniform,1,undefined,1,s,0,0,0,17,17,0,17,0,17,0,0,0,17,17,17,17,Sun Sep 17 11:03:44 2023,1500,The main experiment item,yes,Flankertask.osexp,/Users/Thingtwo/Desktop,no,mono,no,18,no,white,no,yes,768,legacy,17,17,/Users/Thingtwo/Desktop/nc-subject-0.csv,legacy,Lentiform Loewenfeld,3.3.14,0,s,NA,h,NA,NA,s,334,NA,4187,NA,NA,334,2,legacy,1024,2,48000,-16,experiment,SSSSS,0,even,6109,NA,NA,32948,26064,1897,NA,NA,33996,1917,NA,NA,34103,34438,33990,34103,New experiment,17,7950,18,yes,1024
94.73684211,94.73684211,438.2631579,438.2631579,black,legacy,legacy,legacy,0,incongruent,uniform,1,undefined,1,s,0,0,0,18,18,0,18,0,18,0,0,0,18,18,18,18,Sun Sep 17 11:03:44 2023,1500,The main experiment item,yes,Flankertask.osexp,/Users/Thingtwo/Desktop,no,mono,no,18,no,white,no,yes,768,legacy,18,18,/Users/Thingtwo/Desktop/nc-subject-0.csv,legacy,Lentiform Loewenfeld,3.3.14,0,s,NA,h,NA,NA,s,377,NA,4187,NA,NA,377,2,legacy,1024,2,48000,-16,experiment,HHSHH,0,even,6109,NA,NA,34443,26064,1897,NA,NA,35492,1917,NA,NA,35599,35977,35487,35599,New experiment,18,8327,19,yes,1024
95,95,436.3,436.3,black,legacy,legacy,legacy,0,congruent,uniform,1,undefined,1,h,0,0,0,19,19,0,19,0,19,0,0,0,19,19,19,19,Sun Sep 17 11:03:44 2023,1500,The main experiment item,yes,Flankertask.osexp,/Users/Thingtwo/Desktop,no,mono,no,18,no,white,no,yes,768,legacy,19,19,/Users/Thingtwo/Desktop/nc-subject-0.csv,legacy,Lentiform Loewenfeld,3.3.14,0,h,NA,h,NA,NA,h,399,NA,4187,NA,NA,399,2,legacy,1024,2,48000,-16,experiment,HHHHH,0,even,6109,NA,NA,35982,26064,1897,NA,NA,37037,1917,NA,NA,37143,37543,37031,37143,New experiment,19,8726,20,yes,1024
95.23809524,95.23809524,429.2380952,429.2380952,black,legacy,legacy,legacy,0,incongruent,uniform,1,undefined,1,s,0,0,0,20,20,0,20,0,20,0,0,0,20,20,20,20,Sun Sep 17 11:03:44 2023,1500,The main experiment item,yes,Flankertask.osexp,/Users/Thingtwo/Desktop,no,mono,no,18,no,white,no,yes,768,legacy,20,20,/Users/Thingtwo/Desktop/nc-subject-0.csv,legacy,Lentiform Loewenfeld,3.3.14,0,s,NA,h,NA,NA,s,288,NA,4187,NA,NA,288,2,legacy,1024,2,48000,-16,experiment,HHSHH,0,even,6109,NA,NA,37548,26064,1897,NA,NA,38597,1917,NA,NA,38703,38991,38591,38703,New experiment,20,9014,21,yes,1024
95.45454545,95.45454545,422.0909091,422.0909091,black,legacy,legacy,legacy,0,congruent,uniform,1,undefined,1,h,0,0,0,21,21,0,21,0,21,0,0,0,21,21,21,21,Sun Sep 17 11:03:44 2023,1500,The main experiment item,yes,Flankertask.osexp,/Users/Thingtwo/Desktop,no,mono,no,18,no,white,no,yes,768,legacy,21,21,/Users/Thingtwo/Desktop/nc-subject-0.csv,legacy,Lentiform Loewenfeld,3.3.14,0,h,NA,h,NA,NA,h,272,NA,4187,NA,NA,272,2,legacy,1024,2,48000,-16,experiment,HHHHH,0,even,6109,NA,NA,38996,26064,1897,NA,NA,40043,1917,NA,NA,40150,40423,40038,40150,New experiment,21,9286,22,yes,1024
95.65217391,95.65217391,422.2173913,422.2173913,black,legacy,legacy,legacy,0,congruent,uniform,1,undefined,1,h,0,0,0,22,22,0,22,0,22,0,0,0,22,22,22,22,Sun Sep 17 11:03:44 2023,1500,The main experiment item,yes,Flankertask.osexp,/Users/Thingtwo/Desktop,no,mono,no,18,no,white,no,yes,768,legacy,22,22,/Users/Thingtwo/Desktop/nc-subject-0.csv,legacy,Lentiform Loewenfeld,3.3.14,0,h,NA,h,NA,NA,h,425,NA,4187,NA,NA,425,2,legacy,1024,2,48000,-16,experiment,HHHHH,0,even,6109,NA,NA,40428,26064,1897,NA,NA,41476,1917,NA,NA,41583,42008,41470,41583,New experiment,22,9711,23,yes,1024
95.83333333,95.83333333,425.9166667,425.9166667,black,legacy,legacy,legacy,0,incongruent,uniform,1,undefined,1,h,0,0,0,23,23,0,23,0,23,0,0,0,23,23,23,23,Sun Sep 17 11:03:44 2023,1500,The main experiment item,yes,Flankertask.osexp,/Users/Thingtwo/Desktop,no,mono,no,18,no,white,no,yes,768,legacy,23,23,/Users/Thingtwo/Desktop/nc-subject-0.csv,legacy,Lentiform Loewenfeld,3.3.14,0,h,NA,h,NA,NA,h,511,NA,4187,NA,NA,511,2,legacy,1024,2,48000,-16,experiment,SSHSS,0,even,6109,NA,NA,42013,26064,1897,NA,NA,43062,1917,NA,NA,43169,43681,43057,43169,New experiment,23,10222,24,yes,1024
92,92,421.8,421.8,black,legacy,legacy,legacy,0,incongruent,uniform,0,undefined,0,s,0,0,0,24,24,0,24,0,24,0,0,0,24,24,24,24,Sun Sep 17 11:03:44 2023,1500,The main experiment item,yes,Flankertask.osexp,/Users/Thingtwo/Desktop,no,mono,no,18,no,white,no,yes,768,legacy,24,24,/Users/Thingtwo/Desktop/nc-subject-0.csv,legacy,Lentiform Loewenfeld,3.3.14,0,h,NA,h,NA,NA,h,323,NA,4187,NA,NA,323,2,legacy,1024,2,48000,-16,experiment,HHSHH,0,even,6109,NA,NA,43685,26064,1897,NA,NA,44730,1917,NA,NA,44836,45159,44725,44836,New experiment,23,10545,25,yes,1024
92.30769231,92.30769231,418.5,418.5,black,legacy,legacy,legacy,0,incongruent,uniform,1,undefined,1,s,0,0,0,25,25,0,25,0,25,0,0,0,25,25,25,25,Sun Sep 17 11:03:44 2023,1500,The main experiment item,yes,Flankertask.osexp,/Users/Thingtwo/Desktop,no,mono,no,18,no,white,no,yes,768,legacy,25,25,/Users/Thingtwo/Desktop/nc-subject-0.csv,legacy,Lentiform Loewenfeld,3.3.14,0,s,NA,h,NA,NA,s,336,NA,4187,NA,NA,336,2,legacy,1024,2,48000,-16,experiment,HHSHH,0,even,6109,NA,NA,45673,45164,1897,NA,NA,46720,1917,NA,NA,46827,47163,46714,46827,New experiment,24,10881,26,yes,1024
92.59259259,92.59259259,417.5555556,417.5555556,black,legacy,legacy,legacy,0,incongruent,uniform,1,undefined,1,h,0,0,0,26,26,0,26,0,26,0,0,0,26,26,26,26,Sun Sep 17 11:03:44 2023,1500,The main experiment item,yes,Flankertask.osexp,/Users/Thingtwo/Desktop,no,mono,no,18,no,white,no,yes,768,legacy,26,26,/Users/Thingtwo/Desktop/nc-subject-0.csv,legacy,Lentiform Loewenfeld,3.3.14,0,h,NA,h,NA,NA,h,393,NA,4187,NA,NA,393,2,legacy,1024,2,48000,-16,experiment,SSHSS,0,even,6109,NA,NA,47168,45164,1897,NA,NA,48215,1917,NA,NA,48322,48716,48210,48321,New experiment,25,11274,27,yes,1024
92.85714286,92.85714286,414.1428571,414.1428571,black,legacy,legacy,legacy,0,congruent,uniform,1,undefined,1,s,0,0,0,27,27,0,27,0,27,0,0,0,27,27,27,27,Sun Sep 17 11:03:44 2023,1500,The main experiment item,yes,Flankertask.osexp,/Users/Thingtwo/Desktop,no,mono,no,18,no,white,no,yes,768,legacy,27,27,/Users/Thingtwo/Desktop/nc-subject-0.csv,legacy,Lentiform Loewenfeld,3.3.14,0,s,NA,h,NA,NA,s,322,NA,4187,NA,NA,322,2,legacy,1024,2,48000,-16,experiment,SSSSS,0,even,6109,NA,NA,48720,45164,1897,NA,NA,49769,1917,NA,NA,49875,50197,49763,49875,New experiment,26,11596,28,yes,1024
93.10344828,93.10344828,409.5862069,409.5862069,black,legacy,legacy,legacy,0,congruent,uniform,1,undefined,1,h,0,0,0,28,28,0,28,0,28,0,0,0,28,28,28,28,Sun Sep 17 11:03:44 2023,1500,The main experiment item,yes,Flankertask.osexp,/Users/Thingtwo/Desktop,no,mono,no,18,no,white,no,yes,768,legacy,28,28,/Users/Thingtwo/Desktop/nc-subject-0.csv,legacy,Lentiform Loewenfeld,3.3.14,0,h,NA,h,NA,NA,h,282,NA,4187,NA,NA,282,2,legacy,1024,2,48000,-16,experiment,HHHHH,0,even,6109,NA,NA,50202,45164,1897,NA,NA,51250,1917,NA,NA,51357,51640,51245,51357,New experiment,27,11878,29,yes,1024
93.33333333,93.33333333,405.6666667,405.6666667,black,legacy,legacy,legacy,0,incongruent,uniform,1,undefined,1,s,0,0,0,29,29,0,29,0,29,0,0,0,29,29,29,29,Sun Sep 17 11:03:44 2023,1500,The main experiment item,yes,Flankertask.osexp,/Users/Thingtwo/Desktop,no,mono,no,18,no,white,no,yes,768,legacy,29,29,/Users/Thingtwo/Desktop/nc-subject-0.csv,legacy,Lentiform Loewenfeld,3.3.14,0,s,NA,h,NA,NA,s,292,NA,4187,NA,NA,292,2,legacy,1024,2,48000,-16,experiment,HHSHH,0,even,6109,NA,NA,51645,45164,1897,NA,NA,52696,1917,NA,NA,52802,53095,52690,52802,New experiment,28,12170,30,yes,1024
93.5483871,93.5483871,404.483871,404.483871,black,legacy,legacy,legacy,0,congruent,uniform,1,undefined,1,s,0,0,0,30,30,0,30,0,30,0,0,0,30,30,30,30,Sun Sep 17 11:03:44 2023,1500,The main experiment item,yes,Flankertask.osexp,/Users/Thingtwo/Desktop,no,mono,no,18,no,white,no,yes,768,legacy,30,30,/Users/Thingtwo/Desktop/nc-subject-0.csv,legacy,Lentiform Loewenfeld,3.3.14,0,s,NA,h,NA,NA,s,369,NA,4187,NA,NA,369,2,legacy,1024,2,48000,-16,experiment,SSSSS,0,even,6109,NA,NA,53099,45164,1897,NA,NA,54147,1917,NA,NA,54253,54623,54141,54253,New experiment,29,12539,31,yes,1024
93.75,93.75,407.375,407.375,black,legacy,legacy,legacy,0,incongruent,uniform,1,undefined,1,h,0,0,0,31,31,0,31,0,31,0,0,0,31,31,31,31,Sun Sep 17 11:03:44 2023,1500,The main experiment item,yes,Flankertask.osexp,/Users/Thingtwo/Desktop,no,mono,no,18,no,white,no,yes,768,legacy,31,31,/Users/Thingtwo/Desktop/nc-subject-0.csv,legacy,Lentiform Loewenfeld,3.3.14,0,h,NA,h,NA,NA,h,497,NA,4187,NA,NA,497,2,legacy,1024,2,48000,-16,experiment,SSHSS,0,even,6109,NA,NA,54628,45164,1897,NA,NA,55677,1917,NA,NA,55784,56281,55671,55784,New experiment,30,13036,32,yes,1024
93.93939394,93.93939394,403.969697,403.969697,black,legacy,legacy,legacy,0,congruent,uniform,1,undefined,1,s,0,0,0,32,32,0,32,0,32,0,0,0,32,32,32,32,Sun Sep 17 11:03:44 2023,1500,The main experiment item,yes,Flankertask.osexp,/Users/Thingtwo/Desktop,no,mono,no,18,no,white,no,yes,768,legacy,32,32,/Users/Thingtwo/Desktop/nc-subject-0.csv,legacy,Lentiform Loewenfeld,3.3.14,0,s,NA,h,NA,NA,s,295,NA,4187,NA,NA,295,2,legacy,1024,2,48000,-16,experiment,SSSSS,0,even,6109,NA,NA,56286,45164,1897,NA,NA,57336,1917,NA,NA,57442,57738,57330,57442,New experiment,31,13331,33,yes,1024
94.11764706,94.11764706,405,405,black,legacy,legacy,legacy,0,congruent,uniform,1,undefined,1,h,0,0,0,33,33,0,33,0,33,0,0,0,33,33,33,33,Sun Sep 17 11:03:44 2023,1500,The main experiment item,yes,Flankertask.osexp,/Users/Thingtwo/Desktop,no,mono,no,18,no,white,no,yes,768,legacy,33,33,/Users/Thingtwo/Desktop/nc-subject-0.csv,legacy,Lentiform Loewenfeld,3.3.14,0,h,NA,h,NA,NA,h,439,NA,4187,NA,NA,439,2,legacy,1024,2,48000,-16,experiment,HHHHH,0,even,6109,NA,NA,57743,45164,1897,NA,NA,58790,1917,NA,NA,58896,59335,58784,58896,New experiment,32,13770,34,yes,1024
94.28571429,94.28571429,404.3142857,404.3142857,black,legacy,legacy,legacy,0,congruent,uniform,1,undefined,1,s,0,0,0,34,34,0,34,0,34,0,0,0,34,34,34,34,Sun Sep 17 11:03:44 2023,1500,The main experiment item,yes,Flankertask.osexp,/Users/Thingtwo/Desktop,no,mono,no,18,no,white,no,yes,768,legacy,34,34,/Users/Thingtwo/Desktop/nc-subject-0.csv,legacy,Lentiform Loewenfeld,3.3.14,0,s,NA,h,NA,NA,s,381,NA,4187,NA,NA,381,2,legacy,1024,2,48000,-16,experiment,SSSSS,0,even,6109,NA,NA,59340,45164,1897,NA,NA,60388,1917,NA,NA,60494,60876,60383,60494,New experiment,33,14151,35,yes,1024
94.44444444,94.44444444,405.5555556,405.5555556,black,legacy,legacy,legacy,0,incongruent,uniform,1,undefined,1,h,0,0,0,35,35,0,35,0,35,0,0,0,35,35,35,35,Sun Sep 17 11:03:44 2023,1500,The main experiment item,yes,Flankertask.osexp,/Users/Thingtwo/Desktop,no,mono,no,18,no,white,no,yes,768,legacy,35,35,/Users/Thingtwo/Desktop/nc-subject-0.csv,legacy,Lentiform Loewenfeld,3.3.14,0,h,NA,h,NA,NA,h,449,NA,4187,NA,NA,449,2,legacy,1024,2,48000,-16,experiment,SSHSS,0,even,6109,NA,NA,60880,45164,1897,NA,NA,61927,1917,NA,NA,62034,62483,61922,62034,New experiment,34,14600,36,yes,1024
94.59459459,94.59459459,406.9459459,406.9459459,black,legacy,legacy,legacy,0,congruent,uniform,1,undefined,1,h,0,0,0,36,36,0,36,0,36,0,0,0,36,36,36,36,Sun Sep 17 11:03:44 2023,1500,The main experiment item,yes,Flankertask.osexp,/Users/Thingtwo/Desktop,no,mono,no,18,no,white,no,yes,768,legacy,36,36,/Users/Thingtwo/Desktop/nc-subject-0.csv,legacy,Lentiform Loewenfeld,3.3.14,0,h,NA,h,NA,NA,h,457,NA,4187,NA,NA,457,2,legacy,1024,2,48000,-16,experiment,HHHHH,0,even,6109,NA,NA,62488,45164,1897,NA,NA,63536,1917,NA,NA,63642,64099,63530,63642,New experiment,35,15057,37,yes,1024
94.73684211,94.73684211,406.6052632,406.6052632,black,legacy,legacy,legacy,0,congruent,uniform,1,undefined,1,s,0,0,0,37,37,0,37,0,37,0,0,0,37,37,37,37,Sun Sep 17 11:03:44 2023,1500,The main experiment item,yes,Flankertask.osexp,/Users/Thingtwo/Desktop,no,mono,no,18,no,white,no,yes,768,legacy,37,37,/Users/Thingtwo/Desktop/nc-subject-0.csv,legacy,Lentiform Loewenfeld,3.3.14,0,s,NA,h,NA,NA,s,394,NA,4187,NA,NA,394,2,legacy,1024,2,48000,-16,experiment,SSSSS,0,even,6109,NA,NA,64104,45164,1897,NA,NA,65155,1917,NA,NA,65261,65656,65149,65261,New experiment,36,15451,38,yes,1024
94.87179487,94.87179487,404.3076923,404.3076923,black,legacy,legacy,legacy,0,incongruent,uniform,1,undefined,1,h,0,0,0,38,38,0,38,0,38,0,0,0,38,38,38,38,Sun Sep 17 11:03:44 2023,1500,The main experiment item,yes,Flankertask.osexp,/Users/Thingtwo/Desktop,no,mono,no,18,no,white,no,yes,768,legacy,38,38,/Users/Thingtwo/Desktop/nc-subject-0.csv,legacy,Lentiform Loewenfeld,3.3.14,0,h,NA,h,NA,NA,h,317,NA,4187,NA,NA,317,2,legacy,1024,2,48000,-16,experiment,SSHSS,0,even,6109,NA,NA,65661,45164,1897,NA,NA,66710,1917,NA,NA,66816,67133,66705,66816,New experiment,37,15768,39,yes,1024
95,95,408.3,408.3,black,legacy,legacy,legacy,0,incongruent,uniform,1,undefined,1,h,0,0,0,39,39,0,39,0,39,0,0,0,39,39,39,39,Sun Sep 17 11:03:44 2023,1500,The main experiment item,yes,Flankertask.osexp,/Users/Thingtwo/Desktop,no,mono,no,18,no,white,no,yes,768,legacy,39,39,/Users/Thingtwo/Desktop/nc-subject-0.csv,legacy,Lentiform Loewenfeld,3.3.14,0,h,NA,h,NA,NA,h,564,NA,4187,NA,NA,564,2,legacy,1024,2,48000,-16,experiment,SSHSS,0,even,6109,NA,NA,67138,45164,1897,NA,NA,68189,1917,NA,NA,68295,68860,68184,68295,New experiment,38,16332,40,yes,1024
95.12195122,95.12195122,405.7317073,405.7317073,black,legacy,legacy,legacy,0,congruent,uniform,1,undefined,1,s,0,0,0,40,40,0,40,0,40,0,0,0,40,40,40,40,Sun Sep 17 11:03:44 2023,1500,The main experiment item,yes,Flankertask.osexp,/Users/Thingtwo/Desktop,no,mono,no,18,no,white,no,yes,768,legacy,40,40,/Users/Thingtwo/Desktop/nc-subject-0.csv,legacy,Lentiform Loewenfeld,3.3.14,0,s,NA,h,NA,NA,s,303,NA,4187,NA,NA,303,2,legacy,1024,2,48000,-16,experiment,SSSSS,0,even,6109,NA,NA,68865,45164,1897,NA,NA,69909,1917,NA,NA,70015,70319,69903,70015,New experiment,39,16635,41,yes,1024
95.23809524,95.23809524,405.7142857,405.7142857,black,legacy,legacy,legacy,0,congruent,uniform,1,undefined,1,s,0,0,0,41,41,0,41,0,41,0,0,0,41,41,41,41,Sun Sep 17 11:03:44 2023,1500,The main experiment item,yes,Flankertask.osexp,/Users/Thingtwo/Desktop,no,mono,no,18,no,white,no,yes,768,legacy,41,41,/Users/Thingtwo/Desktop/nc-subject-0.csv,legacy,Lentiform Loewenfeld,3.3.14,0,s,NA,h,NA,NA,s,405,NA,4187,NA,NA,405,2,legacy,1024,2,48000,-16,experiment,SSSSS,0,even,6109,NA,NA,70323,45164,1897,NA,NA,71369,1917,NA,NA,71475,71880,71364,71475,New experiment,40,17040,42,yes,1024
95.34883721,95.34883721,405.5116279,405.5116279,black,legacy,legacy,legacy,0,incongruent,uniform,1,undefined,1,s,0,0,0,42,42,0,42,0,42,0,0,0,42,42,42,42,Sun Sep 17 11:03:44 2023,1500,The main experiment item,yes,Flankertask.osexp,/Users/Thingtwo/Desktop,no,mono,no,18,no,white,no,yes,768,legacy,42,42,/Users/Thingtwo/Desktop/nc-subject-0.csv,legacy,Lentiform Loewenfeld,3.3.14,0,s,NA,h,NA,NA,s,397,NA,4187,NA,NA,397,2,legacy,1024,2,48000,-16,experiment,HHSHH,0,even,6109,NA,NA,71885,45164,1897,NA,NA,72935,1917,NA,NA,73041,73439,72929,73041,New experiment,41,17437,43,yes,1024
95.45454545,95.45454545,405.3636364,405.3636364,black,legacy,legacy,legacy,0,incongruent,uniform,1,undefined,1,s,0,0,0,43,43,0,43,0,43,0,0,0,43,43,43,43,Sun Sep 17 11:03:44 2023,1500,The main experiment item,yes,Flankertask.osexp,/Users/Thingtwo/Desktop,no,mono,no,18,no,white,no,yes,768,legacy,43,43,/Users/Thingtwo/Desktop/nc-subject-0.csv,legacy,Lentiform Loewenfeld,3.3.14,0,s,NA,h,NA,NA,s,399,NA,4187,NA,NA,399,2,legacy,1024,2,48000,-16,experiment,HHSHH,0,even,6109,NA,NA,73443,45164,1897,NA,NA,74490,1917,NA,NA,74596,74996,74484,74596,New experiment,42,17836,44,yes,1024
95.55555556,95.55555556,405.3555556,405.3555556,black,legacy,legacy,legacy,0,incongruent,uniform,1,undefined,1,s,0,0,0,44,44,0,44,0,44,0,0,0,44,44,44,44,Sun Sep 17 11:03:44 2023,1500,The main experiment item,yes,Flankertask.osexp,/Users/Thingtwo/Desktop,no,mono,no,18,no,white,no,yes,768,legacy,44,44,/Users/Thingtwo/Desktop/nc-subject-0.csv,legacy,Lentiform Loewenfeld,3.3.14,0,s,NA,h,NA,NA,s,405,NA,4187,NA,NA,405,2,legacy,1024,2,48000,-16,experiment,HHSHH,0,even,6109,NA,NA,75000,45164,1897,NA,NA,76049,1917,NA,NA,76156,76562,76043,76156,New experiment,43,18241,45,yes,1024
95.65217391,95.65217391,404.8695652,404.8695652,black,legacy,legacy,legacy,0,congruent,uniform,1,undefined,1,h,0,0,0,45,45,0,45,0,45,0,0,0,45,45,45,45,Sun Sep 17 11:03:44 2023,1500,The main experiment item,yes,Flankertask.osexp,/Users/Thingtwo/Desktop,no,mono,no,18,no,white,no,yes,768,legacy,45,45,/Users/Thingtwo/Desktop/nc-subject-0.csv,legacy,Lentiform Loewenfeld,3.3.14,0,h,NA,h,NA,NA,h,383,NA,4187,NA,NA,383,2,legacy,1024,2,48000,-16,experiment,HHHHH,0,even,6109,NA,NA,76567,45164,1897,NA,NA,77612,1917,NA,NA,77719,78103,77607,77718,New experiment,44,18624,46,yes,1024
95.74468085,95.74468085,404.8085106,404.8085106,black,legacy,legacy,legacy,0,incongruent,uniform,1,undefined,1,h,0,0,0,46,46,0,46,0,46,0,0,0,46,46,46,46,Sun Sep 17 11:03:44 2023,1500,The main experiment item,yes,Flankertask.osexp,/Users/Thingtwo/Desktop,no,mono,no,18,no,white,no,yes,768,legacy,46,46,/Users/Thingtwo/Desktop/nc-subject-0.csv,legacy,Lentiform Loewenfeld,3.3.14,0,h,NA,h,NA,NA,h,402,NA,4187,NA,NA,402,2,legacy,1024,2,48000,-16,experiment,SSHSS,0,even,6109,NA,NA,78108,45164,1897,NA,NA,79156,1917,NA,NA,79263,79666,79150,79262,New experiment,45,19026,47,yes,1024
95.83333333,95.83333333,402.4583333,402.4583333,black,legacy,legacy,legacy,0,congruent,uniform,1,undefined,1,h,0,0,0,47,47,0,47,0,47,0,0,0,47,47,47,47,Sun Sep 17 11:03:44 2023,1500,The main experiment item,yes,Flankertask.osexp,/Users/Thingtwo/Desktop,no,mono,no,18,no,white,no,yes,768,legacy,47,47,/Users/Thingtwo/Desktop/nc-subject-0.csv,legacy,Lentiform Loewenfeld,3.3.14,0,h,NA,h,NA,NA,h,292,NA,4187,NA,NA,292,2,legacy,1024,2,48000,-16,experiment,HHHHH,0,even,6109,NA,NA,79670,45164,1897,NA,NA,80718,1917,NA,NA,80825,81118,80713,80825,New experiment,46,19318,48,yes,1024
95.91836735,95.91836735,402,402,black,legacy,legacy,legacy,0,incongruent,uniform,1,undefined,1,s,0,0,0,48,48,0,48,0,48,0,0,0,48,48,48,48,Sun Sep 17 11:03:44 2023,1500,The main experiment item,yes,Flankertask.osexp,/Users/Thingtwo/Desktop,no,mono,no,18,no,white,no,yes,768,legacy,48,48,/Users/Thingtwo/Desktop/nc-subject-0.csv,legacy,Lentiform Loewenfeld,3.3.14,0,s,NA,h,NA,NA,s,380,NA,4187,NA,NA,380,2,legacy,1024,2,48000,-16,experiment,HHSHH,0,even,6109,NA,NA,81122,45164,1897,NA,NA,82171,1917,NA,NA,82278,82658,82165,82278,New experiment,47,19698,49,yes,1024
96,96,403.62,403.62,black,legacy,legacy,legacy,0,congruent,uniform,1,undefined,1,s,0,0,0,49,49,0,49,0,49,0,0,0,49,49,49,49,Sun Sep 17 11:03:44 2023,1500,The main experiment item,yes,Flankertask.osexp,/Users/Thingtwo/Desktop,no,mono,no,18,no,white,no,yes,768,legacy,49,49,/Users/Thingtwo/Desktop/nc-subject-0.csv,legacy,Lentiform Loewenfeld,3.3.14,0,s,NA,h,NA,NA,s,483,NA,4187,NA,NA,483,2,legacy,1024,2,48000,-16,experiment,SSSSS,0,even,6109,NA,NA,82663,45164,1897,NA,NA,83711,1917,NA,NA,83817,84300,83705,83817,New experiment,48,20181,50,yes,1024
96.07843137,96.07843137,403.7058824,403.7058824,black,legacy,legacy,legacy,0,congruent,uniform,1,undefined,1,s,0,0,0,50,50,0,50,0,50,0,0,0,50,50,50,50,Sun Sep 17 11:03:44 2023,1500,The main experiment item,yes,Flankertask.osexp,/Users/Thingtwo/Desktop,no,mono,no,18,no,white,no,yes,768,legacy,50,50,/Users/Thingtwo/Desktop/nc-subject-0.csv,legacy,Lentiform Loewenfeld,3.3.14,0,s,NA,h,NA,NA,s,408,NA,4187,NA,NA,408,2,legacy,1024,2,48000,-16,experiment,SSSSS,0,even,6109,NA,NA,84305,45164,1897,NA,NA,85355,1917,NA,NA,85462,85870,85349,85462,New experiment,49,20589,51,yes,1024
96.15384615,96.15384615,404.3846154,404.3846154,black,legacy,legacy,legacy,0,congruent,uniform,1,undefined,1,h,0,0,0,51,51,0,51,0,51,0,0,0,51,51,51,51,Sun Sep 17 11:03:44 2023,1500,The main experiment item,yes,Flankertask.osexp,/Users/Thingtwo/Desktop,no,mono,no,18,no,white,no,yes,768,legacy,51,51,/Users/Thingtwo/Desktop/nc-subject-0.csv,legacy,Lentiform Loewenfeld,3.3.14,0,h,NA,h,NA,NA,h,439,NA,4187,NA,NA,439,2,legacy,1024,2,48000,-16,experiment,HHHHH,0,even,6109,NA,NA,85875,45164,1897,NA,NA,86924,1917,NA,NA,87031,87471,86918,87031,New experiment,50,21028,52,yes,1024
96.22641509,96.22641509,407.9433962,407.9433962,black,legacy,legacy,legacy,0,incongruent,uniform,1,undefined,1,h,0,0,0,52,52,0,52,0,52,0,0,0,52,52,52,52,Sun Sep 17 11:03:44 2023,1500,The main experiment item,yes,Flankertask.osexp,/Users/Thingtwo/Desktop,no,mono,no,18,no,white,no,yes,768,legacy,52,52,/Users/Thingtwo/Desktop/nc-subject-0.csv,legacy,Lentiform Loewenfeld,3.3.14,0,h,NA,h,NA,NA,h,593,NA,4187,NA,NA,593,2,legacy,1024,2,48000,-16,experiment,SSHSS,0,even,6109,NA,NA,87476,45164,1897,NA,NA,88525,1917,NA,NA,88631,89224,88519,88631,New experiment,51,21621,53,yes,1024
94.44444444,94.44444444,405.7592593,405.7592593,black,legacy,legacy,legacy,0,incongruent,uniform,0,undefined,0,h,0,0,0,53,53,0,53,0,53,0,0,0,53,53,53,53,Sun Sep 17 11:03:44 2023,1500,The main experiment item,yes,Flankertask.osexp,/Users/Thingtwo/Desktop,no,mono,no,18,no,white,no,yes,768,legacy,53,53,/Users/Thingtwo/Desktop/nc-subject-0.csv,legacy,Lentiform Loewenfeld,3.3.14,0,s,NA,h,NA,NA,s,290,NA,4187,NA,NA,290,2,legacy,1024,2,48000,-16,experiment,SSHSS,0,even,6109,NA,NA,89229,45164,1897,NA,NA,90277,1917,NA,NA,90383,90674,90270,90383,New experiment,51,21911,54,yes,1024
94.54545455,94.54545455,405.4181818,405.4181818,black,legacy,legacy,legacy,0,incongruent,uniform,1,undefined,1,h,0,0,0,54,54,0,54,0,54,0,0,0,54,54,54,54,Sun Sep 17 11:03:44 2023,1500,The main experiment item,yes,Flankertask.osexp,/Users/Thingtwo/Desktop,no,mono,no,18,no,white,no,yes,768,legacy,54,54,/Users/Thingtwo/Desktop/nc-subject-0.csv,legacy,Lentiform Loewenfeld,3.3.14,0,h,NA,h,NA,NA,h,387,NA,4187,NA,NA,387,2,legacy,1024,2,48000,-16,experiment,SSHSS,0,even,6109,NA,NA,91187,90678,1897,NA,NA,92236,1917,NA,NA,92343,92730,92230,92343,New experiment,52,22298,55,yes,1024
94.64285714,94.64285714,405.0714286,405.0714286,black,legacy,legacy,legacy,0,congruent,uniform,1,undefined,1,h,0,0,0,55,55,0,55,0,55,0,0,0,55,55,55,55,Sun Sep 17 11:03:44 2023,1500,The main experiment item,yes,Flankertask.osexp,/Users/Thingtwo/Desktop,no,mono,no,18,no,white,no,yes,768,legacy,55,55,/Users/Thingtwo/Desktop/nc-subject-0.csv,legacy,Lentiform Loewenfeld,3.3.14,0,h,NA,h,NA,NA,h,386,NA,4187,NA,NA,386,2,legacy,1024,2,48000,-16,experiment,HHHHH,0,even,6109,NA,NA,92735,90678,1897,NA,NA,93784,1917,NA,NA,93890,94277,93778,93890,New experiment,53,22684,56,yes,1024
94.73684211,94.73684211,405.8947368,405.8947368,black,legacy,legacy,legacy,0,incongruent,uniform,1,undefined,1,s,0,0,0,56,56,0,56,0,56,0,0,0,56,56,56,56,Sun Sep 17 11:03:44 2023,1500,The main experiment item,yes,Flankertask.osexp,/Users/Thingtwo/Desktop,no,mono,no,18,no,white,no,yes,768,legacy,56,56,/Users/Thingtwo/Desktop/nc-subject-0.csv,legacy,Lentiform Loewenfeld,3.3.14,0,s,NA,h,NA,NA,s,452,NA,4187,NA,NA,452,2,legacy,1024,2,48000,-16,experiment,HHSHH,0,even,6109,NA,NA,94281,90678,1897,NA,NA,95329,1917,NA,NA,95436,95888,95324,95436,New experiment,54,23136,57,yes,1024
94.82758621,94.82758621,405.5862069,405.5862069,black,legacy,legacy,legacy,0,congruent,uniform,1,undefined,1,h,0,0,0,57,57,0,57,0,57,0,0,0,57,57,57,57,Sun Sep 17 11:03:44 2023,1500,The main experiment item,yes,Flankertask.osexp,/Users/Thingtwo/Desktop,no,mono,no,18,no,white,no,yes,768,legacy,57,57,/Users/Thingtwo/Desktop/nc-subject-0.csv,legacy,Lentiform Loewenfeld,3.3.14,0,h,NA,h,NA,NA,h,388,NA,4187,NA,NA,388,2,legacy,1024,2,48000,-16,experiment,HHHHH,0,even,6109,NA,NA,95893,90678,1897,NA,NA,96938,1917,NA,NA,97044,97432,96932,97044,New experiment,55,23524,58,yes,1024
94.91525424,94.91525424,408.6271186,408.6271186,black,legacy,legacy,legacy,0,incongruent,uniform,1,undefined,1,h,0,0,0,58,58,0,58,0,58,0,0,0,58,58,58,58,Sun Sep 17 11:03:44 2023,1500,The main experiment item,yes,Flankertask.osexp,/Users/Thingtwo/Desktop,no,mono,no,18,no,white,no,yes,768,legacy,58,58,/Users/Thingtwo/Desktop/nc-subject-0.csv,legacy,Lentiform Loewenfeld,3.3.14,0,h,NA,h,NA,NA,h,585,NA,4187,NA,NA,585,2,legacy,1024,2,48000,-16,experiment,SSHSS,0,even,6109,NA,NA,97437,90678,1897,NA,NA,98487,1917,NA,NA,98593,99179,98481,98593,New experiment,56,24109,59,yes,1024
95,95,409.4166667,409.4166667,black,legacy,legacy,legacy,0,incongruent,uniform,1,undefined,1,h,0,0,0,59,59,0,59,0,59,0,0,0,59,59,59,59,Sun Sep 17 11:03:44 2023,1500,The main experiment item,yes,Flankertask.osexp,/Users/Thingtwo/Desktop,no,mono,no,18,no,white,no,yes,768,legacy,59,59,/Users/Thingtwo/Desktop/nc-subject-0.csv,legacy,Lentiform Loewenfeld,3.3.14,0,h,NA,h,NA,NA,h,456,NA,4187,NA,NA,456,2,legacy,1024,2,48000,-16,experiment,SSHSS,0,even,6109,NA,NA,99184,90678,1897,NA,NA,100232,1917,NA,NA,100338,100794,100226,100338,New experiment,57,24565,60,yes,1024
95.08196721,95.08196721,408.6557377,408.6557377,black,legacy,legacy,legacy,0,congruent,uniform,1,undefined,1,h,0,0,0,60,60,0,60,0,60,0,0,0,60,60,60,60,Sun Sep 17 11:03:44 2023,1500,The main experiment item,yes,Flankertask.osexp,/Users/Thingtwo/Desktop,no,mono,no,18,no,white,no,yes,768,legacy,60,60,/Users/Thingtwo/Desktop/nc-subject-0.csv,legacy,Lentiform Loewenfeld,3.3.14,0,h,NA,h,NA,NA,h,363,NA,4187,NA,NA,363,2,legacy,1024,2,48000,-16,experiment,HHHHH,0,even,6109,NA,NA,100799,90678,1897,NA,NA,101848,1917,NA,NA,101954,102318,101841,101954,New experiment,58,24928,61,yes,1024
95.16129032,95.16129032,407.6451613,407.6451613,black,legacy,legacy,legacy,0,incongruent,uniform,1,undefined,1,h,0,0,0,61,61,0,61,0,61,0,0,0,61,61,61,61,Sun Sep 17 11:03:44 2023,1500,The main experiment item,yes,Flankertask.osexp,/Users/Thingtwo/Desktop,no,mono,no,18,no,white,no,yes,768,legacy,61,61,/Users/Thingtwo/Desktop/nc-subject-0.csv,legacy,Lentiform Loewenfeld,3.3.14,0,h,NA,h,NA,NA,h,346,NA,4187,NA,NA,346,2,legacy,1024,2,48000,-16,experiment,SSHSS,0,even,6109,NA,NA,102323,90678,1897,NA,NA,103372,1917,NA,NA,103478,103825,103366,103478,New experiment,59,25274,62,yes,1024
95.23809524,95.23809524,407.3968254,407.3968254,black,legacy,legacy,legacy,0,incongruent,uniform,1,undefined,1,s,0,0,0,62,62,0,62,0,62,0,0,0,62,62,62,62,Sun Sep 17 11:03:44 2023,1500,The main experiment item,yes,Flankertask.osexp,/Users/Thingtwo/Desktop,no,mono,no,18,no,white,no,yes,768,legacy,62,62,/Users/Thingtwo/Desktop/nc-subject-0.csv,legacy,Lentiform Loewenfeld,3.3.14,0,s,NA,h,NA,NA,s,392,NA,4187,NA,NA,392,2,legacy,1024,2,48000,-16,experiment,HHSHH,0,even,6109,NA,NA,103830,90678,1897,NA,NA,104877,1917,NA,NA,104983,105376,104871,104983,New experiment,60,25666,63,yes,1024
95.3125,95.3125,405.390625,405.390625,black,legacy,legacy,legacy,0,incongruent,uniform,1,undefined,1,h,0,0,0,63,63,0,63,0,63,0,0,0,63,63,63,63,Sun Sep 17 11:03:44 2023,1500,The main experiment item,yes,Flankertask.osexp,/Users/Thingtwo/Desktop,no,mono,no,18,no,white,no,yes,768,legacy,63,63,/Users/Thingtwo/Desktop/nc-subject-0.csv,legacy,Lentiform Loewenfeld,3.3.14,0,h,NA,h,NA,NA,h,279,NA,4187,NA,NA,279,2,legacy,1024,2,48000,-16,experiment,SSHSS,0,even,6109,NA,NA,105381,90678,1897,NA,NA,106429,1917,NA,NA,106535,106815,106424,106535,New experiment,61,25945,64,yes,1024
95.38461538,95.38461538,404.6769231,404.6769231,black,legacy,legacy,legacy,0,congruent,uniform,1,undefined,1,s,0,0,0,64,64,0,64,0,64,0,0,0,64,64,64,64,Sun Sep 17 11:03:44 2023,1500,The main experiment item,yes,Flankertask.osexp,/Users/Thingtwo/Desktop,no,mono,no,18,no,white,no,yes,768,legacy,64,64,/Users/Thingtwo/Desktop/nc-subject-0.csv,legacy,Lentiform Loewenfeld,3.3.14,0,s,NA,h,NA,NA,s,359,NA,4187,NA,NA,359,2,legacy,1024,2,48000,-16,experiment,SSSSS,0,even,6109,NA,NA,106820,90678,1897,NA,NA,107867,1917,NA,NA,107974,108333,107861,107974,New experiment,62,26304,65,yes,1024
95.45454545,95.45454545,403.3333333,403.3333333,black,legacy,legacy,legacy,0,congruent,uniform,1,undefined,1,s,0,0,0,65,65,0,65,0,65,0,0,0,65,65,65,65,Sun Sep 17 11:03:44 2023,1500,The main experiment item,yes,Flankertask.osexp,/Users/Thingtwo/Desktop,no,mono,no,18,no,white,no,yes,768,legacy,65,65,/Users/Thingtwo/Desktop/nc-subject-0.csv,legacy,Lentiform Loewenfeld,3.3.14,0,s,NA,h,NA,NA,s,316,NA,4187,NA,NA,316,2,legacy,1024,2,48000,-16,experiment,SSSSS,0,even,6109,NA,NA,108338,90678,1897,NA,NA,109384,1917,NA,NA,109490,109806,109378,109490,New experiment,63,26620,66,yes,1024
95.52238806,95.52238806,401.9552239,401.9552239,black,legacy,legacy,legacy,0,incongruent,uniform,1,undefined,1,s,0,0,0,66,66,0,66,0,66,0,0,0,66,66,66,66,Sun Sep 17 11:03:44 2023,1500,The main experiment item,yes,Flankertask.osexp,/Users/Thingtwo/Desktop,no,mono,no,18,no,white,no,yes,768,legacy,66,66,/Users/Thingtwo/Desktop/nc-subject-0.csv,legacy,Lentiform Loewenfeld,3.3.14,0,s,NA,h,NA,NA,s,311,NA,4187,NA,NA,311,2,legacy,1024,2,48000,-16,experiment,HHSHH,0,even,6109,NA,NA,109811,90678,1897,NA,NA,110861,1917,NA,NA,110968,111280,110854,110967,New experiment,64,26931,67,yes,1024
95.58823529,95.58823529,402.8235294,402.8235294,black,legacy,legacy,legacy,0,incongruent,uniform,1,undefined,1,s,0,0,0,67,67,0,67,0,67,0,0,0,67,67,67,67,Sun Sep 17 11:03:44 2023,1500,The main experiment item,yes,Flankertask.osexp,/Users/Thingtwo/Desktop,no,mono,no,18,no,white,no,yes,768,legacy,67,67,/Users/Thingtwo/Desktop/nc-subject-0.csv,legacy,Lentiform Loewenfeld,3.3.14,0,s,NA,h,NA,NA,s,461,NA,4187,NA,NA,461,2,legacy,1024,2,48000,-16,experiment,HHSHH,0,even,6109,NA,NA,111285,90678,1897,NA,NA,112334,1917,NA,NA,112441,112902,112328,112441,New experiment,65,27392,68,yes,1024
94.20289855,94.20289855,401.7826087,401.7826087,black,legacy,legacy,legacy,0,incongruent,uniform,0,undefined,0,h,0,0,0,68,68,0,68,0,68,0,0,0,68,68,68,68,Sun Sep 17 11:03:44 2023,1500,The main experiment item,yes,Flankertask.osexp,/Users/Thingtwo/Desktop,no,mono,no,18,no,white,no,yes,768,legacy,68,68,/Users/Thingtwo/Desktop/nc-subject-0.csv,legacy,Lentiform Loewenfeld,3.3.14,0,s,NA,h,NA,NA,s,331,NA,4187,NA,NA,331,2,legacy,1024,2,48000,-16,experiment,SSHSS,0,even,6109,NA,NA,112907,90678,1897,NA,NA,113955,1917,NA,NA,114062,114394,113949,114062,New experiment,65,27723,69,yes,1024
94.28571429,94.28571429,401.2571429,401.2571429,black,legacy,legacy,legacy,0,congruent,uniform,1,undefined,1,h,0,0,0,69,69,0,69,0,69,0,0,0,69,69,69,69,Sun Sep 17 11:03:44 2023,1500,The main experiment item,yes,Flankertask.osexp,/Users/Thingtwo/Desktop,no,mono,no,18,no,white,no,yes,768,legacy,69,69,/Users/Thingtwo/Desktop/nc-subject-0.csv,legacy,Lentiform Loewenfeld,3.3.14,0,h,NA,h,NA,NA,h,365,NA,4187,NA,NA,365,2,legacy,1024,2,48000,-16,experiment,HHHHH,0,even,6109,NA,NA,114908,114399,1897,NA,NA,115955,1917,NA,NA,116062,116428,115949,116061,New experiment,66,28088,70,yes,1024
94.36619718,94.36619718,401.8732394,401.8732394,black,legacy,legacy,legacy,0,incongruent,uniform,1,undefined,1,s,0,0,0,70,70,0,70,0,70,0,0,0,70,70,70,70,Sun Sep 17 11:03:44 2023,1500,The main experiment item,yes,Flankertask.osexp,/Users/Thingtwo/Desktop,no,mono,no,18,no,white,no,yes,768,legacy,70,70,/Users/Thingtwo/Desktop/nc-subject-0.csv,legacy,Lentiform Loewenfeld,3.3.14,0,s,NA,h,NA,NA,s,445,NA,4187,NA,NA,445,2,legacy,1024,2,48000,-16,experiment,HHSHH,0,even,6109,NA,NA,116433,114399,1897,NA,NA,117483,1917,NA,NA,117590,118035,117477,117590,New experiment,67,28533,71,yes,1024
94.44444444,94.44444444,401.875,401.875,black,legacy,legacy,legacy,0,congruent,uniform,1,undefined,1,h,0,0,0,71,71,0,71,0,71,0,0,0,71,71,71,71,Sun Sep 17 11:03:44 2023,1500,The main experiment item,yes,Flankertask.osexp,/Users/Thingtwo/Desktop,no,mono,no,18,no,white,no,yes,768,legacy,71,71,/Users/Thingtwo/Desktop/nc-subject-0.csv,legacy,Lentiform Loewenfeld,3.3.14,0,h,NA,h,NA,NA,h,402,NA,4187,NA,NA,402,2,legacy,1024,2,48000,-16,experiment,HHHHH,0,even,6109,NA,NA,118040,114399,1897,NA,NA,119088,1917,NA,NA,119195,119597,119081,119195,New experiment,68,28935,72,yes,1024
94.52054795,94.52054795,402.2739726,402.2739726,black,legacy,legacy,legacy,0,congruent,uniform,1,undefined,1,h,0,0,0,72,72,0,72,0,72,0,0,0,72,72,72,72,Sun Sep 17 11:03:44 2023,1500,The main experiment item,yes,Flankertask.osexp,/Users/Thingtwo/Desktop,no,mono,no,18,no,white,no,yes,768,legacy,72,72,/Users/Thingtwo/Desktop/nc-subject-0.csv,legacy,Lentiform Loewenfeld,3.3.14,0,h,NA,h,NA,NA,h,431,NA,4187,NA,NA,431,2,legacy,1024,2,48000,-16,experiment,HHHHH,0,even,6109,NA,NA,119602,114399,1897,NA,NA,120649,1917,NA,NA,120755,121186,120643,120755,New experiment,69,29366,73,yes,1024
94.59459459,94.59459459,402.9864865,402.9864865,black,legacy,legacy,legacy,0,incongruent,uniform,1,undefined,1,h,0,0,0,73,73,0,73,0,73,0,0,0,73,73,73,73,Sun Sep 17 11:03:44 2023,1500,The main experiment item,yes,Flankertask.osexp,/Users/Thingtwo/Desktop,no,mono,no,18,no,white,no,yes,768,legacy,73,73,/Users/Thingtwo/Desktop/nc-subject-0.csv,legacy,Lentiform Loewenfeld,3.3.14,0,h,NA,h,NA,NA,h,455,NA,4187,NA,NA,455,2,legacy,1024,2,48000,-16,experiment,SSHSS,0,even,6109,NA,NA,121191,114399,1897,NA,NA,122240,1917,NA,NA,122346,122802,122233,122346,New experiment,70,29821,74,yes,1024
94.66666667,94.66666667,402.72,402.72,black,legacy,legacy,legacy,0,congruent,uniform,1,undefined,1,s,0,0,0,74,74,0,74,0,74,0,0,0,74,74,74,74,Sun Sep 17 11:03:44 2023,1500,The main experiment item,yes,Flankertask.osexp,/Users/Thingtwo/Desktop,no,mono,no,18,no,white,no,yes,768,legacy,74,74,/Users/Thingtwo/Desktop/nc-subject-0.csv,legacy,Lentiform Loewenfeld,3.3.14,0,s,NA,h,NA,NA,s,383,NA,4187,NA,NA,383,2,legacy,1024,2,48000,-16,experiment,SSSSS,0,even,6109,NA,NA,122807,114399,1897,NA,NA,123857,1917,NA,NA,123964,124347,123850,123963,New experiment,71,30204,75,yes,1024
94.73684211,94.73684211,401.9210526,401.9210526,black,legacy,legacy,legacy,0,congruent,uniform,1,undefined,1,s,0,0,0,75,75,0,75,0,75,0,0,0,75,75,75,75,Sun Sep 17 11:03:44 2023,1500,The main experiment item,yes,Flankertask.osexp,/Users/Thingtwo/Desktop,no,mono,no,18,no,white,no,yes,768,legacy,75,75,/Users/Thingtwo/Desktop/nc-subject-0.csv,legacy,Lentiform Loewenfeld,3.3.14,0,s,NA,h,NA,NA,s,342,NA,4187,NA,NA,342,2,legacy,1024,2,48000,-16,experiment,SSSSS,0,even,6109,NA,NA,124352,114399,1897,NA,NA,125400,1917,NA,NA,125506,125849,125394,125506,New experiment,72,30546,76,yes,1024
94.80519481,94.80519481,403.9090909,403.9090909,black,legacy,legacy,legacy,0,incongruent,uniform,1,undefined,1,s,0,0,0,76,76,0,76,0,76,0,0,0,76,76,76,76,Sun Sep 17 11:03:44 2023,1500,The main experiment item,yes,Flankertask.osexp,/Users/Thingtwo/Desktop,no,mono,no,18,no,white,no,yes,768,legacy,76,76,/Users/Thingtwo/Desktop/nc-subject-0.csv,legacy,Lentiform Loewenfeld,3.3.14,0,s,NA,h,NA,NA,s,555,NA,4187,NA,NA,555,2,legacy,1024,2,48000,-16,experiment,HHSHH,0,even,6109,NA,NA,125854,114399,1897,NA,NA,126905,1917,NA,NA,127012,127567,126899,127012,New experiment,73,31101,77,yes,1024
94.87179487,94.87179487,403.4487179,403.4487179,black,legacy,legacy,legacy,0,congruent,uniform,1,undefined,1,s,0,0,0,77,77,0,77,0,77,0,0,0,77,77,77,77,Sun Sep 17 11:03:44 2023,1500,The main experiment item,yes,Flankertask.osexp,/Users/Thingtwo/Desktop,no,mono,no,18,no,white,no,yes,768,legacy,77,77,/Users/Thingtwo/Desktop/nc-subject-0.csv,legacy,Lentiform Loewenfeld,3.3.14,0,s,NA,h,NA,NA,s,368,NA,4187,NA,NA,368,2,legacy,1024,2,48000,-16,experiment,SSSSS,0,even,6109,NA,NA,127572,114399,1897,NA,NA,128618,1917,NA,NA,128724,129092,128612,128724,New experiment,74,31469,78,yes,1024
94.93670886,94.93670886,404.1392405,404.1392405,black,legacy,legacy,legacy,0,congruent,uniform,1,undefined,1,h,0,0,0,78,78,0,78,0,78,0,0,0,78,78,78,78,Sun Sep 17 11:03:44 2023,1500,The main experiment item,yes,Flankertask.osexp,/Users/Thingtwo/Desktop,no,mono,no,18,no,white,no,yes,768,legacy,78,78,/Users/Thingtwo/Desktop/nc-subject-0.csv,legacy,Lentiform Loewenfeld,3.3.14,0,h,NA,h,NA,NA,h,458,NA,4187,NA,NA,458,2,legacy,1024,2,48000,-16,experiment,HHHHH,0,even,6109,NA,NA,129097,114399,1897,NA,NA,130147,1917,NA,NA,130255,130714,130142,130255,New experiment,75,31927,79,yes,1024
95,95,403.1875,403.1875,black,legacy,legacy,legacy,0,congruent,uniform,1,undefined,1,h,0,0,0,79,79,0,79,0,79,0,0,0,79,79,79,79,Sun Sep 17 11:03:44 2023,1500,The main experiment item,yes,Flankertask.osexp,/Users/Thingtwo/Desktop,no,mono,no,18,no,white,no,yes,768,legacy,79,79,/Users/Thingtwo/Desktop/nc-subject-0.csv,legacy,Lentiform Loewenfeld,3.3.14,0,h,NA,h,NA,NA,h,328,NA,4187,NA,NA,328,2,legacy,1024,2,48000,-16,experiment,HHHHH,0,even,6109,NA,NA,130719,114399,1897,NA,NA,131767,1917,NA,NA,131873,132201,131761,131873,New experiment,76,32255,80,yes,1024
95.0617284,95.0617284,403.3580247,403.3580247,black,legacy,legacy,legacy,0,congruent,uniform,1,undefined,1,h,0,0,0,80,80,0,80,0,80,0,0,0,80,80,80,80,Sun Sep 17 11:03:44 2023,600,The main experiment item,yes,Flankertask.osexp,/Users/Thingtwo/Desktop,no,mono,no,18,no,white,no,yes,768,legacy,0,79,/Users/Thingtwo/Desktop/nc-subject-0.csv,legacy,Lentiform Loewenfeld,3.3.14,0,h,NA,h,NA,h,h,417,NA,4187,NA,6021,417,2,legacy,1024,2,48000,-16,experiment,HHHHH,0,even,6109,139256,NA,132206,114399,1897,NA,NA,139278,1917,NA,133234,139383,139800,139274,139383,New experiment,77,32672,81,yes,1024
95.12195122,95.12195122,403.2560976,403.2560976,black,legacy,legacy,legacy,0,congruent,uniform,1,undefined,1,s,0,0,0,81,81,0,81,0,81,0,0,0,81,81,81,81,Sun Sep 17 11:03:44 2023,600,The main experiment item,yes,Flankertask.osexp,/Users/Thingtwo/Desktop,no,mono,no,18,no,white,no,yes,768,legacy,1,79,/Users/Thingtwo/Desktop/nc-subject-0.csv,legacy,Lentiform Loewenfeld,3.3.14,0,s,NA,h,NA,h,s,395,NA,4187,NA,6021,395,2,legacy,1024,2,48000,-16,experiment,SSSSS,0,even,6109,139256,NA,139805,114399,1897,NA,NA,140852,1917,NA,133234,140958,141353,140845,140958,New experiment,78,33067,82,yes,1024
95.18072289,95.18072289,402.7831325,402.7831325,black,legacy,legacy,legacy,0,incongruent,uniform,1,undefined,1,h,0,0,0,82,82,0,82,0,82,0,0,0,82,82,82,82,Sun Sep 17 11:03:44 2023,600,The main experiment item,yes,Flankertask.osexp,/Users/Thingtwo/Desktop,no,mono,no,18,no,white,no,yes,768,legacy,2,79,/Users/Thingtwo/Desktop/nc-subject-0.csv,legacy,Lentiform Loewenfeld,3.3.14,0,h,NA,h,NA,h,h,364,NA,4187,NA,6021,364,2,legacy,1024,2,48000,-16,experiment,SSHSS,0,even,6109,139256,NA,141358,114399,1897,NA,NA,142407,1917,NA,133234,142513,142877,142401,142513,New experiment,79,33431,83,yes,1024
95.23809524,95.23809524,402.6904762,402.6904762,black,legacy,legacy,legacy,0,incongruent,uniform,1,undefined,1,h,0,0,0,83,83,0,83,0,83,0,0,0,83,83,83,83,Sun Sep 17 11:03:44 2023,600,The main experiment item,yes,Flankertask.osexp,/Users/Thingtwo/Desktop,no,mono,no,18,no,white,no,yes,768,legacy,3,79,/Users/Thingtwo/Desktop/nc-subject-0.csv,legacy,Lentiform Loewenfeld,3.3.14,0,h,NA,h,NA,h,h,395,NA,4187,NA,6021,395,2,legacy,1024,2,48000,-16,experiment,SSHSS,0,even,6109,139256,NA,142882,114399,1897,NA,NA,143932,1917,NA,133234,144038,144434,143925,144038,New experiment,80,33826,84,yes,1024
95.29411765,95.29411765,402.1294118,402.1294118,black,legacy,legacy,legacy,0,congruent,uniform,1,undefined,1,h,0,0,0,84,84,0,84,0,84,0,0,0,84,84,84,84,Sun Sep 17 11:03:44 2023,600,The main experiment item,yes,Flankertask.osexp,/Users/Thingtwo/Desktop,no,mono,no,18,no,white,no,yes,768,legacy,4,79,/Users/Thingtwo/Desktop/nc-subject-0.csv,legacy,Lentiform Loewenfeld,3.3.14,0,h,NA,h,NA,h,h,355,NA,4187,NA,6021,355,2,legacy,1024,2,48000,-16,experiment,HHHHH,0,even,6109,139256,NA,144439,114399,1897,NA,NA,145488,1917,NA,133234,145595,145951,145482,145594,New experiment,81,34181,85,yes,1024
95.34883721,95.34883721,401.127907,401.127907,black,legacy,legacy,legacy,0,congruent,uniform,1,undefined,1,h,0,0,0,85,85,0,85,0,85,0,0,0,85,85,85,85,Sun Sep 17 11:03:44 2023,600,The main experiment item,yes,Flankertask.osexp,/Users/Thingtwo/Desktop,no,mono,no,18,no,white,no,yes,768,legacy,5,79,/Users/Thingtwo/Desktop/nc-subject-0.csv,legacy,Lentiform Loewenfeld,3.3.14,0,h,NA,h,NA,h,h,316,NA,4187,NA,6021,316,2,legacy,1024,2,48000,-16,experiment,HHHHH,0,even,6109,139256,NA,145956,114399,1897,NA,NA,147005,1917,NA,133234,147112,147429,146998,147111,New experiment,82,34497,86,yes,1024
95.40229885,95.40229885,400.8850575,400.8850575,black,legacy,legacy,legacy,0,incongruent,uniform,1,undefined,1,s,0,0,0,86,86,0,86,0,86,0,0,0,86,86,86,86,Sun Sep 17 11:03:44 2023,600,The main experiment item,yes,Flankertask.osexp,/Users/Thingtwo/Desktop,no,mono,no,18,no,white,no,yes,768,legacy,6,79,/Users/Thingtwo/Desktop/nc-subject-0.csv,legacy,Lentiform Loewenfeld,3.3.14,0,s,NA,h,NA,h,s,380,NA,4187,NA,6021,380,2,legacy,1024,2,48000,-16,experiment,HHSHH,0,even,6109,139256,NA,147434,114399,1897,NA,NA,148482,1917,NA,133234,148588,148969,148475,148588,New experiment,83,34877,87,yes,1024
95.45454545,95.45454545,399.7045455,399.7045455,black,legacy,legacy,legacy,0,congruent,uniform,1,undefined,1,s,0,0,0,87,87,0,87,0,87,0,0,0,87,87,87,87,Sun Sep 17 11:03:44 2023,600,The main experiment item,yes,Flankertask.osexp,/Users/Thingtwo/Desktop,no,mono,no,18,no,white,no,yes,768,legacy,7,79,/Users/Thingtwo/Desktop/nc-subject-0.csv,legacy,Lentiform Loewenfeld,3.3.14,0,s,NA,h,NA,h,s,297,NA,4187,NA,6021,297,2,legacy,1024,2,48000,-16,experiment,SSSSS,0,even,6109,139256,NA,148973,114399,1897,NA,NA,150020,1917,NA,133234,150127,150424,150015,150126,New experiment,84,35174,88,yes,1024
95.50561798,95.50561798,399.5168539,399.5168539,black,legacy,legacy,legacy,0,congruent,uniform,1,undefined,1,h,0,0,0,88,88,0,88,0,88,0,0,0,88,88,88,88,Sun Sep 17 11:03:44 2023,600,The main experiment item,yes,Flankertask.osexp,/Users/Thingtwo/Desktop,no,mono,no,18,no,white,no,yes,768,legacy,8,79,/Users/Thingtwo/Desktop/nc-subject-0.csv,legacy,Lentiform Loewenfeld,3.3.14,0,h,NA,h,NA,h,h,383,NA,4187,NA,6021,383,2,legacy,1024,2,48000,-16,experiment,HHHHH,0,even,6109,139256,NA,150429,114399,1897,NA,NA,151475,1917,NA,133234,151582,151966,151470,151581,New experiment,85,35557,89,yes,1024
94.44444444,94.44444444,399.1444444,399.1444444,black,legacy,legacy,legacy,0,incongruent,uniform,0,undefined,0,h,0,0,0,89,89,0,89,0,89,0,0,0,89,89,89,89,Sun Sep 17 11:03:44 2023,600,The main experiment item,yes,Flankertask.osexp,/Users/Thingtwo/Desktop,no,mono,no,18,no,white,no,yes,768,legacy,9,79,/Users/Thingtwo/Desktop/nc-subject-0.csv,legacy,Lentiform Loewenfeld,3.3.14,0,s,NA,h,NA,h,s,366,NA,4187,NA,6021,366,2,legacy,1024,2,48000,-16,experiment,SSHSS,0,even,6109,139256,NA,151971,114399,1897,NA,NA,153020,1917,NA,133234,153127,153493,153014,153126,New experiment,85,35923,90,yes,1024
94.50549451,94.50549451,400.9230769,400.9230769,black,legacy,legacy,legacy,0,congruent,uniform,1,undefined,1,h,0,0,0,90,90,0,90,0,90,0,0,0,90,90,90,90,Sun Sep 17 11:03:44 2023,600,The main experiment item,yes,Flankertask.osexp,/Users/Thingtwo/Desktop,no,mono,no,18,no,white,no,yes,768,legacy,10,79,/Users/Thingtwo/Desktop/nc-subject-0.csv,legacy,Lentiform Loewenfeld,3.3.14,0,h,NA,h,NA,h,h,561,NA,4187,NA,6021,561,2,legacy,1024,2,48000,-16,experiment,HHHHH,0,even,6109,139256,NA,154008,153498,1897,NA,NA,155053,1917,NA,133234,155160,155722,155048,155159,New experiment,86,36484,91,yes,1024
94.56521739,94.56521739,400.8478261,400.8478261,black,legacy,legacy,legacy,0,congruent,uniform,1,undefined,1,s,0,0,0,91,91,0,91,0,91,0,0,0,91,91,91,91,Sun Sep 17 11:03:44 2023,600,The main experiment item,yes,Flankertask.osexp,/Users/Thingtwo/Desktop,no,mono,no,18,no,white,no,yes,768,legacy,11,79,/Users/Thingtwo/Desktop/nc-subject-0.csv,legacy,Lentiform Loewenfeld,3.3.14,0,s,NA,h,NA,h,s,394,NA,4187,NA,6021,394,2,legacy,1024,2,48000,-16,experiment,SSSSS,0,even,6109,139256,NA,155727,153498,1897,NA,NA,156776,1917,NA,133234,156882,157277,156769,156882,New experiment,87,36878,92,yes,1024
94.62365591,94.62365591,399.6129032,399.6129032,black,legacy,legacy,legacy,0,congruent,uniform,1,undefined,1,h,0,0,0,92,92,0,92,0,92,0,0,0,92,92,92,92,Sun Sep 17 11:03:44 2023,600,The main experiment item,yes,Flankertask.osexp,/Users/Thingtwo/Desktop,no,mono,no,18,no,white,no,yes,768,legacy,12,79,/Users/Thingtwo/Desktop/nc-subject-0.csv,legacy,Lentiform Loewenfeld,3.3.14,0,h,NA,h,NA,h,h,286,NA,4187,NA,6021,286,2,legacy,1024,2,48000,-16,experiment,HHHHH,0,even,6109,139256,NA,157282,153498,1897,NA,NA,158330,1917,NA,133234,158436,158723,158325,158436,New experiment,88,37164,93,yes,1024
94.68085106,94.68085106,399.4893617,399.4893617,black,legacy,legacy,legacy,0,incongruent,uniform,1,undefined,1,h,0,0,0,93,93,0,93,0,93,0,0,0,93,93,93,93,Sun Sep 17 11:03:44 2023,600,The main experiment item,yes,Flankertask.osexp,/Users/Thingtwo/Desktop,no,mono,no,18,no,white,no,yes,768,legacy,13,79,/Users/Thingtwo/Desktop/nc-subject-0.csv,legacy,Lentiform Loewenfeld,3.3.14,0,h,NA,h,NA,h,h,388,NA,4187,NA,6021,388,2,legacy,1024,2,48000,-16,experiment,SSHSS,0,even,6109,139256,NA,158728,153498,1897,NA,NA,159774,1917,NA,133234,159880,160269,159767,159880,New experiment,89,37552,94,yes,1024
94.73684211,94.73684211,400.7263158,400.7263158,black,legacy,legacy,legacy,0,congruent,uniform,1,undefined,1,h,0,0,0,94,94,0,94,0,94,0,0,0,94,94,94,94,Sun Sep 17 11:03:44 2023,600,The main experiment item,yes,Flankertask.osexp,/Users/Thingtwo/Desktop,no,mono,no,18,no,white,no,yes,768,legacy,14,79,/Users/Thingtwo/Desktop/nc-subject-0.csv,legacy,Lentiform Loewenfeld,3.3.14,0,h,NA,h,NA,h,h,517,NA,4187,NA,6021,517,2,legacy,1024,2,48000,-16,experiment,HHHHH,0,even,6109,139256,NA,160274,153498,1897,NA,NA,161324,1917,NA,133234,161431,161949,161317,161431,New experiment,90,38069,95,yes,1024
94.79166667,94.79166667,399.6666667,399.6666667,black,legacy,legacy,legacy,0,incongruent,uniform,1,undefined,1,h,0,0,0,95,95,0,95,0,95,0,0,0,95,95,95,95,Sun Sep 17 11:03:44 2023,600,The main experiment item,yes,Flankertask.osexp,/Users/Thingtwo/Desktop,no,mono,no,18,no,white,no,yes,768,legacy,15,79,/Users/Thingtwo/Desktop/nc-subject-0.csv,legacy,Lentiform Loewenfeld,3.3.14,0,h,NA,h,NA,h,h,299,NA,4187,NA,6021,299,2,legacy,1024,2,48000,-16,experiment,SSHSS,0,even,6109,139256,NA,161954,153498,1897,NA,NA,163005,1917,NA,133234,163111,163411,162997,163111,New experiment,91,38368,96,yes,1024
94.84536082,94.84536082,398.5154639,398.5154639,black,legacy,legacy,legacy,0,incongruent,uniform,1,undefined,1,h,0,0,0,96,96,0,96,0,96,0,0,0,96,96,96,96,Sun Sep 17 11:03:44 2023,600,The main experiment item,yes,Flankertask.osexp,/Users/Thingtwo/Desktop,no,mono,no,18,no,white,no,yes,768,legacy,16,79,/Users/Thingtwo/Desktop/nc-subject-0.csv,legacy,Lentiform Loewenfeld,3.3.14,0,h,NA,h,NA,h,h,288,NA,4187,NA,6021,288,2,legacy,1024,2,48000,-16,experiment,SSHSS,0,even,6109,139256,NA,163416,153498,1897,NA,NA,164466,1917,NA,133234,164572,164860,164458,164572,New experiment,92,38656,97,yes,1024
94.89795918,94.89795918,397.2142857,397.2142857,black,legacy,legacy,legacy,0,congruent,uniform,1,undefined,1,h,0,0,0,97,97,0,97,0,97,0,0,0,97,97,97,97,Sun Sep 17 11:03:44 2023,600,The main experiment item,yes,Flankertask.osexp,/Users/Thingtwo/Desktop,no,mono,no,18,no,white,no,yes,768,legacy,17,79,/Users/Thingtwo/Desktop/nc-subject-0.csv,legacy,Lentiform Loewenfeld,3.3.14,0,h,NA,h,NA,h,h,271,NA,4187,NA,6021,271,2,legacy,1024,2,48000,-16,experiment,HHHHH,0,even,6109,139256,NA,164865,153498,1897,NA,NA,165913,1917,NA,133234,166021,166293,165907,166020,New experiment,93,38927,98,yes,1024
94.94949495,94.94949495,396.3232323,396.3232323,black,legacy,legacy,legacy,0,incongruent,uniform,1,undefined,1,h,0,0,0,98,98,0,98,0,98,0,0,0,98,98,98,98,Sun Sep 17 11:03:44 2023,600,The main experiment item,yes,Flankertask.osexp,/Users/Thingtwo/Desktop,no,mono,no,18,no,white,no,yes,768,legacy,18,79,/Users/Thingtwo/Desktop/nc-subject-0.csv,legacy,Lentiform Loewenfeld,3.3.14,0,h,NA,h,NA,h,h,309,NA,4187,NA,6021,309,2,legacy,1024,2,48000,-16,experiment,SSHSS,0,even,6109,139256,NA,166298,153498,1897,NA,NA,167342,1917,NA,133234,167448,167758,167336,167448,New experiment,94,39236,99,yes,1024
95,95,396.39,396.39,black,legacy,legacy,legacy,0,incongruent,uniform,1,undefined,1,s,0,0,0,99,99,0,99,0,99,0,0,0,99,99,99,99,Sun Sep 17 11:03:44 2023,600,The main experiment item,yes,Flankertask.osexp,/Users/Thingtwo/Desktop,no,mono,no,18,no,white,no,yes,768,legacy,19,79,/Users/Thingtwo/Desktop/nc-subject-0.csv,legacy,Lentiform Loewenfeld,3.3.14,0,s,NA,h,NA,h,s,403,NA,4187,NA,6021,403,2,legacy,1024,2,48000,-16,experiment,HHSHH,0,even,6109,139256,NA,167763,153498,1897,NA,NA,168813,1917,NA,133234,168920,169324,168807,168920,New experiment,95,39639,100,yes,1024
95.04950495,95.04950495,395.9306931,395.9306931,black,legacy,legacy,legacy,0,incongruent,uniform,1,undefined,1,s,0,0,0,100,100,0,100,0,100,0,0,0,100,100,100,100,Sun Sep 17 11:03:44 2023,600,The main experiment item,yes,Flankertask.osexp,/Users/Thingtwo/Desktop,no,mono,no,18,no,white,no,yes,768,legacy,20,79,/Users/Thingtwo/Desktop/nc-subject-0.csv,legacy,Lentiform Loewenfeld,3.3.14,0,s,NA,h,NA,h,s,350,NA,4187,NA,6021,350,2,legacy,1024,2,48000,-16,experiment,HHSHH,0,even,6109,139256,NA,169328,153498,1897,NA,NA,170371,1917,NA,133234,170477,170827,170366,170477,New experiment,96,39989,101,yes,1024
95.09803922,95.09803922,394.9509804,394.9509804,black,legacy,legacy,legacy,0,congruent,uniform,1,undefined,1,h,0,0,0,101,101,0,101,0,101,0,0,0,101,101,101,101,Sun Sep 17 11:03:44 2023,600,The main experiment item,yes,Flankertask.osexp,/Users/Thingtwo/Desktop,no,mono,no,18,no,white,no,yes,768,legacy,21,79,/Users/Thingtwo/Desktop/nc-subject-0.csv,legacy,Lentiform Loewenfeld,3.3.14,0,h,NA,h,NA,h,h,296,NA,4187,NA,6021,296,2,legacy,1024,2,48000,-16,experiment,HHHHH,0,even,6109,139256,NA,170832,153498,1897,NA,NA,171876,1917,NA,133234,171982,172279,171871,171982,New experiment,97,40285,102,yes,1024
95.14563107,95.14563107,395.3883495,395.3883495,black,legacy,legacy,legacy,0,incongruent,uniform,1,undefined,1,h,0,0,0,102,102,0,102,0,102,0,0,0,102,102,102,102,Sun Sep 17 11:03:44 2023,600,The main experiment item,yes,Flankertask.osexp,/Users/Thingtwo/Desktop,no,mono,no,18,no,white,no,yes,768,legacy,22,79,/Users/Thingtwo/Desktop/nc-subject-0.csv,legacy,Lentiform Loewenfeld,3.3.14,0,h,NA,h,NA,h,h,440,NA,4187,NA,6021,440,2,legacy,1024,2,48000,-16,experiment,SSHSS,0,even,6109,139256,NA,172284,153498,1897,NA,NA,173336,1917,NA,133234,173443,173883,173329,173443,New experiment,98,40725,103,yes,1024
94.23076923,94.23076923,394.9711538,394.9711538,black,legacy,legacy,legacy,0,incongruent,uniform,0,undefined,0,s,0,0,0,103,103,0,103,0,103,0,0,0,103,103,103,103,Sun Sep 17 11:03:44 2023,600,The main experiment item,yes,Flankertask.osexp,/Users/Thingtwo/Desktop,no,mono,no,18,no,white,no,yes,768,legacy,23,79,/Users/Thingtwo/Desktop/nc-subject-0.csv,legacy,Lentiform Loewenfeld,3.3.14,0,h,NA,h,NA,h,h,352,NA,4187,NA,6021,352,2,legacy,1024,2,48000,-16,experiment,HHSHH,0,even,6109,139256,NA,173888,153498,1897,NA,NA,174939,1917,NA,133234,175045,175398,174931,175045,New experiment,98,41077,104,yes,1024
94.28571429,94.28571429,395.4666667,395.4666667,black,legacy,legacy,legacy,0,congruent,uniform,1,undefined,1,h,0,0,0,104,104,0,104,0,104,0,0,0,104,104,104,104,Sun Sep 17 11:03:44 2023,600,The main experiment item,yes,Flankertask.osexp,/Users/Thingtwo/Desktop,no,mono,no,18,no,white,no,yes,768,legacy,24,79,/Users/Thingtwo/Desktop/nc-subject-0.csv,legacy,Lentiform Loewenfeld,3.3.14,0,h,NA,h,NA,h,h,447,NA,4187,NA,6021,447,2,legacy,1024,2,48000,-16,experiment,HHHHH,0,even,6109,139256,NA,175914,175403,1897,NA,NA,176963,1917,NA,133234,177069,177517,176957,177069,New experiment,99,41524,105,yes,1024
94.33962264,94.33962264,395.2169811,395.2169811,black,legacy,legacy,legacy,0,incongruent,uniform,1,undefined,1,s,0,0,0,105,105,0,105,0,105,0,0,0,105,105,105,105,Sun Sep 17 11:03:44 2023,600,The main experiment item,yes,Flankertask.osexp,/Users/Thingtwo/Desktop,no,mono,no,18,no,white,no,yes,768,legacy,25,79,/Users/Thingtwo/Desktop/nc-subject-0.csv,legacy,Lentiform Loewenfeld,3.3.14,0,s,NA,h,NA,h,s,369,NA,4187,NA,6021,369,2,legacy,1024,2,48000,-16,experiment,HHSHH,0,even,6109,139256,NA,177522,175403,1897,NA,NA,178572,1917,NA,133234,178678,179047,178565,178678,New experiment,100,41893,106,yes,1024
94.39252336,94.39252336,396.3831776,396.3831776,black,legacy,legacy,legacy,0,incongruent,uniform,1,undefined,1,s,0,0,0,106,106,0,106,0,106,0,0,0,106,106,106,106,Sun Sep 17 11:03:44 2023,600,The main experiment item,yes,Flankertask.osexp,/Users/Thingtwo/Desktop,no,mono,no,18,no,white,no,yes,768,legacy,26,79,/Users/Thingtwo/Desktop/nc-subject-0.csv,legacy,Lentiform Loewenfeld,3.3.14,0,s,NA,h,NA,h,s,520,NA,4187,NA,6021,520,2,legacy,1024,2,48000,-16,experiment,HHSHH,0,even,6109,139256,NA,179052,175403,1897,NA,NA,180101,1917,NA,133234,180207,180728,180095,180207,New experiment,101,42413,107,yes,1024
94.44444444,94.44444444,395.6018519,395.6018519,black,legacy,legacy,legacy,0,incongruent,uniform,1,undefined,1,s,0,0,0,107,107,0,107,0,107,0,0,0,107,107,107,107,Sun Sep 17 11:03:44 2023,600,The main experiment item,yes,Flankertask.osexp,/Users/Thingtwo/Desktop,no,mono,no,18,no,white,no,yes,768,legacy,27,79,/Users/Thingtwo/Desktop/nc-subject-0.csv,legacy,Lentiform Loewenfeld,3.3.14,0,s,NA,h,NA,h,s,312,NA,4187,NA,6021,312,2,legacy,1024,2,48000,-16,experiment,HHSHH,0,even,6109,139256,NA,180733,175403,1897,NA,NA,181782,1917,NA,133234,181889,182202,181776,181889,New experiment,102,42725,108,yes,1024
94.49541284,94.49541284,395.6055046,395.6055046,black,legacy,legacy,legacy,0,congruent,uniform,1,undefined,1,h,0,0,0,108,108,0,108,0,108,0,0,0,108,108,108,108,Sun Sep 17 11:03:44 2023,600,The main experiment item,yes,Flankertask.osexp,/Users/Thingtwo/Desktop,no,mono,no,18,no,white,no,yes,768,legacy,28,79,/Users/Thingtwo/Desktop/nc-subject-0.csv,legacy,Lentiform Loewenfeld,3.3.14,0,h,NA,h,NA,h,h,396,NA,4187,NA,6021,396,2,legacy,1024,2,48000,-16,experiment,HHHHH,0,even,6109,139256,NA,182206,175403,1897,NA,NA,183254,1917,NA,133234,183361,183757,183248,183361,New experiment,103,43121,109,yes,1024
93.63636364,93.63636364,394.4454545,394.4454545,black,legacy,legacy,legacy,0,incongruent,uniform,0,undefined,0,h,0,0,0,109,109,0,109,0,109,0,0,0,109,109,109,109,Sun Sep 17 11:03:44 2023,600,The main experiment item,yes,Flankertask.osexp,/Users/Thingtwo/Desktop,no,mono,no,18,no,white,no,yes,768,legacy,29,79,/Users/Thingtwo/Desktop/nc-subject-0.csv,legacy,Lentiform Loewenfeld,3.3.14,0,s,NA,h,NA,h,s,268,NA,4187,NA,6021,268,2,legacy,1024,2,48000,-16,experiment,SSHSS,0,even,6109,139256,NA,183763,175403,1897,NA,NA,184813,1917,NA,133234,184919,185188,184806,184919,New experiment,103,43389,110,yes,1024
93.69369369,93.69369369,393.981982,393.981982,black,legacy,legacy,legacy,0,congruent,uniform,1,undefined,1,h,0,0,0,110,110,0,110,0,110,0,0,0,110,110,110,110,Sun Sep 17 11:03:44 2023,600,The main experiment item,yes,Flankertask.osexp,/Users/Thingtwo/Desktop,no,mono,no,18,no,white,no,yes,768,legacy,30,79,/Users/Thingtwo/Desktop/nc-subject-0.csv,legacy,Lentiform Loewenfeld,3.3.14,0,h,NA,h,NA,h,h,343,NA,4187,NA,6021,343,2,legacy,1024,2,48000,-16,experiment,HHHHH,0,even,6109,139256,NA,185702,185193,1897,NA,NA,186750,1917,NA,133234,186857,187201,186745,186857,New experiment,104,43732,111,yes,1024
93.75,93.75,393.2589286,393.2589286,black,legacy,legacy,legacy,0,congruent,uniform,1,undefined,1,s,0,0,0,111,111,0,111,0,111,0,0,0,111,111,111,111,Sun Sep 17 11:03:44 2023,600,The main experiment item,yes,Flankertask.osexp,/Users/Thingtwo/Desktop,no,mono,no,18,no,white,no,yes,768,legacy,31,79,/Users/Thingtwo/Desktop/nc-subject-0.csv,legacy,Lentiform Loewenfeld,3.3.14,0,s,NA,h,NA,h,s,313,NA,4187,NA,6021,313,2,legacy,1024,2,48000,-16,experiment,SSSSS,0,even,6109,139256,NA,187206,185193,1897,NA,NA,188255,1917,NA,133234,188361,188675,188248,188361,New experiment,105,44045,112,yes,1024
93.80530973,93.80530973,393.3185841,393.3185841,black,legacy,legacy,legacy,0,congruent,uniform,1,undefined,1,s,0,0,0,112,112,0,112,0,112,0,0,0,112,112,112,112,Sun Sep 17 11:03:44 2023,600,The main experiment item,yes,Flankertask.osexp,/Users/Thingtwo/Desktop,no,mono,no,18,no,white,no,yes,768,legacy,32,79,/Users/Thingtwo/Desktop/nc-subject-0.csv,legacy,Lentiform Loewenfeld,3.3.14,0,s,NA,h,NA,h,s,400,NA,4187,NA,6021,400,2,legacy,1024,2,48000,-16,experiment,SSSSS,0,even,6109,139256,NA,188679,185193,1897,NA,NA,189729,1917,NA,133234,189836,190237,189723,189836,New experiment,106,44445,113,yes,1024
93.85964912,93.85964912,393.5701754,393.5701754,black,legacy,legacy,legacy,0,incongruent,uniform,1,undefined,1,h,0,0,0,113,113,0,113,0,113,0,0,0,113,113,113,113,Sun Sep 17 11:03:44 2023,600,The main experiment item,yes,Flankertask.osexp,/Users/Thingtwo/Desktop,no,mono,no,18,no,white,no,yes,768,legacy,33,79,/Users/Thingtwo/Desktop/nc-subject-0.csv,legacy,Lentiform Loewenfeld,3.3.14,0,h,NA,h,NA,h,h,422,NA,4187,NA,6021,422,2,legacy,1024,2,48000,-16,experiment,SSHSS,0,even,6109,139256,NA,190242,185193,1897,NA,NA,191290,1917,NA,133234,191397,191820,191284,191396,New experiment,107,44867,114,yes,1024
93.91304348,93.91304348,393.7826087,393.7826087,black,legacy,legacy,legacy,0,congruent,uniform,1,undefined,1,h,0,0,0,114,114,0,114,0,114,0,0,0,114,114,114,114,Sun Sep 17 11:03:44 2023,600,The main experiment item,yes,Flankertask.osexp,/Users/Thingtwo/Desktop,no,mono,no,18,no,white,no,yes,768,legacy,34,79,/Users/Thingtwo/Desktop/nc-subject-0.csv,legacy,Lentiform Loewenfeld,3.3.14,0,h,NA,h,NA,h,h,418,NA,4187,NA,6021,418,2,legacy,1024,2,48000,-16,experiment,HHHHH,0,even,6109,139256,NA,191825,185193,1897,NA,NA,192872,1917,NA,133234,192978,193397,192866,192978,New experiment,108,45285,115,yes,1024
93.96551724,93.96551724,393.6637931,393.6637931,black,legacy,legacy,legacy,0,incongruent,uniform,1,undefined,1,s,0,0,0,115,115,0,115,0,115,0,0,0,115,115,115,115,Sun Sep 17 11:03:44 2023,600,The main experiment item,yes,Flankertask.osexp,/Users/Thingtwo/Desktop,no,mono,no,18,no,white,no,yes,768,legacy,35,79,/Users/Thingtwo/Desktop/nc-subject-0.csv,legacy,Lentiform Loewenfeld,3.3.14,0,s,NA,h,NA,h,s,380,NA,4187,NA,6021,380,2,legacy,1024,2,48000,-16,experiment,HHSHH,0,even,6109,139256,NA,193402,185193,1897,NA,NA,194449,1917,NA,133234,194555,194936,194443,194555,New experiment,109,45665,116,yes,1024
94.01709402,94.01709402,393.1367521,393.1367521,black,legacy,legacy,legacy,0,incongruent,uniform,1,undefined,1,h,0,0,0,116,116,0,116,0,116,0,0,0,116,116,116,116,Sun Sep 17 11:03:44 2023,600,The main experiment item,yes,Flankertask.osexp,/Users/Thingtwo/Desktop,no,mono,no,18,no,white,no,yes,768,legacy,36,79,/Users/Thingtwo/Desktop/nc-subject-0.csv,legacy,Lentiform Loewenfeld,3.3.14,0,h,NA,h,NA,h,h,332,NA,4187,NA,6021,332,2,legacy,1024,2,48000,-16,experiment,SSHSS,0,even,6109,139256,NA,194941,185193,1897,NA,NA,195990,1917,NA,133234,196097,196430,195984,196097,New experiment,110,45997,117,yes,1024
94.06779661,94.06779661,394.8559322,394.8559322,black,legacy,legacy,legacy,0,congruent,uniform,1,undefined,1,s,0,0,0,117,117,0,117,0,117,0,0,0,117,117,117,117,Sun Sep 17 11:03:44 2023,600,The main experiment item,yes,Flankertask.osexp,/Users/Thingtwo/Desktop,no,mono,no,18,no,white,no,yes,768,legacy,37,79,/Users/Thingtwo/Desktop/nc-subject-0.csv,legacy,Lentiform Loewenfeld,3.3.14,0,s,NA,h,NA,h,s,596,NA,4187,NA,6021,596,2,legacy,1024,2,48000,-16,experiment,SSSSS,0,even,6109,139256,NA,196435,185193,1897,NA,NA,197482,1917,NA,133234,197588,198184,197476,197588,New experiment,111,46593,118,yes,1024
94.11764706,94.11764706,394.3865546,394.3865546,black,legacy,legacy,legacy,0,congruent,uniform,1,undefined,1,h,0,0,0,118,118,0,118,0,118,0,0,0,118,118,118,118,Sun Sep 17 11:03:44 2023,600,The main experiment item,yes,Flankertask.osexp,/Users/Thingtwo/Desktop,no,mono,no,18,no,white,no,yes,768,legacy,38,79,/Users/Thingtwo/Desktop/nc-subject-0.csv,legacy,Lentiform Loewenfeld,3.3.14,0,h,NA,h,NA,h,h,339,NA,4187,NA,6021,339,2,legacy,1024,2,48000,-16,experiment,HHHHH,0,even,6109,139256,NA,198189,185193,1897,NA,NA,199238,1917,NA,133234,199345,199685,199232,199344,New experiment,112,46932,119,yes,1024
94.16666667,94.16666667,393.6166667,393.6166667,black,legacy,legacy,legacy,0,incongruent,uniform,1,undefined,1,s,0,0,0,119,119,0,119,0,119,0,0,0,119,119,119,119,Sun Sep 17 11:03:44 2023,600,The main experiment item,yes,Flankertask.osexp,/Users/Thingtwo/Desktop,no,mono,no,18,no,white,no,yes,768,legacy,39,79,/Users/Thingtwo/Desktop/nc-subject-0.csv,legacy,Lentiform Loewenfeld,3.3.14,0,s,NA,h,NA,h,s,302,NA,4187,NA,6021,302,2,legacy,1024,2,48000,-16,experiment,HHSHH,0,even,6109,139256,NA,199689,185193,1897,NA,NA,200740,1917,NA,133234,200846,201149,200734,200846,New experiment,113,47234,120,yes,1024
94.21487603,94.21487603,392.6446281,392.6446281,black,legacy,legacy,legacy,0,congruent,uniform,1,undefined,1,s,0,0,0,120,120,0,120,0,120,0,0,0,120,120,120,120,Sun Sep 17 11:03:44 2023,600,The main experiment item,yes,Flankertask.osexp,/Users/Thingtwo/Desktop,no,mono,no,18,no,white,no,yes,768,legacy,40,79,/Users/Thingtwo/Desktop/nc-subject-0.csv,legacy,Lentiform Loewenfeld,3.3.14,0,s,NA,h,NA,h,s,276,NA,4187,NA,6021,276,2,legacy,1024,2,48000,-16,experiment,SSSSS,0,even,6109,139256,NA,201154,185193,1897,NA,NA,202203,1917,NA,133234,202309,202586,202197,202309,New experiment,114,47510,121,yes,1024
94.26229508,94.26229508,392.4098361,392.4098361,black,legacy,legacy,legacy,0,congruent,uniform,1,undefined,1,s,0,0,0,121,121,0,121,0,121,0,0,0,121,121,121,121,Sun Sep 17 11:03:44 2023,600,The main experiment item,yes,Flankertask.osexp,/Users/Thingtwo/Desktop,no,mono,no,18,no,white,no,yes,768,legacy,41,79,/Users/Thingtwo/Desktop/nc-subject-0.csv,legacy,Lentiform Loewenfeld,3.3.14,0,s,NA,h,NA,h,s,364,NA,4187,NA,6021,364,2,legacy,1024,2,48000,-16,experiment,SSSSS,0,even,6109,139256,NA,202591,185193,1897,NA,NA,203641,1917,NA,133234,203748,204113,203635,203748,New experiment,115,47874,122,yes,1024
94.30894309,94.30894309,392.4146341,392.4146341,black,legacy,legacy,legacy,0,incongruent,uniform,1,undefined,1,s,0,0,0,122,122,0,122,0,122,0,0,0,122,122,122,122,Sun Sep 17 11:03:44 2023,600,The main experiment item,yes,Flankertask.osexp,/Users/Thingtwo/Desktop,no,mono,no,18,no,white,no,yes,768,legacy,42,79,/Users/Thingtwo/Desktop/nc-subject-0.csv,legacy,Lentiform Loewenfeld,3.3.14,0,s,NA,h,NA,h,s,393,NA,4187,NA,6021,393,2,legacy,1024,2,48000,-16,experiment,HHSHH,0,even,6109,139256,NA,204117,185193,1897,NA,NA,205166,1917,NA,133234,205273,205667,205160,205272,New experiment,116,48267,123,yes,1024
94.35483871,94.35483871,392.2741935,392.2741935,black,legacy,legacy,legacy,0,incongruent,uniform,1,undefined,1,s,0,0,0,123,123,0,123,0,123,0,0,0,123,123,123,123,Sun Sep 17 11:03:44 2023,600,The main experiment item,yes,Flankertask.osexp,/Users/Thingtwo/Desktop,no,mono,no,18,no,white,no,yes,768,legacy,43,79,/Users/Thingtwo/Desktop/nc-subject-0.csv,legacy,Lentiform Loewenfeld,3.3.14,0,s,NA,h,NA,h,s,375,NA,4187,NA,6021,375,2,legacy,1024,2,48000,-16,experiment,HHSHH,0,even,6109,139256,NA,205672,185193,1897,NA,NA,206721,1917,NA,133234,206828,207204,206715,206828,New experiment,117,48642,124,yes,1024
94.4,94.4,393.128,393.128,black,legacy,legacy,legacy,0,incongruent,uniform,1,undefined,1,h,0,0,0,124,124,0,124,0,124,0,0,0,124,124,124,124,Sun Sep 17 11:03:44 2023,600,The main experiment item,yes,Flankertask.osexp,/Users/Thingtwo/Desktop,no,mono,no,18,no,white,no,yes,768,legacy,44,79,/Users/Thingtwo/Desktop/nc-subject-0.csv,legacy,Lentiform Loewenfeld,3.3.14,0,h,NA,h,NA,h,h,499,NA,4187,NA,6021,499,2,legacy,1024,2,48000,-16,experiment,SSHSS,0,even,6109,139256,NA,207209,185193,1897,NA,NA,208256,1917,NA,133234,208362,208862,208250,208362,New experiment,118,49141,125,yes,1024
94.44444444,94.44444444,392.968254,392.968254,black,legacy,legacy,legacy,0,congruent,uniform,1,undefined,1,s,0,0,0,125,125,0,125,0,125,0,0,0,125,125,125,125,Sun Sep 17 11:03:44 2023,600,The main experiment item,yes,Flankertask.osexp,/Users/Thingtwo/Desktop,no,mono,no,18,no,white,no,yes,768,legacy,45,79,/Users/Thingtwo/Desktop/nc-subject-0.csv,legacy,Lentiform Loewenfeld,3.3.14,0,s,NA,h,NA,h,s,373,NA,4187,NA,6021,373,2,legacy,1024,2,48000,-16,experiment,SSSSS,0,even,6109,139256,NA,208867,185193,1897,NA,NA,209915,1917,NA,133234,210021,210394,209909,210021,New experiment,119,49514,126,yes,1024
94.48818898,94.48818898,392.488189,392.488189,black,legacy,legacy,legacy,0,incongruent,uniform,1,undefined,1,s,0,0,0,126,126,0,126,0,126,0,0,0,126,126,126,126,Sun Sep 17 11:03:44 2023,600,The main experiment item,yes,Flankertask.osexp,/Users/Thingtwo/Desktop,no,mono,no,18,no,white,no,yes,768,legacy,46,79,/Users/Thingtwo/Desktop/nc-subject-0.csv,legacy,Lentiform Loewenfeld,3.3.14,0,s,NA,h,NA,h,s,332,NA,4187,NA,6021,332,2,legacy,1024,2,48000,-16,experiment,HHSHH,0,even,6109,139256,NA,210399,185193,1897,NA,NA,211448,1917,NA,133234,211554,211886,211442,211554,New experiment,120,49846,127,yes,1024
94.53125,94.53125,392.1796875,392.1796875,black,legacy,legacy,legacy,0,incongruent,uniform,1,undefined,1,h,0,0,0,127,127,0,127,0,127,0,0,0,127,127,127,127,Sun Sep 17 11:03:44 2023,600,The main experiment item,yes,Flankertask.osexp,/Users/Thingtwo/Desktop,no,mono,no,18,no,white,no,yes,768,legacy,47,79,/Users/Thingtwo/Desktop/nc-subject-0.csv,legacy,Lentiform Loewenfeld,3.3.14,0,h,NA,h,NA,h,h,353,NA,4187,NA,6021,353,2,legacy,1024,2,48000,-16,experiment,SSHSS,0,even,6109,139256,NA,211891,185193,1897,NA,NA,212939,1917,NA,133234,213046,213400,212933,213045,New experiment,121,50199,128,yes,1024
94.57364341,94.57364341,392.1162791,392.1162791,black,legacy,legacy,legacy,0,congruent,uniform,1,undefined,1,s,0,0,0,128,128,0,128,0,128,0,0,0,128,128,128,128,Sun Sep 17 11:03:44 2023,600,The main experiment item,yes,Flankertask.osexp,/Users/Thingtwo/Desktop,no,mono,no,18,no,white,no,yes,768,legacy,48,79,/Users/Thingtwo/Desktop/nc-subject-0.csv,legacy,Lentiform Loewenfeld,3.3.14,0,s,NA,h,NA,h,s,384,NA,4187,NA,6021,384,2,legacy,1024,2,48000,-16,experiment,SSSSS,0,even,6109,139256,NA,213405,185193,1897,NA,NA,214457,1917,NA,133234,214564,214948,214450,214564,New experiment,122,50583,129,yes,1024
94.61538462,94.61538462,392.3461538,392.3461538,black,legacy,legacy,legacy,0,incongruent,uniform,1,undefined,1,s,0,0,0,129,129,0,129,0,129,0,0,0,129,129,129,129,Sun Sep 17 11:03:44 2023,600,The main experiment item,yes,Flankertask.osexp,/Users/Thingtwo/Desktop,no,mono,no,18,no,white,no,yes,768,legacy,49,79,/Users/Thingtwo/Desktop/nc-subject-0.csv,legacy,Lentiform Loewenfeld,3.3.14,0,s,NA,h,NA,h,s,422,NA,4187,NA,6021,422,2,legacy,1024,2,48000,-16,experiment,HHSHH,0,even,6109,139256,NA,214953,185193,1897,NA,NA,216002,1917,NA,133234,216109,216531,215996,216109,New experiment,123,51005,130,yes,1024
94.65648855,94.65648855,391.9847328,391.9847328,black,legacy,legacy,legacy,0,congruent,uniform,1,undefined,1,s,0,0,0,130,130,0,130,0,130,0,0,0,130,130,130,130,Sun Sep 17 11:03:44 2023,600,The main experiment item,yes,Flankertask.osexp,/Users/Thingtwo/Desktop,no,mono,no,18,no,white,no,yes,768,legacy,50,79,/Users/Thingtwo/Desktop/nc-subject-0.csv,legacy,Lentiform Loewenfeld,3.3.14,0,s,NA,h,NA,h,s,345,NA,4187,NA,6021,345,2,legacy,1024,2,48000,-16,experiment,SSSSS,0,even,6109,139256,NA,216536,185193,1897,NA,NA,217584,1917,NA,133234,217690,218035,217578,217690,New experiment,124,51350,131,yes,1024
94.6969697,94.6969697,391.5151515,391.5151515,black,legacy,legacy,legacy,0,congruent,uniform,1,undefined,1,s,0,0,0,131,131,0,131,0,131,0,0,0,131,131,131,131,Sun Sep 17 11:03:44 2023,600,The main experiment item,yes,Flankertask.osexp,/Users/Thingtwo/Desktop,no,mono,no,18,no,white,no,yes,768,legacy,51,79,/Users/Thingtwo/Desktop/nc-subject-0.csv,legacy,Lentiform Loewenfeld,3.3.14,0,s,NA,h,NA,h,s,330,NA,4187,NA,6021,330,2,legacy,1024,2,48000,-16,experiment,SSSSS,0,even,6109,139256,NA,218040,185193,1897,NA,NA,219089,1917,NA,133234,219195,219525,219082,219195,New experiment,125,51680,132,yes,1024
94.73684211,94.73684211,391.3609023,391.3609023,black,legacy,legacy,legacy,0,congruent,uniform,1,undefined,1,s,0,0,0,132,132,0,132,0,132,0,0,0,132,132,132,132,Sun Sep 17 11:03:44 2023,600,The main experiment item,yes,Flankertask.osexp,/Users/Thingtwo/Desktop,no,mono,no,18,no,white,no,yes,768,legacy,52,79,/Users/Thingtwo/Desktop/nc-subject-0.csv,legacy,Lentiform Loewenfeld,3.3.14,0,s,NA,h,NA,h,s,371,NA,4187,NA,6021,371,2,legacy,1024,2,48000,-16,experiment,SSSSS,0,even,6109,139256,NA,219530,185193,1897,NA,NA,220579,1917,NA,133234,220685,221057,220574,220685,New experiment,126,52051,133,yes,1024
94.7761194,94.7761194,392.2313433,392.2313433,black,legacy,legacy,legacy,0,incongruent,uniform,1,undefined,1,h,0,0,0,133,133,0,133,0,133,0,0,0,133,133,133,133,Sun Sep 17 11:03:44 2023,600,The main experiment item,yes,Flankertask.osexp,/Users/Thingtwo/Desktop,no,mono,no,18,no,white,no,yes,768,legacy,53,79,/Users/Thingtwo/Desktop/nc-subject-0.csv,legacy,Lentiform Loewenfeld,3.3.14,0,h,NA,h,NA,h,h,508,NA,4187,NA,6021,508,2,legacy,1024,2,48000,-16,experiment,SSHSS,0,even,6109,139256,NA,221061,185193,1897,NA,NA,222111,1917,NA,133234,222218,222727,222105,222217,New experiment,127,52559,134,yes,1024
94.81481481,94.81481481,391.6888889,391.6888889,black,legacy,legacy,legacy,0,incongruent,uniform,1,undefined,1,h,0,0,0,134,134,0,134,0,134,0,0,0,134,134,134,134,Sun Sep 17 11:03:44 2023,600,The main experiment item,yes,Flankertask.osexp,/Users/Thingtwo/Desktop,no,mono,no,18,no,white,no,yes,768,legacy,54,79,/Users/Thingtwo/Desktop/nc-subject-0.csv,legacy,Lentiform Loewenfeld,3.3.14,0,h,NA,h,NA,h,h,319,NA,4187,NA,6021,319,2,legacy,1024,2,48000,-16,experiment,SSHSS,0,even,6109,139256,NA,222732,185193,1897,NA,NA,223781,1917,NA,133234,223888,224208,223774,223887,New experiment,128,52878,135,yes,1024
94.85294118,94.85294118,391.7132353,391.7132353,black,legacy,legacy,legacy,0,incongruent,uniform,1,undefined,1,s,0,0,0,135,135,0,135,0,135,0,0,0,135,135,135,135,Sun Sep 17 11:03:44 2023,600,The main experiment item,yes,Flankertask.osexp,/Users/Thingtwo/Desktop,no,mono,no,18,no,white,no,yes,768,legacy,55,79,/Users/Thingtwo/Desktop/nc-subject-0.csv,legacy,Lentiform Loewenfeld,3.3.14,0,s,NA,h,NA,h,s,395,NA,4187,NA,6021,395,2,legacy,1024,2,48000,-16,experiment,HHSHH,0,even,6109,139256,NA,224213,185193,1897,NA,NA,225262,1917,NA,133234,225368,225764,225255,225368,New experiment,129,53273,136,yes,1024
94.89051095,94.89051095,392.0875912,392.0875912,black,legacy,legacy,legacy,0,congruent,uniform,1,undefined,1,s,0,0,0,136,136,0,136,0,136,0,0,0,136,136,136,136,Sun Sep 17 11:03:44 2023,600,The main experiment item,yes,Flankertask.osexp,/Users/Thingtwo/Desktop,no,mono,no,18,no,white,no,yes,768,legacy,56,79,/Users/Thingtwo/Desktop/nc-subject-0.csv,legacy,Lentiform Loewenfeld,3.3.14,0,s,NA,h,NA,h,s,443,NA,4187,NA,6021,443,2,legacy,1024,2,48000,-16,experiment,SSSSS,0,even,6109,139256,NA,225769,185193,1897,NA,NA,226817,1917,NA,133234,226924,227368,226810,226923,New experiment,130,53716,137,yes,1024
94.92753623,94.92753623,393.6304348,393.6304348,black,legacy,legacy,legacy,0,incongruent,uniform,1,undefined,1,h,0,0,0,137,137,0,137,0,137,0,0,0,137,137,137,137,Sun Sep 17 11:03:44 2023,600,The main experiment item,yes,Flankertask.osexp,/Users/Thingtwo/Desktop,no,mono,no,18,no,white,no,yes,768,legacy,57,79,/Users/Thingtwo/Desktop/nc-subject-0.csv,legacy,Lentiform Loewenfeld,3.3.14,0,h,NA,h,NA,h,h,605,NA,4187,NA,6021,605,2,legacy,1024,2,48000,-16,experiment,SSHSS,0,even,6109,139256,NA,227373,185193,1897,NA,NA,228424,1917,NA,133234,228531,229136,228417,228531,New experiment,131,54321,138,yes,1024
94.96402878,94.96402878,394.4100719,394.4100719,black,legacy,legacy,legacy,0,incongruent,uniform,1,undefined,1,s,0,0,0,138,138,0,138,0,138,0,0,0,138,138,138,138,Sun Sep 17 11:03:44 2023,600,The main experiment item,yes,Flankertask.osexp,/Users/Thingtwo/Desktop,no,mono,no,18,no,white,no,yes,768,legacy,58,79,/Users/Thingtwo/Desktop/nc-subject-0.csv,legacy,Lentiform Loewenfeld,3.3.14,0,s,NA,h,NA,h,s,502,NA,4187,NA,6021,502,2,legacy,1024,2,48000,-16,experiment,HHSHH,0,even,6109,139256,NA,229653,185193,1897,229141,NA,230701,1917,NA,133234,230807,231310,230695,230807,New experiment,132,54823,139,yes,1024
95,95,394.3785714,394.3785714,black,legacy,legacy,legacy,0,congruent,uniform,1,undefined,1,s,0,0,0,139,139,0,139,0,139,0,0,0,139,139,139,139,Sun Sep 17 11:03:44 2023,600,The main experiment item,yes,Flankertask.osexp,/Users/Thingtwo/Desktop,no,mono,no,18,no,white,no,yes,768,legacy,59,79,/Users/Thingtwo/Desktop/nc-subject-0.csv,legacy,Lentiform Loewenfeld,3.3.14,0,s,NA,h,NA,h,s,390,NA,4187,NA,6021,390,2,legacy,1024,2,48000,-16,experiment,SSSSS,0,even,6109,139256,NA,231314,185193,1897,229141,NA,232362,1917,NA,133234,232468,232858,232356,232468,New experiment,133,55213,140,yes,1024
95.03546099,95.03546099,393.929078,393.929078,black,legacy,legacy,legacy,0,congruent,uniform,1,undefined,1,s,0,0,0,140,140,0,140,0,140,0,0,0,140,140,140,140,Sun Sep 17 11:03:44 2023,600,The main experiment item,yes,Flankertask.osexp,/Users/Thingtwo/Desktop,no,mono,no,18,no,white,no,yes,768,legacy,60,79,/Users/Thingtwo/Desktop/nc-subject-0.csv,legacy,Lentiform Loewenfeld,3.3.14,0,s,NA,h,NA,h,s,331,NA,4187,NA,6021,331,2,legacy,1024,2,48000,-16,experiment,SSSSS,0,even,6109,139256,NA,232863,185193,1897,229141,NA,233910,1917,NA,133234,234017,234349,233905,234016,New experiment,134,55544,141,yes,1024
94.36619718,94.36619718,393.3380282,393.3380282,black,legacy,legacy,legacy,0,congruent,uniform,0,undefined,0,h,0,0,0,141,141,0,141,0,141,0,0,0,141,141,141,141,Sun Sep 17 11:03:44 2023,600,The main experiment item,yes,Flankertask.osexp,/Users/Thingtwo/Desktop,no,mono,no,18,no,white,no,yes,768,legacy,61,79,/Users/Thingtwo/Desktop/nc-subject-0.csv,legacy,Lentiform Loewenfeld,3.3.14,0,s,NA,h,NA,h,s,310,NA,4187,NA,6021,310,2,legacy,1024,2,48000,-16,experiment,HHHHH,0,even,6109,139256,NA,234354,185193,1897,229141,NA,235403,1917,NA,133234,235509,235820,235397,235509,New experiment,134,55854,142,yes,1024
94.40559441,94.40559441,393.2937063,393.2937063,black,legacy,legacy,legacy,0,congruent,uniform,1,undefined,1,s,0,0,0,142,142,0,142,0,142,0,0,0,142,142,142,142,Sun Sep 17 11:03:44 2023,600,The main experiment item,yes,Flankertask.osexp,/Users/Thingtwo/Desktop,no,mono,no,18,no,white,no,yes,768,legacy,62,79,/Users/Thingtwo/Desktop/nc-subject-0.csv,legacy,Lentiform Loewenfeld,3.3.14,0,s,NA,h,NA,h,s,387,NA,4187,NA,6021,387,2,legacy,1024,2,48000,-16,experiment,SSSSS,0,even,6109,139256,NA,236334,235824,1897,229141,NA,237381,1917,NA,133234,237488,237876,237376,237488,New experiment,135,56241,143,yes,1024
94.44444444,94.44444444,393.4583333,393.4583333,black,legacy,legacy,legacy,0,incongruent,uniform,1,undefined,1,h,0,0,0,143,143,0,143,0,143,0,0,0,143,143,143,143,Sun Sep 17 11:03:44 2023,600,The main experiment item,yes,Flankertask.osexp,/Users/Thingtwo/Desktop,no,mono,no,18,no,white,no,yes,768,legacy,63,79,/Users/Thingtwo/Desktop/nc-subject-0.csv,legacy,Lentiform Loewenfeld,3.3.14,0,h,NA,h,NA,h,h,417,NA,4187,NA,6021,417,2,legacy,1024,2,48000,-16,experiment,SSHSS,0,even,6109,139256,NA,237881,235824,1897,229141,NA,238930,1917,NA,133234,239037,239455,238924,239036,New experiment,136,56658,144,yes,1024
94.48275862,94.48275862,393.2344828,393.2344828,black,legacy,legacy,legacy,0,congruent,uniform,1,undefined,1,h,0,0,0,144,144,0,144,0,144,0,0,0,144,144,144,144,Sun Sep 17 11:03:44 2023,600,The main experiment item,yes,Flankertask.osexp,/Users/Thingtwo/Desktop,no,mono,no,18,no,white,no,yes,768,legacy,64,79,/Users/Thingtwo/Desktop/nc-subject-0.csv,legacy,Lentiform Loewenfeld,3.3.14,0,h,NA,h,NA,h,h,361,NA,4187,NA,6021,361,2,legacy,1024,2,48000,-16,experiment,HHHHH,0,even,6109,139256,NA,239460,235824,1897,229141,NA,240511,1917,NA,133234,240617,240979,240504,240617,New experiment,137,57019,145,yes,1024
93.83561644,93.83561644,392.4863014,392.4863014,black,legacy,legacy,legacy,0,congruent,uniform,0,undefined,0,h,0,0,0,145,145,0,145,0,145,0,0,0,145,145,145,145,Sun Sep 17 11:03:44 2023,600,The main experiment item,yes,Flankertask.osexp,/Users/Thingtwo/Desktop,no,mono,no,18,no,white,no,yes,768,legacy,65,79,/Users/Thingtwo/Desktop/nc-subject-0.csv,legacy,Lentiform Loewenfeld,3.3.14,0,s,NA,h,NA,h,s,284,NA,4187,NA,6021,284,2,legacy,1024,2,48000,-16,experiment,HHHHH,0,even,6109,139256,NA,240984,235824,1897,229141,NA,242034,1917,NA,133234,242140,242425,242028,242140,New experiment,137,57303,146,yes,1024
93.87755102,93.87755102,393.7687075,393.7687075,black,legacy,legacy,legacy,0,congruent,uniform,1,undefined,1,s,0,0,0,146,146,0,146,0,146,0,0,0,146,146,146,146,Sun Sep 17 11:03:44 2023,600,The main experiment item,yes,Flankertask.osexp,/Users/Thingtwo/Desktop,no,mono,no,18,no,white,no,yes,768,legacy,66,79,/Users/Thingtwo/Desktop/nc-subject-0.csv,legacy,Lentiform Loewenfeld,3.3.14,0,s,NA,h,NA,h,s,581,NA,4187,NA,6021,581,2,legacy,1024,2,48000,-16,experiment,SSSSS,0,even,6109,139256,NA,242939,242430,1897,229141,NA,243986,1917,NA,133234,244092,244674,243980,244092,New experiment,138,57884,147,yes,1024
93.91891892,93.91891892,393.1148649,393.1148649,black,legacy,legacy,legacy,0,incongruent,uniform,1,undefined,1,h,0,0,0,147,147,0,147,0,147,0,0,0,147,147,147,147,Sun Sep 17 11:03:44 2023,600,The main experiment item,yes,Flankertask.osexp,/Users/Thingtwo/Desktop,no,mono,no,18,no,white,no,yes,768,legacy,67,79,/Users/Thingtwo/Desktop/nc-subject-0.csv,legacy,Lentiform Loewenfeld,3.3.14,0,h,NA,h,NA,h,h,297,NA,4187,NA,6021,297,2,legacy,1024,2,48000,-16,experiment,SSHSS,0,even,6109,139256,NA,244679,242430,1897,229141,NA,245728,1917,NA,133234,245835,246132,245722,245835,New experiment,139,58181,148,yes,1024
93.95973154,93.95973154,392.4228188,392.4228188,black,legacy,legacy,legacy,0,congruent,uniform,1,undefined,1,s,0,0,0,148,148,0,148,0,148,0,0,0,148,148,148,148,Sun Sep 17 11:03:44 2023,600,The main experiment item,yes,Flankertask.osexp,/Users/Thingtwo/Desktop,no,mono,no,18,no,white,no,yes,768,legacy,68,79,/Users/Thingtwo/Desktop/nc-subject-0.csv,legacy,Lentiform Loewenfeld,3.3.14,0,s,NA,h,NA,h,s,290,NA,4187,NA,6021,290,2,legacy,1024,2,48000,-16,experiment,SSSSS,0,even,6109,139256,NA,246137,242430,1897,229141,NA,247185,1917,NA,133234,247291,247582,247178,247291,New experiment,140,58471,149,yes,1024
94,94,392.2333333,392.2333333,black,legacy,legacy,legacy,0,incongruent,uniform,1,undefined,1,s,0,0,0,149,149,0,149,0,149,0,0,0,149,149,149,149,Sun Sep 17 11:03:44 2023,600,The main experiment item,yes,Flankertask.osexp,/Users/Thingtwo/Desktop,no,mono,no,18,no,white,no,yes,768,legacy,69,79,/Users/Thingtwo/Desktop/nc-subject-0.csv,legacy,Lentiform Loewenfeld,3.3.14,0,s,NA,h,NA,h,s,364,NA,4187,NA,6021,364,2,legacy,1024,2,48000,-16,experiment,HHSHH,0,even,6109,139256,NA,247587,242430,1897,229141,NA,248636,1917,NA,133234,248743,249108,248631,248743,New experiment,141,58835,150,yes,1024
94.0397351,94.0397351,392.4966887,392.4966887,black,legacy,legacy,legacy,0,congruent,uniform,1,undefined,1,s,0,0,0,150,150,0,150,0,150,0,0,0,150,150,150,150,Sun Sep 17 11:03:44 2023,600,The main experiment item,yes,Flankertask.osexp,/Users/Thingtwo/Desktop,no,mono,no,18,no,white,no,yes,768,legacy,70,79,/Users/Thingtwo/Desktop/nc-subject-0.csv,legacy,Lentiform Loewenfeld,3.3.14,0,s,NA,h,NA,h,s,432,NA,4187,NA,6021,432,2,legacy,1024,2,48000,-16,experiment,SSSSS,0,even,6109,139256,NA,249113,242430,1897,229141,NA,250160,1917,NA,133234,250267,250700,250155,250267,New experiment,142,59267,151,yes,1024
93.42105263,93.42105263,392.0263158,392.0263158,black,legacy,legacy,legacy,0,incongruent,uniform,0,undefined,0,h,0,0,0,151,151,0,151,0,151,0,0,0,151,151,151,151,Sun Sep 17 11:03:44 2023,600,The main experiment item,yes,Flankertask.osexp,/Users/Thingtwo/Desktop,no,mono,no,18,no,white,no,yes,768,legacy,71,79,/Users/Thingtwo/Desktop/nc-subject-0.csv,legacy,Lentiform Loewenfeld,3.3.14,0,s,NA,h,NA,h,s,321,NA,4187,NA,6021,321,2,legacy,1024,2,48000,-16,experiment,SSHSS,0,even,6109,139256,NA,250705,242430,1897,229141,NA,251753,1917,NA,133234,251860,252182,251747,251859,New experiment,142,59588,152,yes,1024
93.46405229,93.46405229,391.496732,391.496732,black,legacy,legacy,legacy,0,incongruent,uniform,1,undefined,1,s,0,0,0,152,152,0,152,0,152,0,0,0,152,152,152,152,Sun Sep 17 11:03:44 2023,600,The main experiment item,yes,Flankertask.osexp,/Users/Thingtwo/Desktop,no,mono,no,18,no,white,no,yes,768,legacy,72,79,/Users/Thingtwo/Desktop/nc-subject-0.csv,legacy,Lentiform Loewenfeld,3.3.14,0,s,NA,h,NA,h,s,311,NA,4187,NA,6021,311,2,legacy,1024,2,48000,-16,experiment,HHSHH,0,even,6109,139256,NA,252696,252187,1897,229141,NA,253745,1917,NA,133234,253852,254164,253739,253852,New experiment,143,59899,153,yes,1024
93.50649351,93.50649351,392,392,black,legacy,legacy,legacy,0,congruent,uniform,1,undefined,1,h,0,0,0,153,153,0,153,0,153,0,0,0,153,153,153,153,Sun Sep 17 11:03:44 2023,600,The main experiment item,yes,Flankertask.osexp,/Users/Thingtwo/Desktop,no,mono,no,18,no,white,no,yes,768,legacy,73,79,/Users/Thingtwo/Desktop/nc-subject-0.csv,legacy,Lentiform Loewenfeld,3.3.14,0,h,NA,h,NA,h,h,469,NA,4187,NA,6021,469,2,legacy,1024,2,48000,-16,experiment,HHHHH,0,even,6109,139256,NA,254169,252187,1897,229141,NA,255217,1917,NA,133234,255323,255793,255211,255323,New experiment,144,60368,154,yes,1024
93.5483871,93.5483871,391.9483871,391.9483871,black,legacy,legacy,legacy,0,incongruent,uniform,1,undefined,1,s,0,0,0,154,154,0,154,0,154,0,0,0,154,154,154,154,Sun Sep 17 11:03:44 2023,600,The main experiment item,yes,Flankertask.osexp,/Users/Thingtwo/Desktop,no,mono,no,18,no,white,no,yes,768,legacy,74,79,/Users/Thingtwo/Desktop/nc-subject-0.csv,legacy,Lentiform Loewenfeld,3.3.14,0,s,NA,h,NA,h,s,384,NA,4187,NA,6021,384,2,legacy,1024,2,48000,-16,experiment,HHSHH,0,even,6109,139256,NA,255798,252187,1897,229141,NA,256849,1917,NA,133234,256956,257341,256842,256956,New experiment,145,60752,155,yes,1024
93.58974359,93.58974359,391.1217949,391.1217949,black,legacy,legacy,legacy,0,congruent,uniform,1,undefined,1,h,0,0,0,155,155,0,155,0,155,0,0,0,155,155,155,155,Sun Sep 17 11:03:44 2023,600,The main experiment item,yes,Flankertask.osexp,/Users/Thingtwo/Desktop,no,mono,no,18,no,white,no,yes,768,legacy,75,79,/Users/Thingtwo/Desktop/nc-subject-0.csv,legacy,Lentiform Loewenfeld,3.3.14,0,h,NA,h,NA,h,h,263,NA,4187,NA,6021,263,2,legacy,1024,2,48000,-16,experiment,HHHHH,0,even,6109,139256,NA,257346,252187,1897,229141,NA,258395,1917,NA,133234,258502,258766,258390,258501,New experiment,146,61015,156,yes,1024
93.63057325,93.63057325,391.3566879,391.3566879,black,legacy,legacy,legacy,0,congruent,uniform,1,undefined,1,h,0,0,0,156,156,0,156,0,156,0,0,0,156,156,156,156,Sun Sep 17 11:03:44 2023,600,The main experiment item,yes,Flankertask.osexp,/Users/Thingtwo/Desktop,no,mono,no,18,no,white,no,yes,768,legacy,76,79,/Users/Thingtwo/Desktop/nc-subject-0.csv,legacy,Lentiform Loewenfeld,3.3.14,0,h,NA,h,NA,h,h,428,NA,4187,NA,6021,428,2,legacy,1024,2,48000,-16,experiment,HHHHH,0,even,6109,139256,NA,258771,252187,1897,229141,NA,259823,1917,NA,133234,259930,260359,259816,259930,New experiment,147,61443,157,yes,1024
93.67088608,93.67088608,391.1708861,391.1708861,black,legacy,legacy,legacy,0,incongruent,uniform,1,undefined,1,s,0,0,0,157,157,0,157,0,157,0,0,0,157,157,157,157,Sun Sep 17 11:03:44 2023,600,The main experiment item,yes,Flankertask.osexp,/Users/Thingtwo/Desktop,no,mono,no,18,no,white,no,yes,768,legacy,77,79,/Users/Thingtwo/Desktop/nc-subject-0.csv,legacy,Lentiform Loewenfeld,3.3.14,0,s,NA,h,NA,h,s,362,NA,4187,NA,6021,362,2,legacy,1024,2,48000,-16,experiment,HHSHH,0,even,6109,139256,NA,260364,252187,1897,229141,NA,261412,1917,NA,133234,261518,261881,261406,261518,New experiment,148,61805,158,yes,1024
93.71069182,93.71069182,391.163522,391.163522,black,legacy,legacy,legacy,0,incongruent,uniform,1,undefined,1,h,0,0,0,158,158,0,158,0,158,0,0,0,158,158,158,158,Sun Sep 17 11:03:44 2023,600,The main experiment item,yes,Flankertask.osexp,/Users/Thingtwo/Desktop,no,mono,no,18,no,white,no,yes,768,legacy,78,79,/Users/Thingtwo/Desktop/nc-subject-0.csv,legacy,Lentiform Loewenfeld,3.3.14,0,h,NA,h,NA,h,h,390,NA,4187,NA,6021,390,2,legacy,1024,2,48000,-16,experiment,SSHSS,0,even,6109,139256,NA,261886,252187,1897,229141,NA,262935,1917,NA,133234,263041,263432,262929,263041,New experiment,149,62195,159,yes,1024
93.75,93.75,391.31875,391.31875,black,legacy,legacy,legacy,0,incongruent,uniform,1,undefined,1,s,0,0,0,159,159,0,159,0,159,0,0,0,159,159,159,159,Sun Sep 17 11:03:44 2023,600,The main experiment item,yes,Flankertask.osexp,/Users/Thingtwo/Desktop,no,mono,no,18,no,white,no,yes,768,legacy,79,79,/Users/Thingtwo/Desktop/nc-subject-0.csv,legacy,Lentiform Loewenfeld,3.3.14,0,s,NA,h,NA,h,s,416,NA,4187,NA,6021,416,2,legacy,1024,2,48000,-16,experiment,HHSHH,0,even,6109,139256,NA,263437,252187,1897,229141,NA,264487,1917,NA,133234,264593,265010,264481,264593,New experiment,150,62611,160,yes,1024
93.78881988,93.78881988,393.1677019,393.1677019,black,legacy,legacy,legacy,0,incongruent,uniform,1,undefined,1,s,0,0,0,160,160,0,160,0,160,0,0,0,160,160,160,160,Sun Sep 17 11:03:44 2023,300,The main experiment item,yes,Flankertask.osexp,/Users/Thingtwo/Desktop,no,mono,no,18,no,white,no,yes,768,legacy,0,79,/Users/Thingtwo/Desktop/nc-subject-0.csv,legacy,Lentiform Loewenfeld,3.3.14,0,s,NA,h,h,h,s,689,NA,4187,108044,6021,689,2,legacy,1024,2,48000,-16,experiment,HHSHH,0,even,6109,139256,374088,265015,252187,1897,229141,NA,374111,1917,266043,133234,374216,374905,374107,374216,New experiment,151,63300,161,yes,1024
93.82716049,93.82716049,393.0679012,393.0679012,black,legacy,legacy,legacy,0,congruent,uniform,1,undefined,1,s,0,0,0,161,161,0,161,0,161,0,0,0,161,161,161,161,Sun Sep 17 11:03:44 2023,300,The main experiment item,yes,Flankertask.osexp,/Users/Thingtwo/Desktop,no,mono,no,18,no,white,no,yes,768,legacy,1,79,/Users/Thingtwo/Desktop/nc-subject-0.csv,legacy,Lentiform Loewenfeld,3.3.14,0,s,NA,h,h,h,s,377,NA,4187,108044,6021,377,2,legacy,1024,2,48000,-16,experiment,SSSSS,0,even,6109,139256,374088,375419,252187,1897,374910,NA,376472,1917,266043,133234,376578,376956,376464,376578,New experiment,152,63677,162,yes,1024
93.25153374,93.25153374,392.7668712,392.7668712,black,legacy,legacy,legacy,0,incongruent,uniform,0,undefined,0,h,0,0,0,162,162,0,162,0,162,0,0,0,162,162,162,162,Sun Sep 17 11:03:44 2023,300,The main experiment item,yes,Flankertask.osexp,/Users/Thingtwo/Desktop,no,mono,no,18,no,white,no,yes,768,legacy,2,79,/Users/Thingtwo/Desktop/nc-subject-0.csv,legacy,Lentiform Loewenfeld,3.3.14,0,s,NA,h,h,h,s,344,NA,4187,108044,6021,344,2,legacy,1024,2,48000,-16,experiment,SSHSS,0,even,6109,139256,374088,377470,252187,1897,376961,NA,378519,1917,266043,133234,378626,378971,378513,378625,New experiment,152,64021,163,yes,1024
93.29268293,93.29268293,392.6036585,392.6036585,black,legacy,legacy,legacy,0,incongruent,uniform,1,undefined,1,h,0,0,0,163,163,0,163,0,163,0,0,0,163,163,163,163,Sun Sep 17 11:03:44 2023,300,The main experiment item,yes,Flankertask.osexp,/Users/Thingtwo/Desktop,no,mono,no,18,no,white,no,yes,768,legacy,3,79,/Users/Thingtwo/Desktop/nc-subject-0.csv,legacy,Lentiform Loewenfeld,3.3.14,0,h,NA,h,h,h,h,366,NA,4187,108044,6021,366,2,legacy,1024,2,48000,-16,experiment,SSHSS,0,even,6109,139256,374088,379993,378975,1897,379484,NA,381040,1917,266043,133234,381147,381514,381035,381147,New experiment,153,64387,164,yes,1024
93.33333333,93.33333333,391.769697,391.769697,black,legacy,legacy,legacy,0,congruent,uniform,1,undefined,1,h,0,0,0,164,164,0,164,0,164,0,0,0,164,164,164,164,Sun Sep 17 11:03:44 2023,300,The main experiment item,yes,Flankertask.osexp,/Users/Thingtwo/Desktop,no,mono,no,18,no,white,no,yes,768,legacy,4,79,/Users/Thingtwo/Desktop/nc-subject-0.csv,legacy,Lentiform Loewenfeld,3.3.14,0,h,NA,h,h,h,h,255,NA,4187,108044,6021,255,2,legacy,1024,2,48000,-16,experiment,HHHHH,0,even,6109,139256,374088,382030,378975,1897,381519,NA,383079,1917,266043,133234,383186,383442,383073,383186,New experiment,154,64642,165,yes,1024
93.37349398,93.37349398,390.7891566,390.7891566,black,legacy,legacy,legacy,0,congruent,uniform,1,undefined,1,h,0,0,0,165,165,0,165,0,165,0,0,0,165,165,165,165,Sun Sep 17 11:03:44 2023,300,The main experiment item,yes,Flankertask.osexp,/Users/Thingtwo/Desktop,no,mono,no,18,no,white,no,yes,768,legacy,5,79,/Users/Thingtwo/Desktop/nc-subject-0.csv,legacy,Lentiform Loewenfeld,3.3.14,0,h,NA,h,h,h,h,229,NA,4187,108044,6021,229,2,legacy,1024,2,48000,-16,experiment,HHHHH,0,even,6109,139256,374088,383447,378975,1897,381519,NA,384497,1917,266043,133234,384604,384834,384489,384604,New experiment,155,64871,166,yes,1024
92.81437126,92.81437126,389.8682635,389.8682635,black,legacy,legacy,legacy,0,congruent,uniform,0,undefined,0,s,0,0,0,166,166,0,166,0,166,0,0,0,166,166,166,166,Sun Sep 17 11:03:44 2023,300,The main experiment item,yes,Flankertask.osexp,/Users/Thingtwo/Desktop,no,mono,no,18,no,white,no,yes,768,legacy,6,79,/Users/Thingtwo/Desktop/nc-subject-0.csv,legacy,Lentiform Loewenfeld,3.3.14,0,h,NA,h,h,h,h,237,NA,4187,108044,6021,237,2,legacy,1024,2,48000,-16,experiment,SSSSS,0,even,6109,139256,374088,384839,378975,1897,381519,NA,385891,1917,266043,133234,385998,386236,385884,385997,New experiment,155,65108,167,yes,1024
92.85714286,92.85714286,388.7202381,388.7202381,black,legacy,legacy,legacy,0,congruent,uniform,1,undefined,1,h,0,0,0,167,167,0,167,0,167,0,0,0,167,167,167,167,Sun Sep 17 11:03:44 2023,300,The main experiment item,yes,Flankertask.osexp,/Users/Thingtwo/Desktop,no,mono,no,18,no,white,no,yes,768,legacy,7,79,/Users/Thingtwo/Desktop/nc-subject-0.csv,legacy,Lentiform Loewenfeld,3.3.14,0,h,NA,h,h,h,h,197,NA,4187,108044,6021,197,2,legacy,1024,2,48000,-16,experiment,HHHHH,0,even,6109,139256,374088,386752,386241,1897,381519,NA,387799,1917,266043,133234,387905,388103,387793,387905,New experiment,156,65305,168,yes,1024
