acc,accuracy,average_response_time,avg_rt,background,canvas_backend,clock_backend,color_backend,compensation,condition,coordinates,correct,correct_instructions1,correct_keyboard_response,correct_response,count_Block1,count_Block2,count_Block3,count_ISI,count_errorFeedback,count_experiment,count_faster,count_finish,count_fixation,count_getting_started,count_instructions1,count_instructions2,count_instructions3,count_keyboard_response,count_new_logger,count_new_sketchpad,count_sequence,count_stimulus,datetime,deadline,description,disable_garbage_collection,experiment_file,experiment_path,font_bold,font_family,font_italic,font_size,font_underline,foreground,form_clicks,fullscreen,height,keyboard_backend,live_row,live_row_Block1,logfile,mouse_backend,opensesame_codename,opensesame_version,repeat_cycle,response,response_finish,response_instructions1,response_instructions2,response_instructions3,response_keyboard_response,response_new_sketchpad,response_time,response_time_finish,response_time_instructions1,response_time_instructions2,response_time_instructions3,response_time_keyboard_response,response_time_new_sketchpad,round_decimals,sampler_backend,sound_buf_size,sound_channels,sound_freq,sound_sample_size,start,stimulus,subject_nr,subject_parity,time_Block1,time_Block2,time_Block3,time_ISI,time_errorFeedback,time_experiment,time_faster,time_finish,time_fixation,time_getting_started,time_instructions1,time_instructions2,time_instructions3,time_keyboard_response,time_new_logger,time_new_sketchpad,time_sequence,time_stimulus,title,total_correct,total_response_time,total_responses,uniform_coordinates,width
100,100,1020,1020,black,legacy,legacy,legacy,0,incongruent,uniform,1,undefined,1,s,0,0,0,0,0,0,0,0,0,0,0,0,0,0,0,NA,0,0,Sat Sep 28 15:16:31 2019,1500,The main experiment item,yes,FlankerTask.osexp,/Users/danielrazo0311/Desktop,no,mono,no,18,no,white,no,yes,768,legacy,0,0,/Users/danielrazo0311/Desktop/subject-3.csv,legacy,Kafkaesque Koffka,3.2.8,0,s,NA,s,NA,NA,s,NA,1020,NA,56743,NA,NA,1020,NA,2,legacy,1024,2,48000,-16,experiment,HHSHH,3,odd,63389,NA,NA,NA,NA,6538,NA,NA,63568,NA,6561,NA,NA,63683,64705,NA,63555,63682,Flanker Task,1,1020,1,yes,1024
100,100,792,792,black,legacy,legacy,legacy,0,congruent,uniform,1,undefined,1,s,0,0,0,1,1,0,1,0,1,0,0,0,0,1,1,NA,1,1,Sat Sep 28 15:16:31 2019,1500,The main experiment item,yes,FlankerTask.osexp,/Users/danielrazo0311/Desktop,no,mono,no,18,no,white,no,yes,768,legacy,1,1,/Users/danielrazo0311/Desktop/subject-3.csv,legacy,Kafkaesque Koffka,3.2.8,0,s,NA,s,NA,NA,s,NA,564,NA,56743,NA,NA,564,NA,2,legacy,1024,2,48000,-16,experiment,SSSSS,3,odd,63389,NA,NA,64729,NA,6538,NA,NA,65873,NA,6561,NA,NA,65987,66553,NA,65860,65986,Flanker Task,2,1584,2,yes,1024
100,100,710,710,black,legacy,legacy,legacy,0,incongruent,uniform,1,undefined,1,s,0,0,0,2,2,0,2,0,2,0,0,0,0,2,2,NA,2,2,Sat Sep 28 15:16:31 2019,1500,The main experiment item,yes,FlankerTask.osexp,/Users/danielrazo0311/Desktop,no,mono,no,18,no,white,no,yes,768,legacy,2,2,/Users/danielrazo0311/Desktop/subject-3.csv,legacy,Kafkaesque Koffka,3.2.8,0,s,NA,s,NA,NA,s,NA,546,NA,56743,NA,NA,546,NA,2,legacy,1024,2,48000,-16,experiment,HHSHH,3,odd,63389,NA,NA,66569,NA,6538,NA,NA,67700,NA,6561,NA,NA,67813,68361,NA,67687,67813,Flanker Task,3,2130,3,yes,1024
100,100,677.25,677.25,black,legacy,legacy,legacy,0,congruent,uniform,1,undefined,1,h,0,0,0,3,3,0,3,0,3,0,0,0,0,3,3,NA,3,3,Sat Sep 28 15:16:31 2019,1500,The main experiment item,yes,FlankerTask.osexp,/Users/danielrazo0311/Desktop,no,mono,no,18,no,white,no,yes,768,legacy,3,3,/Users/danielrazo0311/Desktop/subject-3.csv,legacy,Kafkaesque Koffka,3.2.8,0,h,NA,s,NA,NA,h,NA,579,NA,56743,NA,NA,579,NA,2,legacy,1024,2,48000,-16,experiment,HHHHH,3,odd,63389,NA,NA,68376,NA,6538,NA,NA,69506,NA,6561,NA,NA,69620,70201,NA,69494,69619,Flanker Task,4,2709,4,yes,1024
100,100,628.4,628.4,black,legacy,legacy,legacy,0,incongruent,uniform,1,undefined,1,s,0,0,0,4,4,0,4,0,4,0,0,0,0,4,4,NA,4,4,Sat Sep 28 15:16:31 2019,1500,The main experiment item,yes,FlankerTask.osexp,/Users/danielrazo0311/Desktop,no,mono,no,18,no,white,no,yes,768,legacy,4,4,/Users/danielrazo0311/Desktop/subject-3.csv,legacy,Kafkaesque Koffka,3.2.8,0,s,NA,s,NA,NA,s,NA,433,NA,56743,NA,NA,433,NA,2,legacy,1024,2,48000,-16,experiment,HHSHH,3,odd,63389,NA,NA,70216,NA,6538,NA,NA,71348,NA,6561,NA,NA,71463,71898,NA,71336,71463,Flanker Task,5,3142,5,yes,1024
100,100,604,604,black,legacy,legacy,legacy,0,congruent,uniform,1,undefined,1,s,0,0,0,5,5,0,5,0,5,0,0,0,0,5,5,NA,5,5,Sat Sep 28 15:16:31 2019,1500,The main experiment item,yes,FlankerTask.osexp,/Users/danielrazo0311/Desktop,no,mono,no,18,no,white,no,yes,768,legacy,5,5,/Users/danielrazo0311/Desktop/subject-3.csv,legacy,Kafkaesque Koffka,3.2.8,0,s,NA,s,NA,NA,s,NA,482,NA,56743,NA,NA,482,NA,2,legacy,1024,2,48000,-16,experiment,SSSSS,3,odd,63389,NA,NA,71914,NA,6538,NA,NA,73043,NA,6561,NA,NA,73157,73641,NA,73030,73156,Flanker Task,6,3624,6,yes,1024
100,100,590,590,black,legacy,legacy,legacy,0,congruent,uniform,1,undefined,1,h,0,0,0,6,6,0,6,0,6,0,0,0,0,6,6,NA,6,6,Sat Sep 28 15:16:31 2019,1500,The main experiment item,yes,FlankerTask.osexp,/Users/danielrazo0311/Desktop,no,mono,no,18,no,white,no,yes,768,legacy,6,6,/Users/danielrazo0311/Desktop/subject-3.csv,legacy,Kafkaesque Koffka,3.2.8,0,h,NA,s,NA,NA,h,NA,506,NA,56743,NA,NA,506,NA,2,legacy,1024,2,48000,-16,experiment,HHHHH,3,odd,63389,NA,NA,73656,NA,6538,NA,NA,74788,NA,6561,NA,NA,74901,75409,NA,74774,74901,Flanker Task,7,4130,7,yes,1024
100,100,576.5,576.5,black,legacy,legacy,legacy,0,congruent,uniform,1,undefined,1,s,0,0,0,7,7,0,7,0,7,0,0,0,0,7,7,NA,7,7,Sat Sep 28 15:16:31 2019,1500,The main experiment item,yes,FlankerTask.osexp,/Users/danielrazo0311/Desktop,no,mono,no,18,no,white,no,yes,768,legacy,7,7,/Users/danielrazo0311/Desktop/subject-3.csv,legacy,Kafkaesque Koffka,3.2.8,0,s,NA,s,NA,NA,s,NA,482,NA,56743,NA,NA,482,NA,2,legacy,1024,2,48000,-16,experiment,SSSSS,3,odd,63389,NA,NA,75461,NA,6538,NA,NA,76591,NA,6561,NA,NA,76709,77193,NA,76579,76709,Flanker Task,8,4612,8,yes,1024
100,100,575.4444444,575.4444444,black,legacy,legacy,legacy,0,incongruent,uniform,1,undefined,1,h,0,0,0,8,8,0,8,0,8,0,0,0,0,8,8,NA,8,8,Sat Sep 28 15:16:31 2019,1500,The main experiment item,yes,FlankerTask.osexp,/Users/danielrazo0311/Desktop,no,mono,no,18,no,white,no,yes,768,legacy,8,8,/Users/danielrazo0311/Desktop/subject-3.csv,legacy,Kafkaesque Koffka,3.2.8,0,h,NA,s,NA,NA,h,NA,567,NA,56743,NA,NA,567,NA,2,legacy,1024,2,48000,-16,experiment,SSHSS,3,odd,63389,NA,NA,77208,NA,6538,NA,NA,78338,NA,6561,NA,NA,78456,79025,NA,78326,78456,Flanker Task,9,5179,9,yes,1024
100,100,576.1,576.1,black,legacy,legacy,legacy,0,congruent,uniform,1,undefined,1,h,0,0,0,9,9,0,9,0,9,0,0,0,0,9,9,NA,9,9,Sat Sep 28 15:16:31 2019,1500,The main experiment item,yes,FlankerTask.osexp,/Users/danielrazo0311/Desktop,no,mono,no,18,no,white,no,yes,768,legacy,9,9,/Users/danielrazo0311/Desktop/subject-3.csv,legacy,Kafkaesque Koffka,3.2.8,0,h,NA,s,NA,NA,h,NA,582,NA,56743,NA,NA,582,NA,2,legacy,1024,2,48000,-16,experiment,HHHHH,3,odd,63389,NA,NA,79040,NA,6538,NA,NA,80170,NA,6561,NA,NA,80282,80866,NA,80158,80282,Flanker Task,10,5761,10,yes,1024
100,100,572.1818182,572.1818182,black,legacy,legacy,legacy,0,congruent,uniform,1,undefined,1,h,0,0,0,10,10,0,10,0,10,0,0,0,0,10,10,NA,10,10,Sat Sep 28 15:16:31 2019,1500,The main experiment item,yes,FlankerTask.osexp,/Users/danielrazo0311/Desktop,no,mono,no,18,no,white,no,yes,768,legacy,10,10,/Users/danielrazo0311/Desktop/subject-3.csv,legacy,Kafkaesque Koffka,3.2.8,0,h,NA,s,NA,NA,h,NA,533,NA,56743,NA,NA,533,NA,2,legacy,1024,2,48000,-16,experiment,HHHHH,3,odd,63389,NA,NA,80887,NA,6538,NA,NA,82016,NA,6561,NA,NA,82130,82665,NA,82004,82130,Flanker Task,11,6294,11,yes,1024
100,100,558.5,558.5,black,legacy,legacy,legacy,0,congruent,uniform,1,undefined,1,h,0,0,0,11,11,0,11,0,11,0,0,0,0,11,11,NA,11,11,Sat Sep 28 15:16:31 2019,1500,The main experiment item,yes,FlankerTask.osexp,/Users/danielrazo0311/Desktop,no,mono,no,18,no,white,no,yes,768,legacy,11,11,/Users/danielrazo0311/Desktop/subject-3.csv,legacy,Kafkaesque Koffka,3.2.8,0,h,NA,s,NA,NA,h,NA,408,NA,56743,NA,NA,408,NA,2,legacy,1024,2,48000,-16,experiment,HHHHH,3,odd,63389,NA,NA,82681,NA,6538,NA,NA,83812,NA,6561,NA,NA,83927,84337,NA,83799,83927,Flanker Task,12,6702,12,yes,1024
100,100,546.1538462,546.1538462,black,legacy,legacy,legacy,0,congruent,uniform,1,undefined,1,s,0,0,0,12,12,0,12,0,12,0,0,0,0,12,12,NA,12,12,Sat Sep 28 15:16:31 2019,1500,The main experiment item,yes,FlankerTask.osexp,/Users/danielrazo0311/Desktop,no,mono,no,18,no,white,no,yes,768,legacy,12,12,/Users/danielrazo0311/Desktop/subject-3.csv,legacy,Kafkaesque Koffka,3.2.8,0,s,NA,s,NA,NA,s,NA,398,NA,56743,NA,NA,398,NA,2,legacy,1024,2,48000,-16,experiment,SSSSS,3,odd,63389,NA,NA,84352,NA,6538,NA,NA,85482,NA,6561,NA,NA,85594,85994,NA,85470,85594,Flanker Task,13,7100,13,yes,1024
100,100,539.4285714,539.4285714,black,legacy,legacy,legacy,0,incongruent,uniform,1,undefined,1,s,0,0,0,13,13,0,13,0,13,0,0,0,0,13,13,NA,13,13,Sat Sep 28 15:16:31 2019,1500,The main experiment item,yes,FlankerTask.osexp,/Users/danielrazo0311/Desktop,no,mono,no,18,no,white,no,yes,768,legacy,13,13,/Users/danielrazo0311/Desktop/subject-3.csv,legacy,Kafkaesque Koffka,3.2.8,0,s,NA,s,NA,NA,s,NA,452,NA,56743,NA,NA,452,NA,2,legacy,1024,2,48000,-16,experiment,HHSHH,3,odd,63389,NA,NA,86008,NA,6538,NA,NA,87139,NA,6561,NA,NA,87251,87705,NA,87126,87251,Flanker Task,14,7552,14,yes,1024
100,100,532.9333333,532.9333333,black,legacy,legacy,legacy,0,congruent,uniform,1,undefined,1,h,0,0,0,14,14,0,14,0,14,0,0,0,0,14,14,NA,14,14,Sat Sep 28 15:16:31 2019,1500,The main experiment item,yes,FlankerTask.osexp,/Users/danielrazo0311/Desktop,no,mono,no,18,no,white,no,yes,768,legacy,14,14,/Users/danielrazo0311/Desktop/subject-3.csv,legacy,Kafkaesque Koffka,3.2.8,0,h,NA,s,NA,NA,h,NA,442,NA,56743,NA,NA,442,NA,2,legacy,1024,2,48000,-16,experiment,HHHHH,3,odd,63389,NA,NA,87720,NA,6538,NA,NA,88851,NA,6561,NA,NA,88965,89409,NA,88838,88965,Flanker Task,15,7994,15,yes,1024
93.75,93.75,530,530,black,legacy,legacy,legacy,0,incongruent,uniform,0,undefined,0,h,0,0,0,15,15,0,15,0,15,0,0,0,0,15,15,NA,15,15,Sat Sep 28 15:16:31 2019,1500,The main experiment item,yes,FlankerTask.osexp,/Users/danielrazo0311/Desktop,no,mono,no,18,no,white,no,yes,768,legacy,15,15,/Users/danielrazo0311/Desktop/subject-3.csv,legacy,Kafkaesque Koffka,3.2.8,0,s,NA,s,NA,NA,s,NA,486,NA,56743,NA,NA,486,NA,2,legacy,1024,2,48000,-16,experiment,SSHSS,3,odd,63389,NA,NA,89424,NA,6538,NA,NA,90553,NA,6561,NA,NA,90665,91153,NA,90541,90665,Flanker Task,15,8480,16,yes,1024
94.11764706,94.11764706,535.4117647,535.4117647,black,legacy,legacy,legacy,0,incongruent,uniform,1,undefined,1,h,0,0,0,16,16,0,16,0,16,0,0,0,0,16,16,NA,16,16,Sat Sep 28 15:16:31 2019,1500,The main experiment item,yes,FlankerTask.osexp,/Users/danielrazo0311/Desktop,no,mono,no,18,no,white,no,yes,768,legacy,16,16,/Users/danielrazo0311/Desktop/subject-3.csv,legacy,Kafkaesque Koffka,3.2.8,0,h,NA,s,NA,NA,h,NA,622,NA,56743,NA,NA,622,NA,2,legacy,1024,2,48000,-16,experiment,SSHSS,3,odd,63389,NA,NA,91683,91168,6538,NA,NA,92814,NA,6561,NA,NA,92929,93553,NA,92801,92929,Flanker Task,16,9102,17,yes,1024
94.44444444,94.44444444,534.1666667,534.1666667,black,legacy,legacy,legacy,0,congruent,uniform,1,undefined,1,h,0,0,0,17,17,0,17,0,17,0,0,0,0,17,17,NA,17,17,Sat Sep 28 15:16:31 2019,1500,The main experiment item,yes,FlankerTask.osexp,/Users/danielrazo0311/Desktop,no,mono,no,18,no,white,no,yes,768,legacy,17,17,/Users/danielrazo0311/Desktop/subject-3.csv,legacy,Kafkaesque Koffka,3.2.8,0,h,NA,s,NA,NA,h,NA,513,NA,56743,NA,NA,513,NA,2,legacy,1024,2,48000,-16,experiment,HHHHH,3,odd,63389,NA,NA,93568,91168,6538,NA,NA,94699,NA,6561,NA,NA,94813,95329,NA,94687,94813,Flanker Task,17,9615,18,yes,1024
94.73684211,94.73684211,536.0526316,536.0526316,black,legacy,legacy,legacy,0,incongruent,uniform,1,undefined,1,s,0,0,0,18,18,0,18,0,18,0,0,0,0,18,18,NA,18,18,Sat Sep 28 15:16:31 2019,1500,The main experiment item,yes,FlankerTask.osexp,/Users/danielrazo0311/Desktop,no,mono,no,18,no,white,no,yes,768,legacy,18,18,/Users/danielrazo0311/Desktop/subject-3.csv,legacy,Kafkaesque Koffka,3.2.8,0,s,NA,s,NA,NA,s,NA,570,NA,56743,NA,NA,570,NA,2,legacy,1024,2,48000,-16,experiment,HHSHH,3,odd,63389,NA,NA,95344,91168,6538,NA,NA,96475,NA,6561,NA,NA,96588,97161,NA,96463,96588,Flanker Task,18,10185,19,yes,1024
95,95,538.95,538.95,black,legacy,legacy,legacy,0,incongruent,uniform,1,undefined,1,h,0,0,0,19,19,0,19,0,19,0,0,0,0,19,19,NA,19,19,Sat Sep 28 15:16:31 2019,1500,The main experiment item,yes,FlankerTask.osexp,/Users/danielrazo0311/Desktop,no,mono,no,18,no,white,no,yes,768,legacy,19,19,/Users/danielrazo0311/Desktop/subject-3.csv,legacy,Kafkaesque Koffka,3.2.8,0,h,NA,s,NA,NA,h,NA,594,NA,56743,NA,NA,594,NA,2,legacy,1024,2,48000,-16,experiment,SSHSS,3,odd,63389,NA,NA,97176,91168,6538,NA,NA,98306,NA,6561,NA,NA,98420,99017,NA,98294,98420,Flanker Task,19,10779,20,yes,1024
95.23809524,95.23809524,539.6666667,539.6666667,black,legacy,legacy,legacy,0,incongruent,uniform,1,undefined,1,h,0,0,0,20,20,0,20,0,20,0,0,0,0,20,20,NA,20,20,Sat Sep 28 15:16:31 2019,1500,The main experiment item,yes,FlankerTask.osexp,/Users/danielrazo0311/Desktop,no,mono,no,18,no,white,no,yes,768,legacy,20,20,/Users/danielrazo0311/Desktop/subject-3.csv,legacy,Kafkaesque Koffka,3.2.8,0,h,NA,s,NA,NA,h,NA,554,NA,56743,NA,NA,554,NA,2,legacy,1024,2,48000,-16,experiment,SSHSS,3,odd,63389,NA,NA,99032,91168,6538,NA,NA,100162,NA,6561,NA,NA,100276,100833,NA,100150,100275,Flanker Task,20,11333,21,yes,1024
95.45454545,95.45454545,541,541,black,legacy,legacy,legacy,0,congruent,uniform,1,undefined,1,h,0,0,0,21,21,0,21,0,21,0,0,0,0,21,21,NA,21,21,Sat Sep 28 15:16:31 2019,1500,The main experiment item,yes,FlankerTask.osexp,/Users/danielrazo0311/Desktop,no,mono,no,18,no,white,no,yes,768,legacy,21,21,/Users/danielrazo0311/Desktop/subject-3.csv,legacy,Kafkaesque Koffka,3.2.8,0,h,NA,s,NA,NA,h,NA,569,NA,56743,NA,NA,569,NA,2,legacy,1024,2,48000,-16,experiment,HHHHH,3,odd,63389,NA,NA,100848,91168,6538,NA,NA,101979,NA,6561,NA,NA,102093,102665,NA,101966,102093,Flanker Task,21,11902,22,yes,1024
95.65217391,95.65217391,538.8695652,538.8695652,black,legacy,legacy,legacy,0,congruent,uniform,1,undefined,1,s,0,0,0,22,22,0,22,0,22,0,0,0,0,22,22,NA,22,22,Sat Sep 28 15:16:31 2019,1500,The main experiment item,yes,FlankerTask.osexp,/Users/danielrazo0311/Desktop,no,mono,no,18,no,white,no,yes,768,legacy,22,22,/Users/danielrazo0311/Desktop/subject-3.csv,legacy,Kafkaesque Koffka,3.2.8,0,s,NA,s,NA,NA,s,NA,492,NA,56743,NA,NA,492,NA,2,legacy,1024,2,48000,-16,experiment,SSSSS,3,odd,63389,NA,NA,102704,91168,6538,NA,NA,103834,NA,6561,NA,NA,103946,104440,NA,103822,103946,Flanker Task,22,12394,23,yes,1024
95.83333333,95.83333333,539.7083333,539.7083333,black,legacy,legacy,legacy,0,incongruent,uniform,1,undefined,1,h,0,0,0,23,23,0,23,0,23,0,0,0,0,23,23,NA,23,23,Sat Sep 28 15:16:31 2019,1500,The main experiment item,yes,FlankerTask.osexp,/Users/danielrazo0311/Desktop,no,mono,no,18,no,white,no,yes,768,legacy,23,23,/Users/danielrazo0311/Desktop/subject-3.csv,legacy,Kafkaesque Koffka,3.2.8,0,h,NA,s,NA,NA,h,NA,559,NA,56743,NA,NA,559,NA,2,legacy,1024,2,48000,-16,experiment,SSHSS,3,odd,63389,NA,NA,104456,91168,6538,NA,NA,105588,NA,6561,NA,NA,105703,106264,NA,105575,105703,Flanker Task,23,12953,24,yes,1024
96,96,541.44,541.44,black,legacy,legacy,legacy,0,incongruent,uniform,1,undefined,1,s,0,0,0,24,24,0,24,0,24,0,0,0,0,24,24,NA,24,24,Sat Sep 28 15:16:31 2019,1500,The main experiment item,yes,FlankerTask.osexp,/Users/danielrazo0311/Desktop,no,mono,no,18,no,white,no,yes,768,legacy,24,24,/Users/danielrazo0311/Desktop/subject-3.csv,legacy,Kafkaesque Koffka,3.2.8,0,s,NA,s,NA,NA,s,NA,583,NA,56743,NA,NA,583,NA,2,legacy,1024,2,48000,-16,experiment,HHSHH,3,odd,63389,NA,NA,106338,91168,6538,NA,NA,107468,NA,6561,NA,NA,107583,108168,NA,107456,107583,Flanker Task,24,13536,25,yes,1024
96.15384615,96.15384615,536.3461538,536.3461538,black,legacy,legacy,legacy,0,incongruent,uniform,1,undefined,1,s,0,0,0,25,25,0,25,0,25,0,0,0,0,25,25,NA,25,25,Sat Sep 28 15:16:31 2019,1500,The main experiment item,yes,FlankerTask.osexp,/Users/danielrazo0311/Desktop,no,mono,no,18,no,white,no,yes,768,legacy,25,25,/Users/danielrazo0311/Desktop/subject-3.csv,legacy,Kafkaesque Koffka,3.2.8,0,s,NA,s,NA,NA,s,NA,409,NA,56743,NA,NA,409,NA,2,legacy,1024,2,48000,-16,experiment,HHSHH,3,odd,63389,NA,NA,108184,91168,6538,NA,NA,109315,NA,6561,NA,NA,109429,109840,NA,109302,109429,Flanker Task,25,13945,26,yes,1024
96.2962963,96.2962963,536.0740741,536.0740741,black,legacy,legacy,legacy,0,congruent,uniform,1,undefined,1,h,0,0,0,26,26,0,26,0,26,0,0,0,0,26,26,NA,26,26,Sat Sep 28 15:16:31 2019,1500,The main experiment item,yes,FlankerTask.osexp,/Users/danielrazo0311/Desktop,no,mono,no,18,no,white,no,yes,768,legacy,26,26,/Users/danielrazo0311/Desktop/subject-3.csv,legacy,Kafkaesque Koffka,3.2.8,0,h,NA,s,NA,NA,h,NA,529,NA,56743,NA,NA,529,NA,2,legacy,1024,2,48000,-16,experiment,HHHHH,3,odd,63389,NA,NA,109856,91168,6538,NA,NA,110988,NA,6561,NA,NA,111101,111632,NA,110976,111101,Flanker Task,26,14474,27,yes,1024
96.42857143,96.42857143,536.2857143,536.2857143,black,legacy,legacy,legacy,0,incongruent,uniform,1,undefined,1,h,0,0,0,27,27,0,27,0,27,0,0,0,0,27,27,NA,27,27,Sat Sep 28 15:16:31 2019,1500,The main experiment item,yes,FlankerTask.osexp,/Users/danielrazo0311/Desktop,no,mono,no,18,no,white,no,yes,768,legacy,27,27,/Users/danielrazo0311/Desktop/subject-3.csv,legacy,Kafkaesque Koffka,3.2.8,0,h,NA,s,NA,NA,h,NA,542,NA,56743,NA,NA,542,NA,2,legacy,1024,2,48000,-16,experiment,SSHSS,3,odd,63389,NA,NA,111649,91168,6538,NA,NA,112781,NA,6561,NA,NA,112896,113440,NA,112769,112895,Flanker Task,27,15016,28,yes,1024
96.55172414,96.55172414,537.7586207,537.7586207,black,legacy,legacy,legacy,0,incongruent,uniform,1,undefined,1,s,0,0,0,28,28,0,28,0,28,0,0,0,0,28,28,NA,28,28,Sat Sep 28 15:16:31 2019,1500,The main experiment item,yes,FlankerTask.osexp,/Users/danielrazo0311/Desktop,no,mono,no,18,no,white,no,yes,768,legacy,28,28,/Users/danielrazo0311/Desktop/subject-3.csv,legacy,Kafkaesque Koffka,3.2.8,0,s,NA,s,NA,NA,s,NA,579,NA,56743,NA,NA,579,NA,2,legacy,1024,2,48000,-16,experiment,HHSHH,3,odd,63389,NA,NA,113456,91168,6538,NA,NA,114587,NA,6561,NA,NA,114699,115280,NA,114574,114699,Flanker Task,28,15595,29,yes,1024
96.66666667,96.66666667,535.3,535.3,black,legacy,legacy,legacy,0,congruent,uniform,1,undefined,1,s,0,0,0,29,29,0,29,0,29,0,0,0,0,29,29,NA,29,29,Sat Sep 28 15:16:31 2019,1500,The main experiment item,yes,FlankerTask.osexp,/Users/danielrazo0311/Desktop,no,mono,no,18,no,white,no,yes,768,legacy,29,29,/Users/danielrazo0311/Desktop/subject-3.csv,legacy,Kafkaesque Koffka,3.2.8,0,s,NA,s,NA,NA,s,NA,464,NA,56743,NA,NA,464,NA,2,legacy,1024,2,48000,-16,experiment,SSSSS,3,odd,63389,NA,NA,115296,91168,6538,NA,NA,116436,NA,6561,NA,NA,116550,117016,NA,116424,116549,Flanker Task,29,16059,30,yes,1024
96.77419355,96.77419355,532.5483871,532.5483871,black,legacy,legacy,legacy,0,congruent,uniform,1,undefined,1,s,0,0,0,30,30,0,30,0,30,0,0,0,0,30,30,NA,30,30,Sat Sep 28 15:16:31 2019,1500,The main experiment item,yes,FlankerTask.osexp,/Users/danielrazo0311/Desktop,no,mono,no,18,no,white,no,yes,768,legacy,30,30,/Users/danielrazo0311/Desktop/subject-3.csv,legacy,Kafkaesque Koffka,3.2.8,0,s,NA,s,NA,NA,s,NA,450,NA,56743,NA,NA,450,NA,2,legacy,1024,2,48000,-16,experiment,SSSSS,3,odd,63389,NA,NA,117031,91168,6538,NA,NA,118162,NA,6561,NA,NA,118276,118728,NA,118150,118276,Flanker Task,30,16509,31,yes,1024
96.875,96.875,531.40625,531.40625,black,legacy,legacy,legacy,0,incongruent,uniform,1,undefined,1,s,0,0,0,31,31,0,31,0,31,0,0,0,0,31,31,NA,31,31,Sat Sep 28 15:16:31 2019,1500,The main experiment item,yes,FlankerTask.osexp,/Users/danielrazo0311/Desktop,no,mono,no,18,no,white,no,yes,768,legacy,31,31,/Users/danielrazo0311/Desktop/subject-3.csv,legacy,Kafkaesque Koffka,3.2.8,0,s,NA,s,NA,NA,s,NA,496,NA,56743,NA,NA,496,NA,2,legacy,1024,2,48000,-16,experiment,HHSHH,3,odd,63389,NA,NA,118743,91168,6538,NA,NA,119877,NA,6561,NA,NA,119990,120488,NA,119864,119990,Flanker Task,31,17005,32,yes,1024
96.96969697,96.96969697,531.6363636,531.6363636,black,legacy,legacy,legacy,0,incongruent,uniform,1,undefined,1,s,0,0,0,32,32,0,32,0,32,0,0,0,0,32,32,NA,32,32,Sat Sep 28 15:16:31 2019,1500,The main experiment item,yes,FlankerTask.osexp,/Users/danielrazo0311/Desktop,no,mono,no,18,no,white,no,yes,768,legacy,32,32,/Users/danielrazo0311/Desktop/subject-3.csv,legacy,Kafkaesque Koffka,3.2.8,0,s,NA,s,NA,NA,s,NA,539,NA,56743,NA,NA,539,NA,2,legacy,1024,2,48000,-16,experiment,HHSHH,3,odd,63389,NA,NA,120504,91168,6538,NA,NA,121634,NA,6561,NA,NA,121747,122289,NA,121622,121747,Flanker Task,32,17544,33,yes,1024
94.11764706,94.11764706,528.5882353,528.5882353,black,legacy,legacy,legacy,0,incongruent,uniform,0,undefined,0,h,0,0,0,33,33,0,33,0,33,0,0,0,0,33,33,NA,33,33,Sat Sep 28 15:16:31 2019,1500,The main experiment item,yes,FlankerTask.osexp,/Users/danielrazo0311/Desktop,no,mono,no,18,no,white,no,yes,768,legacy,33,33,/Users/danielrazo0311/Desktop/subject-3.csv,legacy,Kafkaesque Koffka,3.2.8,0,s,NA,s,NA,NA,s,NA,428,NA,56743,NA,NA,428,NA,2,legacy,1024,2,48000,-16,experiment,SSHSS,3,odd,63389,NA,NA,122304,91168,6538,NA,NA,123434,NA,6561,NA,NA,123547,123977,NA,123422,123547,Flanker Task,32,17972,34,yes,1024
94.28571429,94.28571429,532.7142857,532.7142857,black,legacy,legacy,legacy,0,incongruent,uniform,1,undefined,1,s,0,0,0,34,34,0,34,0,34,0,0,0,0,34,34,NA,34,34,Sat Sep 28 15:16:31 2019,1500,The main experiment item,yes,FlankerTask.osexp,/Users/danielrazo0311/Desktop,no,mono,no,18,no,white,no,yes,768,legacy,34,34,/Users/danielrazo0311/Desktop/subject-3.csv,legacy,Kafkaesque Koffka,3.2.8,0,s,NA,s,NA,NA,s,NA,673,NA,56743,NA,NA,673,NA,2,legacy,1024,2,48000,-16,experiment,HHSHH,3,odd,63389,NA,NA,124504,123992,6538,NA,NA,125635,NA,6561,NA,NA,125749,126424,NA,125623,125749,Flanker Task,33,18645,35,yes,1024
94.44444444,94.44444444,533.1666667,533.1666667,black,legacy,legacy,legacy,0,congruent,uniform,1,undefined,1,h,0,0,0,35,35,0,35,0,35,0,0,0,0,35,35,NA,35,35,Sat Sep 28 15:16:31 2019,1500,The main experiment item,yes,FlankerTask.osexp,/Users/danielrazo0311/Desktop,no,mono,no,18,no,white,no,yes,768,legacy,35,35,/Users/danielrazo0311/Desktop/subject-3.csv,legacy,Kafkaesque Koffka,3.2.8,0,h,NA,s,NA,NA,h,NA,549,NA,56743,NA,NA,549,NA,2,legacy,1024,2,48000,-16,experiment,HHHHH,3,odd,63389,NA,NA,126439,123992,6538,NA,NA,127569,NA,6561,NA,NA,127681,128232,NA,127556,127681,Flanker Task,34,19194,36,yes,1024
94.59459459,94.59459459,534.1351351,534.1351351,black,legacy,legacy,legacy,0,incongruent,uniform,1,undefined,1,h,0,0,0,36,36,0,36,0,36,0,0,0,0,36,36,NA,36,36,Sat Sep 28 15:16:31 2019,1500,The main experiment item,yes,FlankerTask.osexp,/Users/danielrazo0311/Desktop,no,mono,no,18,no,white,no,yes,768,legacy,36,36,/Users/danielrazo0311/Desktop/subject-3.csv,legacy,Kafkaesque Koffka,3.2.8,0,h,NA,s,NA,NA,h,NA,569,NA,56743,NA,NA,569,NA,2,legacy,1024,2,48000,-16,experiment,SSHSS,3,odd,63389,NA,NA,128247,123992,6538,NA,NA,129378,NA,6561,NA,NA,129493,130064,NA,129366,129492,Flanker Task,35,19763,37,yes,1024
94.73684211,94.73684211,536.5789474,536.5789474,black,legacy,legacy,legacy,0,incongruent,uniform,1,undefined,1,h,0,0,0,37,37,0,37,0,37,0,0,0,0,37,37,NA,37,37,Sat Sep 28 15:16:31 2019,1500,The main experiment item,yes,FlankerTask.osexp,/Users/danielrazo0311/Desktop,no,mono,no,18,no,white,no,yes,768,legacy,37,37,/Users/danielrazo0311/Desktop/subject-3.csv,legacy,Kafkaesque Koffka,3.2.8,0,h,NA,s,NA,NA,h,NA,627,NA,56743,NA,NA,627,NA,2,legacy,1024,2,48000,-16,experiment,SSHSS,3,odd,63389,NA,NA,130080,123992,6538,NA,NA,131210,NA,6561,NA,NA,131324,131953,NA,131197,131324,Flanker Task,36,20390,38,yes,1024
94.87179487,94.87179487,534.974359,534.974359,black,legacy,legacy,legacy,0,congruent,uniform,1,undefined,1,h,0,0,0,38,38,0,38,0,38,0,0,0,0,38,38,NA,38,38,Sat Sep 28 15:16:31 2019,1500,The main experiment item,yes,FlankerTask.osexp,/Users/danielrazo0311/Desktop,no,mono,no,18,no,white,no,yes,768,legacy,38,38,/Users/danielrazo0311/Desktop/subject-3.csv,legacy,Kafkaesque Koffka,3.2.8,0,h,NA,s,NA,NA,h,NA,474,NA,56743,NA,NA,474,NA,2,legacy,1024,2,48000,-16,experiment,HHHHH,3,odd,63389,NA,NA,131968,123992,6538,NA,NA,133097,NA,6561,NA,NA,133212,133688,NA,133085,133212,Flanker Task,37,20864,39,yes,1024
95,95,535.85,535.85,black,legacy,legacy,legacy,0,incongruent,uniform,1,undefined,1,s,0,0,0,39,39,0,39,0,39,0,0,0,0,39,39,NA,39,39,Sat Sep 28 15:16:31 2019,1500,The main experiment item,yes,FlankerTask.osexp,/Users/danielrazo0311/Desktop,no,mono,no,18,no,white,no,yes,768,legacy,39,39,/Users/danielrazo0311/Desktop/subject-3.csv,legacy,Kafkaesque Koffka,3.2.8,0,s,NA,s,NA,NA,s,NA,570,NA,56743,NA,NA,570,NA,2,legacy,1024,2,48000,-16,experiment,HHSHH,3,odd,63389,NA,NA,133704,123992,6538,NA,NA,134834,NA,6561,NA,NA,134947,135520,NA,134822,134947,Flanker Task,38,21434,40,yes,1024
95.12195122,95.12195122,539.6341463,539.6341463,black,legacy,legacy,legacy,0,incongruent,uniform,1,undefined,1,h,0,0,0,40,40,0,40,0,40,0,0,0,0,40,40,NA,40,40,Sat Sep 28 15:16:31 2019,1500,The main experiment item,yes,FlankerTask.osexp,/Users/danielrazo0311/Desktop,no,mono,no,18,no,white,no,yes,768,legacy,40,40,/Users/danielrazo0311/Desktop/subject-3.csv,legacy,Kafkaesque Koffka,3.2.8,0,h,NA,s,NA,NA,h,NA,691,NA,56743,NA,NA,691,NA,2,legacy,1024,2,48000,-16,experiment,SSHSS,3,odd,63389,NA,NA,135535,123992,6538,NA,NA,136674,NA,6561,NA,NA,136786,137480,NA,136661,136786,Flanker Task,39,22125,41,yes,1024
95.23809524,95.23809524,540.1666667,540.1666667,black,legacy,legacy,legacy,0,incongruent,uniform,1,undefined,1,h,0,0,0,41,41,0,41,0,41,0,0,0,0,41,41,NA,41,41,Sat Sep 28 15:16:31 2019,1500,The main experiment item,yes,FlankerTask.osexp,/Users/danielrazo0311/Desktop,no,mono,no,18,no,white,no,yes,768,legacy,41,41,/Users/danielrazo0311/Desktop/subject-3.csv,legacy,Kafkaesque Koffka,3.2.8,0,h,NA,s,NA,NA,h,NA,562,NA,56743,NA,NA,562,NA,2,legacy,1024,2,48000,-16,experiment,SSHSS,3,odd,63389,NA,NA,137496,123992,6538,NA,NA,138633,NA,6561,NA,NA,138747,139312,NA,138620,138747,Flanker Task,40,22687,42,yes,1024
95.34883721,95.34883721,540.7674419,540.7674419,black,legacy,legacy,legacy,0,incongruent,uniform,1,undefined,1,s,0,0,0,42,42,0,42,0,42,0,0,0,0,42,42,NA,42,42,Sat Sep 28 15:16:31 2019,1500,The main experiment item,yes,FlankerTask.osexp,/Users/danielrazo0311/Desktop,no,mono,no,18,no,white,no,yes,768,legacy,42,42,/Users/danielrazo0311/Desktop/subject-3.csv,legacy,Kafkaesque Koffka,3.2.8,0,s,NA,s,NA,NA,s,NA,566,NA,56743,NA,NA,566,NA,2,legacy,1024,2,48000,-16,experiment,HHSHH,3,odd,63389,NA,NA,139340,123992,6538,NA,NA,140477,NA,6561,NA,NA,140591,141160,NA,140465,140591,Flanker Task,41,23253,43,yes,1024
95.45454545,95.45454545,540.5454545,540.5454545,black,legacy,legacy,legacy,0,congruent,uniform,1,undefined,1,s,0,0,0,43,43,0,43,0,43,0,0,0,0,43,43,NA,43,43,Sat Sep 28 15:16:31 2019,1500,The main experiment item,yes,FlankerTask.osexp,/Users/danielrazo0311/Desktop,no,mono,no,18,no,white,no,yes,768,legacy,43,43,/Users/danielrazo0311/Desktop/subject-3.csv,legacy,Kafkaesque Koffka,3.2.8,0,s,NA,s,NA,NA,s,NA,531,NA,56743,NA,NA,531,NA,2,legacy,1024,2,48000,-16,experiment,SSSSS,3,odd,63389,NA,NA,141188,123992,6538,NA,NA,142319,NA,6561,NA,NA,142435,142969,NA,142307,142435,Flanker Task,42,23784,44,yes,1024
95.55555556,95.55555556,539.2666667,539.2666667,black,legacy,legacy,legacy,0,congruent,uniform,1,undefined,1,s,0,0,0,44,44,0,44,0,44,0,0,0,0,44,44,NA,44,44,Sat Sep 28 15:16:31 2019,1500,The main experiment item,yes,FlankerTask.osexp,/Users/danielrazo0311/Desktop,no,mono,no,18,no,white,no,yes,768,legacy,44,44,/Users/danielrazo0311/Desktop/subject-3.csv,legacy,Kafkaesque Koffka,3.2.8,0,s,NA,s,NA,NA,s,NA,483,NA,56743,NA,NA,483,NA,2,legacy,1024,2,48000,-16,experiment,SSSSS,3,odd,63389,NA,NA,143045,123992,6538,NA,NA,144175,NA,6561,NA,NA,144290,144776,NA,144162,144290,Flanker Task,43,24267,45,yes,1024
95.65217391,95.65217391,539.826087,539.826087,black,legacy,legacy,legacy,0,congruent,uniform,1,undefined,1,h,0,0,0,45,45,0,45,0,45,0,0,0,0,45,45,NA,45,45,Sat Sep 28 15:16:31 2019,1500,The main experiment item,yes,FlankerTask.osexp,/Users/danielrazo0311/Desktop,no,mono,no,18,no,white,no,yes,768,legacy,45,45,/Users/danielrazo0311/Desktop/subject-3.csv,legacy,Kafkaesque Koffka,3.2.8,0,h,NA,s,NA,NA,h,NA,565,NA,56743,NA,NA,565,NA,2,legacy,1024,2,48000,-16,experiment,HHHHH,3,odd,63389,NA,NA,144813,123992,6538,NA,NA,145944,NA,6561,NA,NA,146057,146625,NA,145931,146057,Flanker Task,44,24832,46,yes,1024
95.74468085,95.74468085,543.1276596,543.1276596,black,legacy,legacy,legacy,0,incongruent,uniform,1,undefined,1,s,0,0,0,46,46,0,46,0,46,0,0,0,0,46,46,NA,46,46,Sat Sep 28 15:16:31 2019,1500,The main experiment item,yes,FlankerTask.osexp,/Users/danielrazo0311/Desktop,no,mono,no,18,no,white,no,yes,768,legacy,46,46,/Users/danielrazo0311/Desktop/subject-3.csv,legacy,Kafkaesque Koffka,3.2.8,0,s,NA,s,NA,NA,s,NA,695,NA,56743,NA,NA,695,NA,2,legacy,1024,2,48000,-16,experiment,HHSHH,3,odd,63389,NA,NA,146656,123992,6538,NA,NA,147790,NA,6561,NA,NA,147902,148600,NA,147778,147902,Flanker Task,45,25527,47,yes,1024
95.83333333,95.83333333,546.9583333,546.9583333,black,legacy,legacy,legacy,0,incongruent,uniform,1,undefined,1,h,0,0,0,47,47,0,47,0,47,0,0,0,0,47,47,NA,47,47,Sat Sep 28 15:16:31 2019,1500,The main experiment item,yes,FlankerTask.osexp,/Users/danielrazo0311/Desktop,no,mono,no,18,no,white,no,yes,768,legacy,47,47,/Users/danielrazo0311/Desktop/subject-3.csv,legacy,Kafkaesque Koffka,3.2.8,0,h,NA,s,NA,NA,h,NA,727,NA,56743,NA,NA,727,NA,2,legacy,1024,2,48000,-16,experiment,SSHSS,3,odd,63389,NA,NA,148615,123992,6538,NA,NA,149747,NA,6561,NA,NA,149862,150592,NA,149735,149862,Flanker Task,46,26254,48,yes,1024
95.91836735,95.91836735,546.5510204,546.5510204,black,legacy,legacy,legacy,0,incongruent,uniform,1,undefined,1,h,0,0,0,48,48,0,48,0,48,0,0,0,0,48,48,NA,48,48,Sat Sep 28 15:16:31 2019,1500,The main experiment item,yes,FlankerTask.osexp,/Users/danielrazo0311/Desktop,no,mono,no,18,no,white,no,yes,768,legacy,48,48,/Users/danielrazo0311/Desktop/subject-3.csv,legacy,Kafkaesque Koffka,3.2.8,0,h,NA,s,NA,NA,h,NA,527,NA,56743,NA,NA,527,NA,2,legacy,1024,2,48000,-16,experiment,SSHSS,3,odd,63389,NA,NA,150607,123992,6538,NA,NA,151738,NA,6561,NA,NA,151854,152384,NA,151726,151853,Flanker Task,47,26781,49,yes,1024
96,96,546.8,546.8,black,legacy,legacy,legacy,0,incongruent,uniform,1,undefined,1,s,0,0,0,49,49,0,49,0,49,0,0,0,0,49,49,NA,49,49,Sat Sep 28 15:16:31 2019,1500,The main experiment item,yes,FlankerTask.osexp,/Users/danielrazo0311/Desktop,no,mono,no,18,no,white,no,yes,768,legacy,49,49,/Users/danielrazo0311/Desktop/subject-3.csv,legacy,Kafkaesque Koffka,3.2.8,0,s,NA,s,NA,NA,s,NA,559,NA,56743,NA,NA,559,NA,2,legacy,1024,2,48000,-16,experiment,HHSHH,3,odd,63389,NA,NA,152399,123992,6538,NA,NA,153532,NA,6561,NA,NA,153646,154208,NA,153519,153646,Flanker Task,48,27340,50,yes,1024
96.07843137,96.07843137,550.0392157,550.0392157,black,legacy,legacy,legacy,0,incongruent,uniform,1,undefined,1,h,0,0,0,50,50,0,50,0,50,0,0,0,0,50,50,NA,50,50,Sat Sep 28 15:16:31 2019,1500,The main experiment item,yes,FlankerTask.osexp,/Users/danielrazo0311/Desktop,no,mono,no,18,no,white,no,yes,768,legacy,50,50,/Users/danielrazo0311/Desktop/subject-3.csv,legacy,Kafkaesque Koffka,3.2.8,0,h,NA,s,NA,NA,h,NA,712,NA,56743,NA,NA,712,NA,2,legacy,1024,2,48000,-16,experiment,SSHSS,3,odd,63389,NA,NA,154223,123992,6538,NA,NA,155354,NA,6561,NA,NA,155469,156184,NA,155342,155468,Flanker Task,49,28052,51,yes,1024
96.15384615,96.15384615,548.8461538,548.8461538,black,legacy,legacy,legacy,0,congruent,uniform,1,undefined,1,s,0,0,0,51,51,0,51,0,51,0,0,0,0,51,51,NA,51,51,Sat Sep 28 15:16:31 2019,1500,The main experiment item,yes,FlankerTask.osexp,/Users/danielrazo0311/Desktop,no,mono,no,18,no,white,no,yes,768,legacy,51,51,/Users/danielrazo0311/Desktop/subject-3.csv,legacy,Kafkaesque Koffka,3.2.8,0,s,NA,s,NA,NA,s,NA,488,NA,56743,NA,NA,488,NA,2,legacy,1024,2,48000,-16,experiment,SSSSS,3,odd,63389,NA,NA,156199,123992,6538,NA,NA,157333,NA,6561,NA,NA,157446,157936,NA,157321,157446,Flanker Task,50,28540,52,yes,1024
96.22641509,96.22641509,550.5283019,550.5283019,black,legacy,legacy,legacy,0,incongruent,uniform,1,undefined,1,h,0,0,0,52,52,0,52,0,52,0,0,0,0,52,52,NA,52,52,Sat Sep 28 15:16:31 2019,1500,The main experiment item,yes,FlankerTask.osexp,/Users/danielrazo0311/Desktop,no,mono,no,18,no,white,no,yes,768,legacy,52,52,/Users/danielrazo0311/Desktop/subject-3.csv,legacy,Kafkaesque Koffka,3.2.8,0,h,NA,s,NA,NA,h,NA,638,NA,56743,NA,NA,638,NA,2,legacy,1024,2,48000,-16,experiment,SSHSS,3,odd,63389,NA,NA,157952,123992,6538,NA,NA,159086,NA,6561,NA,NA,159199,159839,NA,159074,159199,Flanker Task,51,29178,53,yes,1024
96.2962963,96.2962963,550.4814815,550.4814815,black,legacy,legacy,legacy,0,congruent,uniform,1,undefined,1,s,0,0,0,53,53,0,53,0,53,0,0,0,0,53,53,NA,53,53,Sat Sep 28 15:16:31 2019,1500,The main experiment item,yes,FlankerTask.osexp,/Users/danielrazo0311/Desktop,no,mono,no,18,no,white,no,yes,768,legacy,53,53,/Users/danielrazo0311/Desktop/subject-3.csv,legacy,Kafkaesque Koffka,3.2.8,0,s,NA,s,NA,NA,s,NA,548,NA,56743,NA,NA,548,NA,2,legacy,1024,2,48000,-16,experiment,SSSSS,3,odd,63389,NA,NA,159855,123992,6538,NA,NA,160991,NA,6561,NA,NA,161105,161655,NA,160979,161105,Flanker Task,52,29726,54,yes,1024
96.36363636,96.36363636,548.7272727,548.7272727,black,legacy,legacy,legacy,0,congruent,uniform,1,undefined,1,s,0,0,0,54,54,0,54,0,54,0,0,0,0,54,54,NA,54,54,Sat Sep 28 15:16:31 2019,1500,The main experiment item,yes,FlankerTask.osexp,/Users/danielrazo0311/Desktop,no,mono,no,18,no,white,no,yes,768,legacy,54,54,/Users/danielrazo0311/Desktop/subject-3.csv,legacy,Kafkaesque Koffka,3.2.8,0,s,NA,s,NA,NA,s,NA,454,NA,56743,NA,NA,454,NA,2,legacy,1024,2,48000,-16,experiment,SSSSS,3,odd,63389,NA,NA,161675,123992,6538,NA,NA,162805,NA,6561,NA,NA,162919,163376,NA,162793,162919,Flanker Task,53,30180,55,yes,1024
96.42857143,96.42857143,548.8214286,548.8214286,black,legacy,legacy,legacy,0,congruent,uniform,1,undefined,1,s,0,0,0,55,55,0,55,0,55,0,0,0,0,55,55,NA,55,55,Sat Sep 28 15:16:31 2019,1500,The main experiment item,yes,FlankerTask.osexp,/Users/danielrazo0311/Desktop,no,mono,no,18,no,white,no,yes,768,legacy,55,55,/Users/danielrazo0311/Desktop/subject-3.csv,legacy,Kafkaesque Koffka,3.2.8,0,s,NA,s,NA,NA,s,NA,554,NA,56743,NA,NA,554,NA,2,legacy,1024,2,48000,-16,experiment,SSSSS,3,odd,63389,NA,NA,163391,123992,6538,NA,NA,164523,NA,6561,NA,NA,164635,165191,NA,164510,164635,Flanker Task,54,30734,56,yes,1024
96.49122807,96.49122807,547.754386,547.754386,black,legacy,legacy,legacy,0,congruent,uniform,1,undefined,1,h,0,0,0,56,56,0,56,0,56,0,0,0,0,56,56,NA,56,56,Sat Sep 28 15:16:31 2019,1500,The main experiment item,yes,FlankerTask.osexp,/Users/danielrazo0311/Desktop,no,mono,no,18,no,white,no,yes,768,legacy,56,56,/Users/danielrazo0311/Desktop/subject-3.csv,legacy,Kafkaesque Koffka,3.2.8,0,h,NA,s,NA,NA,h,NA,488,NA,56743,NA,NA,488,NA,2,legacy,1024,2,48000,-16,experiment,HHHHH,3,odd,63389,NA,NA,165207,123992,6538,NA,NA,166339,NA,6561,NA,NA,166454,166944,NA,166326,166454,Flanker Task,55,31222,57,yes,1024
96.55172414,96.55172414,554.2068966,554.2068966,black,legacy,legacy,legacy,0,incongruent,uniform,1,undefined,1,h,0,0,0,57,57,0,57,0,57,0,0,0,0,57,57,NA,57,57,Sat Sep 28 15:16:31 2019,1500,The main experiment item,yes,FlankerTask.osexp,/Users/danielrazo0311/Desktop,no,mono,no,18,no,white,no,yes,768,legacy,57,57,/Users/danielrazo0311/Desktop/subject-3.csv,legacy,Kafkaesque Koffka,3.2.8,0,h,NA,s,NA,NA,h,NA,922,NA,56743,NA,NA,922,NA,2,legacy,1024,2,48000,-16,experiment,SSHSS,3,odd,63389,NA,NA,166960,123992,6538,NA,NA,168089,NA,6561,NA,NA,168203,169127,NA,168076,168203,Flanker Task,56,32144,58,yes,1024
96.61016949,96.61016949,554.0677966,554.0677966,black,legacy,legacy,legacy,0,incongruent,uniform,1,undefined,1,s,0,0,0,58,58,0,58,0,58,0,0,0,0,58,58,NA,58,58,Sat Sep 28 15:16:31 2019,1500,The main experiment item,yes,FlankerTask.osexp,/Users/danielrazo0311/Desktop,no,mono,no,18,no,white,no,yes,768,legacy,58,58,/Users/danielrazo0311/Desktop/subject-3.csv,legacy,Kafkaesque Koffka,3.2.8,0,s,NA,s,NA,NA,s,NA,546,NA,56743,NA,NA,546,NA,2,legacy,1024,2,48000,-16,experiment,HHSHH,3,odd,63389,NA,NA,169143,123992,6538,NA,NA,170275,NA,6561,NA,NA,170388,170936,NA,170262,170388,Flanker Task,57,32690,59,yes,1024
96.66666667,96.66666667,554.1666667,554.1666667,black,legacy,legacy,legacy,0,congruent,uniform,1,undefined,1,h,0,0,0,59,59,0,59,0,59,0,0,0,0,59,59,NA,59,59,Sat Sep 28 15:16:31 2019,1500,The main experiment item,yes,FlankerTask.osexp,/Users/danielrazo0311/Desktop,no,mono,no,18,no,white,no,yes,768,legacy,59,59,/Users/danielrazo0311/Desktop/subject-3.csv,legacy,Kafkaesque Koffka,3.2.8,0,h,NA,s,NA,NA,h,NA,560,NA,56743,NA,NA,560,NA,2,legacy,1024,2,48000,-16,experiment,HHHHH,3,odd,63389,NA,NA,171007,123992,6538,NA,NA,172138,NA,6561,NA,NA,172253,172815,NA,172126,172253,Flanker Task,58,33250,60,yes,1024
96.72131148,96.72131148,553.3278689,553.3278689,black,legacy,legacy,legacy,0,congruent,uniform,1,undefined,1,s,0,0,0,60,60,0,60,0,60,0,0,0,0,60,60,NA,60,60,Sat Sep 28 15:16:31 2019,1500,The main experiment item,yes,FlankerTask.osexp,/Users/danielrazo0311/Desktop,no,mono,no,18,no,white,no,yes,768,legacy,60,60,/Users/danielrazo0311/Desktop/subject-3.csv,legacy,Kafkaesque Koffka,3.2.8,0,s,NA,s,NA,NA,s,NA,503,NA,56743,NA,NA,503,NA,2,legacy,1024,2,48000,-16,experiment,SSSSS,3,odd,63389,NA,NA,172855,123992,6538,NA,NA,173987,NA,6561,NA,NA,174101,174607,NA,173975,174101,Flanker Task,59,33753,61,yes,1024
96.77419355,96.77419355,552.016129,552.016129,black,legacy,legacy,legacy,0,congruent,uniform,1,undefined,1,s,0,0,0,61,61,0,61,0,61,0,0,0,0,61,61,NA,61,61,Sat Sep 28 15:16:31 2019,1500,The main experiment item,yes,FlankerTask.osexp,/Users/danielrazo0311/Desktop,no,mono,no,18,no,white,no,yes,768,legacy,61,61,/Users/danielrazo0311/Desktop/subject-3.csv,legacy,Kafkaesque Koffka,3.2.8,0,s,NA,s,NA,NA,s,NA,472,NA,56743,NA,NA,472,NA,2,legacy,1024,2,48000,-16,experiment,SSSSS,3,odd,63389,NA,NA,174623,123992,6538,NA,NA,175753,NA,6561,NA,NA,175868,176343,NA,175740,175868,Flanker Task,60,34225,62,yes,1024
96.82539683,96.82539683,551.9206349,551.9206349,black,legacy,legacy,legacy,0,congruent,uniform,1,undefined,1,h,0,0,0,62,62,0,62,0,62,0,0,0,0,62,62,NA,62,62,Sat Sep 28 15:16:31 2019,1500,The main experiment item,yes,FlankerTask.osexp,/Users/danielrazo0311/Desktop,no,mono,no,18,no,white,no,yes,768,legacy,62,62,/Users/danielrazo0311/Desktop/subject-3.csv,legacy,Kafkaesque Koffka,3.2.8,0,h,NA,s,NA,NA,h,NA,546,NA,56743,NA,NA,546,NA,2,legacy,1024,2,48000,-16,experiment,HHHHH,3,odd,63389,NA,NA,176363,123992,6538,NA,NA,177494,NA,6561,NA,NA,177610,178159,NA,177482,177610,Flanker Task,61,34771,63,yes,1024
96.875,96.875,552.21875,552.21875,black,legacy,legacy,legacy,0,congruent,uniform,1,undefined,1,s,0,0,0,63,63,0,63,0,63,0,0,0,0,63,63,NA,63,63,Sat Sep 28 15:16:31 2019,1500,The main experiment item,yes,FlankerTask.osexp,/Users/danielrazo0311/Desktop,no,mono,no,18,no,white,no,yes,768,legacy,63,63,/Users/danielrazo0311/Desktop/subject-3.csv,legacy,Kafkaesque Koffka,3.2.8,0,s,NA,s,NA,NA,s,NA,571,NA,56743,NA,NA,571,NA,2,legacy,1024,2,48000,-16,experiment,SSSSS,3,odd,63389,NA,NA,178174,123992,6538,NA,NA,179306,NA,6561,NA,NA,179418,179992,NA,179294,179418,Flanker Task,62,35342,64,yes,1024
96.92307692,96.92307692,550.6307692,550.6307692,black,legacy,legacy,legacy,0,congruent,uniform,1,undefined,1,h,0,0,0,64,64,0,64,0,64,0,0,0,0,64,64,NA,64,64,Sat Sep 28 15:16:31 2019,1500,The main experiment item,yes,FlankerTask.osexp,/Users/danielrazo0311/Desktop,no,mono,no,18,no,white,no,yes,768,legacy,64,64,/Users/danielrazo0311/Desktop/subject-3.csv,legacy,Kafkaesque Koffka,3.2.8,0,h,NA,s,NA,NA,h,NA,449,NA,56743,NA,NA,449,NA,2,legacy,1024,2,48000,-16,experiment,HHHHH,3,odd,63389,NA,NA,180006,123992,6538,NA,NA,181144,NA,6561,NA,NA,181259,181711,NA,181132,181258,Flanker Task,63,35791,65,yes,1024
96.96969697,96.96969697,550.2878788,550.2878788,black,legacy,legacy,legacy,0,incongruent,uniform,1,undefined,1,s,0,0,0,65,65,0,65,0,65,0,0,0,0,65,65,NA,65,65,Sat Sep 28 15:16:31 2019,1500,The main experiment item,yes,FlankerTask.osexp,/Users/danielrazo0311/Desktop,no,mono,no,18,no,white,no,yes,768,legacy,65,65,/Users/danielrazo0311/Desktop/subject-3.csv,legacy,Kafkaesque Koffka,3.2.8,0,s,NA,s,NA,NA,s,NA,528,NA,56743,NA,NA,528,NA,2,legacy,1024,2,48000,-16,experiment,HHSHH,3,odd,63389,NA,NA,181727,123992,6538,NA,NA,182857,NA,6561,NA,NA,182972,183503,NA,182844,182972,Flanker Task,64,36319,66,yes,1024
97.01492537,97.01492537,548.3134328,548.3134328,black,legacy,legacy,legacy,0,incongruent,uniform,1,undefined,1,h,0,0,0,66,66,0,66,0,66,0,0,0,0,66,66,NA,66,66,Sat Sep 28 15:16:31 2019,1500,The main experiment item,yes,FlankerTask.osexp,/Users/danielrazo0311/Desktop,no,mono,no,18,no,white,no,yes,768,legacy,66,66,/Users/danielrazo0311/Desktop/subject-3.csv,legacy,Kafkaesque Koffka,3.2.8,0,h,NA,s,NA,NA,h,NA,418,NA,56743,NA,NA,418,NA,2,legacy,1024,2,48000,-16,experiment,SSHSS,3,odd,63389,NA,NA,183518,123992,6538,NA,NA,184650,NA,6561,NA,NA,184762,185183,NA,184638,184762,Flanker Task,65,36737,67,yes,1024
97.05882353,97.05882353,547.5,547.5,black,legacy,legacy,legacy,0,congruent,uniform,1,undefined,1,s,0,0,0,67,67,0,67,0,67,0,0,0,0,67,67,NA,67,67,Sat Sep 28 15:16:31 2019,1500,The main experiment item,yes,FlankerTask.osexp,/Users/danielrazo0311/Desktop,no,mono,no,18,no,white,no,yes,768,legacy,67,67,/Users/danielrazo0311/Desktop/subject-3.csv,legacy,Kafkaesque Koffka,3.2.8,0,s,NA,s,NA,NA,s,NA,493,NA,56743,NA,NA,493,NA,2,legacy,1024,2,48000,-16,experiment,SSSSS,3,odd,63389,NA,NA,185198,123992,6538,NA,NA,186328,NA,6561,NA,NA,186440,186936,NA,186315,186440,Flanker Task,66,37230,68,yes,1024
97.10144928,97.10144928,546.942029,546.942029,black,legacy,legacy,legacy,0,congruent,uniform,1,undefined,1,s,0,0,0,68,68,0,68,0,68,0,0,0,0,68,68,NA,68,68,Sat Sep 28 15:16:31 2019,1500,The main experiment item,yes,FlankerTask.osexp,/Users/danielrazo0311/Desktop,no,mono,no,18,no,white,no,yes,768,legacy,68,68,/Users/danielrazo0311/Desktop/subject-3.csv,legacy,Kafkaesque Koffka,3.2.8,0,s,NA,s,NA,NA,s,NA,509,NA,56743,NA,NA,509,NA,2,legacy,1024,2,48000,-16,experiment,SSSSS,3,odd,63389,NA,NA,186951,123992,6538,NA,NA,188085,NA,6561,NA,NA,188199,188711,NA,188071,188199,Flanker Task,67,37739,69,yes,1024
97.14285714,97.14285714,546.7571429,546.7571429,black,legacy,legacy,legacy,0,incongruent,uniform,1,undefined,1,h,0,0,0,69,69,0,69,0,69,0,0,0,0,69,69,NA,69,69,Sat Sep 28 15:16:31 2019,1500,The main experiment item,yes,FlankerTask.osexp,/Users/danielrazo0311/Desktop,no,mono,no,18,no,white,no,yes,768,legacy,69,69,/Users/danielrazo0311/Desktop/subject-3.csv,legacy,Kafkaesque Koffka,3.2.8,0,h,NA,s,NA,NA,h,NA,534,NA,56743,NA,NA,534,NA,2,legacy,1024,2,48000,-16,experiment,SSHSS,3,odd,63389,NA,NA,188728,123992,6538,NA,NA,189859,NA,6561,NA,NA,189974,190511,NA,189846,189973,Flanker Task,68,38273,70,yes,1024
97.18309859,97.18309859,546.5352113,546.5352113,black,legacy,legacy,legacy,0,incongruent,uniform,1,undefined,1,s,0,0,0,70,70,0,70,0,70,0,0,0,0,70,70,NA,70,70,Sat Sep 28 15:16:31 2019,1500,The main experiment item,yes,FlankerTask.osexp,/Users/danielrazo0311/Desktop,no,mono,no,18,no,white,no,yes,768,legacy,70,70,/Users/danielrazo0311/Desktop/subject-3.csv,legacy,Kafkaesque Koffka,3.2.8,0,s,NA,s,NA,NA,s,NA,531,NA,56743,NA,NA,531,NA,2,legacy,1024,2,48000,-16,experiment,HHSHH,3,odd,63389,NA,NA,190526,123992,6538,NA,NA,191656,NA,6561,NA,NA,191769,192303,NA,191644,191768,Flanker Task,69,38804,71,yes,1024
97.22222222,97.22222222,546.4027778,546.4027778,black,legacy,legacy,legacy,0,congruent,uniform,1,undefined,1,h,0,0,0,71,71,0,71,0,71,0,0,0,0,71,71,NA,71,71,Sat Sep 28 15:16:31 2019,1500,The main experiment item,yes,FlankerTask.osexp,/Users/danielrazo0311/Desktop,no,mono,no,18,no,white,no,yes,768,legacy,71,71,/Users/danielrazo0311/Desktop/subject-3.csv,legacy,Kafkaesque Koffka,3.2.8,0,h,NA,s,NA,NA,h,NA,537,NA,56743,NA,NA,537,NA,2,legacy,1024,2,48000,-16,experiment,HHHHH,3,odd,63389,NA,NA,192318,123992,6538,NA,NA,193449,NA,6561,NA,NA,193563,194103,NA,193437,193563,Flanker Task,70,39341,72,yes,1024
97.26027397,97.26027397,547.0958904,547.0958904,black,legacy,legacy,legacy,0,incongruent,uniform,1,undefined,1,h,0,0,0,72,72,0,72,0,72,0,0,0,0,72,72,NA,72,72,Sat Sep 28 15:16:31 2019,1500,The main experiment item,yes,FlankerTask.osexp,/Users/danielrazo0311/Desktop,no,mono,no,18,no,white,no,yes,768,legacy,72,72,/Users/danielrazo0311/Desktop/subject-3.csv,legacy,Kafkaesque Koffka,3.2.8,0,h,NA,s,NA,NA,h,NA,597,NA,56743,NA,NA,597,NA,2,legacy,1024,2,48000,-16,experiment,SSHSS,3,odd,63389,NA,NA,194118,123992,6538,NA,NA,195248,NA,6561,NA,NA,195360,195960,NA,195236,195360,Flanker Task,71,39938,73,yes,1024
97.2972973,97.2972973,549.5540541,549.5540541,black,legacy,legacy,legacy,0,congruent,uniform,1,undefined,1,h,0,0,0,73,73,0,73,0,73,0,0,0,0,73,73,NA,73,73,Sat Sep 28 15:16:31 2019,1500,The main experiment item,yes,FlankerTask.osexp,/Users/danielrazo0311/Desktop,no,mono,no,18,no,white,no,yes,768,legacy,73,73,/Users/danielrazo0311/Desktop/subject-3.csv,legacy,Kafkaesque Koffka,3.2.8,0,h,NA,s,NA,NA,h,NA,729,NA,56743,NA,NA,729,NA,2,legacy,1024,2,48000,-16,experiment,HHHHH,3,odd,63389,NA,NA,195975,123992,6538,NA,NA,197105,NA,6561,NA,NA,197220,197952,NA,197093,197220,Flanker Task,72,40667,74,yes,1024
97.33333333,97.33333333,548.8666667,548.8666667,black,legacy,legacy,legacy,0,congruent,uniform,1,undefined,1,h,0,0,0,74,74,0,74,0,74,0,0,0,0,74,74,NA,74,74,Sat Sep 28 15:16:31 2019,1500,The main experiment item,yes,FlankerTask.osexp,/Users/danielrazo0311/Desktop,no,mono,no,18,no,white,no,yes,768,legacy,74,74,/Users/danielrazo0311/Desktop/subject-3.csv,legacy,Kafkaesque Koffka,3.2.8,0,h,NA,s,NA,NA,h,NA,498,NA,56743,NA,NA,498,NA,2,legacy,1024,2,48000,-16,experiment,HHHHH,3,odd,63389,NA,NA,197967,123992,6538,NA,NA,199096,NA,6561,NA,NA,199210,199711,NA,199084,199209,Flanker Task,73,41165,75,yes,1024
97.36842105,97.36842105,547.6973684,547.6973684,black,legacy,legacy,legacy,0,congruent,uniform,1,undefined,1,s,0,0,0,75,75,0,75,0,75,0,0,0,0,75,75,NA,75,75,Sat Sep 28 15:16:31 2019,1500,The main experiment item,yes,FlankerTask.osexp,/Users/danielrazo0311/Desktop,no,mono,no,18,no,white,no,yes,768,legacy,75,75,/Users/danielrazo0311/Desktop/subject-3.csv,legacy,Kafkaesque Koffka,3.2.8,0,s,NA,s,NA,NA,s,NA,460,NA,56743,NA,NA,460,NA,2,legacy,1024,2,48000,-16,experiment,SSSSS,3,odd,63389,NA,NA,199726,123992,6538,NA,NA,200864,NA,6561,NA,NA,200976,201439,NA,200850,200976,Flanker Task,74,41625,76,yes,1024
97.4025974,97.4025974,549.2337662,549.2337662,black,legacy,legacy,legacy,0,congruent,uniform,1,undefined,1,h,0,0,0,76,76,0,76,0,76,0,0,0,0,76,76,NA,76,76,Sat Sep 28 15:16:31 2019,1500,The main experiment item,yes,FlankerTask.osexp,/Users/danielrazo0311/Desktop,no,mono,no,18,no,white,no,yes,768,legacy,76,76,/Users/danielrazo0311/Desktop/subject-3.csv,legacy,Kafkaesque Koffka,3.2.8,0,h,NA,s,NA,NA,h,NA,666,NA,56743,NA,NA,666,NA,2,legacy,1024,2,48000,-16,experiment,HHHHH,3,odd,63389,NA,NA,201469,123992,6538,NA,NA,202599,NA,6561,NA,NA,202714,203383,NA,202587,202714,Flanker Task,75,42291,77,yes,1024
97.43589744,97.43589744,549.0897436,549.0897436,black,legacy,legacy,legacy,0,congruent,uniform,1,undefined,1,s,0,0,0,77,77,0,77,0,77,0,0,0,0,77,77,NA,77,77,Sat Sep 28 15:16:31 2019,1500,The main experiment item,yes,FlankerTask.osexp,/Users/danielrazo0311/Desktop,no,mono,no,18,no,white,no,yes,768,legacy,77,77,/Users/danielrazo0311/Desktop/subject-3.csv,legacy,Kafkaesque Koffka,3.2.8,0,s,NA,s,NA,NA,s,NA,538,NA,56743,NA,NA,538,NA,2,legacy,1024,2,48000,-16,experiment,SSSSS,3,odd,63389,NA,NA,203398,123992,6538,NA,NA,204534,NA,6561,NA,NA,204650,205191,NA,204522,204649,Flanker Task,76,42829,78,yes,1024
97.46835443,97.46835443,550.0632911,550.0632911,black,legacy,legacy,legacy,0,incongruent,uniform,1,undefined,1,s,0,0,0,78,78,0,78,0,78,0,0,0,0,78,78,NA,78,78,Sat Sep 28 15:16:31 2019,1500,The main experiment item,yes,FlankerTask.osexp,/Users/danielrazo0311/Desktop,no,mono,no,18,no,white,no,yes,768,legacy,78,78,/Users/danielrazo0311/Desktop/subject-3.csv,legacy,Kafkaesque Koffka,3.2.8,0,s,NA,s,NA,NA,s,NA,626,NA,56743,NA,NA,626,NA,2,legacy,1024,2,48000,-16,experiment,HHSHH,3,odd,63389,NA,NA,205206,123992,6538,NA,NA,206337,NA,6561,NA,NA,206450,207079,NA,206325,206450,Flanker Task,77,43455,79,yes,1024
97.5,97.5,550.6125,550.6125,black,legacy,legacy,legacy,0,incongruent,uniform,1,undefined,1,s,0,0,0,79,79,0,79,0,79,0,0,0,0,79,79,NA,79,79,Sat Sep 28 15:16:31 2019,1500,The main experiment item,yes,FlankerTask.osexp,/Users/danielrazo0311/Desktop,no,mono,no,18,no,white,no,yes,768,legacy,79,79,/Users/danielrazo0311/Desktop/subject-3.csv,legacy,Kafkaesque Koffka,3.2.8,0,s,NA,s,NA,NA,s,NA,594,NA,56743,NA,NA,594,NA,2,legacy,1024,2,48000,-16,experiment,HHSHH,3,odd,63389,NA,NA,207094,123992,6538,NA,NA,208226,NA,6561,NA,NA,208339,208935,NA,208213,208338,Flanker Task,78,44049,80,yes,1024
97.5308642,97.5308642,555.0493827,555.0493827,black,legacy,legacy,legacy,0,incongruent,uniform,1,undefined,1,s,0,0,0,80,80,0,80,0,80,0,0,0,0,80,80,NA,80,80,Sat Sep 28 15:16:31 2019,600,The main experiment item,yes,FlankerTask.osexp,/Users/danielrazo0311/Desktop,no,mono,no,18,no,white,no,yes,768,legacy,0,79,/Users/danielrazo0311/Desktop/subject-3.csv,legacy,Kafkaesque Koffka,3.2.8,0,s,NA,s,h,NA,s,NA,910,NA,56743,69060,NA,910,NA,2,legacy,1024,2,48000,-16,experiment,HHSHH,3,odd,63389,279051,NA,208951,123992,6538,NA,NA,279176,NA,6561,209988,NA,279290,280203,NA,279163,279289,Flanker Task,79,44959,81,yes,1024
97.56097561,97.56097561,556.3292683,556.3292683,black,legacy,legacy,legacy,0,incongruent,uniform,1,undefined,1,h,0,0,0,81,81,0,81,0,81,0,0,0,0,81,81,NA,81,81,Sat Sep 28 15:16:31 2019,600,The main experiment item,yes,FlankerTask.osexp,/Users/danielrazo0311/Desktop,no,mono,no,18,no,white,no,yes,768,legacy,1,79,/Users/danielrazo0311/Desktop/subject-3.csv,legacy,Kafkaesque Koffka,3.2.8,0,h,NA,s,h,NA,h,NA,660,NA,56743,69060,NA,660,NA,2,legacy,1024,2,48000,-16,experiment,SSHSS,3,odd,63389,279051,NA,280767,123992,6538,280255,NA,281900,NA,6561,209988,NA,282012,282675,NA,281888,282012,Flanker Task,80,45619,82,yes,1024
97.59036145,97.59036145,555.2409639,555.2409639,black,legacy,legacy,legacy,0,congruent,uniform,1,undefined,1,h,0,0,0,82,82,0,82,0,82,0,0,0,0,82,82,NA,82,82,Sat Sep 28 15:16:31 2019,600,The main experiment item,yes,FlankerTask.osexp,/Users/danielrazo0311/Desktop,no,mono,no,18,no,white,no,yes,768,legacy,2,79,/Users/danielrazo0311/Desktop/subject-3.csv,legacy,Kafkaesque Koffka,3.2.8,0,h,NA,s,h,NA,h,NA,466,NA,56743,69060,NA,466,NA,2,legacy,1024,2,48000,-16,experiment,HHHHH,3,odd,63389,279051,NA,283202,123992,6538,282690,NA,284333,NA,6561,209988,NA,284447,284916,NA,284321,284447,Flanker Task,81,46085,83,yes,1024
97.61904762,97.61904762,554.3690476,554.3690476,black,legacy,legacy,legacy,0,congruent,uniform,1,undefined,1,h,0,0,0,83,83,0,83,0,83,0,0,0,0,83,83,NA,83,83,Sat Sep 28 15:16:31 2019,600,The main experiment item,yes,FlankerTask.osexp,/Users/danielrazo0311/Desktop,no,mono,no,18,no,white,no,yes,768,legacy,3,79,/Users/danielrazo0311/Desktop/subject-3.csv,legacy,Kafkaesque Koffka,3.2.8,0,h,NA,s,h,NA,h,NA,482,NA,56743,69060,NA,482,NA,2,legacy,1024,2,48000,-16,experiment,HHHHH,3,odd,63389,279051,NA,284934,123992,6538,282690,NA,286062,NA,6561,209988,NA,286174,286659,NA,286050,286174,Flanker Task,82,46567,84,yes,1024
97.64705882,97.64705882,552.4,552.4,black,legacy,legacy,legacy,0,congruent,uniform,1,undefined,1,s,0,0,0,84,84,0,84,0,84,0,0,0,0,84,84,NA,84,84,Sat Sep 28 15:16:31 2019,600,The main experiment item,yes,FlankerTask.osexp,/Users/danielrazo0311/Desktop,no,mono,no,18,no,white,no,yes,768,legacy,4,79,/Users/danielrazo0311/Desktop/subject-3.csv,legacy,Kafkaesque Koffka,3.2.8,0,s,NA,s,h,NA,s,NA,387,NA,56743,69060,NA,387,NA,2,legacy,1024,2,48000,-16,experiment,SSSSS,3,odd,63389,279051,NA,286674,123992,6538,282690,NA,287803,NA,6561,209988,NA,287917,288307,NA,287791,287917,Flanker Task,83,46954,85,yes,1024
97.6744186,97.6744186,550.1976744,550.1976744,black,legacy,legacy,legacy,0,incongruent,uniform,1,undefined,1,h,0,0,0,85,85,0,85,0,85,0,0,0,0,85,85,NA,85,85,Sat Sep 28 15:16:31 2019,600,The main experiment item,yes,FlankerTask.osexp,/Users/danielrazo0311/Desktop,no,mono,no,18,no,white,no,yes,768,legacy,5,79,/Users/danielrazo0311/Desktop/subject-3.csv,legacy,Kafkaesque Koffka,3.2.8,0,h,NA,s,h,NA,h,NA,363,NA,56743,69060,NA,363,NA,2,legacy,1024,2,48000,-16,experiment,SSHSS,3,odd,63389,279051,NA,288322,123992,6538,282690,NA,289459,NA,6561,209988,NA,289574,289940,NA,289446,289574,Flanker Task,84,47317,86,yes,1024
96.55172414,96.55172414,548.2988506,548.2988506,black,legacy,legacy,legacy,0,congruent,uniform,0,undefined,0,s,0,0,0,86,86,0,86,0,86,0,0,0,0,86,86,NA,86,86,Sat Sep 28 15:16:31 2019,600,The main experiment item,yes,FlankerTask.osexp,/Users/danielrazo0311/Desktop,no,mono,no,18,no,white,no,yes,768,legacy,6,79,/Users/danielrazo0311/Desktop/subject-3.csv,legacy,Kafkaesque Koffka,3.2.8,0,h,NA,s,h,NA,h,NA,385,NA,56743,69060,NA,385,NA,2,legacy,1024,2,48000,-16,experiment,SSSSS,3,odd,63389,279051,NA,289955,123992,6538,282690,NA,291084,NA,6561,209988,NA,291199,291587,NA,291072,291198,Flanker Task,84,47702,87,yes,1024
96.59090909,96.59090909,549.3295455,549.3295455,black,legacy,legacy,legacy,0,incongruent,uniform,1,undefined,1,h,0,0,0,87,87,0,87,0,87,0,0,0,0,87,87,NA,87,87,Sat Sep 28 15:16:31 2019,600,The main experiment item,yes,FlankerTask.osexp,/Users/danielrazo0311/Desktop,no,mono,no,18,no,white,no,yes,768,legacy,7,79,/Users/danielrazo0311/Desktop/subject-3.csv,legacy,Kafkaesque Koffka,3.2.8,0,h,NA,s,h,NA,h,NA,639,NA,56743,69060,NA,639,NA,2,legacy,1024,2,48000,-16,experiment,SSHSS,3,odd,63389,279051,NA,292116,291602,6538,282690,NA,293246,NA,6561,209988,NA,293361,294003,NA,293234,293360,Flanker Task,85,48341,88,yes,1024
96.62921348,96.62921348,547.9325843,547.9325843,black,legacy,legacy,legacy,0,incongruent,uniform,1,undefined,1,s,0,0,0,88,88,0,88,0,88,0,0,0,0,88,88,NA,88,88,Sat Sep 28 15:16:31 2019,600,The main experiment item,yes,FlankerTask.osexp,/Users/danielrazo0311/Desktop,no,mono,no,18,no,white,no,yes,768,legacy,8,79,/Users/danielrazo0311/Desktop/subject-3.csv,legacy,Kafkaesque Koffka,3.2.8,0,s,NA,s,h,NA,s,NA,425,NA,56743,69060,NA,425,NA,2,legacy,1024,2,48000,-16,experiment,HHSHH,3,odd,63389,279051,NA,294531,291602,6538,294018,NA,295661,NA,6561,209988,NA,295775,296203,NA,295648,295775,Flanker Task,86,48766,89,yes,1024
96.66666667,96.66666667,547.3222222,547.3222222,black,legacy,legacy,legacy,0,incongruent,uniform,1,undefined,1,s,0,0,0,89,89,0,89,0,89,0,0,0,0,89,89,NA,89,89,Sat Sep 28 15:16:31 2019,600,The main experiment item,yes,FlankerTask.osexp,/Users/danielrazo0311/Desktop,no,mono,no,18,no,white,no,yes,768,legacy,9,79,/Users/danielrazo0311/Desktop/subject-3.csv,legacy,Kafkaesque Koffka,3.2.8,0,s,NA,s,h,NA,s,NA,493,NA,56743,69060,NA,493,NA,2,legacy,1024,2,48000,-16,experiment,HHSHH,3,odd,63389,279051,NA,296220,291602,6538,294018,NA,297353,NA,6561,209988,NA,297468,297964,NA,297340,297468,Flanker Task,87,49259,90,yes,1024
96.7032967,96.7032967,546.4835165,546.4835165,black,legacy,legacy,legacy,0,incongruent,uniform,1,undefined,1,s,0,0,0,90,90,0,90,0,90,0,0,0,0,90,90,NA,90,90,Sat Sep 28 15:16:31 2019,600,The main experiment item,yes,FlankerTask.osexp,/Users/danielrazo0311/Desktop,no,mono,no,18,no,white,no,yes,768,legacy,10,79,/Users/danielrazo0311/Desktop/subject-3.csv,legacy,Kafkaesque Koffka,3.2.8,0,s,NA,s,h,NA,s,NA,471,NA,56743,69060,NA,471,NA,2,legacy,1024,2,48000,-16,experiment,HHSHH,3,odd,63389,279051,NA,297979,291602,6538,294018,NA,299110,NA,6561,209988,NA,299224,299699,NA,299098,299223,Flanker Task,88,49730,91,yes,1024
96.73913043,96.73913043,544.8804348,544.8804348,black,legacy,legacy,legacy,0,congruent,uniform,1,undefined,1,s,0,0,0,91,91,0,91,0,91,0,0,0,0,91,91,NA,91,91,Sat Sep 28 15:16:31 2019,600,The main experiment item,yes,FlankerTask.osexp,/Users/danielrazo0311/Desktop,no,mono,no,18,no,white,no,yes,768,legacy,11,79,/Users/danielrazo0311/Desktop/subject-3.csv,legacy,Kafkaesque Koffka,3.2.8,0,s,NA,s,h,NA,s,NA,399,NA,56743,69060,NA,399,NA,2,legacy,1024,2,48000,-16,experiment,SSSSS,3,odd,63389,279051,NA,299714,291602,6538,294018,NA,300844,NA,6561,209988,NA,300960,301363,NA,300832,300959,Flanker Task,89,50129,92,yes,1024
96.77419355,96.77419355,543.2688172,543.2688172,black,legacy,legacy,legacy,0,congruent,uniform,1,undefined,1,s,0,0,0,92,92,0,92,0,92,0,0,0,0,92,92,NA,92,92,Sat Sep 28 15:16:31 2019,600,The main experiment item,yes,FlankerTask.osexp,/Users/danielrazo0311/Desktop,no,mono,no,18,no,white,no,yes,768,legacy,12,79,/Users/danielrazo0311/Desktop/subject-3.csv,legacy,Kafkaesque Koffka,3.2.8,0,s,NA,s,h,NA,s,NA,395,NA,56743,69060,NA,395,NA,2,legacy,1024,2,48000,-16,experiment,SSSSS,3,odd,63389,279051,NA,301378,291602,6538,294018,NA,302515,NA,6561,209988,NA,302628,303027,NA,302503,302628,Flanker Task,90,50524,93,yes,1024
96.80851064,96.80851064,541.5319149,541.5319149,black,legacy,legacy,legacy,0,congruent,uniform,1,undefined,1,h,0,0,0,93,93,0,93,0,93,0,0,0,0,93,93,NA,93,93,Sat Sep 28 15:16:31 2019,600,The main experiment item,yes,FlankerTask.osexp,/Users/danielrazo0311/Desktop,no,mono,no,18,no,white,no,yes,768,legacy,13,79,/Users/danielrazo0311/Desktop/subject-3.csv,legacy,Kafkaesque Koffka,3.2.8,0,h,NA,s,h,NA,h,NA,380,NA,56743,69060,NA,380,NA,2,legacy,1024,2,48000,-16,experiment,HHHHH,3,odd,63389,279051,NA,303042,291602,6538,294018,NA,304176,NA,6561,209988,NA,304291,304674,NA,304164,304291,Flanker Task,91,50904,94,yes,1024
95.78947368,95.78947368,539.7894737,539.7894737,black,legacy,legacy,legacy,0,congruent,uniform,0,undefined,0,s,0,0,0,94,94,0,94,0,94,0,0,0,0,94,94,NA,94,94,Sat Sep 28 15:16:31 2019,600,The main experiment item,yes,FlankerTask.osexp,/Users/danielrazo0311/Desktop,no,mono,no,18,no,white,no,yes,768,legacy,14,79,/Users/danielrazo0311/Desktop/subject-3.csv,legacy,Kafkaesque Koffka,3.2.8,0,h,NA,s,h,NA,h,NA,376,NA,56743,69060,NA,376,NA,2,legacy,1024,2,48000,-16,experiment,SSSSS,3,odd,63389,279051,NA,304690,291602,6538,294018,NA,305820,NA,6561,209988,NA,305935,306314,NA,305808,305935,Flanker Task,91,51280,95,yes,1024
95.83333333,95.83333333,541.9791667,541.9791667,black,legacy,legacy,legacy,0,congruent,uniform,1,undefined,1,h,0,0,0,95,95,0,95,0,95,0,0,0,0,95,95,NA,95,95,Sat Sep 28 15:16:31 2019,600,The main experiment item,yes,FlankerTask.osexp,/Users/danielrazo0311/Desktop,no,mono,no,18,no,white,no,yes,768,legacy,15,79,/Users/danielrazo0311/Desktop/subject-3.csv,legacy,Kafkaesque Koffka,3.2.8,0,h,NA,s,h,NA,h,NA,750,NA,56743,69060,NA,750,NA,2,legacy,1024,2,48000,-16,experiment,HHHHH,3,odd,63389,279051,NA,306842,306330,6538,294018,NA,307975,NA,6561,209988,NA,308089,308843,NA,307962,308089,Flanker Task,92,52030,96,yes,1024
95.87628866,95.87628866,542.5876289,542.5876289,black,legacy,legacy,legacy,0,incongruent,uniform,1,undefined,1,h,0,0,0,96,96,0,96,0,96,0,0,0,0,96,96,NA,96,96,Sat Sep 28 15:16:31 2019,600,The main experiment item,yes,FlankerTask.osexp,/Users/danielrazo0311/Desktop,no,mono,no,18,no,white,no,yes,768,legacy,16,79,/Users/danielrazo0311/Desktop/subject-3.csv,legacy,Kafkaesque Koffka,3.2.8,0,h,NA,s,h,NA,h,NA,601,NA,56743,69060,NA,601,NA,2,legacy,1024,2,48000,-16,experiment,SSHSS,3,odd,63389,279051,NA,309370,306330,6538,308858,NA,310501,NA,6561,209988,NA,310614,311218,NA,310488,310614,Flanker Task,93,52631,97,yes,1024
95.91836735,95.91836735,541.9081633,541.9081633,black,legacy,legacy,legacy,0,congruent,uniform,1,undefined,1,s,0,0,0,97,97,0,97,0,97,0,0,0,0,97,97,NA,97,97,Sat Sep 28 15:16:31 2019,600,The main experiment item,yes,FlankerTask.osexp,/Users/danielrazo0311/Desktop,no,mono,no,18,no,white,no,yes,768,legacy,17,79,/Users/danielrazo0311/Desktop/subject-3.csv,legacy,Kafkaesque Koffka,3.2.8,0,s,NA,s,h,NA,s,NA,476,NA,56743,69060,NA,476,NA,2,legacy,1024,2,48000,-16,experiment,SSSSS,3,odd,63389,279051,NA,311746,306330,6538,311234,NA,312883,NA,6561,209988,NA,312995,313474,NA,312871,312995,Flanker Task,94,53107,98,yes,1024
95.95959596,95.95959596,541.5555556,541.5555556,black,legacy,legacy,legacy,0,incongruent,uniform,1,undefined,1,s,0,0,0,98,98,0,98,0,98,0,0,0,0,98,98,NA,98,98,Sat Sep 28 15:16:31 2019,600,The main experiment item,yes,FlankerTask.osexp,/Users/danielrazo0311/Desktop,no,mono,no,18,no,white,no,yes,768,legacy,18,79,/Users/danielrazo0311/Desktop/subject-3.csv,legacy,Kafkaesque Koffka,3.2.8,0,s,NA,s,h,NA,s,NA,507,NA,56743,69060,NA,507,NA,2,legacy,1024,2,48000,-16,experiment,HHSHH,3,odd,63389,279051,NA,313489,306330,6538,311234,NA,314620,NA,6561,209988,NA,314732,315242,NA,314608,314732,Flanker Task,95,53614,99,yes,1024
96,96,540.39,540.39,black,legacy,legacy,legacy,0,congruent,uniform,1,undefined,1,h,0,0,0,99,99,0,99,0,99,0,0,0,0,99,99,NA,99,99,Sat Sep 28 15:16:31 2019,600,The main experiment item,yes,FlankerTask.osexp,/Users/danielrazo0311/Desktop,no,mono,no,18,no,white,no,yes,768,legacy,19,79,/Users/danielrazo0311/Desktop/subject-3.csv,legacy,Kafkaesque Koffka,3.2.8,0,h,NA,s,h,NA,h,NA,425,NA,56743,69060,NA,425,NA,2,legacy,1024,2,48000,-16,experiment,HHHHH,3,odd,63389,279051,NA,315257,306330,6538,311234,NA,316388,NA,6561,209988,NA,316503,316931,NA,316376,316503,Flanker Task,96,54039,100,yes,1024
96.03960396,96.03960396,538.5247525,538.5247525,black,legacy,legacy,legacy,0,congruent,uniform,1,undefined,1,h,0,0,0,100,100,0,100,0,100,0,0,0,0,100,100,NA,100,100,Sat Sep 28 15:16:31 2019,600,The main experiment item,yes,FlankerTask.osexp,/Users/danielrazo0311/Desktop,no,mono,no,18,no,white,no,yes,768,legacy,20,79,/Users/danielrazo0311/Desktop/subject-3.csv,legacy,Kafkaesque Koffka,3.2.8,0,h,NA,s,h,NA,h,NA,352,NA,56743,69060,NA,352,NA,2,legacy,1024,2,48000,-16,experiment,HHHHH,3,odd,63389,279051,NA,316946,306330,6538,311234,NA,318077,NA,6561,209988,NA,318191,318546,NA,318064,318190,Flanker Task,97,54391,101,yes,1024
95.09803922,95.09803922,537.5784314,537.5784314,black,legacy,legacy,legacy,0,incongruent,uniform,0,undefined,0,h,0,0,0,101,101,0,101,0,101,0,0,0,0,101,101,NA,101,101,Sat Sep 28 15:16:31 2019,600,The main experiment item,yes,FlankerTask.osexp,/Users/danielrazo0311/Desktop,no,mono,no,18,no,white,no,yes,768,legacy,21,79,/Users/danielrazo0311/Desktop/subject-3.csv,legacy,Kafkaesque Koffka,3.2.8,0,s,NA,s,h,NA,s,NA,442,NA,56743,69060,NA,442,NA,2,legacy,1024,2,48000,-16,experiment,SSHSS,3,odd,63389,279051,NA,318561,306330,6538,311234,NA,319691,NA,6561,209988,NA,319805,320250,NA,319678,319805,Flanker Task,97,54833,102,yes,1024
95.14563107,95.14563107,538.0097087,538.0097087,black,legacy,legacy,legacy,0,congruent,uniform,1,undefined,1,h,0,0,0,102,102,0,102,0,102,0,0,0,0,102,102,NA,102,102,Sat Sep 28 15:16:31 2019,600,The main experiment item,yes,FlankerTask.osexp,/Users/danielrazo0311/Desktop,no,mono,no,18,no,white,no,yes,768,legacy,22,79,/Users/danielrazo0311/Desktop/subject-3.csv,legacy,Kafkaesque Koffka,3.2.8,0,h,NA,s,h,NA,h,NA,582,NA,56743,69060,NA,582,NA,2,legacy,1024,2,48000,-16,experiment,HHHHH,3,odd,63389,279051,NA,320778,320265,6538,311234,NA,321911,NA,6561,209988,NA,322025,322610,NA,321898,322025,Flanker Task,98,55415,103,yes,1024
95.19230769,95.19230769,538.0673077,538.0673077,black,legacy,legacy,legacy,0,congruent,uniform,1,undefined,1,s,0,0,0,103,103,0,103,0,103,0,0,0,0,103,103,NA,103,103,Sat Sep 28 15:16:31 2019,600,The main experiment item,yes,FlankerTask.osexp,/Users/danielrazo0311/Desktop,no,mono,no,18,no,white,no,yes,768,legacy,23,79,/Users/danielrazo0311/Desktop/subject-3.csv,legacy,Kafkaesque Koffka,3.2.8,0,s,NA,s,h,NA,s,NA,544,NA,56743,69060,NA,544,NA,2,legacy,1024,2,48000,-16,experiment,SSSSS,3,odd,63389,279051,NA,322626,320265,6538,311234,NA,323756,NA,6561,209988,NA,323871,324418,NA,323743,323871,Flanker Task,99,55959,104,yes,1024
94.28571429,94.28571429,536.3714286,536.3714286,black,legacy,legacy,legacy,0,incongruent,uniform,0,undefined,0,s,0,0,0,104,104,0,104,0,104,0,0,0,0,104,104,NA,104,104,Sat Sep 28 15:16:31 2019,600,The main experiment item,yes,FlankerTask.osexp,/Users/danielrazo0311/Desktop,no,mono,no,18,no,white,no,yes,768,legacy,24,79,/Users/danielrazo0311/Desktop/subject-3.csv,legacy,Kafkaesque Koffka,3.2.8,0,h,NA,s,h,NA,h,NA,360,NA,56743,69060,NA,360,NA,2,legacy,1024,2,48000,-16,experiment,HHSHH,3,odd,63389,279051,NA,324433,320265,6538,311234,NA,325565,NA,6561,209988,NA,325679,326042,NA,325552,325678,Flanker Task,99,56319,105,yes,1024
94.33962264,94.33962264,536.9339623,536.9339623,black,legacy,legacy,legacy,0,congruent,uniform,1,undefined,1,h,0,0,0,105,105,0,105,0,105,0,0,0,0,105,105,NA,105,105,Sat Sep 28 15:16:31 2019,600,The main experiment item,yes,FlankerTask.osexp,/Users/danielrazo0311/Desktop,no,mono,no,18,no,white,no,yes,768,legacy,25,79,/Users/danielrazo0311/Desktop/subject-3.csv,legacy,Kafkaesque Koffka,3.2.8,0,h,NA,s,h,NA,h,NA,596,NA,56743,69060,NA,596,NA,2,legacy,1024,2,48000,-16,experiment,HHHHH,3,odd,63389,279051,NA,326570,326057,6538,311234,NA,327706,NA,6561,209988,NA,327819,328418,NA,327694,327819,Flanker Task,100,56915,106,yes,1024
94.39252336,94.39252336,535.728972,535.728972,black,legacy,legacy,legacy,0,congruent,uniform,1,undefined,1,h,0,0,0,106,106,0,106,0,106,0,0,0,0,106,106,NA,106,106,Sat Sep 28 15:16:31 2019,600,The main experiment item,yes,FlankerTask.osexp,/Users/danielrazo0311/Desktop,no,mono,no,18,no,white,no,yes,768,legacy,26,79,/Users/danielrazo0311/Desktop/subject-3.csv,legacy,Kafkaesque Koffka,3.2.8,0,h,NA,s,h,NA,h,NA,408,NA,56743,69060,NA,408,NA,2,legacy,1024,2,48000,-16,experiment,HHHHH,3,odd,63389,279051,NA,328440,326057,6538,311234,NA,329572,NA,6561,209988,NA,329687,330098,NA,329559,329687,Flanker Task,101,57323,107,yes,1024
94.44444444,94.44444444,534.3333333,534.3333333,black,legacy,legacy,legacy,0,congruent,uniform,1,undefined,1,h,0,0,0,107,107,0,107,0,107,0,0,0,0,107,107,NA,107,107,Sat Sep 28 15:16:31 2019,600,The main experiment item,yes,FlankerTask.osexp,/Users/danielrazo0311/Desktop,no,mono,no,18,no,white,no,yes,768,legacy,27,79,/Users/danielrazo0311/Desktop/subject-3.csv,legacy,Kafkaesque Koffka,3.2.8,0,h,NA,s,h,NA,h,NA,385,NA,56743,69060,NA,385,NA,2,legacy,1024,2,48000,-16,experiment,HHHHH,3,odd,63389,279051,NA,330113,326057,6538,311234,NA,331244,NA,6561,209988,NA,331358,331746,NA,331231,331358,Flanker Task,102,57708,108,yes,1024
93.57798165,93.57798165,532.8990826,532.8990826,black,legacy,legacy,legacy,0,incongruent,uniform,0,undefined,0,h,0,0,0,108,108,0,108,0,108,0,0,0,0,108,108,NA,108,108,Sat Sep 28 15:16:31 2019,600,The main experiment item,yes,FlankerTask.osexp,/Users/danielrazo0311/Desktop,no,mono,no,18,no,white,no,yes,768,legacy,28,79,/Users/danielrazo0311/Desktop/subject-3.csv,legacy,Kafkaesque Koffka,3.2.8,0,s,NA,s,h,NA,s,NA,378,NA,56743,69060,NA,378,NA,2,legacy,1024,2,48000,-16,experiment,SSHSS,3,odd,63389,279051,NA,331762,326057,6538,311234,NA,332899,NA,6561,209988,NA,333013,333394,NA,332886,333013,Flanker Task,102,58086,109,yes,1024
93.63636364,93.63636364,533.0090909,533.0090909,black,legacy,legacy,legacy,0,incongruent,uniform,1,undefined,1,h,0,0,0,109,109,0,109,0,109,0,0,0,0,109,109,NA,109,109,Sat Sep 28 15:16:31 2019,600,The main experiment item,yes,FlankerTask.osexp,/Users/danielrazo0311/Desktop,no,mono,no,18,no,white,no,yes,768,legacy,29,79,/Users/danielrazo0311/Desktop/subject-3.csv,legacy,Kafkaesque Koffka,3.2.8,0,h,NA,s,h,NA,h,NA,545,NA,56743,69060,NA,545,NA,2,legacy,1024,2,48000,-16,experiment,SSHSS,3,odd,63389,279051,NA,333923,333409,6538,311234,NA,335052,NA,6561,209988,NA,335166,335714,NA,335040,335166,Flanker Task,103,58631,110,yes,1024
93.69369369,93.69369369,531.8918919,531.8918919,black,legacy,legacy,legacy,0,congruent,uniform,1,undefined,1,h,0,0,0,110,110,0,110,0,110,0,0,0,0,110,110,NA,110,110,Sat Sep 28 15:16:31 2019,600,The main experiment item,yes,FlankerTask.osexp,/Users/danielrazo0311/Desktop,no,mono,no,18,no,white,no,yes,768,legacy,30,79,/Users/danielrazo0311/Desktop/subject-3.csv,legacy,Kafkaesque Koffka,3.2.8,0,h,NA,s,h,NA,h,NA,409,NA,56743,69060,NA,409,NA,2,legacy,1024,2,48000,-16,experiment,HHHHH,3,odd,63389,279051,NA,335729,333409,6538,311234,NA,336861,NA,6561,209988,NA,336974,337386,NA,336848,336973,Flanker Task,104,59040,111,yes,1024
93.75,93.75,530.5178571,530.5178571,black,legacy,legacy,legacy,0,congruent,uniform,1,undefined,1,h,0,0,0,111,111,0,111,0,111,0,0,0,0,111,111,NA,111,111,Sat Sep 28 15:16:31 2019,600,The main experiment item,yes,FlankerTask.osexp,/Users/danielrazo0311/Desktop,no,mono,no,18,no,white,no,yes,768,legacy,31,79,/Users/danielrazo0311/Desktop/subject-3.csv,legacy,Kafkaesque Koffka,3.2.8,0,h,NA,s,h,NA,h,NA,378,NA,56743,69060,NA,378,NA,2,legacy,1024,2,48000,-16,experiment,HHHHH,3,odd,63389,279051,NA,337401,333409,6538,311234,NA,338538,NA,6561,209988,NA,338652,339034,NA,338525,338652,Flanker Task,105,59418,112,yes,1024
93.80530973,93.80530973,530.6902655,530.6902655,black,legacy,legacy,legacy,0,incongruent,uniform,1,undefined,1,s,0,0,0,112,112,0,112,0,112,0,0,0,0,112,112,NA,112,112,Sat Sep 28 15:16:31 2019,600,The main experiment item,yes,FlankerTask.osexp,/Users/danielrazo0311/Desktop,no,mono,no,18,no,white,no,yes,768,legacy,32,79,/Users/danielrazo0311/Desktop/subject-3.csv,legacy,Kafkaesque Koffka,3.2.8,0,s,NA,s,h,NA,s,NA,550,NA,56743,69060,NA,550,NA,2,legacy,1024,2,48000,-16,experiment,HHSHH,3,odd,63389,279051,NA,339049,333409,6538,311234,NA,340181,NA,6561,209988,NA,340296,340850,NA,340169,340296,Flanker Task,106,59968,113,yes,1024
93.85964912,93.85964912,529.9736842,529.9736842,black,legacy,legacy,legacy,0,congruent,uniform,1,undefined,1,s,0,0,0,113,113,0,113,0,113,0,0,0,0,113,113,NA,113,113,Sat Sep 28 15:16:31 2019,600,The main experiment item,yes,FlankerTask.osexp,/Users/danielrazo0311/Desktop,no,mono,no,18,no,white,no,yes,768,legacy,33,79,/Users/danielrazo0311/Desktop/subject-3.csv,legacy,Kafkaesque Koffka,3.2.8,0,s,NA,s,h,NA,s,NA,449,NA,56743,69060,NA,449,NA,2,legacy,1024,2,48000,-16,experiment,SSSSS,3,odd,63389,279051,NA,340866,333409,6538,311234,NA,341995,NA,6561,209988,NA,342109,342562,NA,341983,342109,Flanker Task,107,60417,114,yes,1024
93.91304348,93.91304348,529,529,black,legacy,legacy,legacy,0,congruent,uniform,1,undefined,1,s,0,0,0,114,114,0,114,0,114,0,0,0,0,114,114,NA,114,114,Sat Sep 28 15:16:31 2019,600,The main experiment item,yes,FlankerTask.osexp,/Users/danielrazo0311/Desktop,no,mono,no,18,no,white,no,yes,768,legacy,34,79,/Users/danielrazo0311/Desktop/subject-3.csv,legacy,Kafkaesque Koffka,3.2.8,0,s,NA,s,h,NA,s,NA,418,NA,56743,69060,NA,418,NA,2,legacy,1024,2,48000,-16,experiment,SSSSS,3,odd,63389,279051,NA,342577,333409,6538,311234,NA,343707,NA,6561,209988,NA,343820,344242,NA,343694,343820,Flanker Task,108,60835,115,yes,1024
93.96551724,93.96551724,528.7931034,528.7931034,black,legacy,legacy,legacy,0,incongruent,uniform,1,undefined,1,h,0,0,0,115,115,0,115,0,115,0,0,0,0,115,115,NA,115,115,Sat Sep 28 15:16:31 2019,600,The main experiment item,yes,FlankerTask.osexp,/Users/danielrazo0311/Desktop,no,mono,no,18,no,white,no,yes,768,legacy,35,79,/Users/danielrazo0311/Desktop/subject-3.csv,legacy,Kafkaesque Koffka,3.2.8,0,h,NA,s,h,NA,h,NA,505,NA,56743,69060,NA,505,NA,2,legacy,1024,2,48000,-16,experiment,SSHSS,3,odd,63389,279051,NA,344257,333409,6538,311234,NA,345387,NA,6561,209988,NA,345501,346010,NA,345375,345501,Flanker Task,109,61340,116,yes,1024
94.01709402,94.01709402,528.1965812,528.1965812,black,legacy,legacy,legacy,0,incongruent,uniform,1,undefined,1,h,0,0,0,116,116,0,116,0,116,0,0,0,0,116,116,NA,116,116,Sat Sep 28 15:16:31 2019,600,The main experiment item,yes,FlankerTask.osexp,/Users/danielrazo0311/Desktop,no,mono,no,18,no,white,no,yes,768,legacy,36,79,/Users/danielrazo0311/Desktop/subject-3.csv,legacy,Kafkaesque Koffka,3.2.8,0,h,NA,s,h,NA,h,NA,459,NA,56743,69060,NA,459,NA,2,legacy,1024,2,48000,-16,experiment,SSHSS,3,odd,63389,279051,NA,346045,333409,6538,311234,NA,347177,NA,6561,209988,NA,347291,347754,NA,347164,347291,Flanker Task,110,61799,117,yes,1024
94.06779661,94.06779661,527.940678,527.940678,black,legacy,legacy,legacy,0,incongruent,uniform,1,undefined,1,h,0,0,0,117,117,0,117,0,117,0,0,0,0,117,117,NA,117,117,Sat Sep 28 15:16:31 2019,600,The main experiment item,yes,FlankerTask.osexp,/Users/danielrazo0311/Desktop,no,mono,no,18,no,white,no,yes,768,legacy,37,79,/Users/danielrazo0311/Desktop/subject-3.csv,legacy,Kafkaesque Koffka,3.2.8,0,h,NA,s,h,NA,h,NA,498,NA,56743,69060,NA,498,NA,2,legacy,1024,2,48000,-16,experiment,SSHSS,3,odd,63389,279051,NA,347769,333409,6538,311234,NA,348907,NA,6561,209988,NA,349020,349522,NA,348894,349020,Flanker Task,111,62297,118,yes,1024
94.11764706,94.11764706,527.4117647,527.4117647,black,legacy,legacy,legacy,0,incongruent,uniform,1,undefined,1,s,0,0,0,118,118,0,118,0,118,0,0,0,0,118,118,NA,118,118,Sat Sep 28 15:16:31 2019,600,The main experiment item,yes,FlankerTask.osexp,/Users/danielrazo0311/Desktop,no,mono,no,18,no,white,no,yes,768,legacy,38,79,/Users/danielrazo0311/Desktop/subject-3.csv,legacy,Kafkaesque Koffka,3.2.8,0,s,NA,s,h,NA,s,NA,465,NA,56743,69060,NA,465,NA,2,legacy,1024,2,48000,-16,experiment,HHSHH,3,odd,63389,279051,NA,349537,333409,6538,311234,NA,350675,NA,6561,209988,NA,350789,351258,NA,350662,350789,Flanker Task,112,62762,119,yes,1024
94.16666667,94.16666667,526.75,526.75,black,legacy,legacy,legacy,0,incongruent,uniform,1,undefined,1,s,0,0,0,119,119,0,119,0,119,0,0,0,0,119,119,NA,119,119,Sat Sep 28 15:16:31 2019,600,The main experiment item,yes,FlankerTask.osexp,/Users/danielrazo0311/Desktop,no,mono,no,18,no,white,no,yes,768,legacy,39,79,/Users/danielrazo0311/Desktop/subject-3.csv,legacy,Kafkaesque Koffka,3.2.8,0,s,NA,s,h,NA,s,NA,448,NA,56743,69060,NA,448,NA,2,legacy,1024,2,48000,-16,experiment,HHSHH,3,odd,63389,279051,NA,351274,333409,6538,311234,NA,352406,NA,6561,209988,NA,352519,352971,NA,352394,352519,Flanker Task,113,63210,120,yes,1024
94.21487603,94.21487603,526.4049587,526.4049587,black,legacy,legacy,legacy,0,congruent,uniform,1,undefined,1,s,0,0,0,120,120,0,120,0,120,0,0,0,0,120,120,NA,120,120,Sat Sep 28 15:16:31 2019,600,The main experiment item,yes,FlankerTask.osexp,/Users/danielrazo0311/Desktop,no,mono,no,18,no,white,no,yes,768,legacy,40,79,/Users/danielrazo0311/Desktop/subject-3.csv,legacy,Kafkaesque Koffka,3.2.8,0,s,NA,s,h,NA,s,NA,485,NA,56743,69060,NA,485,NA,2,legacy,1024,2,48000,-16,experiment,SSSSS,3,odd,63389,279051,NA,352986,333409,6538,311234,NA,354117,NA,6561,209988,NA,354233,354721,NA,354104,354233,Flanker Task,114,63695,121,yes,1024
94.26229508,94.26229508,526.7295082,526.7295082,black,legacy,legacy,legacy,0,incongruent,uniform,1,undefined,1,h,0,0,0,121,121,0,121,0,121,0,0,0,0,121,121,NA,121,121,Sat Sep 28 15:16:31 2019,600,The main experiment item,yes,FlankerTask.osexp,/Users/danielrazo0311/Desktop,no,mono,no,18,no,white,no,yes,768,legacy,41,79,/Users/danielrazo0311/Desktop/subject-3.csv,legacy,Kafkaesque Koffka,3.2.8,0,h,NA,s,h,NA,h,NA,566,NA,56743,69060,NA,566,NA,2,legacy,1024,2,48000,-16,experiment,SSHSS,3,odd,63389,279051,NA,354737,333409,6538,311234,NA,355868,NA,6561,209988,NA,355984,356553,NA,355855,355983,Flanker Task,115,64261,122,yes,1024
94.30894309,94.30894309,526.495935,526.495935,black,legacy,legacy,legacy,0,incongruent,uniform,1,undefined,1,h,0,0,0,122,122,0,122,0,122,0,0,0,0,122,122,NA,122,122,Sat Sep 28 15:16:31 2019,600,The main experiment item,yes,FlankerTask.osexp,/Users/danielrazo0311/Desktop,no,mono,no,18,no,white,no,yes,768,legacy,42,79,/Users/danielrazo0311/Desktop/subject-3.csv,legacy,Kafkaesque Koffka,3.2.8,0,h,NA,s,h,NA,h,NA,498,NA,56743,69060,NA,498,NA,2,legacy,1024,2,48000,-16,experiment,SSHSS,3,odd,63389,279051,NA,356569,333409,6538,311234,NA,357706,NA,6561,209988,NA,357820,358322,NA,357694,357820,Flanker Task,116,64759,123,yes,1024
94.35483871,94.35483871,526.3064516,526.3064516,black,legacy,legacy,legacy,0,incongruent,uniform,1,undefined,1,s,0,0,0,123,123,0,123,0,123,0,0,0,0,123,123,NA,123,123,Sat Sep 28 15:16:31 2019,600,The main experiment item,yes,FlankerTask.osexp,/Users/danielrazo0311/Desktop,no,mono,no,18,no,white,no,yes,768,legacy,43,79,/Users/danielrazo0311/Desktop/subject-3.csv,legacy,Kafkaesque Koffka,3.2.8,0,s,NA,s,h,NA,s,NA,503,NA,56743,69060,NA,503,NA,2,legacy,1024,2,48000,-16,experiment,HHSHH,3,odd,63389,279051,NA,358338,333409,6538,311234,NA,359470,NA,6561,209988,NA,359583,360089,NA,359457,359582,Flanker Task,117,65262,124,yes,1024
93.6,93.6,525.704,525.704,black,legacy,legacy,legacy,0,incongruent,uniform,0,undefined,0,s,0,0,0,124,124,0,124,0,124,0,0,0,0,124,124,NA,124,124,Sat Sep 28 15:16:31 2019,600,The main experiment item,yes,FlankerTask.osexp,/Users/danielrazo0311/Desktop,no,mono,no,18,no,white,no,yes,768,legacy,44,79,/Users/danielrazo0311/Desktop/subject-3.csv,legacy,Kafkaesque Koffka,3.2.8,0,h,NA,s,h,NA,h,NA,451,NA,56743,69060,NA,451,NA,2,legacy,1024,2,48000,-16,experiment,HHSHH,3,odd,63389,279051,NA,360105,333409,6538,311234,NA,361235,NA,6561,209988,NA,361347,361801,NA,361223,361347,Flanker Task,117,65713,125,yes,1024
93.65079365,93.65079365,525.6428571,525.6428571,black,legacy,legacy,legacy,0,incongruent,uniform,1,undefined,1,s,0,0,0,125,125,0,125,0,125,0,0,0,0,125,125,NA,125,125,Sat Sep 28 15:16:31 2019,600,The main experiment item,yes,FlankerTask.osexp,/Users/danielrazo0311/Desktop,no,mono,no,18,no,white,no,yes,768,legacy,45,79,/Users/danielrazo0311/Desktop/subject-3.csv,legacy,Kafkaesque Koffka,3.2.8,0,s,NA,s,h,NA,s,NA,518,NA,56743,69060,NA,518,NA,2,legacy,1024,2,48000,-16,experiment,HHSHH,3,odd,63389,279051,NA,362331,361817,6538,311234,NA,363462,NA,6561,209988,NA,363576,364098,NA,363450,363576,Flanker Task,118,66231,126,yes,1024
93.7007874,93.7007874,525.992126,525.992126,black,legacy,legacy,legacy,0,incongruent,uniform,1,undefined,1,s,0,0,0,126,126,0,126,0,126,0,0,0,0,126,126,NA,126,126,Sat Sep 28 15:16:31 2019,600,The main experiment item,yes,FlankerTask.osexp,/Users/danielrazo0311/Desktop,no,mono,no,18,no,white,no,yes,768,legacy,46,79,/Users/danielrazo0311/Desktop/subject-3.csv,legacy,Kafkaesque Koffka,3.2.8,0,s,NA,s,h,NA,s,NA,570,NA,56743,69060,NA,570,NA,2,legacy,1024,2,48000,-16,experiment,HHSHH,3,odd,63389,279051,NA,364113,361817,6538,311234,NA,365244,NA,6561,209988,NA,365357,365930,NA,365231,365357,Flanker Task,119,66801,127,yes,1024
93.75,93.75,525.1953125,525.1953125,black,legacy,legacy,legacy,0,congruent,uniform,1,undefined,1,s,0,0,0,127,127,0,127,0,127,0,0,0,0,127,127,NA,127,127,Sat Sep 28 15:16:31 2019,600,The main experiment item,yes,FlankerTask.osexp,/Users/danielrazo0311/Desktop,no,mono,no,18,no,white,no,yes,768,legacy,47,79,/Users/danielrazo0311/Desktop/subject-3.csv,legacy,Kafkaesque Koffka,3.2.8,0,s,NA,s,h,NA,s,NA,424,NA,56743,69060,NA,424,NA,2,legacy,1024,2,48000,-16,experiment,SSSSS,3,odd,63389,279051,NA,365946,361817,6538,311234,NA,367076,NA,6561,209988,NA,367190,367617,NA,367064,367190,Flanker Task,120,67225,128,yes,1024
93.79844961,93.79844961,524.5426357,524.5426357,black,legacy,legacy,legacy,0,congruent,uniform,1,undefined,1,h,0,0,0,128,128,0,128,0,128,0,0,0,0,128,128,NA,128,128,Sat Sep 28 15:16:31 2019,600,The main experiment item,yes,FlankerTask.osexp,/Users/danielrazo0311/Desktop,no,mono,no,18,no,white,no,yes,768,legacy,48,79,/Users/danielrazo0311/Desktop/subject-3.csv,legacy,Kafkaesque Koffka,3.2.8,0,h,NA,s,h,NA,h,NA,441,NA,56743,69060,NA,441,NA,2,legacy,1024,2,48000,-16,experiment,HHHHH,3,odd,63389,279051,NA,367632,361817,6538,311234,NA,368763,NA,6561,209988,NA,368877,369321,NA,368751,368877,Flanker Task,121,67666,129,yes,1024
93.84615385,93.84615385,524.2384615,524.2384615,black,legacy,legacy,legacy,0,incongruent,uniform,1,undefined,1,h,0,0,0,129,129,0,129,0,129,0,0,0,0,129,129,NA,129,129,Sat Sep 28 15:16:31 2019,600,The main experiment item,yes,FlankerTask.osexp,/Users/danielrazo0311/Desktop,no,mono,no,18,no,white,no,yes,768,legacy,49,79,/Users/danielrazo0311/Desktop/subject-3.csv,legacy,Kafkaesque Koffka,3.2.8,0,h,NA,s,h,NA,h,NA,485,NA,56743,69060,NA,485,NA,2,legacy,1024,2,48000,-16,experiment,SSHSS,3,odd,63389,279051,NA,369348,361817,6538,311234,NA,370478,NA,6561,209988,NA,370593,371081,NA,370466,370593,Flanker Task,122,68151,130,yes,1024
93.89312977,93.89312977,523.7862595,523.7862595,black,legacy,legacy,legacy,0,congruent,uniform,1,undefined,1,s,0,0,0,130,130,0,130,0,130,0,0,0,0,130,130,NA,130,130,Sat Sep 28 15:16:31 2019,600,The main experiment item,yes,FlankerTask.osexp,/Users/danielrazo0311/Desktop,no,mono,no,18,no,white,no,yes,768,legacy,50,79,/Users/danielrazo0311/Desktop/subject-3.csv,legacy,Kafkaesque Koffka,3.2.8,0,s,NA,s,h,NA,s,NA,465,NA,56743,69060,NA,465,NA,2,legacy,1024,2,48000,-16,experiment,SSSSS,3,odd,63389,279051,NA,371096,361817,6538,311234,NA,372227,NA,6561,209988,NA,372341,372809,NA,372215,372341,Flanker Task,123,68616,131,yes,1024
93.93939394,93.93939394,523.5075758,523.5075758,black,legacy,legacy,legacy,0,congruent,uniform,1,undefined,1,h,0,0,0,131,131,0,131,0,131,0,0,0,0,131,131,NA,131,131,Sat Sep 28 15:16:31 2019,600,The main experiment item,yes,FlankerTask.osexp,/Users/danielrazo0311/Desktop,no,mono,no,18,no,white,no,yes,768,legacy,51,79,/Users/danielrazo0311/Desktop/subject-3.csv,legacy,Kafkaesque Koffka,3.2.8,0,h,NA,s,h,NA,h,NA,487,NA,56743,69060,NA,487,NA,2,legacy,1024,2,48000,-16,experiment,HHHHH,3,odd,63389,279051,NA,372824,361817,6538,311234,NA,373958,NA,6561,209988,NA,374071,374561,NA,373946,374071,Flanker Task,124,69103,132,yes,1024
93.98496241,93.98496241,523.1654135,523.1654135,black,legacy,legacy,legacy,0,incongruent,uniform,1,undefined,1,s,0,0,0,132,132,0,132,0,132,0,0,0,0,132,132,NA,132,132,Sat Sep 28 15:16:31 2019,600,The main experiment item,yes,FlankerTask.osexp,/Users/danielrazo0311/Desktop,no,mono,no,18,no,white,no,yes,768,legacy,52,79,/Users/danielrazo0311/Desktop/subject-3.csv,legacy,Kafkaesque Koffka,3.2.8,0,s,NA,s,h,NA,s,NA,478,NA,56743,69060,NA,478,NA,2,legacy,1024,2,48000,-16,experiment,HHSHH,3,odd,63389,279051,NA,374579,361817,6538,311234,NA,375711,NA,6561,209988,NA,375824,376305,NA,375698,375824,Flanker Task,125,69581,133,yes,1024
94.02985075,94.02985075,523.0298507,523.0298507,black,legacy,legacy,legacy,0,incongruent,uniform,1,undefined,1,h,0,0,0,133,133,0,133,0,133,0,0,0,0,133,133,NA,133,133,Sat Sep 28 15:16:31 2019,600,The main experiment item,yes,FlankerTask.osexp,/Users/danielrazo0311/Desktop,no,mono,no,18,no,white,no,yes,768,legacy,53,79,/Users/danielrazo0311/Desktop/subject-3.csv,legacy,Kafkaesque Koffka,3.2.8,0,h,NA,s,h,NA,h,NA,505,NA,56743,69060,NA,505,NA,2,legacy,1024,2,48000,-16,experiment,SSHSS,3,odd,63389,279051,NA,376320,361817,6538,311234,NA,377451,NA,6561,209988,NA,377564,378073,NA,377438,377564,Flanker Task,126,70086,134,yes,1024
94.07407407,94.07407407,522.5851852,522.5851852,black,legacy,legacy,legacy,0,congruent,uniform,1,undefined,1,h,0,0,0,134,134,0,134,0,134,0,0,0,0,134,134,NA,134,134,Sat Sep 28 15:16:31 2019,600,The main experiment item,yes,FlankerTask.osexp,/Users/danielrazo0311/Desktop,no,mono,no,18,no,white,no,yes,768,legacy,54,79,/Users/danielrazo0311/Desktop/subject-3.csv,legacy,Kafkaesque Koffka,3.2.8,0,h,NA,s,h,NA,h,NA,463,NA,56743,69060,NA,463,NA,2,legacy,1024,2,48000,-16,experiment,HHHHH,3,odd,63389,279051,NA,378089,361817,6538,311234,NA,379220,NA,6561,209988,NA,379334,379801,NA,379208,379334,Flanker Task,127,70549,135,yes,1024
94.11764706,94.11764706,522.5588235,522.5588235,black,legacy,legacy,legacy,0,incongruent,uniform,1,undefined,1,s,0,0,0,135,135,0,135,0,135,0,0,0,0,135,135,NA,135,135,Sat Sep 28 15:16:31 2019,600,The main experiment item,yes,FlankerTask.osexp,/Users/danielrazo0311/Desktop,no,mono,no,18,no,white,no,yes,768,legacy,55,79,/Users/danielrazo0311/Desktop/subject-3.csv,legacy,Kafkaesque Koffka,3.2.8,0,s,NA,s,h,NA,s,NA,519,NA,56743,69060,NA,519,NA,2,legacy,1024,2,48000,-16,experiment,HHSHH,3,odd,63389,279051,NA,379816,361817,6538,311234,NA,380949,NA,6561,209988,NA,381062,381585,NA,380937,381061,Flanker Task,128,71068,136,yes,1024
94.16058394,94.16058394,522.3284672,522.3284672,black,legacy,legacy,legacy,0,incongruent,uniform,1,undefined,1,s,0,0,0,136,136,0,136,0,136,0,0,0,0,136,136,NA,136,136,Sat Sep 28 15:16:31 2019,600,The main experiment item,yes,FlankerTask.osexp,/Users/danielrazo0311/Desktop,no,mono,no,18,no,white,no,yes,768,legacy,56,79,/Users/danielrazo0311/Desktop/subject-3.csv,legacy,Kafkaesque Koffka,3.2.8,0,s,NA,s,h,NA,s,NA,491,NA,56743,69060,NA,491,NA,2,legacy,1024,2,48000,-16,experiment,HHSHH,3,odd,63389,279051,NA,381601,361817,6538,311234,NA,382737,NA,6561,209988,NA,382850,383345,NA,382725,382850,Flanker Task,129,71559,137,yes,1024
94.20289855,94.20289855,522.0072464,522.0072464,black,legacy,legacy,legacy,0,incongruent,uniform,1,undefined,1,h,0,0,0,137,137,0,137,0,137,0,0,0,0,137,137,NA,137,137,Sat Sep 28 15:16:31 2019,600,The main experiment item,yes,FlankerTask.osexp,/Users/danielrazo0311/Desktop,no,mono,no,18,no,white,no,yes,768,legacy,57,79,/Users/danielrazo0311/Desktop/subject-3.csv,legacy,Kafkaesque Koffka,3.2.8,0,h,NA,s,h,NA,h,NA,478,NA,56743,69060,NA,478,NA,2,legacy,1024,2,48000,-16,experiment,SSHSS,3,odd,63389,279051,NA,383360,361817,6538,311234,NA,384492,NA,6561,209988,NA,384607,385089,NA,384480,384607,Flanker Task,130,72037,138,yes,1024
94.24460432,94.24460432,522.0719424,522.0719424,black,legacy,legacy,legacy,0,incongruent,uniform,1,undefined,1,h,0,0,0,138,138,0,138,0,138,0,0,0,0,138,138,NA,138,138,Sat Sep 28 15:16:31 2019,600,The main experiment item,yes,FlankerTask.osexp,/Users/danielrazo0311/Desktop,no,mono,no,18,no,white,no,yes,768,legacy,58,79,/Users/danielrazo0311/Desktop/subject-3.csv,legacy,Kafkaesque Koffka,3.2.8,0,h,NA,s,h,NA,h,NA,531,NA,56743,69060,NA,531,NA,2,legacy,1024,2,48000,-16,experiment,SSHSS,3,odd,63389,279051,NA,385104,361817,6538,311234,NA,386235,NA,6561,209988,NA,386347,386882,NA,386222,386347,Flanker Task,131,72568,139,yes,1024
93.57142857,93.57142857,521.7142857,521.7142857,black,legacy,legacy,legacy,0,congruent,uniform,0,undefined,0,s,0,0,0,139,139,0,139,0,139,0,0,0,0,139,139,NA,139,139,Sat Sep 28 15:16:31 2019,600,The main experiment item,yes,FlankerTask.osexp,/Users/danielrazo0311/Desktop,no,mono,no,18,no,white,no,yes,768,legacy,59,79,/Users/danielrazo0311/Desktop/subject-3.csv,legacy,Kafkaesque Koffka,3.2.8,0,h,NA,s,h,NA,h,NA,472,NA,56743,69060,NA,472,NA,2,legacy,1024,2,48000,-16,experiment,SSSSS,3,odd,63389,279051,NA,386897,361817,6538,311234,NA,388027,NA,6561,209988,NA,388141,388617,NA,388014,388141,Flanker Task,131,73040,140,yes,1024
93.61702128,93.61702128,522.8014184,522.8014184,black,legacy,legacy,legacy,0,congruent,uniform,1,undefined,1,h,0,0,0,140,140,0,140,0,140,0,0,0,0,140,140,NA,140,140,Sat Sep 28 15:16:31 2019,600,The main experiment item,yes,FlankerTask.osexp,/Users/danielrazo0311/Desktop,no,mono,no,18,no,white,no,yes,768,legacy,60,79,/Users/danielrazo0311/Desktop/subject-3.csv,legacy,Kafkaesque Koffka,3.2.8,0,h,NA,s,h,NA,h,NA,675,NA,56743,69060,NA,675,NA,2,legacy,1024,2,48000,-16,experiment,HHHHH,3,odd,63389,279051,NA,389144,388632,6538,311234,NA,390277,NA,6561,209988,NA,390394,391073,NA,390264,390394,Flanker Task,132,73715,141,yes,1024
93.66197183,93.66197183,522.7957746,522.7957746,black,legacy,legacy,legacy,0,congruent,uniform,1,undefined,1,s,0,0,0,141,141,0,141,0,141,0,0,0,0,141,141,NA,141,141,Sat Sep 28 15:16:31 2019,600,The main experiment item,yes,FlankerTask.osexp,/Users/danielrazo0311/Desktop,no,mono,no,18,no,white,no,yes,768,legacy,61,79,/Users/danielrazo0311/Desktop/subject-3.csv,legacy,Kafkaesque Koffka,3.2.8,0,s,NA,s,h,NA,s,NA,522,NA,56743,69060,NA,522,NA,2,legacy,1024,2,48000,-16,experiment,SSSSS,3,odd,63389,279051,NA,391600,388632,6538,391088,NA,392729,NA,6561,209988,NA,392843,393369,NA,392717,392843,Flanker Task,133,74237,142,yes,1024
93.70629371,93.70629371,522.9440559,522.9440559,black,legacy,legacy,legacy,0,incongruent,uniform,1,undefined,1,s,0,0,0,142,142,0,142,0,142,0,0,0,0,142,142,NA,142,142,Sat Sep 28 15:16:31 2019,600,The main experiment item,yes,FlankerTask.osexp,/Users/danielrazo0311/Desktop,no,mono,no,18,no,white,no,yes,768,legacy,62,79,/Users/danielrazo0311/Desktop/subject-3.csv,legacy,Kafkaesque Koffka,3.2.8,0,s,NA,s,h,NA,s,NA,544,NA,56743,69060,NA,544,NA,2,legacy,1024,2,48000,-16,experiment,HHSHH,3,odd,63389,279051,NA,393384,388632,6538,391088,NA,394515,NA,6561,209988,NA,394629,395177,NA,394503,394628,Flanker Task,134,74781,143,yes,1024
93.75,93.75,522.3194444,522.3194444,black,legacy,legacy,legacy,0,congruent,uniform,1,undefined,1,s,0,0,0,143,143,0,143,0,143,0,0,0,0,143,143,NA,143,143,Sat Sep 28 15:16:31 2019,600,The main experiment item,yes,FlankerTask.osexp,/Users/danielrazo0311/Desktop,no,mono,no,18,no,white,no,yes,768,legacy,63,79,/Users/danielrazo0311/Desktop/subject-3.csv,legacy,Kafkaesque Koffka,3.2.8,0,s,NA,s,h,NA,s,NA,433,NA,56743,69060,NA,433,NA,2,legacy,1024,2,48000,-16,experiment,SSSSS,3,odd,63389,279051,NA,395192,388632,6538,391088,NA,396322,NA,6561,209988,NA,396437,396874,NA,396310,396437,Flanker Task,135,75214,144,yes,1024
93.79310345,93.79310345,522.0689655,522.0689655,black,legacy,legacy,legacy,0,incongruent,uniform,1,undefined,1,h,0,0,0,144,144,0,144,0,144,0,0,0,0,144,144,NA,144,144,Sat Sep 28 15:16:31 2019,600,The main experiment item,yes,FlankerTask.osexp,/Users/danielrazo0311/Desktop,no,mono,no,18,no,white,no,yes,768,legacy,64,79,/Users/danielrazo0311/Desktop/subject-3.csv,legacy,Kafkaesque Koffka,3.2.8,0,h,NA,s,h,NA,h,NA,486,NA,56743,69060,NA,486,NA,2,legacy,1024,2,48000,-16,experiment,SSHSS,3,odd,63389,279051,NA,396889,388632,6538,391088,NA,398022,NA,6561,209988,NA,398135,398625,NA,398010,398134,Flanker Task,136,75700,145,yes,1024
93.83561644,93.83561644,521.630137,521.630137,black,legacy,legacy,legacy,0,congruent,uniform,1,undefined,1,s,0,0,0,145,145,0,145,0,145,0,0,0,0,145,145,NA,145,145,Sat Sep 28 15:16:31 2019,600,The main experiment item,yes,FlankerTask.osexp,/Users/danielrazo0311/Desktop,no,mono,no,18,no,white,no,yes,768,legacy,65,79,/Users/danielrazo0311/Desktop/subject-3.csv,legacy,Kafkaesque Koffka,3.2.8,0,s,NA,s,h,NA,s,NA,458,NA,56743,69060,NA,458,NA,2,legacy,1024,2,48000,-16,experiment,SSSSS,3,odd,63389,279051,NA,398644,388632,6538,391088,NA,399774,NA,6561,209988,NA,399891,400353,NA,399762,399890,Flanker Task,137,76158,146,yes,1024
93.87755102,93.87755102,521.6258503,521.6258503,black,legacy,legacy,legacy,0,incongruent,uniform,1,undefined,1,h,0,0,0,146,146,0,146,0,146,0,0,0,0,146,146,NA,146,146,Sat Sep 28 15:16:31 2019,600,The main experiment item,yes,FlankerTask.osexp,/Users/danielrazo0311/Desktop,no,mono,no,18,no,white,no,yes,768,legacy,66,79,/Users/danielrazo0311/Desktop/subject-3.csv,legacy,Kafkaesque Koffka,3.2.8,0,h,NA,s,h,NA,h,NA,521,NA,56743,69060,NA,521,NA,2,legacy,1024,2,48000,-16,experiment,SSHSS,3,odd,63389,279051,NA,400470,388632,6538,391088,NA,401603,NA,6561,209988,NA,401716,402241,NA,401590,401716,Flanker Task,138,76679,147,yes,1024
93.91891892,93.91891892,521.5067568,521.5067568,black,legacy,legacy,legacy,0,incongruent,uniform,1,undefined,1,h,0,0,0,147,147,0,147,0,147,0,0,0,0,147,147,NA,147,147,Sat Sep 28 15:16:31 2019,600,The main experiment item,yes,FlankerTask.osexp,/Users/danielrazo0311/Desktop,no,mono,no,18,no,white,no,yes,768,legacy,67,79,/Users/danielrazo0311/Desktop/subject-3.csv,legacy,Kafkaesque Koffka,3.2.8,0,h,NA,s,h,NA,h,NA,504,NA,56743,69060,NA,504,NA,2,legacy,1024,2,48000,-16,experiment,SSHSS,3,odd,63389,279051,NA,402256,388632,6538,391088,NA,403389,NA,6561,209988,NA,403501,404009,NA,403376,403501,Flanker Task,139,77183,148,yes,1024
93.95973154,93.95973154,521.7718121,521.7718121,black,legacy,legacy,legacy,0,congruent,uniform,1,undefined,1,s,0,0,0,148,148,0,148,0,148,0,0,0,0,148,148,NA,148,148,Sat Sep 28 15:16:31 2019,600,The main experiment item,yes,FlankerTask.osexp,/Users/danielrazo0311/Desktop,no,mono,no,18,no,white,no,yes,768,legacy,68,79,/Users/danielrazo0311/Desktop/subject-3.csv,legacy,Kafkaesque Koffka,3.2.8,0,s,NA,s,h,NA,s,NA,561,NA,56743,69060,NA,561,NA,2,legacy,1024,2,48000,-16,experiment,SSSSS,3,odd,63389,279051,NA,404066,388632,6538,391088,NA,405196,NA,6561,209988,NA,405309,405874,NA,405183,405309,Flanker Task,140,77744,149,yes,1024
94,94,522.3,522.3,black,legacy,legacy,legacy,0,incongruent,uniform,1,undefined,1,s,0,0,0,149,149,0,149,0,149,0,0,0,0,149,149,NA,149,149,Sat Sep 28 15:16:31 2019,600,The main experiment item,yes,FlankerTask.osexp,/Users/danielrazo0311/Desktop,no,mono,no,18,no,white,no,yes,768,legacy,69,79,/Users/danielrazo0311/Desktop/subject-3.csv,legacy,Kafkaesque Koffka,3.2.8,0,s,NA,s,h,NA,s,NA,601,NA,56743,69060,NA,601,NA,2,legacy,1024,2,48000,-16,experiment,HHSHH,3,odd,63389,279051,NA,405960,388632,6538,391088,NA,407092,NA,6561,209988,NA,407204,407809,NA,407079,407204,Flanker Task,141,78345,150,yes,1024
94.0397351,94.0397351,521.9801325,521.9801325,black,legacy,legacy,legacy,0,congruent,uniform,1,undefined,1,h,0,0,0,150,150,0,150,0,150,0,0,0,0,150,150,NA,150,150,Sat Sep 28 15:16:31 2019,600,The main experiment item,yes,FlankerTask.osexp,/Users/danielrazo0311/Desktop,no,mono,no,18,no,white,no,yes,768,legacy,70,79,/Users/danielrazo0311/Desktop/subject-3.csv,legacy,Kafkaesque Koffka,3.2.8,0,h,NA,s,h,NA,h,NA,474,NA,56743,69060,NA,474,NA,2,legacy,1024,2,48000,-16,experiment,HHHHH,3,odd,63389,279051,NA,408336,388632,6538,407824,NA,409474,NA,6561,209988,NA,409587,410065,NA,409462,409587,Flanker Task,142,78819,151,yes,1024
94.07894737,94.07894737,521.2894737,521.2894737,black,legacy,legacy,legacy,0,congruent,uniform,1,undefined,1,h,0,0,0,151,151,0,151,0,151,0,0,0,0,151,151,NA,151,151,Sat Sep 28 15:16:31 2019,600,The main experiment item,yes,FlankerTask.osexp,/Users/danielrazo0311/Desktop,no,mono,no,18,no,white,no,yes,768,legacy,71,79,/Users/danielrazo0311/Desktop/subject-3.csv,legacy,Kafkaesque Koffka,3.2.8,0,h,NA,s,h,NA,h,NA,417,NA,56743,69060,NA,417,NA,2,legacy,1024,2,48000,-16,experiment,HHHHH,3,odd,63389,279051,NA,410080,388632,6538,407824,NA,411210,NA,6561,209988,NA,411324,411745,NA,411197,411324,Flanker Task,143,79236,152,yes,1024
94.11764706,94.11764706,520.4901961,520.4901961,black,legacy,legacy,legacy,0,congruent,uniform,1,undefined,1,s,0,0,0,152,152,0,152,0,152,0,0,0,0,152,152,NA,152,152,Sat Sep 28 15:16:31 2019,600,The main experiment item,yes,FlankerTask.osexp,/Users/danielrazo0311/Desktop,no,mono,no,18,no,white,no,yes,768,legacy,72,79,/Users/danielrazo0311/Desktop/subject-3.csv,legacy,Kafkaesque Koffka,3.2.8,0,s,NA,s,h,NA,s,NA,399,NA,56743,69060,NA,399,NA,2,legacy,1024,2,48000,-16,experiment,SSSSS,3,odd,63389,279051,NA,411761,388632,6538,407824,NA,412894,NA,6561,209988,NA,413006,413409,NA,412881,413006,Flanker Task,144,79635,153,yes,1024
94.15584416,94.15584416,520.1363636,520.1363636,black,legacy,legacy,legacy,0,congruent,uniform,1,undefined,1,h,0,0,0,153,153,0,153,0,153,0,0,0,0,153,153,NA,153,153,Sat Sep 28 15:16:31 2019,600,The main experiment item,yes,FlankerTask.osexp,/Users/danielrazo0311/Desktop,no,mono,no,18,no,white,no,yes,768,legacy,73,79,/Users/danielrazo0311/Desktop/subject-3.csv,legacy,Kafkaesque Koffka,3.2.8,0,h,NA,s,h,NA,h,NA,466,NA,56743,69060,NA,466,NA,2,legacy,1024,2,48000,-16,experiment,HHHHH,3,odd,63389,279051,NA,413424,388632,6538,407824,NA,414557,NA,6561,209988,NA,414675,415144,NA,414544,414675,Flanker Task,145,80101,154,yes,1024
94.19354839,94.19354839,519.3870968,519.3870968,black,legacy,legacy,legacy,0,incongruent,uniform,1,undefined,1,s,0,0,0,154,154,0,154,0,154,0,0,0,0,154,154,NA,154,154,Sat Sep 28 15:16:31 2019,600,The main experiment item,yes,FlankerTask.osexp,/Users/danielrazo0311/Desktop,no,mono,no,18,no,white,no,yes,768,legacy,74,79,/Users/danielrazo0311/Desktop/subject-3.csv,legacy,Kafkaesque Koffka,3.2.8,0,s,NA,s,h,NA,s,NA,404,NA,56743,69060,NA,404,NA,2,legacy,1024,2,48000,-16,experiment,HHSHH,3,odd,63389,279051,NA,415171,388632,6538,407824,NA,416303,NA,6561,209988,NA,416416,416825,NA,416290,416416,Flanker Task,146,80505,155,yes,1024
94.23076923,94.23076923,519.1987179,519.1987179,black,legacy,legacy,legacy,0,congruent,uniform,1,undefined,1,h,0,0,0,155,155,0,155,0,155,0,0,0,0,155,155,NA,155,155,Sat Sep 28 15:16:31 2019,600,The main experiment item,yes,FlankerTask.osexp,/Users/danielrazo0311/Desktop,no,mono,no,18,no,white,no,yes,768,legacy,75,79,/Users/danielrazo0311/Desktop/subject-3.csv,legacy,Kafkaesque Koffka,3.2.8,0,h,NA,s,h,NA,h,NA,490,NA,56743,69060,NA,490,NA,2,legacy,1024,2,48000,-16,experiment,HHHHH,3,odd,63389,279051,NA,416858,388632,6538,407824,NA,418000,NA,6561,209988,NA,418114,418608,NA,417987,418114,Flanker Task,147,80995,156,yes,1024
94.26751592,94.26751592,519.4649682,519.4649682,black,legacy,legacy,legacy,0,incongruent,uniform,1,undefined,1,h,0,0,0,156,156,0,156,0,156,0,0,0,0,156,156,NA,156,156,Sat Sep 28 15:16:31 2019,600,The main experiment item,yes,FlankerTask.osexp,/Users/danielrazo0311/Desktop,no,mono,no,18,no,white,no,yes,768,legacy,76,79,/Users/danielrazo0311/Desktop/subject-3.csv,legacy,Kafkaesque Koffka,3.2.8,0,h,NA,s,h,NA,h,NA,561,NA,56743,69060,NA,561,NA,2,legacy,1024,2,48000,-16,experiment,SSHSS,3,odd,63389,279051,NA,418623,388632,6538,407824,NA,419753,NA,6561,209988,NA,419867,420432,NA,419741,419867,Flanker Task,148,81556,157,yes,1024
94.30379747,94.30379747,519.3544304,519.3544304,black,legacy,legacy,legacy,0,congruent,uniform,1,undefined,1,s,0,0,0,157,157,0,157,0,157,0,0,0,0,157,157,NA,157,157,Sat Sep 28 15:16:31 2019,600,The main experiment item,yes,FlankerTask.osexp,/Users/danielrazo0311/Desktop,no,mono,no,18,no,white,no,yes,768,legacy,77,79,/Users/danielrazo0311/Desktop/subject-3.csv,legacy,Kafkaesque Koffka,3.2.8,0,s,NA,s,h,NA,s,NA,502,NA,56743,69060,NA,502,NA,2,legacy,1024,2,48000,-16,experiment,SSSSS,3,odd,63389,279051,NA,420449,388632,6538,407824,NA,421581,NA,6561,209988,NA,421694,422200,NA,421568,421694,Flanker Task,149,82058,158,yes,1024
94.33962264,94.33962264,519.6981132,519.6981132,black,legacy,legacy,legacy,0,incongruent,uniform,1,undefined,1,s,0,0,0,158,158,0,158,0,158,0,0,0,0,158,158,NA,158,158,Sat Sep 28 15:16:31 2019,600,The main experiment item,yes,FlankerTask.osexp,/Users/danielrazo0311/Desktop,no,mono,no,18,no,white,no,yes,768,legacy,78,79,/Users/danielrazo0311/Desktop/subject-3.csv,legacy,Kafkaesque Koffka,3.2.8,0,s,NA,s,h,NA,s,NA,574,NA,56743,69060,NA,574,NA,2,legacy,1024,2,48000,-16,experiment,HHSHH,3,odd,63389,279051,NA,422216,388632,6538,407824,NA,423346,NA,6561,209988,NA,423462,424040,NA,423333,423462,Flanker Task,150,82632,159,yes,1024
94.375,94.375,519.39375,519.39375,black,legacy,legacy,legacy,0,congruent,uniform,1,undefined,1,s,0,0,0,159,159,0,159,0,159,0,0,0,0,159,159,NA,159,159,Sat Sep 28 15:16:31 2019,600,The main experiment item,yes,FlankerTask.osexp,/Users/danielrazo0311/Desktop,no,mono,no,18,no,white,no,yes,768,legacy,79,79,/Users/danielrazo0311/Desktop/subject-3.csv,legacy,Kafkaesque Koffka,3.2.8,0,s,NA,s,h,NA,s,NA,471,NA,56743,69060,NA,471,NA,2,legacy,1024,2,48000,-16,experiment,SSSSS,3,odd,63389,279051,NA,424055,388632,6538,407824,NA,425187,NA,6561,209988,NA,425301,425776,NA,425175,425301,Flanker Task,151,83103,160,yes,1024
94.40993789,94.40993789,519.9875776,519.9875776,black,legacy,legacy,legacy,0,congruent,uniform,1,undefined,1,h,0,0,0,160,160,0,160,0,160,0,0,0,0,160,160,NA,160,160,Sat Sep 28 15:16:31 2019,300,The main experiment item,yes,FlankerTask.osexp,/Users/danielrazo0311/Desktop,no,mono,no,18,no,white,no,yes,768,legacy,0,79,/Users/danielrazo0311/Desktop/subject-3.csv,legacy,Kafkaesque Koffka,3.2.8,0,h,NA,s,h,h,h,NA,615,NA,56743,69060,35950,615,NA,2,legacy,1024,2,48000,-16,experiment,HHHHH,3,odd,63389,279051,462781,425791,388632,6538,407824,NA,462906,NA,6561,209988,426827,463018,463637,NA,462894,463018,Flanker Task,152,83718,161,yes,1024
