acc,accuracy,average_response_time,avg_rt,background,canvas_backend,clock_backend,color_backend,condition,correct,correct_Instructions1,correct_keyboardresponse,correct_response,count_Block1,count_Block2,count_Block3,count_Finish,count_ISI,count_Instructions1,count_Instructions2,count_errorFeedback,count_experiment,count_faster,count_fixation,count_instructions3,count_keyboardresponse,count_logger,count_sequence,count_stimulus,datetime,deadline,description,disable_garbage_collection,experiment_file,experiment_path,font_bold,font_family,font_italic,font_size,font_underline,foreground,form_clicks,fullscreen,height,keyboard_backend,live_row,live_row_Block1,logfile,mouse_backend,opensesame_codename,opensesame_version,repeat_cycle,response,response_Finish,response_Instructions1,response_Instructions2,response_instructions3,response_keyboardresponse,response_time,response_time_Finish,response_time_Instructions1,response_time_Instructions2,response_time_instructions3,response_time_keyboardresponse,round_decimals,sampler_backend,sound_buf_size,sound_channels,sound_freq,sound_sample_size,start,stimulus,subject_nr,subject_parity,time_Block1,time_Block2,time_Block3,time_Finish,time_ISI,time_Instructions1,time_Instructions2,time_errorFeedback,time_experiment,time_faster,time_fixation,time_instructions3,time_keyboardresponse,time_logger,time_sequence,time_stimulus,title,total_correct,total_response_time,total_responses,width
100,100,1014,1014,#000000,legacy,legacy,legacy,incongruent,1,undefined,1,h,0,0,0,0,0,0,0,0,0,0,0,0,0,0,0,0,Thu Sep 14 12:02:02 2023,1500,The main experiment item,FALSE,FlankerTaskLab21.osexp,C:/Users/katjo/OneDrive/Desktop,FALSE,mono,FALSE,18,no,white,no,no,768,legacy,0,0,C:/Users/katjo/OneDrive/Desktop/KJ-subject-1.csv,legacy,Melodramatic Milgram,4.0.5,0,h,NA,h,NA,NA,h,1014,NA,4746,NA,NA,1014,2,legacy,1024,2,48000,-16,experiment,SSHSS,1,odd,6364,NA,NA,NA,NA,1617,NA,NA,1616,NA,6399,NA,6500,7514,6399,6500,Flanker Task Lab 2.1,1,1014,1,1024
100,100,705,705,#000000,legacy,legacy,legacy,congruent,1,undefined,1,s,0,0,0,0,1,0,0,1,0,1,1,0,1,1,1,1,Thu Sep 14 12:02:02 2023,1500,The main experiment item,FALSE,FlankerTaskLab21.osexp,C:/Users/katjo/OneDrive/Desktop,FALSE,mono,FALSE,18,no,white,no,no,768,legacy,1,1,C:/Users/katjo/OneDrive/Desktop/KJ-subject-1.csv,legacy,Melodramatic Milgram,4.0.5,0,s,NA,h,NA,NA,s,397,NA,4746,NA,NA,397,2,legacy,1024,2,48000,-16,experiment,SSSSS,1,odd,6364,NA,NA,NA,7524,1617,NA,NA,1616,NA,8553,NA,8653,9050,8552,8653,Flanker Task Lab 2.1,2,1411,2,1024
100,100,746,746,#000000,legacy,legacy,legacy,incongruent,1,undefined,1,s,0,0,0,0,2,0,0,2,0,2,2,0,2,2,2,2,Thu Sep 14 12:02:02 2023,1500,The main experiment item,FALSE,FlankerTaskLab21.osexp,C:/Users/katjo/OneDrive/Desktop,FALSE,mono,FALSE,18,no,white,no,no,768,legacy,2,2,C:/Users/katjo/OneDrive/Desktop/KJ-subject-1.csv,legacy,Melodramatic Milgram,4.0.5,0,s,NA,h,NA,NA,s,828,NA,4746,NA,NA,828,2,legacy,1024,2,48000,-16,experiment,HHSHH,1,odd,6364,NA,NA,NA,9057,1617,NA,NA,1616,NA,10086,NA,10187,11015,10085,10187,Flanker Task Lab 2.1,3,2239,3,1024
100,100,691,691,#000000,legacy,legacy,legacy,incongruent,1,undefined,1,s,0,0,0,0,3,0,0,3,0,3,3,0,3,3,3,3,Thu Sep 14 12:02:02 2023,1500,The main experiment item,FALSE,FlankerTaskLab21.osexp,C:/Users/katjo/OneDrive/Desktop,FALSE,mono,FALSE,18,no,white,no,no,768,legacy,3,3,C:/Users/katjo/OneDrive/Desktop/KJ-subject-1.csv,legacy,Melodramatic Milgram,4.0.5,0,s,NA,h,NA,NA,s,527,NA,4746,NA,NA,527,2,legacy,1024,2,48000,-16,experiment,HHSHH,1,odd,6364,NA,NA,NA,11041,1617,NA,NA,1616,NA,12066,NA,12167,12694,12065,12167,Flanker Task Lab 2.1,4,2766,4,1024
100,100,650,650,#000000,legacy,legacy,legacy,incongruent,1,undefined,1,s,0,0,0,0,4,0,0,4,0,4,4,0,4,4,4,4,Thu Sep 14 12:02:02 2023,1500,The main experiment item,FALSE,FlankerTaskLab21.osexp,C:/Users/katjo/OneDrive/Desktop,FALSE,mono,FALSE,18,no,white,no,no,768,legacy,4,4,C:/Users/katjo/OneDrive/Desktop/KJ-subject-1.csv,legacy,Melodramatic Milgram,4.0.5,0,s,NA,h,NA,NA,s,486,NA,4746,NA,NA,486,2,legacy,1024,2,48000,-16,experiment,HHSHH,1,odd,6364,NA,NA,NA,12696,1617,NA,NA,1616,NA,13721,NA,13822,14308,13720,13822,Flanker Task Lab 2.1,5,3252,5,1024
100,100,645,645,#000000,legacy,legacy,legacy,congruent,1,undefined,1,s,0,0,0,0,5,0,0,5,0,5,5,0,5,5,5,5,Thu Sep 14 12:02:02 2023,1500,The main experiment item,FALSE,FlankerTaskLab21.osexp,C:/Users/katjo/OneDrive/Desktop,FALSE,mono,FALSE,18,no,white,no,no,768,legacy,5,5,C:/Users/katjo/OneDrive/Desktop/KJ-subject-1.csv,legacy,Melodramatic Milgram,4.0.5,0,s,NA,h,NA,NA,s,618,NA,4746,NA,NA,618,2,legacy,1024,2,48000,-16,experiment,SSSSS,1,odd,6364,NA,NA,NA,14315,1617,NA,NA,1616,NA,15342,NA,15442,16060,15341,15442,Flanker Task Lab 2.1,6,3870,6,1024
100,100,631,631,#000000,legacy,legacy,legacy,incongruent,1,undefined,1,h,0,0,0,0,6,0,0,6,0,6,6,0,6,6,6,6,Thu Sep 14 12:02:02 2023,1500,The main experiment item,FALSE,FlankerTaskLab21.osexp,C:/Users/katjo/OneDrive/Desktop,FALSE,mono,FALSE,18,no,white,no,no,768,legacy,6,6,C:/Users/katjo/OneDrive/Desktop/KJ-subject-1.csv,legacy,Melodramatic Milgram,4.0.5,0,h,NA,h,NA,NA,h,553,NA,4746,NA,NA,553,2,legacy,1024,2,48000,-16,experiment,SSHSS,1,odd,6364,NA,NA,NA,16086,1617,NA,NA,1616,NA,17122,NA,17223,17776,17121,17223,Flanker Task Lab 2.1,7,4423,7,1024
100,100,620,620,#000000,legacy,legacy,legacy,congruent,1,undefined,1,s,0,0,0,0,7,0,0,7,0,7,7,0,7,7,7,7,Thu Sep 14 12:02:02 2023,1500,The main experiment item,FALSE,FlankerTaskLab21.osexp,C:/Users/katjo/OneDrive/Desktop,FALSE,mono,FALSE,18,no,white,no,no,768,legacy,7,7,C:/Users/katjo/OneDrive/Desktop/KJ-subject-1.csv,legacy,Melodramatic Milgram,4.0.5,0,s,NA,h,NA,NA,s,537,NA,4746,NA,NA,537,2,legacy,1024,2,48000,-16,experiment,SSSSS,1,odd,6364,NA,NA,NA,17782,1617,NA,NA,1616,NA,18808,NA,18909,19446,18807,18909,Flanker Task Lab 2.1,8,4960,8,1024
100,100,605,605,#000000,legacy,legacy,legacy,congruent,1,undefined,1,h,0,0,0,0,8,0,0,8,0,8,8,0,8,8,8,8,Thu Sep 14 12:02:02 2023,1500,The main experiment item,FALSE,FlankerTaskLab21.osexp,C:/Users/katjo/OneDrive/Desktop,FALSE,mono,FALSE,18,no,white,no,no,768,legacy,8,8,C:/Users/katjo/OneDrive/Desktop/KJ-subject-1.csv,legacy,Melodramatic Milgram,4.0.5,0,h,NA,h,NA,NA,h,491,NA,4746,NA,NA,491,2,legacy,1024,2,48000,-16,experiment,HHHHH,1,odd,6364,NA,NA,NA,19472,1617,NA,NA,1616,NA,20493,NA,20594,21086,20492,20594,Flanker Task Lab 2.1,9,5451,9,1024
100,100,590,590,#000000,legacy,legacy,legacy,congruent,1,undefined,1,s,0,0,0,0,9,0,0,9,0,9,9,0,9,9,9,9,Thu Sep 14 12:02:02 2023,1500,The main experiment item,FALSE,FlankerTaskLab21.osexp,C:/Users/katjo/OneDrive/Desktop,FALSE,mono,FALSE,18,no,white,no,no,768,legacy,9,9,C:/Users/katjo/OneDrive/Desktop/KJ-subject-1.csv,legacy,Melodramatic Milgram,4.0.5,0,s,NA,h,NA,NA,s,455,NA,4746,NA,NA,455,2,legacy,1024,2,48000,-16,experiment,SSSSS,1,odd,6364,NA,NA,NA,21112,1617,NA,NA,1616,NA,22135,NA,22235,22690,22134,22235,Flanker Task Lab 2.1,10,5906,10,1024
100,100,574,574,#000000,legacy,legacy,legacy,congruent,1,undefined,1,h,0,0,0,0,10,0,0,10,0,10,10,0,10,10,10,10,Thu Sep 14 12:02:02 2023,1500,The main experiment item,FALSE,FlankerTaskLab21.osexp,C:/Users/katjo/OneDrive/Desktop,FALSE,mono,FALSE,18,no,white,no,no,768,legacy,10,10,C:/Users/katjo/OneDrive/Desktop/KJ-subject-1.csv,legacy,Melodramatic Milgram,4.0.5,0,h,NA,h,NA,NA,h,411,NA,4746,NA,NA,411,2,legacy,1024,2,48000,-16,experiment,HHHHH,1,odd,6364,NA,NA,NA,22692,1617,NA,NA,1616,NA,23713,NA,23814,24226,23712,23814,Flanker Task Lab 2.1,11,6317,11,1024
100,100,568,568,#000000,legacy,legacy,legacy,congruent,1,undefined,1,s,0,0,0,0,11,0,0,11,0,11,11,0,11,11,11,11,Thu Sep 14 12:02:02 2023,1500,The main experiment item,FALSE,FlankerTaskLab21.osexp,C:/Users/katjo/OneDrive/Desktop,FALSE,mono,FALSE,18,no,white,no,no,768,legacy,11,11,C:/Users/katjo/OneDrive/Desktop/KJ-subject-1.csv,legacy,Melodramatic Milgram,4.0.5,0,s,NA,h,NA,NA,s,505,NA,4746,NA,NA,505,2,legacy,1024,2,48000,-16,experiment,SSSSS,1,odd,6364,NA,NA,NA,24251,1617,NA,NA,1616,NA,25293,NA,25394,25899,25293,25394,Flanker Task Lab 2.1,12,6822,12,1024
100,100,566,566,#000000,legacy,legacy,legacy,incongruent,1,undefined,1,h,0,0,0,0,12,0,0,12,0,12,12,0,12,12,12,12,Thu Sep 14 12:02:02 2023,1500,The main experiment item,FALSE,FlankerTaskLab21.osexp,C:/Users/katjo/OneDrive/Desktop,FALSE,mono,FALSE,18,no,white,no,no,768,legacy,12,12,C:/Users/katjo/OneDrive/Desktop/KJ-subject-1.csv,legacy,Melodramatic Milgram,4.0.5,0,h,NA,h,NA,NA,h,540,NA,4746,NA,NA,540,2,legacy,1024,2,48000,-16,experiment,SSHSS,1,odd,6364,NA,NA,NA,25926,1617,NA,NA,1616,NA,26951,NA,27052,27593,26950,27052,Flanker Task Lab 2.1,13,7362,13,1024
100,100,570,570,#000000,legacy,legacy,legacy,incongruent,1,undefined,1,s,0,0,0,0,13,0,0,13,0,13,13,0,13,13,13,13,Thu Sep 14 12:02:02 2023,1500,The main experiment item,FALSE,FlankerTaskLab21.osexp,C:/Users/katjo/OneDrive/Desktop,FALSE,mono,FALSE,18,no,white,no,no,768,legacy,13,13,C:/Users/katjo/OneDrive/Desktop/KJ-subject-1.csv,legacy,Melodramatic Milgram,4.0.5,0,s,NA,h,NA,NA,s,620,NA,4746,NA,NA,620,2,legacy,1024,2,48000,-16,experiment,HHSHH,1,odd,6364,NA,NA,NA,27599,1617,NA,NA,1616,NA,28620,NA,28721,29341,28619,28721,Flanker Task Lab 2.1,14,7982,14,1024
100,100,568,568,#000000,legacy,legacy,legacy,incongruent,1,undefined,1,s,0,0,0,0,14,0,0,14,0,14,14,0,14,14,14,14,Thu Sep 14 12:02:02 2023,1500,The main experiment item,FALSE,FlankerTaskLab21.osexp,C:/Users/katjo/OneDrive/Desktop,FALSE,mono,FALSE,18,no,white,no,no,768,legacy,14,14,C:/Users/katjo/OneDrive/Desktop/KJ-subject-1.csv,legacy,Melodramatic Milgram,4.0.5,0,s,NA,h,NA,NA,s,551,NA,4746,NA,NA,551,2,legacy,1024,2,48000,-16,experiment,HHSHH,1,odd,6364,NA,NA,NA,29348,1617,NA,NA,1616,NA,30378,NA,30479,31030,30377,30478,Flanker Task Lab 2.1,15,8533,15,1024
100,100,559,559,#000000,legacy,legacy,legacy,congruent,1,undefined,1,h,0,0,0,0,15,0,0,15,0,15,15,0,15,15,15,15,Thu Sep 14 12:02:02 2023,1500,The main experiment item,FALSE,FlankerTaskLab21.osexp,C:/Users/katjo/OneDrive/Desktop,FALSE,mono,FALSE,18,no,white,no,no,768,legacy,15,15,C:/Users/katjo/OneDrive/Desktop/KJ-subject-1.csv,legacy,Melodramatic Milgram,4.0.5,0,h,NA,h,NA,NA,h,413,NA,4746,NA,NA,413,2,legacy,1024,2,48000,-16,experiment,HHHHH,1,odd,6364,NA,NA,NA,31056,1617,NA,NA,1616,NA,32079,NA,32180,32593,32078,32180,Flanker Task Lab 2.1,16,8946,16,1024
100,100,553,553,#000000,legacy,legacy,legacy,congruent,1,undefined,1,h,0,0,0,0,16,0,0,16,0,16,16,0,16,16,16,16,Thu Sep 14 12:02:02 2023,1500,The main experiment item,FALSE,FlankerTaskLab21.osexp,C:/Users/katjo/OneDrive/Desktop,FALSE,mono,FALSE,18,no,white,no,no,768,legacy,16,16,C:/Users/katjo/OneDrive/Desktop/KJ-subject-1.csv,legacy,Melodramatic Milgram,4.0.5,0,h,NA,h,NA,NA,h,456,NA,4746,NA,NA,456,2,legacy,1024,2,48000,-16,experiment,HHHHH,1,odd,6364,NA,NA,NA,32619,1617,NA,NA,1616,NA,33641,NA,33742,34198,33640,33742,Flanker Task Lab 2.1,17,9402,17,1024
100,100,565,565,#000000,legacy,legacy,legacy,incongruent,1,undefined,1,h,0,0,0,0,17,0,0,17,0,17,17,0,17,17,17,17,Thu Sep 14 12:02:02 2023,1500,The main experiment item,FALSE,FlankerTaskLab21.osexp,C:/Users/katjo/OneDrive/Desktop,FALSE,mono,FALSE,18,no,white,no,no,768,legacy,17,17,C:/Users/katjo/OneDrive/Desktop/KJ-subject-1.csv,legacy,Melodramatic Milgram,4.0.5,0,h,NA,h,NA,NA,h,785,NA,4746,NA,NA,785,2,legacy,1024,2,48000,-16,experiment,SSHSS,1,odd,6364,NA,NA,NA,34224,1617,NA,NA,1616,NA,35248,NA,35348,36134,35247,35348,Flanker Task Lab 2.1,18,10187,18,1024
100,100,560,560,#000000,legacy,legacy,legacy,incongruent,1,undefined,1,h,0,0,0,0,18,0,0,18,0,18,18,0,18,18,18,18,Thu Sep 14 12:02:02 2023,1500,The main experiment item,FALSE,FlankerTaskLab21.osexp,C:/Users/katjo/OneDrive/Desktop,FALSE,mono,FALSE,18,no,white,no,no,768,legacy,18,18,C:/Users/katjo/OneDrive/Desktop/KJ-subject-1.csv,legacy,Melodramatic Milgram,4.0.5,0,h,NA,h,NA,NA,h,465,NA,4746,NA,NA,465,2,legacy,1024,2,48000,-16,experiment,SSHSS,1,odd,6364,NA,NA,NA,36160,1617,NA,NA,1616,NA,37186,NA,37287,37752,37185,37286,Flanker Task Lab 2.1,19,10652,19,1024
100,100,554,554,#000000,legacy,legacy,legacy,incongruent,1,undefined,1,h,0,0,0,0,19,0,0,19,0,19,19,0,19,19,19,19,Thu Sep 14 12:02:02 2023,1500,The main experiment item,FALSE,FlankerTaskLab21.osexp,C:/Users/katjo/OneDrive/Desktop,FALSE,mono,FALSE,18,no,white,no,no,768,legacy,19,19,C:/Users/katjo/OneDrive/Desktop/KJ-subject-1.csv,legacy,Melodramatic Milgram,4.0.5,0,h,NA,h,NA,NA,h,431,NA,4746,NA,NA,431,2,legacy,1024,2,48000,-16,experiment,SSHSS,1,odd,6364,NA,NA,NA,37759,1617,NA,NA,1616,NA,38801,NA,38902,39333,38800,38902,Flanker Task Lab 2.1,20,11083,20,1024
100,100,558,558,#000000,legacy,legacy,legacy,incongruent,1,undefined,1,s,0,0,0,0,20,0,0,20,0,20,20,0,20,20,20,20,Thu Sep 14 12:02:02 2023,1500,The main experiment item,FALSE,FlankerTaskLab21.osexp,C:/Users/katjo/OneDrive/Desktop,FALSE,mono,FALSE,18,no,white,no,no,768,legacy,20,20,C:/Users/katjo/OneDrive/Desktop/KJ-subject-1.csv,legacy,Melodramatic Milgram,4.0.5,0,s,NA,h,NA,NA,s,646,NA,4746,NA,NA,646,2,legacy,1024,2,48000,-16,experiment,HHSHH,1,odd,6364,NA,NA,NA,39340,1617,NA,NA,1616,NA,40364,NA,40465,41112,40363,40465,Flanker Task Lab 2.1,21,11729,21,1024
100,100,583,583,#000000,legacy,legacy,legacy,congruent,1,undefined,1,h,0,0,0,0,21,0,0,21,0,21,21,0,21,21,21,21,Thu Sep 14 12:02:02 2023,1500,The main experiment item,FALSE,FlankerTaskLab21.osexp,C:/Users/katjo/OneDrive/Desktop,FALSE,mono,FALSE,18,no,white,no,no,768,legacy,21,21,C:/Users/katjo/OneDrive/Desktop/KJ-subject-1.csv,legacy,Melodramatic Milgram,4.0.5,0,h,NA,h,NA,NA,h,1114,NA,4746,NA,NA,1114,2,legacy,1024,2,48000,-16,experiment,HHHHH,1,odd,6364,NA,NA,NA,41118,1617,NA,NA,1616,NA,42143,NA,42244,43359,42142,42244,Flanker Task Lab 2.1,22,12843,22,1024
100,100,576,576,#000000,legacy,legacy,legacy,congruent,1,undefined,1,h,0,0,0,0,22,0,0,22,0,22,22,0,22,22,22,22,Thu Sep 14 12:02:02 2023,1500,The main experiment item,FALSE,FlankerTaskLab21.osexp,C:/Users/katjo/OneDrive/Desktop,FALSE,mono,FALSE,18,no,white,no,no,768,legacy,22,22,C:/Users/katjo/OneDrive/Desktop/KJ-subject-1.csv,legacy,Melodramatic Milgram,4.0.5,0,h,NA,h,NA,NA,h,419,NA,4746,NA,NA,419,2,legacy,1024,2,48000,-16,experiment,HHHHH,1,odd,6364,NA,NA,NA,43385,1617,NA,NA,1616,NA,44416,NA,44517,44937,44415,44517,Flanker Task Lab 2.1,23,13262,23,1024
100,100,572,572,#000000,legacy,legacy,legacy,congruent,1,undefined,1,s,0,0,0,0,23,0,0,23,0,23,23,0,23,23,23,23,Thu Sep 14 12:02:02 2023,1500,The main experiment item,FALSE,FlankerTaskLab21.osexp,C:/Users/katjo/OneDrive/Desktop,FALSE,mono,FALSE,18,no,white,no,no,768,legacy,23,23,C:/Users/katjo/OneDrive/Desktop/KJ-subject-1.csv,legacy,Melodramatic Milgram,4.0.5,0,s,NA,h,NA,NA,s,467,NA,4746,NA,NA,467,2,legacy,1024,2,48000,-16,experiment,SSSSS,1,odd,6364,NA,NA,NA,44963,1617,NA,NA,1616,NA,46003,NA,46104,46572,46002,46104,Flanker Task Lab 2.1,24,13729,24,1024
100,100,567,567,#000000,legacy,legacy,legacy,congruent,1,undefined,1,h,0,0,0,0,24,0,0,24,0,24,24,0,24,24,24,24,Thu Sep 14 12:02:02 2023,1500,The main experiment item,FALSE,FlankerTaskLab21.osexp,C:/Users/katjo/OneDrive/Desktop,FALSE,mono,FALSE,18,no,white,no,no,768,legacy,24,24,C:/Users/katjo/OneDrive/Desktop/KJ-subject-1.csv,legacy,Melodramatic Milgram,4.0.5,0,h,NA,h,NA,NA,h,449,NA,4746,NA,NA,449,2,legacy,1024,2,48000,-16,experiment,HHHHH,1,odd,6364,NA,NA,NA,46578,1617,NA,NA,1616,NA,47600,NA,47701,48150,47600,47700,Flanker Task Lab 2.1,25,14178,25,1024
100,100,576,576,#000000,legacy,legacy,legacy,incongruent,1,undefined,1,s,0,0,0,0,25,0,0,25,0,25,25,0,25,25,25,25,Thu Sep 14 12:02:02 2023,1500,The main experiment item,FALSE,FlankerTaskLab21.osexp,C:/Users/katjo/OneDrive/Desktop,FALSE,mono,FALSE,18,no,white,no,no,768,legacy,25,25,C:/Users/katjo/OneDrive/Desktop/KJ-subject-1.csv,legacy,Melodramatic Milgram,4.0.5,0,s,NA,h,NA,NA,s,803,NA,4746,NA,NA,803,2,legacy,1024,2,48000,-16,experiment,HHSHH,1,odd,6364,NA,NA,NA,48152,1617,NA,NA,1616,NA,49175,NA,49277,50080,49174,49277,Flanker Task Lab 2.1,26,14981,26,1024
100,100,574,574,#000000,legacy,legacy,legacy,congruent,1,undefined,1,s,0,0,0,0,26,0,0,26,0,26,26,0,26,26,26,26,Thu Sep 14 12:02:02 2023,1500,The main experiment item,FALSE,FlankerTaskLab21.osexp,C:/Users/katjo/OneDrive/Desktop,FALSE,mono,FALSE,18,no,white,no,no,768,legacy,26,26,C:/Users/katjo/OneDrive/Desktop/KJ-subject-1.csv,legacy,Melodramatic Milgram,4.0.5,0,s,NA,h,NA,NA,s,525,NA,4746,NA,NA,525,2,legacy,1024,2,48000,-16,experiment,SSSSS,1,odd,6364,NA,NA,NA,50086,1617,NA,NA,1616,NA,51128,NA,51228,51753,51127,51228,Flanker Task Lab 2.1,27,15506,27,1024
100,100,571,571,#000000,legacy,legacy,legacy,incongruent,1,undefined,1,h,0,0,0,0,27,0,0,27,0,27,27,0,27,27,27,27,Thu Sep 14 12:02:02 2023,1500,The main experiment item,FALSE,FlankerTaskLab21.osexp,C:/Users/katjo/OneDrive/Desktop,FALSE,mono,FALSE,18,no,white,no,no,768,legacy,27,27,C:/Users/katjo/OneDrive/Desktop/KJ-subject-1.csv,legacy,Melodramatic Milgram,4.0.5,0,h,NA,h,NA,NA,h,493,NA,4746,NA,NA,493,2,legacy,1024,2,48000,-16,experiment,SSHSS,1,odd,6364,NA,NA,NA,51760,1617,NA,NA,1616,NA,52784,NA,52884,53378,52783,52884,Flanker Task Lab 2.1,28,15999,28,1024
100,100,570,570,#000000,legacy,legacy,legacy,incongruent,1,undefined,1,h,0,0,0,0,28,0,0,28,0,28,28,0,28,28,28,28,Thu Sep 14 12:02:02 2023,1500,The main experiment item,FALSE,FlankerTaskLab21.osexp,C:/Users/katjo/OneDrive/Desktop,FALSE,mono,FALSE,18,no,white,no,no,768,legacy,28,28,C:/Users/katjo/OneDrive/Desktop/KJ-subject-1.csv,legacy,Melodramatic Milgram,4.0.5,0,h,NA,h,NA,NA,h,550,NA,4746,NA,NA,550,2,legacy,1024,2,48000,-16,experiment,SSHSS,1,odd,6364,NA,NA,NA,53384,1617,NA,NA,1616,NA,54427,NA,54528,55078,54426,54528,Flanker Task Lab 2.1,29,16549,29,1024
100,100,568,568,#000000,legacy,legacy,legacy,incongruent,1,undefined,1,h,0,0,0,0,29,0,0,29,0,29,29,0,29,29,29,29,Thu Sep 14 12:02:02 2023,1500,The main experiment item,FALSE,FlankerTaskLab21.osexp,C:/Users/katjo/OneDrive/Desktop,FALSE,mono,FALSE,18,no,white,no,no,768,legacy,29,29,C:/Users/katjo/OneDrive/Desktop/KJ-subject-1.csv,legacy,Melodramatic Milgram,4.0.5,0,h,NA,h,NA,NA,h,492,NA,4746,NA,NA,492,2,legacy,1024,2,48000,-16,experiment,SSHSS,1,odd,6364,NA,NA,NA,55085,1617,NA,NA,1616,NA,56107,NA,56208,56701,56106,56208,Flanker Task Lab 2.1,30,17041,30,1024
96,96,562,562,#000000,legacy,legacy,legacy,incongruent,0,undefined,0,s,0,0,0,0,30,0,0,30,0,30,30,0,30,30,30,30,Thu Sep 14 12:02:02 2023,1500,The main experiment item,FALSE,FlankerTaskLab21.osexp,C:/Users/katjo/OneDrive/Desktop,FALSE,mono,FALSE,18,no,white,no,no,768,legacy,30,30,C:/Users/katjo/OneDrive/Desktop/KJ-subject-1.csv,legacy,Melodramatic Milgram,4.0.5,0,h,NA,h,NA,NA,h,406,NA,4746,NA,NA,406,2,legacy,1024,2,48000,-16,experiment,HHSHH,1,odd,6364,NA,NA,NA,56707,1617,NA,NA,1616,NA,57738,NA,57839,58246,57737,57839,Flanker Task Lab 2.1,30,17447,31,1024
96,96,558,558,#000000,legacy,legacy,legacy,congruent,1,undefined,1,s,0,0,0,0,31,0,0,31,0,31,31,0,31,31,31,31,Thu Sep 14 12:02:02 2023,1500,The main experiment item,FALSE,FlankerTaskLab21.osexp,C:/Users/katjo/OneDrive/Desktop,FALSE,mono,FALSE,18,no,white,no,no,768,legacy,31,31,C:/Users/katjo/OneDrive/Desktop/KJ-subject-1.csv,legacy,Melodramatic Milgram,4.0.5,0,s,NA,h,NA,NA,s,438,NA,4746,NA,NA,438,2,legacy,1024,2,48000,-16,experiment,SSSSS,1,odd,6364,NA,NA,NA,58752,1617,NA,58252,1616,NA,59776,NA,59877,60315,59775,59877,Flanker Task Lab 2.1,31,17885,32,1024
96,96,559,559,#000000,legacy,legacy,legacy,congruent,1,undefined,1,h,0,0,0,0,32,0,0,32,0,32,32,0,32,32,32,32,Thu Sep 14 12:02:02 2023,1500,The main experiment item,FALSE,FlankerTaskLab21.osexp,C:/Users/katjo/OneDrive/Desktop,FALSE,mono,FALSE,18,no,white,no,no,768,legacy,32,32,C:/Users/katjo/OneDrive/Desktop/KJ-subject-1.csv,legacy,Melodramatic Milgram,4.0.5,0,h,NA,h,NA,NA,h,562,NA,4746,NA,NA,562,2,legacy,1024,2,48000,-16,experiment,HHHHH,1,odd,6364,NA,NA,NA,60322,1617,NA,58252,1616,NA,61345,NA,61446,62008,61344,61446,Flanker Task Lab 2.1,32,18447,33,1024
97,97,554,554,#000000,legacy,legacy,legacy,congruent,1,undefined,1,h,0,0,0,0,33,0,0,33,0,33,33,0,33,33,33,33,Thu Sep 14 12:02:02 2023,1500,The main experiment item,FALSE,FlankerTaskLab21.osexp,C:/Users/katjo/OneDrive/Desktop,FALSE,mono,FALSE,18,no,white,no,no,768,legacy,33,33,C:/Users/katjo/OneDrive/Desktop/KJ-subject-1.csv,legacy,Melodramatic Milgram,4.0.5,0,h,NA,h,NA,NA,h,390,NA,4746,NA,NA,390,2,legacy,1024,2,48000,-16,experiment,HHHHH,1,odd,6364,NA,NA,NA,62015,1617,NA,58252,1616,NA,63036,NA,63136,63526,63035,63136,Flanker Task Lab 2.1,33,18837,34,1024
97,97,548,548,#000000,legacy,legacy,legacy,congruent,1,undefined,1,h,0,0,0,0,34,0,0,34,0,34,34,0,34,34,34,34,Thu Sep 14 12:02:02 2023,1500,The main experiment item,FALSE,FlankerTaskLab21.osexp,C:/Users/katjo/OneDrive/Desktop,FALSE,mono,FALSE,18,no,white,no,no,768,legacy,34,34,C:/Users/katjo/OneDrive/Desktop/KJ-subject-1.csv,legacy,Melodramatic Milgram,4.0.5,0,h,NA,h,NA,NA,h,349,NA,4746,NA,NA,349,2,legacy,1024,2,48000,-16,experiment,HHHHH,1,odd,6364,NA,NA,NA,63552,1617,NA,58252,1616,NA,64584,NA,64685,65035,64583,64685,Flanker Task Lab 2.1,34,19186,35,1024
97,97,544,544,#000000,legacy,legacy,legacy,incongruent,1,undefined,1,s,0,0,0,0,35,0,0,35,0,35,35,0,35,35,35,35,Thu Sep 14 12:02:02 2023,1500,The main experiment item,FALSE,FlankerTaskLab21.osexp,C:/Users/katjo/OneDrive/Desktop,FALSE,mono,FALSE,18,no,white,no,no,768,legacy,35,35,C:/Users/katjo/OneDrive/Desktop/KJ-subject-1.csv,legacy,Melodramatic Milgram,4.0.5,0,s,NA,h,NA,NA,s,413,NA,4746,NA,NA,413,2,legacy,1024,2,48000,-16,experiment,HHSHH,1,odd,6364,NA,NA,NA,65041,1617,NA,58252,1616,NA,66062,NA,66163,66576,66061,66163,Flanker Task Lab 2.1,35,19599,36,1024
97,97,542,542,#000000,legacy,legacy,legacy,congruent,1,undefined,1,s,0,0,0,0,36,0,0,36,0,36,36,0,36,36,36,36,Thu Sep 14 12:02:02 2023,1500,The main experiment item,FALSE,FlankerTaskLab21.osexp,C:/Users/katjo/OneDrive/Desktop,FALSE,mono,FALSE,18,no,white,no,no,768,legacy,36,36,C:/Users/katjo/OneDrive/Desktop/KJ-subject-1.csv,legacy,Melodramatic Milgram,4.0.5,0,s,NA,h,NA,NA,s,455,NA,4746,NA,NA,455,2,legacy,1024,2,48000,-16,experiment,SSSSS,1,odd,6364,NA,NA,NA,66583,1617,NA,58252,1616,NA,67619,NA,67720,68175,67618,67720,Flanker Task Lab 2.1,36,20054,37,1024
97,97,541,541,#000000,legacy,legacy,legacy,incongruent,1,undefined,1,h,0,0,0,0,37,0,0,37,0,37,37,0,37,37,37,37,Thu Sep 14 12:02:02 2023,1500,The main experiment item,FALSE,FlankerTaskLab21.osexp,C:/Users/katjo/OneDrive/Desktop,FALSE,mono,FALSE,18,no,white,no,no,768,legacy,37,37,C:/Users/katjo/OneDrive/Desktop/KJ-subject-1.csv,legacy,Melodramatic Milgram,4.0.5,0,h,NA,h,NA,NA,h,507,NA,4746,NA,NA,507,2,legacy,1024,2,48000,-16,experiment,SSHSS,1,odd,6364,NA,NA,NA,68182,1617,NA,58252,1616,NA,69224,NA,69325,69832,69223,69325,Flanker Task Lab 2.1,37,20561,38,1024
97,97,541,541,#000000,legacy,legacy,legacy,incongruent,1,undefined,1,s,0,0,0,0,38,0,0,38,0,38,38,0,38,38,38,38,Thu Sep 14 12:02:02 2023,1500,The main experiment item,FALSE,FlankerTaskLab21.osexp,C:/Users/katjo/OneDrive/Desktop,FALSE,mono,FALSE,18,no,white,no,no,768,legacy,38,38,C:/Users/katjo/OneDrive/Desktop/KJ-subject-1.csv,legacy,Melodramatic Milgram,4.0.5,0,s,NA,h,NA,NA,s,574,NA,4746,NA,NA,574,2,legacy,1024,2,48000,-16,experiment,HHSHH,1,odd,6364,NA,NA,NA,69839,1617,NA,58252,1616,NA,70870,NA,70972,71547,70870,70972,Flanker Task Lab 2.1,38,21135,39,1024
97,97,537,537,#000000,legacy,legacy,legacy,congruent,1,undefined,1,h,0,0,0,0,39,0,0,39,0,39,39,0,39,39,39,39,Thu Sep 14 12:02:02 2023,1500,The main experiment item,FALSE,FlankerTaskLab21.osexp,C:/Users/katjo/OneDrive/Desktop,FALSE,mono,FALSE,18,no,white,no,no,768,legacy,39,39,C:/Users/katjo/OneDrive/Desktop/KJ-subject-1.csv,legacy,Melodramatic Milgram,4.0.5,0,h,NA,h,NA,NA,h,355,NA,4746,NA,NA,355,2,legacy,1024,2,48000,-16,experiment,HHHHH,1,odd,6364,NA,NA,NA,71553,1617,NA,58252,1616,NA,72578,NA,72678,73033,72577,72678,Flanker Task Lab 2.1,39,21490,40,1024
97,97,539,539,#000000,legacy,legacy,legacy,incongruent,1,undefined,1,h,0,0,0,0,40,0,0,40,0,40,40,0,40,40,40,40,Thu Sep 14 12:02:02 2023,1500,The main experiment item,FALSE,FlankerTaskLab21.osexp,C:/Users/katjo/OneDrive/Desktop,FALSE,mono,FALSE,18,no,white,no,no,768,legacy,40,40,C:/Users/katjo/OneDrive/Desktop/KJ-subject-1.csv,legacy,Melodramatic Milgram,4.0.5,0,h,NA,h,NA,NA,h,617,NA,4746,NA,NA,617,2,legacy,1024,2,48000,-16,experiment,SSHSS,1,odd,6364,NA,NA,NA,73040,1617,NA,58252,1616,NA,74061,NA,74162,74780,74060,74161,Flanker Task Lab 2.1,40,22107,41,1024
97,97,538,538,#000000,legacy,legacy,legacy,congruent,1,undefined,1,s,0,0,0,0,41,0,0,41,0,41,41,0,41,41,41,41,Thu Sep 14 12:02:02 2023,1500,The main experiment item,FALSE,FlankerTaskLab21.osexp,C:/Users/katjo/OneDrive/Desktop,FALSE,mono,FALSE,18,no,white,no,no,768,legacy,41,41,C:/Users/katjo/OneDrive/Desktop/KJ-subject-1.csv,legacy,Melodramatic Milgram,4.0.5,0,s,NA,h,NA,NA,s,511,NA,4746,NA,NA,511,2,legacy,1024,2,48000,-16,experiment,SSSSS,1,odd,6364,NA,NA,NA,74806,1617,NA,58252,1616,NA,75831,NA,75931,76442,75830,75931,Flanker Task Lab 2.1,41,22618,42,1024
97,97,536,536,#000000,legacy,legacy,legacy,congruent,1,undefined,1,s,0,0,0,0,42,0,0,42,0,42,42,0,42,42,42,42,Thu Sep 14 12:02:02 2023,1500,The main experiment item,FALSE,FlankerTaskLab21.osexp,C:/Users/katjo/OneDrive/Desktop,FALSE,mono,FALSE,18,no,white,no,no,768,legacy,42,42,C:/Users/katjo/OneDrive/Desktop/KJ-subject-1.csv,legacy,Melodramatic Milgram,4.0.5,0,s,NA,h,NA,NA,s,439,NA,4746,NA,NA,439,2,legacy,1024,2,48000,-16,experiment,SSSSS,1,odd,6364,NA,NA,NA,76449,1617,NA,58252,1616,NA,77484,NA,77585,78024,77483,77585,Flanker Task Lab 2.1,42,23057,43,1024
97,97,534,534,#000000,legacy,legacy,legacy,congruent,1,undefined,1,h,0,0,0,0,43,0,0,43,0,43,43,0,43,43,43,43,Thu Sep 14 12:02:02 2023,1500,The main experiment item,FALSE,FlankerTaskLab21.osexp,C:/Users/katjo/OneDrive/Desktop,FALSE,mono,FALSE,18,no,white,no,no,768,legacy,43,43,C:/Users/katjo/OneDrive/Desktop/KJ-subject-1.csv,legacy,Melodramatic Milgram,4.0.5,0,h,NA,h,NA,NA,h,450,NA,4746,NA,NA,450,2,legacy,1024,2,48000,-16,experiment,HHHHH,1,odd,6364,NA,NA,NA,78031,1617,NA,58252,1616,NA,79056,NA,79156,79607,79055,79156,Flanker Task Lab 2.1,43,23507,44,1024
97,97,534,534,#000000,legacy,legacy,legacy,incongruent,1,undefined,1,s,0,0,0,0,44,0,0,44,0,44,44,0,44,44,44,44,Thu Sep 14 12:02:02 2023,1500,The main experiment item,FALSE,FlankerTaskLab21.osexp,C:/Users/katjo/OneDrive/Desktop,FALSE,mono,FALSE,18,no,white,no,no,768,legacy,44,44,C:/Users/katjo/OneDrive/Desktop/KJ-subject-1.csv,legacy,Melodramatic Milgram,4.0.5,0,s,NA,h,NA,NA,s,551,NA,4746,NA,NA,551,2,legacy,1024,2,48000,-16,experiment,HHSHH,1,odd,6364,NA,NA,NA,79613,1617,NA,58252,1616,NA,80655,NA,80756,81308,80654,80756,Flanker Task Lab 2.1,44,24058,45,1024
97,97,536,536,#000000,legacy,legacy,legacy,incongruent,1,undefined,1,h,0,0,0,0,45,0,0,45,0,45,45,0,45,45,45,45,Thu Sep 14 12:02:02 2023,1500,The main experiment item,FALSE,FlankerTaskLab21.osexp,C:/Users/katjo/OneDrive/Desktop,FALSE,mono,FALSE,18,no,white,no,no,768,legacy,45,45,C:/Users/katjo/OneDrive/Desktop/KJ-subject-1.csv,legacy,Melodramatic Milgram,4.0.5,0,h,NA,h,NA,NA,h,634,NA,4746,NA,NA,634,2,legacy,1024,2,48000,-16,experiment,SSHSS,1,odd,6364,NA,NA,NA,81314,1617,NA,58252,1616,NA,82344,NA,82445,83079,82343,82445,Flanker Task Lab 2.1,45,24692,46,1024
97,97,536,536,#000000,legacy,legacy,legacy,incongruent,1,undefined,1,s,0,0,0,0,46,0,0,46,0,46,46,0,46,46,46,46,Thu Sep 14 12:02:02 2023,1500,The main experiment item,FALSE,FlankerTaskLab21.osexp,C:/Users/katjo/OneDrive/Desktop,FALSE,mono,FALSE,18,no,white,no,no,768,legacy,46,46,C:/Users/katjo/OneDrive/Desktop/KJ-subject-1.csv,legacy,Melodramatic Milgram,4.0.5,0,s,NA,h,NA,NA,s,507,NA,4746,NA,NA,507,2,legacy,1024,2,48000,-16,experiment,HHSHH,1,odd,6364,NA,NA,NA,83085,1617,NA,58252,1616,NA,84118,NA,84219,84726,84117,84219,Flanker Task Lab 2.1,46,25199,47,1024
97,97,535,535,#000000,legacy,legacy,legacy,congruent,1,undefined,1,s,0,0,0,0,47,0,0,47,0,47,47,0,47,47,47,47,Thu Sep 14 12:02:02 2023,1500,The main experiment item,FALSE,FlankerTaskLab21.osexp,C:/Users/katjo/OneDrive/Desktop,FALSE,mono,FALSE,18,no,white,no,no,768,legacy,47,47,C:/Users/katjo/OneDrive/Desktop/KJ-subject-1.csv,legacy,Melodramatic Milgram,4.0.5,0,s,NA,h,NA,NA,s,486,NA,4746,NA,NA,486,2,legacy,1024,2,48000,-16,experiment,SSSSS,1,odd,6364,NA,NA,NA,84733,1617,NA,58252,1616,NA,85776,NA,85877,86363,85775,85877,Flanker Task Lab 2.1,47,25685,48,1024
97,97,535,535,#000000,legacy,legacy,legacy,incongruent,1,undefined,1,s,0,0,0,0,48,0,0,48,0,48,48,0,48,48,48,48,Thu Sep 14 12:02:02 2023,1500,The main experiment item,FALSE,FlankerTaskLab21.osexp,C:/Users/katjo/OneDrive/Desktop,FALSE,mono,FALSE,18,no,white,no,no,768,legacy,48,48,C:/Users/katjo/OneDrive/Desktop/KJ-subject-1.csv,legacy,Melodramatic Milgram,4.0.5,0,s,NA,h,NA,NA,s,537,NA,4746,NA,NA,537,2,legacy,1024,2,48000,-16,experiment,HHSHH,1,odd,6364,NA,NA,NA,86367,1617,NA,58252,1616,NA,87391,NA,87492,88030,87389,87492,Flanker Task Lab 2.1,48,26222,49,1024
98,98,532,532,#000000,legacy,legacy,legacy,congruent,1,undefined,1,s,0,0,0,0,49,0,0,49,0,49,49,0,49,49,49,49,Thu Sep 14 12:02:02 2023,1500,The main experiment item,FALSE,FlankerTaskLab21.osexp,C:/Users/katjo/OneDrive/Desktop,FALSE,mono,FALSE,18,no,white,no,no,768,legacy,49,49,C:/Users/katjo/OneDrive/Desktop/KJ-subject-1.csv,legacy,Melodramatic Milgram,4.0.5,0,s,NA,h,NA,NA,s,416,NA,4746,NA,NA,416,2,legacy,1024,2,48000,-16,experiment,SSSSS,1,odd,6364,NA,NA,NA,88036,1617,NA,58252,1616,NA,89058,NA,89159,89576,89057,89159,Flanker Task Lab 2.1,49,26638,50,1024
98,98,530,530,#000000,legacy,legacy,legacy,congruent,1,undefined,1,s,0,0,0,0,50,0,0,50,0,50,50,0,50,50,50,50,Thu Sep 14 12:02:02 2023,1500,The main experiment item,FALSE,FlankerTaskLab21.osexp,C:/Users/katjo/OneDrive/Desktop,FALSE,mono,FALSE,18,no,white,no,no,768,legacy,50,50,C:/Users/katjo/OneDrive/Desktop/KJ-subject-1.csv,legacy,Melodramatic Milgram,4.0.5,0,s,NA,h,NA,NA,s,407,NA,4746,NA,NA,407,2,legacy,1024,2,48000,-16,experiment,SSSSS,1,odd,6364,NA,NA,NA,89602,1617,NA,58252,1616,NA,90627,NA,90728,91136,90626,90728,Flanker Task Lab 2.1,50,27045,51,1024
98,98,529,529,#000000,legacy,legacy,legacy,incongruent,1,undefined,1,h,0,0,0,0,51,0,0,51,0,51,51,0,51,51,51,51,Thu Sep 14 12:02:02 2023,1500,The main experiment item,FALSE,FlankerTaskLab21.osexp,C:/Users/katjo/OneDrive/Desktop,FALSE,mono,FALSE,18,no,white,no,no,768,legacy,51,51,C:/Users/katjo/OneDrive/Desktop/KJ-subject-1.csv,legacy,Melodramatic Milgram,4.0.5,0,h,NA,h,NA,NA,h,492,NA,4746,NA,NA,492,2,legacy,1024,2,48000,-16,experiment,SSHSS,1,odd,6364,NA,NA,NA,91162,1617,NA,58252,1616,NA,92187,NA,92287,92779,92186,92287,Flanker Task Lab 2.1,51,27537,52,1024
98,98,529,529,#000000,legacy,legacy,legacy,congruent,1,undefined,1,s,0,0,0,0,52,0,0,52,0,52,52,0,52,52,52,52,Thu Sep 14 12:02:02 2023,1500,The main experiment item,FALSE,FlankerTaskLab21.osexp,C:/Users/katjo/OneDrive/Desktop,FALSE,mono,FALSE,18,no,white,no,no,768,legacy,52,52,C:/Users/katjo/OneDrive/Desktop/KJ-subject-1.csv,legacy,Melodramatic Milgram,4.0.5,0,s,NA,h,NA,NA,s,500,NA,4746,NA,NA,500,2,legacy,1024,2,48000,-16,experiment,SSSSS,1,odd,6364,NA,NA,NA,92805,1617,NA,58252,1616,NA,93827,NA,93928,94429,93827,93928,Flanker Task Lab 2.1,52,28037,53,1024
98,98,527,527,#000000,legacy,legacy,legacy,congruent,1,undefined,1,h,0,0,0,0,53,0,0,53,0,53,53,0,53,53,53,53,Thu Sep 14 12:02:02 2023,1500,The main experiment item,FALSE,FlankerTaskLab21.osexp,C:/Users/katjo/OneDrive/Desktop,FALSE,mono,FALSE,18,no,white,no,no,768,legacy,53,53,C:/Users/katjo/OneDrive/Desktop/KJ-subject-1.csv,legacy,Melodramatic Milgram,4.0.5,0,h,NA,h,NA,NA,h,464,NA,4746,NA,NA,464,2,legacy,1024,2,48000,-16,experiment,HHHHH,1,odd,6364,NA,NA,NA,94456,1617,NA,58252,1616,NA,95500,NA,95601,96066,95499,95601,Flanker Task Lab 2.1,53,28501,54,1024
98,98,528,528,#000000,legacy,legacy,legacy,incongruent,1,undefined,1,h,0,0,0,0,54,0,0,54,0,54,54,0,54,54,54,54,Thu Sep 14 12:02:02 2023,1500,The main experiment item,FALSE,FlankerTaskLab21.osexp,C:/Users/katjo/OneDrive/Desktop,FALSE,mono,FALSE,18,no,white,no,no,768,legacy,54,54,C:/Users/katjo/OneDrive/Desktop/KJ-subject-1.csv,legacy,Melodramatic Milgram,4.0.5,0,h,NA,h,NA,NA,h,586,NA,4746,NA,NA,586,2,legacy,1024,2,48000,-16,experiment,SSHSS,1,odd,6364,NA,NA,NA,96073,1617,NA,58252,1616,NA,97110,NA,97211,97798,97108,97211,Flanker Task Lab 2.1,54,29087,55,1024
98,98,527,527,#000000,legacy,legacy,legacy,congruent,1,undefined,1,h,0,0,0,0,55,0,0,55,0,55,55,0,55,55,55,55,Thu Sep 14 12:02:02 2023,1500,The main experiment item,FALSE,FlankerTaskLab21.osexp,C:/Users/katjo/OneDrive/Desktop,FALSE,mono,FALSE,18,no,white,no,no,768,legacy,55,55,C:/Users/katjo/OneDrive/Desktop/KJ-subject-1.csv,legacy,Melodramatic Milgram,4.0.5,0,h,NA,h,NA,NA,h,433,NA,4746,NA,NA,433,2,legacy,1024,2,48000,-16,experiment,HHHHH,1,odd,6364,NA,NA,NA,97823,1617,NA,58252,1616,NA,98847,NA,98948,99382,98846,98948,Flanker Task Lab 2.1,55,29520,56,1024
98,98,525,525,#000000,legacy,legacy,legacy,incongruent,1,undefined,1,s,0,0,0,0,56,0,0,56,0,56,56,0,56,56,56,56,Thu Sep 14 12:02:02 2023,1500,The main experiment item,FALSE,FlankerTaskLab21.osexp,C:/Users/katjo/OneDrive/Desktop,FALSE,mono,FALSE,18,no,white,no,no,768,legacy,56,56,C:/Users/katjo/OneDrive/Desktop/KJ-subject-1.csv,legacy,Melodramatic Milgram,4.0.5,0,s,NA,h,NA,NA,s,426,NA,4746,NA,NA,426,2,legacy,1024,2,48000,-16,experiment,HHSHH,1,odd,6364,NA,NA,NA,99388,1617,NA,58252,1616,NA,100417,NA,100517,100943,100416,100517,Flanker Task Lab 2.1,56,29946,57,1024
98,98,525,525,#000000,legacy,legacy,legacy,congruent,1,undefined,1,s,0,0,0,0,57,0,0,57,0,57,57,0,57,57,57,57,Thu Sep 14 12:02:02 2023,1500,The main experiment item,FALSE,FlankerTaskLab21.osexp,C:/Users/katjo/OneDrive/Desktop,FALSE,mono,FALSE,18,no,white,no,no,768,legacy,57,57,C:/Users/katjo/OneDrive/Desktop/KJ-subject-1.csv,legacy,Melodramatic Milgram,4.0.5,0,s,NA,h,NA,NA,s,514,NA,4746,NA,NA,514,2,legacy,1024,2,48000,-16,experiment,SSSSS,1,odd,6364,NA,NA,NA,100950,1617,NA,58252,1616,NA,101995,NA,102096,102610,101994,102096,Flanker Task Lab 2.1,57,30460,58,1024
98,98,523,523,#000000,legacy,legacy,legacy,congruent,1,undefined,1,h,0,0,0,0,58,0,0,58,0,58,58,0,58,58,58,58,Thu Sep 14 12:02:02 2023,1500,The main experiment item,FALSE,FlankerTaskLab21.osexp,C:/Users/katjo/OneDrive/Desktop,FALSE,mono,FALSE,18,no,white,no,no,768,legacy,58,58,C:/Users/katjo/OneDrive/Desktop/KJ-subject-1.csv,legacy,Melodramatic Milgram,4.0.5,0,h,NA,h,NA,NA,h,431,NA,4746,NA,NA,431,2,legacy,1024,2,48000,-16,experiment,HHHHH,1,odd,6364,NA,NA,NA,102612,1617,NA,58252,1616,NA,103648,NA,103749,104180,103647,103749,Flanker Task Lab 2.1,58,30891,59,1024
98,98,523,523,#000000,legacy,legacy,legacy,incongruent,1,undefined,1,s,0,0,0,0,59,0,0,59,0,59,59,0,59,59,59,59,Thu Sep 14 12:02:02 2023,1500,The main experiment item,FALSE,FlankerTaskLab21.osexp,C:/Users/katjo/OneDrive/Desktop,FALSE,mono,FALSE,18,no,white,no,no,768,legacy,59,59,C:/Users/katjo/OneDrive/Desktop/KJ-subject-1.csv,legacy,Melodramatic Milgram,4.0.5,0,s,NA,h,NA,NA,s,507,NA,4746,NA,NA,507,2,legacy,1024,2,48000,-16,experiment,HHSHH,1,odd,6364,NA,NA,NA,104187,1617,NA,58252,1616,NA,105209,NA,105310,105818,105208,105310,Flanker Task Lab 2.1,59,31398,60,1024
98,98,521,521,#000000,legacy,legacy,legacy,incongruent,1,undefined,1,s,0,0,0,0,60,0,0,60,0,60,60,0,60,60,60,60,Thu Sep 14 12:02:02 2023,1500,The main experiment item,FALSE,FlankerTaskLab21.osexp,C:/Users/katjo/OneDrive/Desktop,FALSE,mono,FALSE,18,no,white,no,no,768,legacy,60,60,C:/Users/katjo/OneDrive/Desktop/KJ-subject-1.csv,legacy,Melodramatic Milgram,4.0.5,0,s,NA,h,NA,NA,s,428,NA,4746,NA,NA,428,2,legacy,1024,2,48000,-16,experiment,HHSHH,1,odd,6364,NA,NA,NA,105844,1617,NA,58252,1616,NA,106867,NA,106968,107397,106866,106968,Flanker Task Lab 2.1,60,31826,61,1024
98,98,519,519,#000000,legacy,legacy,legacy,congruent,1,undefined,1,h,0,0,0,0,61,0,0,61,0,61,61,0,61,61,61,61,Thu Sep 14 12:02:02 2023,1500,The main experiment item,FALSE,FlankerTaskLab21.osexp,C:/Users/katjo/OneDrive/Desktop,FALSE,mono,FALSE,18,no,white,no,no,768,legacy,61,61,C:/Users/katjo/OneDrive/Desktop/KJ-subject-1.csv,legacy,Melodramatic Milgram,4.0.5,0,h,NA,h,NA,NA,h,407,NA,4746,NA,NA,407,2,legacy,1024,2,48000,-16,experiment,HHHHH,1,odd,6364,NA,NA,NA,107423,1617,NA,58252,1616,NA,108445,NA,108545,108952,108444,108545,Flanker Task Lab 2.1,61,32233,62,1024
98,98,517,517,#000000,legacy,legacy,legacy,congruent,1,undefined,1,h,0,0,0,0,62,0,0,62,0,62,62,0,62,62,62,62,Thu Sep 14 12:02:02 2023,1500,The main experiment item,FALSE,FlankerTaskLab21.osexp,C:/Users/katjo/OneDrive/Desktop,FALSE,mono,FALSE,18,no,white,no,no,768,legacy,62,62,C:/Users/katjo/OneDrive/Desktop/KJ-subject-1.csv,legacy,Melodramatic Milgram,4.0.5,0,h,NA,h,NA,NA,h,400,NA,4746,NA,NA,400,2,legacy,1024,2,48000,-16,experiment,HHHHH,1,odd,6364,NA,NA,NA,108978,1617,NA,58252,1616,NA,110026,NA,110127,110528,110025,110127,Flanker Task Lab 2.1,62,32633,63,1024
96,96,517,517,#000000,legacy,legacy,legacy,incongruent,0,undefined,0,h,0,0,0,0,63,0,0,63,0,63,63,0,63,63,63,63,Thu Sep 14 12:02:02 2023,1500,The main experiment item,FALSE,FlankerTaskLab21.osexp,C:/Users/katjo/OneDrive/Desktop,FALSE,mono,FALSE,18,no,white,no,no,768,legacy,63,63,C:/Users/katjo/OneDrive/Desktop/KJ-subject-1.csv,legacy,Melodramatic Milgram,4.0.5,0,s,NA,h,NA,NA,s,500,NA,4746,NA,NA,500,2,legacy,1024,2,48000,-16,experiment,SSHSS,1,odd,6364,NA,NA,NA,110534,1617,NA,58252,1616,NA,111557,NA,111658,112159,111556,111658,Flanker Task Lab 2.1,62,33133,64,1024
96,96,516,516,#000000,legacy,legacy,legacy,congruent,1,undefined,1,s,0,0,0,0,64,0,0,64,0,64,64,0,64,64,64,64,Thu Sep 14 12:02:02 2023,1500,The main experiment item,FALSE,FlankerTaskLab21.osexp,C:/Users/katjo/OneDrive/Desktop,FALSE,mono,FALSE,18,no,white,no,no,768,legacy,64,64,C:/Users/katjo/OneDrive/Desktop/KJ-subject-1.csv,legacy,Melodramatic Milgram,4.0.5,0,s,NA,h,NA,NA,s,408,NA,4746,NA,NA,408,2,legacy,1024,2,48000,-16,experiment,SSSSS,1,odd,6364,NA,NA,NA,112662,1617,NA,112161,1616,NA,113703,NA,113804,114212,113702,113804,Flanker Task Lab 2.1,63,33541,65,1024
96,96,515,515,#000000,legacy,legacy,legacy,congruent,1,undefined,1,s,0,0,0,0,65,0,0,65,0,65,65,0,65,65,65,65,Thu Sep 14 12:02:02 2023,1500,The main experiment item,FALSE,FlankerTaskLab21.osexp,C:/Users/katjo/OneDrive/Desktop,FALSE,mono,FALSE,18,no,white,no,no,768,legacy,65,65,C:/Users/katjo/OneDrive/Desktop/KJ-subject-1.csv,legacy,Melodramatic Milgram,4.0.5,0,s,NA,h,NA,NA,s,462,NA,4746,NA,NA,462,2,legacy,1024,2,48000,-16,experiment,SSSSS,1,odd,6364,NA,NA,NA,114238,1617,NA,112161,1616,NA,115282,NA,115383,115845,115281,115383,Flanker Task Lab 2.1,64,34003,66,1024
97,97,514,514,#000000,legacy,legacy,legacy,incongruent,1,undefined,1,h,0,0,0,0,66,0,0,66,0,66,66,0,66,66,66,66,Thu Sep 14 12:02:02 2023,1500,The main experiment item,FALSE,FlankerTaskLab21.osexp,C:/Users/katjo/OneDrive/Desktop,FALSE,mono,FALSE,18,no,white,no,no,768,legacy,66,66,C:/Users/katjo/OneDrive/Desktop/KJ-subject-1.csv,legacy,Melodramatic Milgram,4.0.5,0,h,NA,h,NA,NA,h,473,NA,4746,NA,NA,473,2,legacy,1024,2,48000,-16,experiment,SSHSS,1,odd,6364,NA,NA,NA,115853,1617,NA,112161,1616,NA,116877,NA,116978,117452,116876,116978,Flanker Task Lab 2.1,65,34476,67,1024
97,97,513,513,#000000,legacy,legacy,legacy,congruent,1,undefined,1,s,0,0,0,0,67,0,0,67,0,67,67,0,67,67,67,67,Thu Sep 14 12:02:02 2023,1500,The main experiment item,FALSE,FlankerTaskLab21.osexp,C:/Users/katjo/OneDrive/Desktop,FALSE,mono,FALSE,18,no,white,no,no,768,legacy,67,67,C:/Users/katjo/OneDrive/Desktop/KJ-subject-1.csv,legacy,Melodramatic Milgram,4.0.5,0,s,NA,h,NA,NA,s,444,NA,4746,NA,NA,444,2,legacy,1024,2,48000,-16,experiment,SSSSS,1,odd,6364,NA,NA,NA,117458,1617,NA,112161,1616,NA,118482,NA,118583,119027,118481,118583,Flanker Task Lab 2.1,66,34920,68,1024
97,97,512,512,#000000,legacy,legacy,legacy,congruent,1,undefined,1,h,0,0,0,0,68,0,0,68,0,68,68,0,68,68,68,68,Thu Sep 14 12:02:02 2023,1500,The main experiment item,FALSE,FlankerTaskLab21.osexp,C:/Users/katjo/OneDrive/Desktop,FALSE,mono,FALSE,18,no,white,no,no,768,legacy,68,68,C:/Users/katjo/OneDrive/Desktop/KJ-subject-1.csv,legacy,Melodramatic Milgram,4.0.5,0,h,NA,h,NA,NA,h,425,NA,4746,NA,NA,425,2,legacy,1024,2,48000,-16,experiment,HHHHH,1,odd,6364,NA,NA,NA,119029,1617,NA,112161,1616,NA,120072,NA,120172,120598,120071,120172,Flanker Task Lab 2.1,67,35345,69,1024
97,97,513,513,#000000,legacy,legacy,legacy,incongruent,1,undefined,1,s,0,0,0,0,69,0,0,69,0,69,69,0,69,69,69,69,Thu Sep 14 12:02:02 2023,1500,The main experiment item,FALSE,FlankerTaskLab21.osexp,C:/Users/katjo/OneDrive/Desktop,FALSE,mono,FALSE,18,no,white,no,no,768,legacy,69,69,C:/Users/katjo/OneDrive/Desktop/KJ-subject-1.csv,legacy,Melodramatic Milgram,4.0.5,0,s,NA,h,NA,NA,s,618,NA,4746,NA,NA,618,2,legacy,1024,2,48000,-16,experiment,HHSHH,1,odd,6364,NA,NA,NA,120604,1617,NA,112161,1616,NA,121629,NA,121729,122348,121628,121729,Flanker Task Lab 2.1,68,35963,70,1024
97,97,518,518,#000000,legacy,legacy,legacy,incongruent,1,undefined,1,h,0,0,0,0,70,0,0,70,0,70,70,0,70,70,70,70,Thu Sep 14 12:02:02 2023,1500,The main experiment item,FALSE,FlankerTaskLab21.osexp,C:/Users/katjo/OneDrive/Desktop,FALSE,mono,FALSE,18,no,white,no,no,768,legacy,70,70,C:/Users/katjo/OneDrive/Desktop/KJ-subject-1.csv,legacy,Melodramatic Milgram,4.0.5,0,h,NA,h,NA,NA,h,824,NA,4746,NA,NA,824,2,legacy,1024,2,48000,-16,experiment,SSHSS,1,odd,6364,NA,NA,NA,122374,1617,NA,112161,1616,NA,123407,NA,123508,124333,123406,123508,Flanker Task Lab 2.1,69,36787,71,1024
97,97,516,516,#000000,legacy,legacy,legacy,congruent,1,undefined,1,h,0,0,0,0,71,0,0,71,0,71,71,0,71,71,71,71,Thu Sep 14 12:02:02 2023,1500,The main experiment item,FALSE,FlankerTaskLab21.osexp,C:/Users/katjo/OneDrive/Desktop,FALSE,mono,FALSE,18,no,white,no,no,768,legacy,71,71,C:/Users/katjo/OneDrive/Desktop/KJ-subject-1.csv,legacy,Melodramatic Milgram,4.0.5,0,h,NA,h,NA,NA,h,432,NA,4746,NA,NA,432,2,legacy,1024,2,48000,-16,experiment,HHHHH,1,odd,6364,NA,NA,NA,124358,1617,NA,112161,1616,NA,125382,NA,125483,125916,125381,125483,Flanker Task Lab 2.1,70,37219,72,1024
97,97,517,517,#000000,legacy,legacy,legacy,congruent,1,undefined,1,s,0,0,0,0,72,0,0,72,0,72,72,0,72,72,72,72,Thu Sep 14 12:02:02 2023,1500,The main experiment item,FALSE,FlankerTaskLab21.osexp,C:/Users/katjo/OneDrive/Desktop,FALSE,mono,FALSE,18,no,white,no,no,768,legacy,72,72,C:/Users/katjo/OneDrive/Desktop/KJ-subject-1.csv,legacy,Melodramatic Milgram,4.0.5,0,s,NA,h,NA,NA,s,530,NA,4746,NA,NA,530,2,legacy,1024,2,48000,-16,experiment,SSSSS,1,odd,6364,NA,NA,NA,125922,1617,NA,112161,1616,NA,126960,NA,127061,127591,126959,127061,Flanker Task Lab 2.1,71,37749,73,1024
95,95,518,518,#000000,legacy,legacy,legacy,incongruent,0,undefined,0,s,0,0,0,0,73,0,0,73,0,73,73,0,73,73,73,73,Thu Sep 14 12:02:02 2023,1500,The main experiment item,FALSE,FlankerTaskLab21.osexp,C:/Users/katjo/OneDrive/Desktop,FALSE,mono,FALSE,18,no,white,no,no,768,legacy,73,73,C:/Users/katjo/OneDrive/Desktop/KJ-subject-1.csv,legacy,Melodramatic Milgram,4.0.5,0,h,NA,h,NA,NA,h,636,NA,4746,NA,NA,636,2,legacy,1024,2,48000,-16,experiment,HHSHH,1,odd,6364,NA,NA,NA,127598,1617,NA,112161,1616,NA,128627,NA,128731,129368,128626,128731,Flanker Task Lab 2.1,71,38385,74,1024
96,96,518,518,#000000,legacy,legacy,legacy,incongruent,1,undefined,1,s,0,0,0,0,74,0,0,74,0,74,74,0,74,74,74,74,Thu Sep 14 12:02:02 2023,1500,The main experiment item,FALSE,FlankerTaskLab21.osexp,C:/Users/katjo/OneDrive/Desktop,FALSE,mono,FALSE,18,no,white,no,no,768,legacy,74,74,C:/Users/katjo/OneDrive/Desktop/KJ-subject-1.csv,legacy,Melodramatic Milgram,4.0.5,0,s,NA,h,NA,NA,s,527,NA,4746,NA,NA,527,2,legacy,1024,2,48000,-16,experiment,HHSHH,1,odd,6364,NA,NA,NA,129872,1617,NA,129371,1616,NA,130918,NA,131019,131546,130916,131019,Flanker Task Lab 2.1,72,38912,75,1024
96,96,519,519,#000000,legacy,legacy,legacy,incongruent,1,undefined,1,h,0,0,0,0,75,0,0,75,0,75,75,0,75,75,75,75,Thu Sep 14 12:02:02 2023,1500,The main experiment item,FALSE,FlankerTaskLab21.osexp,C:/Users/katjo/OneDrive/Desktop,FALSE,mono,FALSE,18,no,white,no,no,768,legacy,75,75,C:/Users/katjo/OneDrive/Desktop/KJ-subject-1.csv,legacy,Melodramatic Milgram,4.0.5,0,h,NA,h,NA,NA,h,585,NA,4746,NA,NA,585,2,legacy,1024,2,48000,-16,experiment,SSHSS,1,odd,6364,NA,NA,NA,131553,1617,NA,129371,1616,NA,132577,NA,132677,133262,132576,132677,Flanker Task Lab 2.1,73,39497,76,1024
96,96,519,519,#000000,legacy,legacy,legacy,incongruent,1,undefined,1,h,0,0,0,0,76,0,0,76,0,76,76,0,76,76,76,76,Thu Sep 14 12:02:02 2023,1500,The main experiment item,FALSE,FlankerTaskLab21.osexp,C:/Users/katjo/OneDrive/Desktop,FALSE,mono,FALSE,18,no,white,no,no,768,legacy,76,76,C:/Users/katjo/OneDrive/Desktop/KJ-subject-1.csv,legacy,Melodramatic Milgram,4.0.5,0,h,NA,h,NA,NA,h,470,NA,4746,NA,NA,470,2,legacy,1024,2,48000,-16,experiment,SSHSS,1,odd,6364,NA,NA,NA,133289,1617,NA,129371,1616,NA,134336,NA,134437,134908,134335,134437,Flanker Task Lab 2.1,74,39967,77,1024
94,94,519,519,#000000,legacy,legacy,legacy,congruent,0,undefined,0,h,0,0,0,0,77,0,0,77,0,77,77,0,77,77,77,77,Thu Sep 14 12:02:02 2023,1500,The main experiment item,FALSE,FlankerTaskLab21.osexp,C:/Users/katjo/OneDrive/Desktop,FALSE,mono,FALSE,18,no,white,no,no,768,legacy,77,77,C:/Users/katjo/OneDrive/Desktop/KJ-subject-1.csv,legacy,Melodramatic Milgram,4.0.5,0,s,NA,h,NA,NA,s,565,NA,4746,NA,NA,565,2,legacy,1024,2,48000,-16,experiment,HHHHH,1,odd,6364,NA,NA,NA,134915,1617,NA,129371,1616,NA,135941,NA,136042,136608,135940,136042,Flanker Task Lab 2.1,74,40532,78,1024
94,94,519,519,#000000,legacy,legacy,legacy,incongruent,1,undefined,1,h,0,0,0,0,78,0,0,78,0,78,78,0,78,78,78,78,Thu Sep 14 12:02:02 2023,1500,The main experiment item,FALSE,FlankerTaskLab21.osexp,C:/Users/katjo/OneDrive/Desktop,FALSE,mono,FALSE,18,no,white,no,no,768,legacy,78,78,C:/Users/katjo/OneDrive/Desktop/KJ-subject-1.csv,legacy,Melodramatic Milgram,4.0.5,0,h,NA,h,NA,NA,h,535,NA,4746,NA,NA,535,2,legacy,1024,2,48000,-16,experiment,SSHSS,1,odd,6364,NA,NA,NA,137134,1617,NA,136634,1616,NA,138161,NA,138262,138797,138160,138262,Flanker Task Lab 2.1,75,41067,79,1024
95,95,521,521,#000000,legacy,legacy,legacy,incongruent,1,undefined,1,s,0,0,0,0,79,0,0,79,0,79,79,0,79,79,79,79,Thu Sep 14 12:02:02 2023,1500,The main experiment item,FALSE,FlankerTaskLab21.osexp,C:/Users/katjo/OneDrive/Desktop,FALSE,mono,FALSE,18,no,white,no,no,768,legacy,79,79,C:/Users/katjo/OneDrive/Desktop/KJ-subject-1.csv,legacy,Melodramatic Milgram,4.0.5,0,s,NA,h,NA,NA,s,630,NA,4746,NA,NA,630,2,legacy,1024,2,48000,-16,experiment,HHSHH,1,odd,6364,NA,NA,NA,138803,1617,NA,136634,1616,NA,139843,NA,139943,140574,139841,139943,Flanker Task Lab 2.1,76,41697,80,1024
95,95,522,522,#000000,legacy,legacy,legacy,incongruent,1,undefined,1,s,0,0,0,0,80,0,0,80,0,80,80,0,80,80,80,80,Thu Sep 14 12:02:02 2023,600,The main experiment item,FALSE,FlankerTaskLab21.osexp,C:/Users/katjo/OneDrive/Desktop,FALSE,mono,FALSE,18,no,white,no,no,768,legacy,0,79,C:/Users/katjo/OneDrive/Desktop/KJ-subject-1.csv,legacy,Melodramatic Milgram,4.0.5,0,s,NA,h,h,NA,s,651,NA,4746,4003,NA,651,2,legacy,1024,2,48000,-16,experiment,HHSHH,1,odd,6364,145584,NA,NA,140580,1617,141581,136634,1616,NA,145608,NA,145708,146360,145608,145708,Flanker Task Lab 2.1,77,42348,81,1024
95,95,521,521,#000000,legacy,legacy,legacy,congruent,1,undefined,1,h,0,0,0,0,81,0,0,81,0,81,81,0,81,81,81,81,Thu Sep 14 12:02:02 2023,600,The main experiment item,FALSE,FlankerTaskLab21.osexp,C:/Users/katjo/OneDrive/Desktop,FALSE,mono,FALSE,18,no,white,no,no,768,legacy,1,79,C:/Users/katjo/OneDrive/Desktop/KJ-subject-1.csv,legacy,Melodramatic Milgram,4.0.5,0,h,NA,h,h,NA,h,432,NA,4746,4003,NA,432,2,legacy,1024,2,48000,-16,experiment,HHHHH,1,odd,6364,145584,NA,NA,146867,1617,141581,136634,1616,146366,147892,NA,147994,148427,147891,147993,Flanker Task Lab 2.1,78,42780,82,1024
95,95,520,520,#000000,legacy,legacy,legacy,incongruent,1,undefined,1,h,0,0,0,0,82,0,0,82,0,82,82,0,82,82,82,82,Thu Sep 14 12:02:02 2023,600,The main experiment item,FALSE,FlankerTaskLab21.osexp,C:/Users/katjo/OneDrive/Desktop,FALSE,mono,FALSE,18,no,white,no,no,768,legacy,2,79,C:/Users/katjo/OneDrive/Desktop/KJ-subject-1.csv,legacy,Melodramatic Milgram,4.0.5,0,h,NA,h,h,NA,h,449,NA,4746,4003,NA,449,2,legacy,1024,2,48000,-16,experiment,SSHSS,1,odd,6364,145584,NA,NA,148434,1617,141581,136634,1616,146366,149479,NA,149580,150030,149478,149580,Flanker Task Lab 2.1,79,43229,83,1024
95,95,520,520,#000000,legacy,legacy,legacy,incongruent,1,undefined,1,s,0,0,0,0,83,0,0,83,0,83,83,0,83,83,83,83,Thu Sep 14 12:02:02 2023,600,The main experiment item,FALSE,FlankerTaskLab21.osexp,C:/Users/katjo/OneDrive/Desktop,FALSE,mono,FALSE,18,no,white,no,no,768,legacy,3,79,C:/Users/katjo/OneDrive/Desktop/KJ-subject-1.csv,legacy,Melodramatic Milgram,4.0.5,0,s,NA,h,h,NA,s,501,NA,4746,4003,NA,501,2,legacy,1024,2,48000,-16,experiment,HHSHH,1,odd,6364,145584,NA,NA,150057,1617,141581,136634,1616,146366,151081,NA,151182,151684,151079,151182,Flanker Task Lab 2.1,80,43730,84,1024
95,95,520,520,#000000,legacy,legacy,legacy,incongruent,1,undefined,1,h,0,0,0,0,84,0,0,84,0,84,84,0,84,84,84,84,Thu Sep 14 12:02:02 2023,600,The main experiment item,FALSE,FlankerTaskLab21.osexp,C:/Users/katjo/OneDrive/Desktop,FALSE,mono,FALSE,18,no,white,no,no,768,legacy,4,79,C:/Users/katjo/OneDrive/Desktop/KJ-subject-1.csv,legacy,Melodramatic Milgram,4.0.5,0,h,NA,h,h,NA,h,530,NA,4746,4003,NA,530,2,legacy,1024,2,48000,-16,experiment,SSHSS,1,odd,6364,145584,NA,NA,151691,1617,141581,136634,1616,146366,152713,NA,152814,153345,152712,152814,Flanker Task Lab 2.1,81,44260,85,1024
95,95,518,518,#000000,legacy,legacy,legacy,incongruent,1,undefined,1,h,0,0,0,0,85,0,0,85,0,85,85,0,85,85,85,85,Thu Sep 14 12:02:02 2023,600,The main experiment item,FALSE,FlankerTaskLab21.osexp,C:/Users/katjo/OneDrive/Desktop,FALSE,mono,FALSE,18,no,white,no,no,768,legacy,5,79,C:/Users/katjo/OneDrive/Desktop/KJ-subject-1.csv,legacy,Melodramatic Milgram,4.0.5,0,h,NA,h,h,NA,h,371,NA,4746,4003,NA,371,2,legacy,1024,2,48000,-16,experiment,SSHSS,1,odd,6364,145584,NA,NA,153351,1617,141581,136634,1616,146366,154394,NA,154494,154866,154393,154494,Flanker Task Lab 2.1,82,44631,86,1024
95,95,518,518,#000000,legacy,legacy,legacy,incongruent,1,undefined,1,h,0,0,0,0,86,0,0,86,0,86,86,0,86,86,86,86,Thu Sep 14 12:02:02 2023,600,The main experiment item,FALSE,FlankerTaskLab21.osexp,C:/Users/katjo/OneDrive/Desktop,FALSE,mono,FALSE,18,no,white,no,no,768,legacy,6,79,C:/Users/katjo/OneDrive/Desktop/KJ-subject-1.csv,legacy,Melodramatic Milgram,4.0.5,0,h,NA,h,h,NA,h,476,NA,4746,4003,NA,476,2,legacy,1024,2,48000,-16,experiment,SSHSS,1,odd,6364,145584,NA,NA,154892,1617,141581,136634,1616,146366,155930,NA,156031,156508,155929,156031,Flanker Task Lab 2.1,83,45107,87,1024
95,95,516,516,#000000,legacy,legacy,legacy,congruent,1,undefined,1,h,0,0,0,0,87,0,0,87,0,87,87,0,87,87,87,87,Thu Sep 14 12:02:02 2023,600,The main experiment item,FALSE,FlankerTaskLab21.osexp,C:/Users/katjo/OneDrive/Desktop,FALSE,mono,FALSE,18,no,white,no,no,768,legacy,7,79,C:/Users/katjo/OneDrive/Desktop/KJ-subject-1.csv,legacy,Melodramatic Milgram,4.0.5,0,h,NA,h,h,NA,h,370,NA,4746,4003,NA,370,2,legacy,1024,2,48000,-16,experiment,HHHHH,1,odd,6364,145584,NA,NA,156510,1617,141581,136634,1616,146366,157534,NA,157634,158005,157533,157634,Flanker Task Lab 2.1,84,45477,88,1024
95,95,514,514,#000000,legacy,legacy,legacy,congruent,1,undefined,1,h,0,0,0,0,88,0,0,88,0,88,88,0,88,88,88,88,Thu Sep 14 12:02:02 2023,600,The main experiment item,FALSE,FlankerTaskLab21.osexp,C:/Users/katjo/OneDrive/Desktop,FALSE,mono,FALSE,18,no,white,no,no,768,legacy,8,79,C:/Users/katjo/OneDrive/Desktop/KJ-subject-1.csv,legacy,Melodramatic Milgram,4.0.5,0,h,NA,h,h,NA,h,336,NA,4746,4003,NA,336,2,legacy,1024,2,48000,-16,experiment,HHHHH,1,odd,6364,145584,NA,NA,158007,1617,141581,136634,1616,146366,159028,NA,159134,159470,159027,159134,Flanker Task Lab 2.1,85,45813,89,1024
95,95,514,514,#000000,legacy,legacy,legacy,congruent,1,undefined,1,s,0,0,0,0,89,0,0,89,0,89,89,0,89,89,89,89,Thu Sep 14 12:02:02 2023,600,The main experiment item,FALSE,FlankerTaskLab21.osexp,C:/Users/katjo/OneDrive/Desktop,FALSE,mono,FALSE,18,no,white,no,no,768,legacy,9,79,C:/Users/katjo/OneDrive/Desktop/KJ-subject-1.csv,legacy,Melodramatic Milgram,4.0.5,0,s,NA,h,h,NA,s,459,NA,4746,4003,NA,459,2,legacy,1024,2,48000,-16,experiment,SSSSS,1,odd,6364,145584,NA,NA,159477,1617,141581,136634,1616,146366,160501,NA,160602,161062,160500,160602,Flanker Task Lab 2.1,86,46272,90,1024
95,95,514,514,#000000,legacy,legacy,legacy,incongruent,1,undefined,1,h,0,0,0,0,90,0,0,90,0,90,90,0,90,90,90,90,Thu Sep 14 12:02:02 2023,600,The main experiment item,FALSE,FlankerTaskLab21.osexp,C:/Users/katjo/OneDrive/Desktop,FALSE,mono,FALSE,18,no,white,no,no,768,legacy,10,79,C:/Users/katjo/OneDrive/Desktop/KJ-subject-1.csv,legacy,Melodramatic Milgram,4.0.5,0,h,NA,h,h,NA,h,508,NA,4746,4003,NA,508,2,legacy,1024,2,48000,-16,experiment,SSHSS,1,odd,6364,145584,NA,NA,161088,1617,141581,136634,1616,146366,162113,NA,162213,162721,162112,162213,Flanker Task Lab 2.1,87,46780,91,1024
95,95,514,514,#000000,legacy,legacy,legacy,incongruent,1,undefined,1,s,0,0,0,0,91,0,0,91,0,91,91,0,91,91,91,91,Thu Sep 14 12:02:02 2023,600,The main experiment item,FALSE,FlankerTaskLab21.osexp,C:/Users/katjo/OneDrive/Desktop,FALSE,mono,FALSE,18,no,white,no,no,768,legacy,11,79,C:/Users/katjo/OneDrive/Desktop/KJ-subject-1.csv,legacy,Melodramatic Milgram,4.0.5,0,s,NA,h,h,NA,s,537,NA,4746,4003,NA,537,2,legacy,1024,2,48000,-16,experiment,HHSHH,1,odd,6364,145584,NA,NA,162728,1617,141581,136634,1616,146366,163761,NA,163861,164398,163760,163861,Flanker Task Lab 2.1,88,47317,92,1024
95,95,513,513,#000000,legacy,legacy,legacy,incongruent,1,undefined,1,s,0,0,0,0,92,0,0,92,0,92,92,0,92,92,92,92,Thu Sep 14 12:02:02 2023,600,The main experiment item,FALSE,FlankerTaskLab21.osexp,C:/Users/katjo/OneDrive/Desktop,FALSE,mono,FALSE,18,no,white,no,no,768,legacy,12,79,C:/Users/katjo/OneDrive/Desktop/KJ-subject-1.csv,legacy,Melodramatic Milgram,4.0.5,0,s,NA,h,h,NA,s,413,NA,4746,4003,NA,413,2,legacy,1024,2,48000,-16,experiment,HHSHH,1,odd,6364,145584,NA,NA,164425,1617,141581,136634,1616,146366,165462,NA,165563,165977,165461,165563,Flanker Task Lab 2.1,89,47730,93,1024
95,95,512,512,#000000,legacy,legacy,legacy,incongruent,1,undefined,1,s,0,0,0,0,93,0,0,93,0,93,93,0,93,93,93,93,Thu Sep 14 12:02:02 2023,600,The main experiment item,FALSE,FlankerTaskLab21.osexp,C:/Users/katjo/OneDrive/Desktop,FALSE,mono,FALSE,18,no,white,no,no,768,legacy,13,79,C:/Users/katjo/OneDrive/Desktop/KJ-subject-1.csv,legacy,Melodramatic Milgram,4.0.5,0,s,NA,h,h,NA,s,410,NA,4746,4003,NA,410,2,legacy,1024,2,48000,-16,experiment,HHSHH,1,odd,6364,145584,NA,NA,166003,1617,141581,136634,1616,146366,167041,NA,167142,167553,167040,167142,Flanker Task Lab 2.1,90,48140,94,1024
95,95,512,512,#000000,legacy,legacy,legacy,incongruent,1,undefined,1,h,0,0,0,0,94,0,0,94,0,94,94,0,94,94,94,94,Thu Sep 14 12:02:02 2023,600,The main experiment item,FALSE,FlankerTaskLab21.osexp,C:/Users/katjo/OneDrive/Desktop,FALSE,mono,FALSE,18,no,white,no,no,768,legacy,14,79,C:/Users/katjo/OneDrive/Desktop/KJ-subject-1.csv,legacy,Melodramatic Milgram,4.0.5,0,h,NA,h,h,NA,h,502,NA,4746,4003,NA,502,2,legacy,1024,2,48000,-16,experiment,SSHSS,1,odd,6364,145584,NA,NA,167559,1617,141581,136634,1616,146366,168584,NA,168685,169188,168583,168685,Flanker Task Lab 2.1,91,48642,95,1024
95,95,510,510,#000000,legacy,legacy,legacy,incongruent,1,undefined,1,h,0,0,0,0,95,0,0,95,0,95,95,0,95,95,95,95,Thu Sep 14 12:02:02 2023,600,The main experiment item,FALSE,FlankerTaskLab21.osexp,C:/Users/katjo/OneDrive/Desktop,FALSE,mono,FALSE,18,no,white,no,no,768,legacy,15,79,C:/Users/katjo/OneDrive/Desktop/KJ-subject-1.csv,legacy,Melodramatic Milgram,4.0.5,0,h,NA,h,h,NA,h,412,NA,4746,4003,NA,412,2,legacy,1024,2,48000,-16,experiment,SSHSS,1,odd,6364,145584,NA,NA,169194,1617,141581,136634,1616,146366,170217,NA,170317,170730,170216,170317,Flanker Task Lab 2.1,92,49054,96,1024
95,95,509,509,#000000,legacy,legacy,legacy,incongruent,1,undefined,1,h,0,0,0,0,96,0,0,96,0,96,96,0,96,96,96,96,Thu Sep 14 12:02:02 2023,600,The main experiment item,FALSE,FlankerTaskLab21.osexp,C:/Users/katjo/OneDrive/Desktop,FALSE,mono,FALSE,18,no,white,no,no,768,legacy,16,79,C:/Users/katjo/OneDrive/Desktop/KJ-subject-1.csv,legacy,Melodramatic Milgram,4.0.5,0,h,NA,h,h,NA,h,379,NA,4746,4003,NA,379,2,legacy,1024,2,48000,-16,experiment,SSHSS,1,odd,6364,145584,NA,NA,170756,1617,141581,136634,1616,146366,171780,NA,171881,172261,171779,171881,Flanker Task Lab 2.1,93,49433,97,1024
94,94,508,508,#000000,legacy,legacy,legacy,incongruent,0,undefined,0,s,0,0,0,0,97,0,0,97,0,97,97,0,97,97,97,97,Thu Sep 14 12:02:02 2023,600,The main experiment item,FALSE,FlankerTaskLab21.osexp,C:/Users/katjo/OneDrive/Desktop,FALSE,mono,FALSE,18,no,white,no,no,768,legacy,17,79,C:/Users/katjo/OneDrive/Desktop/KJ-subject-1.csv,legacy,Melodramatic Milgram,4.0.5,0,h,NA,h,h,NA,h,353,NA,4746,4003,NA,353,2,legacy,1024,2,48000,-16,experiment,HHSHH,1,odd,6364,145584,NA,NA,172268,1617,141581,136634,1616,146366,173309,NA,173410,173764,173308,173410,Flanker Task Lab 2.1,93,49786,98,1024
93,93,506,506,#000000,legacy,legacy,legacy,incongruent,0,undefined,0,s,0,0,0,0,98,0,0,98,0,98,98,0,98,98,98,98,Thu Sep 14 12:02:02 2023,600,The main experiment item,FALSE,FlankerTaskLab21.osexp,C:/Users/katjo/OneDrive/Desktop,FALSE,mono,FALSE,18,no,white,no,no,768,legacy,18,79,C:/Users/katjo/OneDrive/Desktop/KJ-subject-1.csv,legacy,Melodramatic Milgram,4.0.5,0,h,NA,h,h,NA,h,393,NA,4746,4003,NA,393,2,legacy,1024,2,48000,-16,experiment,HHSHH,1,odd,6364,145584,NA,NA,174296,1617,141581,173790,1616,146366,175331,NA,175432,175826,175330,175432,Flanker Task Lab 2.1,93,50179,99,1024
94,94,505,505,#000000,legacy,legacy,legacy,congruent,1,undefined,1,h,0,0,0,0,99,0,0,99,0,99,99,0,99,99,99,99,Thu Sep 14 12:02:02 2023,600,The main experiment item,FALSE,FlankerTaskLab21.osexp,C:/Users/katjo/OneDrive/Desktop,FALSE,mono,FALSE,18,no,white,no,no,768,legacy,19,79,C:/Users/katjo/OneDrive/Desktop/KJ-subject-1.csv,legacy,Melodramatic Milgram,4.0.5,0,h,NA,h,h,NA,h,404,NA,4746,4003,NA,404,2,legacy,1024,2,48000,-16,experiment,HHHHH,1,odd,6364,145584,NA,NA,176352,1617,141581,175852,1616,146366,177383,NA,177484,177889,177382,177484,Flanker Task Lab 2.1,94,50583,100,1024
94,94,506,506,#000000,legacy,legacy,legacy,incongruent,1,undefined,1,h,0,0,0,0,100,0,0,100,0,100,100,0,100,100,100,100,Thu Sep 14 12:02:02 2023,600,The main experiment item,FALSE,FlankerTaskLab21.osexp,C:/Users/katjo/OneDrive/Desktop,FALSE,mono,FALSE,18,no,white,no,no,768,legacy,20,79,C:/Users/katjo/OneDrive/Desktop/KJ-subject-1.csv,legacy,Melodramatic Milgram,4.0.5,0,h,NA,h,h,NA,h,607,NA,4746,4003,NA,607,2,legacy,1024,2,48000,-16,experiment,SSHSS,1,odd,6364,145584,NA,NA,177896,1617,141581,175852,1616,146366,178920,NA,179020,179628,178919,179020,Flanker Task Lab 2.1,95,51190,101,1024
94,94,505,505,#000000,legacy,legacy,legacy,congruent,1,undefined,1,h,0,0,0,0,101,0,0,101,0,101,101,0,101,101,101,101,Thu Sep 14 12:02:02 2023,600,The main experiment item,FALSE,FlankerTaskLab21.osexp,C:/Users/katjo/OneDrive/Desktop,FALSE,mono,FALSE,18,no,white,no,no,768,legacy,21,79,C:/Users/katjo/OneDrive/Desktop/KJ-subject-1.csv,legacy,Melodramatic Milgram,4.0.5,0,h,NA,h,h,NA,h,410,NA,4746,4003,NA,410,2,legacy,1024,2,48000,-16,experiment,HHHHH,1,odd,6364,145584,NA,NA,180132,1617,141581,175852,1616,179630,181154,NA,181255,181666,181153,181255,Flanker Task Lab 2.1,96,51600,102,1024
94,94,504,504,#000000,legacy,legacy,legacy,congruent,1,undefined,1,h,0,0,0,0,102,0,0,102,0,102,102,0,102,102,102,102,Thu Sep 14 12:02:02 2023,600,The main experiment item,FALSE,FlankerTaskLab21.osexp,C:/Users/katjo/OneDrive/Desktop,FALSE,mono,FALSE,18,no,white,no,no,768,legacy,22,79,C:/Users/katjo/OneDrive/Desktop/KJ-subject-1.csv,legacy,Melodramatic Milgram,4.0.5,0,h,NA,h,h,NA,h,372,NA,4746,4003,NA,372,2,legacy,1024,2,48000,-16,experiment,HHHHH,1,odd,6364,145584,NA,NA,181670,1617,141581,175852,1616,179630,182715,NA,182816,183189,182714,182816,Flanker Task Lab 2.1,97,51972,103,1024
94,94,503,503,#000000,legacy,legacy,legacy,congruent,1,undefined,1,s,0,0,0,0,103,0,0,103,0,103,103,0,103,103,103,103,Thu Sep 14 12:02:02 2023,600,The main experiment item,FALSE,FlankerTaskLab21.osexp,C:/Users/katjo/OneDrive/Desktop,FALSE,mono,FALSE,18,no,white,no,no,768,legacy,23,79,C:/Users/katjo/OneDrive/Desktop/KJ-subject-1.csv,legacy,Melodramatic Milgram,4.0.5,0,s,NA,h,h,NA,s,395,NA,4746,4003,NA,395,2,legacy,1024,2,48000,-16,experiment,SSSSS,1,odd,6364,145584,NA,NA,183196,1617,141581,175852,1616,179630,184219,NA,184320,184715,184218,184320,Flanker Task Lab 2.1,98,52367,104,1024
94,94,502,502,#000000,legacy,legacy,legacy,congruent,1,undefined,1,s,0,0,0,0,104,0,0,104,0,104,104,0,104,104,104,104,Thu Sep 14 12:02:02 2023,600,The main experiment item,FALSE,FlankerTaskLab21.osexp,C:/Users/katjo/OneDrive/Desktop,FALSE,mono,FALSE,18,no,white,no,no,768,legacy,24,79,C:/Users/katjo/OneDrive/Desktop/KJ-subject-1.csv,legacy,Melodramatic Milgram,4.0.5,0,s,NA,h,h,NA,s,368,NA,4746,4003,NA,368,2,legacy,1024,2,48000,-16,experiment,SSSSS,1,odd,6364,145584,NA,NA,184722,1617,141581,175852,1616,179630,185747,NA,185847,186216,185746,185847,Flanker Task Lab 2.1,99,52735,105,1024
94,94,501,501,#000000,legacy,legacy,legacy,incongruent,1,undefined,1,s,0,0,0,0,105,0,0,105,0,105,105,0,105,105,105,105,Thu Sep 14 12:02:02 2023,600,The main experiment item,FALSE,FlankerTaskLab21.osexp,C:/Users/katjo/OneDrive/Desktop,FALSE,mono,FALSE,18,no,white,no,no,768,legacy,25,79,C:/Users/katjo/OneDrive/Desktop/KJ-subject-1.csv,legacy,Melodramatic Milgram,4.0.5,0,s,NA,h,h,NA,s,476,NA,4746,4003,NA,476,2,legacy,1024,2,48000,-16,experiment,HHSHH,1,odd,6364,145584,NA,NA,186218,1617,141581,175852,1616,179630,187243,NA,187344,187821,187242,187344,Flanker Task Lab 2.1,100,53211,106,1024
94,94,501,501,#000000,legacy,legacy,legacy,congruent,1,undefined,1,s,0,0,0,0,106,0,0,106,0,106,106,0,106,106,106,106,Thu Sep 14 12:02:02 2023,600,The main experiment item,FALSE,FlankerTaskLab21.osexp,C:/Users/katjo/OneDrive/Desktop,FALSE,mono,FALSE,18,no,white,no,no,768,legacy,26,79,C:/Users/katjo/OneDrive/Desktop/KJ-subject-1.csv,legacy,Melodramatic Milgram,4.0.5,0,s,NA,h,h,NA,s,406,NA,4746,4003,NA,406,2,legacy,1024,2,48000,-16,experiment,SSSSS,1,odd,6364,145584,NA,NA,187847,1617,141581,175852,1616,179630,188890,NA,188991,189398,188890,188991,Flanker Task Lab 2.1,101,53617,107,1024
94,94,501,501,#000000,legacy,legacy,legacy,incongruent,1,undefined,1,h,0,0,0,0,107,0,0,107,0,107,107,0,107,107,107,107,Thu Sep 14 12:02:02 2023,600,The main experiment item,FALSE,FlankerTaskLab21.osexp,C:/Users/katjo/OneDrive/Desktop,FALSE,mono,FALSE,18,no,white,no,no,768,legacy,27,79,C:/Users/katjo/OneDrive/Desktop/KJ-subject-1.csv,legacy,Melodramatic Milgram,4.0.5,0,h,NA,h,h,NA,h,513,NA,4746,4003,NA,513,2,legacy,1024,2,48000,-16,experiment,SSHSS,1,odd,6364,145584,NA,NA,189404,1617,141581,175852,1616,179630,190434,NA,190535,191049,190433,190534,Flanker Task Lab 2.1,102,54130,108,1024
94,94,500,500,#000000,legacy,legacy,legacy,congruent,1,undefined,1,s,0,0,0,0,108,0,0,108,0,108,108,0,108,108,108,108,Thu Sep 14 12:02:02 2023,600,The main experiment item,FALSE,FlankerTaskLab21.osexp,C:/Users/katjo/OneDrive/Desktop,FALSE,mono,FALSE,18,no,white,no,no,768,legacy,28,79,C:/Users/katjo/OneDrive/Desktop/KJ-subject-1.csv,legacy,Melodramatic Milgram,4.0.5,0,s,NA,h,h,NA,s,463,NA,4746,4003,NA,463,2,legacy,1024,2,48000,-16,experiment,SSSSS,1,odd,6364,145584,NA,NA,191055,1617,141581,175852,1616,179630,192078,NA,192179,192643,192077,192179,Flanker Task Lab 2.1,103,54593,109,1024
94,94,499,499,#000000,legacy,legacy,legacy,incongruent,1,undefined,1,h,0,0,0,0,109,0,0,109,0,109,109,0,109,109,109,109,Thu Sep 14 12:02:02 2023,600,The main experiment item,FALSE,FlankerTaskLab21.osexp,C:/Users/katjo/OneDrive/Desktop,FALSE,mono,FALSE,18,no,white,no,no,768,legacy,29,79,C:/Users/katjo/OneDrive/Desktop/KJ-subject-1.csv,legacy,Melodramatic Milgram,4.0.5,0,h,NA,h,h,NA,h,394,NA,4746,4003,NA,394,2,legacy,1024,2,48000,-16,experiment,SSHSS,1,odd,6364,145584,NA,NA,192645,1617,141581,175852,1616,179630,193681,NA,193782,194177,193680,193782,Flanker Task Lab 2.1,104,54987,110,1024
94,94,499,499,#000000,legacy,legacy,legacy,congruent,1,undefined,1,s,0,0,0,0,110,0,0,110,0,110,110,0,110,110,110,110,Thu Sep 14 12:02:02 2023,600,The main experiment item,FALSE,FlankerTaskLab21.osexp,C:/Users/katjo/OneDrive/Desktop,FALSE,mono,FALSE,18,no,white,no,no,768,legacy,30,79,C:/Users/katjo/OneDrive/Desktop/KJ-subject-1.csv,legacy,Melodramatic Milgram,4.0.5,0,s,NA,h,h,NA,s,455,NA,4746,4003,NA,455,2,legacy,1024,2,48000,-16,experiment,SSSSS,1,odd,6364,145584,NA,NA,194204,1617,141581,175852,1616,179630,195228,NA,195328,195783,195227,195328,Flanker Task Lab 2.1,105,55442,111,1024
94,94,497,497,#000000,legacy,legacy,legacy,incongruent,1,undefined,1,h,0,0,0,0,111,0,0,111,0,111,111,0,111,111,111,111,Thu Sep 14 12:02:02 2023,600,The main experiment item,FALSE,FlankerTaskLab21.osexp,C:/Users/katjo/OneDrive/Desktop,FALSE,mono,FALSE,18,no,white,no,no,768,legacy,31,79,C:/Users/katjo/OneDrive/Desktop/KJ-subject-1.csv,legacy,Melodramatic Milgram,4.0.5,0,h,NA,h,h,NA,h,321,NA,4746,4003,NA,321,2,legacy,1024,2,48000,-16,experiment,SSHSS,1,odd,6364,145584,NA,NA,195809,1617,141581,175852,1616,179630,196835,NA,196936,197259,196834,196936,Flanker Task Lab 2.1,106,55763,112,1024
94,94,497,497,#000000,legacy,legacy,legacy,incongruent,1,undefined,1,h,0,0,0,0,112,0,0,112,0,112,112,0,112,112,112,112,Thu Sep 14 12:02:02 2023,600,The main experiment item,FALSE,FlankerTaskLab21.osexp,C:/Users/katjo/OneDrive/Desktop,FALSE,mono,FALSE,18,no,white,no,no,768,legacy,32,79,C:/Users/katjo/OneDrive/Desktop/KJ-subject-1.csv,legacy,Melodramatic Milgram,4.0.5,0,h,NA,h,h,NA,h,447,NA,4746,4003,NA,447,2,legacy,1024,2,48000,-16,experiment,SSHSS,1,odd,6364,145584,NA,NA,197265,1617,141581,175852,1616,179630,198299,NA,198400,198848,198298,198400,Flanker Task Lab 2.1,107,56210,113,1024
94,94,497,497,#000000,legacy,legacy,legacy,incongruent,1,undefined,1,s,0,0,0,0,113,0,0,113,0,113,113,0,113,113,113,113,Thu Sep 14 12:02:02 2023,600,The main experiment item,FALSE,FlankerTaskLab21.osexp,C:/Users/katjo/OneDrive/Desktop,FALSE,mono,FALSE,18,no,white,no,no,768,legacy,33,79,C:/Users/katjo/OneDrive/Desktop/KJ-subject-1.csv,legacy,Melodramatic Milgram,4.0.5,0,s,NA,h,h,NA,s,540,NA,4746,4003,NA,540,2,legacy,1024,2,48000,-16,experiment,HHSHH,1,odd,6364,145584,NA,NA,198874,1617,141581,175852,1616,179630,199899,NA,200000,200541,199898,200000,Flanker Task Lab 2.1,108,56750,114,1024
94,94,496,496,#000000,legacy,legacy,legacy,congruent,1,undefined,1,s,0,0,0,0,114,0,0,114,0,114,114,0,114,114,114,114,Thu Sep 14 12:02:02 2023,600,The main experiment item,FALSE,FlankerTaskLab21.osexp,C:/Users/katjo/OneDrive/Desktop,FALSE,mono,FALSE,18,no,white,no,no,768,legacy,34,79,C:/Users/katjo/OneDrive/Desktop/KJ-subject-1.csv,legacy,Melodramatic Milgram,4.0.5,0,s,NA,h,h,NA,s,379,NA,4746,4003,NA,379,2,legacy,1024,2,48000,-16,experiment,SSSSS,1,odd,6364,145584,NA,NA,200567,1617,141581,175852,1616,179630,201612,NA,201712,202092,201611,201712,Flanker Task Lab 2.1,109,57129,115,1024
94,94,497,497,#000000,legacy,legacy,legacy,incongruent,1,undefined,1,s,0,0,0,0,115,0,0,115,0,115,115,0,115,115,115,115,Thu Sep 14 12:02:02 2023,600,The main experiment item,FALSE,FlankerTaskLab21.osexp,C:/Users/katjo/OneDrive/Desktop,FALSE,mono,FALSE,18,no,white,no,no,768,legacy,35,79,C:/Users/katjo/OneDrive/Desktop/KJ-subject-1.csv,legacy,Melodramatic Milgram,4.0.5,0,s,NA,h,h,NA,s,527,NA,4746,4003,NA,527,2,legacy,1024,2,48000,-16,experiment,HHSHH,1,odd,6364,145584,NA,NA,202094,1617,141581,175852,1616,179630,203125,NA,203226,203753,203124,203226,Flanker Task Lab 2.1,110,57656,116,1024
94,94,496,496,#000000,legacy,legacy,legacy,incongruent,1,undefined,1,s,0,0,0,0,116,0,0,116,0,116,116,0,116,116,116,116,Thu Sep 14 12:02:02 2023,600,The main experiment item,FALSE,FlankerTaskLab21.osexp,C:/Users/katjo/OneDrive/Desktop,FALSE,mono,FALSE,18,no,white,no,no,768,legacy,36,79,C:/Users/katjo/OneDrive/Desktop/KJ-subject-1.csv,legacy,Melodramatic Milgram,4.0.5,0,s,NA,h,h,NA,s,424,NA,4746,4003,NA,424,2,legacy,1024,2,48000,-16,experiment,HHSHH,1,odd,6364,145584,NA,NA,203760,1617,141581,175852,1616,179630,204783,NA,204883,205308,204782,204883,Flanker Task Lab 2.1,111,58080,117,1024
94,94,495,495,#000000,legacy,legacy,legacy,incongruent,1,undefined,1,s,0,0,0,0,117,0,0,117,0,117,117,0,117,117,117,117,Thu Sep 14 12:02:02 2023,600,The main experiment item,FALSE,FlankerTaskLab21.osexp,C:/Users/katjo/OneDrive/Desktop,FALSE,mono,FALSE,18,no,white,no,no,768,legacy,37,79,C:/Users/katjo/OneDrive/Desktop/KJ-subject-1.csv,legacy,Melodramatic Milgram,4.0.5,0,s,NA,h,h,NA,s,397,NA,4746,4003,NA,397,2,legacy,1024,2,48000,-16,experiment,HHSHH,1,odd,6364,145584,NA,NA,205334,1617,141581,175852,1616,179630,206377,NA,206478,206876,206376,206478,Flanker Task Lab 2.1,112,58477,118,1024
94,94,494,494,#000000,legacy,legacy,legacy,congruent,1,undefined,1,h,0,0,0,0,118,0,0,118,0,118,118,0,118,118,118,118,Thu Sep 14 12:02:02 2023,600,The main experiment item,FALSE,FlankerTaskLab21.osexp,C:/Users/katjo/OneDrive/Desktop,FALSE,mono,FALSE,18,no,white,no,no,768,legacy,38,79,C:/Users/katjo/OneDrive/Desktop/KJ-subject-1.csv,legacy,Melodramatic Milgram,4.0.5,0,h,NA,h,h,NA,h,364,NA,4746,4003,NA,364,2,legacy,1024,2,48000,-16,experiment,HHHHH,1,odd,6364,145584,NA,NA,206882,1617,141581,175852,1616,179630,207909,NA,208009,208374,207908,208009,Flanker Task Lab 2.1,113,58841,119,1024
95,95,494,494,#000000,legacy,legacy,legacy,incongruent,1,undefined,1,s,0,0,0,0,119,0,0,119,0,119,119,0,119,119,119,119,Thu Sep 14 12:02:02 2023,600,The main experiment item,FALSE,FlankerTaskLab21.osexp,C:/Users/katjo/OneDrive/Desktop,FALSE,mono,FALSE,18,no,white,no,no,768,legacy,39,79,C:/Users/katjo/OneDrive/Desktop/KJ-subject-1.csv,legacy,Melodramatic Milgram,4.0.5,0,s,NA,h,h,NA,s,455,NA,4746,4003,NA,455,2,legacy,1024,2,48000,-16,experiment,HHSHH,1,odd,6364,145584,NA,NA,208380,1617,141581,175852,1616,179630,209403,NA,209504,209959,209402,209504,Flanker Task Lab 2.1,114,59296,120,1024
95,95,493,493,#000000,legacy,legacy,legacy,congruent,1,undefined,1,h,0,0,0,0,120,0,0,120,0,120,120,0,120,120,120,120,Thu Sep 14 12:02:02 2023,600,The main experiment item,FALSE,FlankerTaskLab21.osexp,C:/Users/katjo/OneDrive/Desktop,FALSE,mono,FALSE,18,no,white,no,no,768,legacy,40,79,C:/Users/katjo/OneDrive/Desktop/KJ-subject-1.csv,legacy,Melodramatic Milgram,4.0.5,0,h,NA,h,h,NA,h,389,NA,4746,4003,NA,389,2,legacy,1024,2,48000,-16,experiment,HHHHH,1,odd,6364,145584,NA,NA,209966,1617,141581,175852,1616,179630,211009,NA,211110,211500,211008,211110,Flanker Task Lab 2.1,115,59685,121,1024
95,95,492,492,#000000,legacy,legacy,legacy,incongruent,1,undefined,1,s,0,0,0,0,121,0,0,121,0,121,121,0,121,121,121,121,Thu Sep 14 12:02:02 2023,600,The main experiment item,FALSE,FlankerTaskLab21.osexp,C:/Users/katjo/OneDrive/Desktop,FALSE,mono,FALSE,18,no,white,no,no,768,legacy,41,79,C:/Users/katjo/OneDrive/Desktop/KJ-subject-1.csv,legacy,Melodramatic Milgram,4.0.5,0,s,NA,h,h,NA,s,448,NA,4746,4003,NA,448,2,legacy,1024,2,48000,-16,experiment,HHSHH,1,odd,6364,145584,NA,NA,211506,1617,141581,175852,1616,179630,212551,NA,212652,213101,212550,212652,Flanker Task Lab 2.1,116,60133,122,1024
95,95,492,492,#000000,legacy,legacy,legacy,congruent,1,undefined,1,h,0,0,0,0,122,0,0,122,0,122,122,0,122,122,122,122,Thu Sep 14 12:02:02 2023,600,The main experiment item,FALSE,FlankerTaskLab21.osexp,C:/Users/katjo/OneDrive/Desktop,FALSE,mono,FALSE,18,no,white,no,no,768,legacy,42,79,C:/Users/katjo/OneDrive/Desktop/KJ-subject-1.csv,legacy,Melodramatic Milgram,4.0.5,0,h,NA,h,h,NA,h,453,NA,4746,4003,NA,453,2,legacy,1024,2,48000,-16,experiment,HHHHH,1,odd,6364,145584,NA,NA,213103,1617,141581,175852,1616,179630,214127,NA,214228,214682,214126,214228,Flanker Task Lab 2.1,117,60586,123,1024
95,95,492,492,#000000,legacy,legacy,legacy,incongruent,1,undefined,1,h,0,0,0,0,123,0,0,123,0,123,123,0,123,123,123,123,Thu Sep 14 12:02:02 2023,600,The main experiment item,FALSE,FlankerTaskLab21.osexp,C:/Users/katjo/OneDrive/Desktop,FALSE,mono,FALSE,18,no,white,no,no,768,legacy,43,79,C:/Users/katjo/OneDrive/Desktop/KJ-subject-1.csv,legacy,Melodramatic Milgram,4.0.5,0,h,NA,h,h,NA,h,487,NA,4746,4003,NA,487,2,legacy,1024,2,48000,-16,experiment,SSHSS,1,odd,6364,145584,NA,NA,214706,1617,141581,175852,1616,179630,215735,NA,215835,216323,215734,215835,Flanker Task Lab 2.1,118,61073,124,1024
95,95,491,491,#000000,legacy,legacy,legacy,congruent,1,undefined,1,s,0,0,0,0,124,0,0,124,0,124,124,0,124,124,124,124,Thu Sep 14 12:02:02 2023,600,The main experiment item,FALSE,FlankerTaskLab21.osexp,C:/Users/katjo/OneDrive/Desktop,FALSE,mono,FALSE,18,no,white,no,no,768,legacy,44,79,C:/Users/katjo/OneDrive/Desktop/KJ-subject-1.csv,legacy,Melodramatic Milgram,4.0.5,0,s,NA,h,h,NA,s,407,NA,4746,4003,NA,407,2,legacy,1024,2,48000,-16,experiment,SSSSS,1,odd,6364,145584,NA,NA,216349,1617,141581,175852,1616,179630,217374,NA,217475,217883,217373,217475,Flanker Task Lab 2.1,119,61480,125,1024
95,95,492,492,#000000,legacy,legacy,legacy,incongruent,1,undefined,1,s,0,0,0,0,125,0,0,125,0,125,125,0,125,125,125,125,Thu Sep 14 12:02:02 2023,600,The main experiment item,FALSE,FlankerTaskLab21.osexp,C:/Users/katjo/OneDrive/Desktop,FALSE,mono,FALSE,18,no,white,no,no,768,legacy,45,79,C:/Users/katjo/OneDrive/Desktop/KJ-subject-1.csv,legacy,Melodramatic Milgram,4.0.5,0,s,NA,h,h,NA,s,550,NA,4746,4003,NA,550,2,legacy,1024,2,48000,-16,experiment,HHSHH,1,odd,6364,145584,NA,NA,217909,1617,141581,175852,1616,179630,218930,NA,219031,219582,218929,219031,Flanker Task Lab 2.1,120,62030,126,1024
95,95,491,491,#000000,legacy,legacy,legacy,congruent,1,undefined,1,s,0,0,0,0,126,0,0,126,0,126,126,0,126,126,126,126,Thu Sep 14 12:02:02 2023,600,The main experiment item,FALSE,FlankerTaskLab21.osexp,C:/Users/katjo/OneDrive/Desktop,FALSE,mono,FALSE,18,no,white,no,no,768,legacy,46,79,C:/Users/katjo/OneDrive/Desktop/KJ-subject-1.csv,legacy,Melodramatic Milgram,4.0.5,0,s,NA,h,h,NA,s,395,NA,4746,4003,NA,395,2,legacy,1024,2,48000,-16,experiment,SSSSS,1,odd,6364,145584,NA,NA,219589,1617,141581,175852,1616,179630,220617,NA,220718,221114,220616,220718,Flanker Task Lab 2.1,121,62425,127,1024
95,95,490,490,#000000,legacy,legacy,legacy,congruent,1,undefined,1,s,0,0,0,0,127,0,0,127,0,127,127,0,127,127,127,127,Thu Sep 14 12:02:02 2023,600,The main experiment item,FALSE,FlankerTaskLab21.osexp,C:/Users/katjo/OneDrive/Desktop,FALSE,mono,FALSE,18,no,white,no,no,768,legacy,47,79,C:/Users/katjo/OneDrive/Desktop/KJ-subject-1.csv,legacy,Melodramatic Milgram,4.0.5,0,s,NA,h,h,NA,s,360,NA,4746,4003,NA,360,2,legacy,1024,2,48000,-16,experiment,SSSSS,1,odd,6364,145584,NA,NA,221141,1617,141581,175852,1616,179630,222169,NA,222270,222631,222168,222270,Flanker Task Lab 2.1,122,62785,128,1024
95,95,490,490,#000000,legacy,legacy,legacy,congruent,1,undefined,1,s,0,0,0,0,128,0,0,128,0,128,128,0,128,128,128,128,Thu Sep 14 12:02:02 2023,600,The main experiment item,FALSE,FlankerTaskLab21.osexp,C:/Users/katjo/OneDrive/Desktop,FALSE,mono,FALSE,18,no,white,no,no,768,legacy,48,79,C:/Users/katjo/OneDrive/Desktop/KJ-subject-1.csv,legacy,Melodramatic Milgram,4.0.5,0,s,NA,h,h,NA,s,447,NA,4746,4003,NA,447,2,legacy,1024,2,48000,-16,experiment,SSSSS,1,odd,6364,145584,NA,NA,222633,1617,141581,175852,1616,179630,223657,NA,223757,224205,223656,223757,Flanker Task Lab 2.1,123,63232,129,1024
95,95,489,489,#000000,legacy,legacy,legacy,congruent,1,undefined,1,h,0,0,0,0,129,0,0,129,0,129,129,0,129,129,129,129,Thu Sep 14 12:02:02 2023,600,The main experiment item,FALSE,FlankerTaskLab21.osexp,C:/Users/katjo/OneDrive/Desktop,FALSE,mono,FALSE,18,no,white,no,no,768,legacy,49,79,C:/Users/katjo/OneDrive/Desktop/KJ-subject-1.csv,legacy,Melodramatic Milgram,4.0.5,0,h,NA,h,h,NA,h,374,NA,4746,4003,NA,374,2,legacy,1024,2,48000,-16,experiment,HHHHH,1,odd,6364,145584,NA,NA,224231,1617,141581,175852,1616,179630,225257,NA,225357,225732,225256,225357,Flanker Task Lab 2.1,124,63606,130,1024
95,95,488,488,#000000,legacy,legacy,legacy,incongruent,1,undefined,1,h,0,0,0,0,130,0,0,130,0,130,130,0,130,130,130,130,Thu Sep 14 12:02:02 2023,600,The main experiment item,FALSE,FlankerTaskLab21.osexp,C:/Users/katjo/OneDrive/Desktop,FALSE,mono,FALSE,18,no,white,no,no,768,legacy,50,79,C:/Users/katjo/OneDrive/Desktop/KJ-subject-1.csv,legacy,Melodramatic Milgram,4.0.5,0,h,NA,h,h,NA,h,366,NA,4746,4003,NA,366,2,legacy,1024,2,48000,-16,experiment,SSHSS,1,odd,6364,145584,NA,NA,225739,1617,141581,175852,1616,179630,226761,NA,226862,227229,226760,226862,Flanker Task Lab 2.1,125,63972,131,1024
95,95,488,488,#000000,legacy,legacy,legacy,incongruent,1,undefined,1,s,0,0,0,0,131,0,0,131,0,131,131,0,131,131,131,131,Thu Sep 14 12:02:02 2023,600,The main experiment item,FALSE,FlankerTaskLab21.osexp,C:/Users/katjo/OneDrive/Desktop,FALSE,mono,FALSE,18,no,white,no,no,768,legacy,51,79,C:/Users/katjo/OneDrive/Desktop/KJ-subject-1.csv,legacy,Melodramatic Milgram,4.0.5,0,s,NA,h,h,NA,s,537,NA,4746,4003,NA,537,2,legacy,1024,2,48000,-16,experiment,HHSHH,1,odd,6364,145584,NA,NA,227235,1617,141581,175852,1616,179630,228280,NA,228381,228918,228279,228381,Flanker Task Lab 2.1,126,64509,132,1024
95,95,488,488,#000000,legacy,legacy,legacy,congruent,1,undefined,1,s,0,0,0,0,132,0,0,132,0,132,132,0,132,132,132,132,Thu Sep 14 12:02:02 2023,600,The main experiment item,FALSE,FlankerTaskLab21.osexp,C:/Users/katjo/OneDrive/Desktop,FALSE,mono,FALSE,18,no,white,no,no,768,legacy,52,79,C:/Users/katjo/OneDrive/Desktop/KJ-subject-1.csv,legacy,Melodramatic Milgram,4.0.5,0,s,NA,h,h,NA,s,410,NA,4746,4003,NA,410,2,legacy,1024,2,48000,-16,experiment,SSSSS,1,odd,6364,145584,NA,NA,228925,1617,141581,175852,1616,179630,229949,NA,230049,230460,229948,230049,Flanker Task Lab 2.1,127,64919,133,1024
95,95,487,487,#000000,legacy,legacy,legacy,congruent,1,undefined,1,h,0,0,0,0,133,0,0,133,0,133,133,0,133,133,133,133,Thu Sep 14 12:02:02 2023,600,The main experiment item,FALSE,FlankerTaskLab21.osexp,C:/Users/katjo/OneDrive/Desktop,FALSE,mono,FALSE,18,no,white,no,no,768,legacy,53,79,C:/Users/katjo/OneDrive/Desktop/KJ-subject-1.csv,legacy,Melodramatic Milgram,4.0.5,0,h,NA,h,h,NA,h,408,NA,4746,4003,NA,408,2,legacy,1024,2,48000,-16,experiment,HHHHH,1,odd,6364,145584,NA,NA,230486,1617,141581,175852,1616,179630,231531,NA,231632,232041,231530,231632,Flanker Task Lab 2.1,128,65327,134,1024
95,95,487,487,#000000,legacy,legacy,legacy,congruent,1,undefined,1,s,0,0,0,0,134,0,0,134,0,134,134,0,134,134,134,134,Thu Sep 14 12:02:02 2023,600,The main experiment item,FALSE,FlankerTaskLab21.osexp,C:/Users/katjo/OneDrive/Desktop,FALSE,mono,FALSE,18,no,white,no,no,768,legacy,54,79,C:/Users/katjo/OneDrive/Desktop/KJ-subject-1.csv,legacy,Melodramatic Milgram,4.0.5,0,s,NA,h,h,NA,s,424,NA,4746,4003,NA,424,2,legacy,1024,2,48000,-16,experiment,SSSSS,1,odd,6364,145584,NA,NA,232067,1617,141581,175852,1616,179630,233089,NA,233190,233615,233088,233190,Flanker Task Lab 2.1,129,65751,135,1024
94,94,486,486,#000000,legacy,legacy,legacy,congruent,0,undefined,0,h,0,0,0,0,135,0,0,135,0,135,135,0,135,135,135,135,Thu Sep 14 12:02:02 2023,600,The main experiment item,FALSE,FlankerTaskLab21.osexp,C:/Users/katjo/OneDrive/Desktop,FALSE,mono,FALSE,18,no,white,no,no,768,legacy,55,79,C:/Users/katjo/OneDrive/Desktop/KJ-subject-1.csv,legacy,Melodramatic Milgram,4.0.5,0,s,NA,h,h,NA,s,381,NA,4746,4003,NA,381,2,legacy,1024,2,48000,-16,experiment,HHHHH,1,odd,6364,145584,NA,NA,233622,1617,141581,175852,1616,179630,234648,NA,234749,235131,234647,234749,Flanker Task Lab 2.1,129,66132,136,1024
94,94,486,486,#000000,legacy,legacy,legacy,incongruent,1,undefined,1,s,0,0,0,0,136,0,0,136,0,136,136,0,136,136,136,136,Thu Sep 14 12:02:02 2023,600,The main experiment item,FALSE,FlankerTaskLab21.osexp,C:/Users/katjo/OneDrive/Desktop,FALSE,mono,FALSE,18,no,white,no,no,768,legacy,56,79,C:/Users/katjo/OneDrive/Desktop/KJ-subject-1.csv,legacy,Melodramatic Milgram,4.0.5,0,s,NA,h,h,NA,s,573,NA,4746,4003,NA,573,2,legacy,1024,2,48000,-16,experiment,HHSHH,1,odd,6364,145584,NA,NA,235637,1617,141581,235137,1616,179630,236662,NA,236762,237336,236661,236762,Flanker Task Lab 2.1,130,66705,137,1024
94,94,486,486,#000000,legacy,legacy,legacy,congruent,1,undefined,1,s,0,0,0,0,137,0,0,137,0,137,137,0,137,137,137,137,Thu Sep 14 12:02:02 2023,600,The main experiment item,FALSE,FlankerTaskLab21.osexp,C:/Users/katjo/OneDrive/Desktop,FALSE,mono,FALSE,18,no,white,no,no,768,legacy,57,79,C:/Users/katjo/OneDrive/Desktop/KJ-subject-1.csv,legacy,Melodramatic Milgram,4.0.5,0,s,NA,h,h,NA,s,472,NA,4746,4003,NA,472,2,legacy,1024,2,48000,-16,experiment,SSSSS,1,odd,6364,145584,NA,NA,237342,1617,141581,235137,1616,179630,238385,NA,238486,238959,238384,238485,Flanker Task Lab 2.1,131,67177,138,1024
94,94,487,487,#000000,legacy,legacy,legacy,incongruent,1,undefined,1,s,0,0,0,0,138,0,0,138,0,138,138,0,138,138,138,138,Thu Sep 14 12:02:02 2023,600,The main experiment item,FALSE,FlankerTaskLab21.osexp,C:/Users/katjo/OneDrive/Desktop,FALSE,mono,FALSE,18,no,white,no,no,768,legacy,58,79,C:/Users/katjo/OneDrive/Desktop/KJ-subject-1.csv,legacy,Melodramatic Milgram,4.0.5,0,s,NA,h,h,NA,s,571,NA,4746,4003,NA,571,2,legacy,1024,2,48000,-16,experiment,HHSHH,1,odd,6364,145584,NA,NA,238961,1617,141581,235137,1616,179630,239988,NA,240089,240661,239987,240089,Flanker Task Lab 2.1,132,67748,139,1024
95,95,487,487,#000000,legacy,legacy,legacy,incongruent,1,undefined,1,h,0,0,0,0,139,0,0,139,0,139,139,0,139,139,139,139,Thu Sep 14 12:02:02 2023,600,The main experiment item,FALSE,FlankerTaskLab21.osexp,C:/Users/katjo/OneDrive/Desktop,FALSE,mono,FALSE,18,no,white,no,no,768,legacy,59,79,C:/Users/katjo/OneDrive/Desktop/KJ-subject-1.csv,legacy,Melodramatic Milgram,4.0.5,0,h,NA,h,h,NA,h,518,NA,4746,4003,NA,518,2,legacy,1024,2,48000,-16,experiment,SSHSS,1,odd,6364,145584,NA,NA,240668,1617,141581,235137,1616,179630,241708,NA,241808,242326,241707,241808,Flanker Task Lab 2.1,133,68266,140,1024
95,95,486,486,#000000,legacy,legacy,legacy,congruent,1,undefined,1,h,0,0,0,0,140,0,0,140,0,140,140,0,140,140,140,140,Thu Sep 14 12:02:02 2023,600,The main experiment item,FALSE,FlankerTaskLab21.osexp,C:/Users/katjo/OneDrive/Desktop,FALSE,mono,FALSE,18,no,white,no,no,768,legacy,60,79,C:/Users/katjo/OneDrive/Desktop/KJ-subject-1.csv,legacy,Melodramatic Milgram,4.0.5,0,h,NA,h,h,NA,h,386,NA,4746,4003,NA,386,2,legacy,1024,2,48000,-16,experiment,HHHHH,1,odd,6364,145584,NA,NA,242333,1617,141581,235137,1616,179630,243356,NA,243457,243844,243354,243457,Flanker Task Lab 2.1,134,68652,141,1024
95,95,486,486,#000000,legacy,legacy,legacy,incongruent,1,undefined,1,h,0,0,0,0,141,0,0,141,0,141,141,0,141,141,141,141,Thu Sep 14 12:02:02 2023,600,The main experiment item,FALSE,FlankerTaskLab21.osexp,C:/Users/katjo/OneDrive/Desktop,FALSE,mono,FALSE,18,no,white,no,no,768,legacy,61,79,C:/Users/katjo/OneDrive/Desktop/KJ-subject-1.csv,legacy,Melodramatic Milgram,4.0.5,0,h,NA,h,h,NA,h,424,NA,4746,4003,NA,424,2,legacy,1024,2,48000,-16,experiment,SSHSS,1,odd,6364,145584,NA,NA,243846,1617,141581,235137,1616,179630,244869,NA,244970,245395,244868,244970,Flanker Task Lab 2.1,135,69076,142,1024
95,95,486,486,#000000,legacy,legacy,legacy,congruent,1,undefined,1,s,0,0,0,0,142,0,0,142,0,142,142,0,142,142,142,142,Thu Sep 14 12:02:02 2023,600,The main experiment item,FALSE,FlankerTaskLab21.osexp,C:/Users/katjo/OneDrive/Desktop,FALSE,mono,FALSE,18,no,white,no,no,768,legacy,62,79,C:/Users/katjo/OneDrive/Desktop/KJ-subject-1.csv,legacy,Melodramatic Milgram,4.0.5,0,s,NA,h,h,NA,s,522,NA,4746,4003,NA,522,2,legacy,1024,2,48000,-16,experiment,SSSSS,1,odd,6364,145584,NA,NA,245422,1617,141581,235137,1616,179630,246446,NA,246546,247069,246445,246546,Flanker Task Lab 2.1,136,69598,143,1024
95,95,487,487,#000000,legacy,legacy,legacy,incongruent,1,undefined,1,s,0,0,0,0,143,0,0,143,0,143,143,0,143,143,143,143,Thu Sep 14 12:02:02 2023,600,The main experiment item,FALSE,FlankerTaskLab21.osexp,C:/Users/katjo/OneDrive/Desktop,FALSE,mono,FALSE,18,no,white,no,no,768,legacy,63,79,C:/Users/katjo/OneDrive/Desktop/KJ-subject-1.csv,legacy,Melodramatic Milgram,4.0.5,0,s,NA,h,h,NA,s,534,NA,4746,4003,NA,534,2,legacy,1024,2,48000,-16,experiment,HHSHH,1,odd,6364,145584,NA,NA,247095,1617,141581,235137,1616,179630,248134,NA,248234,248769,248133,248234,Flanker Task Lab 2.1,137,70132,144,1024
95,95,487,487,#000000,legacy,legacy,legacy,congruent,1,undefined,1,s,0,0,0,0,144,0,0,144,0,144,144,0,144,144,144,144,Thu Sep 14 12:02:02 2023,600,The main experiment item,FALSE,FlankerTaskLab21.osexp,C:/Users/katjo/OneDrive/Desktop,FALSE,mono,FALSE,18,no,white,no,no,768,legacy,64,79,C:/Users/katjo/OneDrive/Desktop/KJ-subject-1.csv,legacy,Melodramatic Milgram,4.0.5,0,s,NA,h,h,NA,s,493,NA,4746,4003,NA,493,2,legacy,1024,2,48000,-16,experiment,SSSSS,1,odd,6364,145584,NA,NA,248776,1617,141581,235137,1616,179630,249799,NA,249899,250393,249798,249899,Flanker Task Lab 2.1,138,70625,145,1024
95,95,486,486,#000000,legacy,legacy,legacy,congruent,1,undefined,1,s,0,0,0,0,145,0,0,145,0,145,145,0,145,145,145,145,Thu Sep 14 12:02:02 2023,600,The main experiment item,FALSE,FlankerTaskLab21.osexp,C:/Users/katjo/OneDrive/Desktop,FALSE,mono,FALSE,18,no,white,no,no,768,legacy,65,79,C:/Users/katjo/OneDrive/Desktop/KJ-subject-1.csv,legacy,Melodramatic Milgram,4.0.5,0,s,NA,h,h,NA,s,417,NA,4746,4003,NA,417,2,legacy,1024,2,48000,-16,experiment,SSSSS,1,odd,6364,145584,NA,NA,250419,1617,141581,235137,1616,179630,251443,NA,251544,251962,251442,251544,Flanker Task Lab 2.1,139,71042,146,1024
95,95,486,486,#000000,legacy,legacy,legacy,incongruent,1,undefined,1,s,0,0,0,0,146,0,0,146,0,146,146,0,146,146,146,146,Thu Sep 14 12:02:02 2023,600,The main experiment item,FALSE,FlankerTaskLab21.osexp,C:/Users/katjo/OneDrive/Desktop,FALSE,mono,FALSE,18,no,white,no,no,768,legacy,66,79,C:/Users/katjo/OneDrive/Desktop/KJ-subject-1.csv,legacy,Melodramatic Milgram,4.0.5,0,s,NA,h,h,NA,s,506,NA,4746,4003,NA,506,2,legacy,1024,2,48000,-16,experiment,HHSHH,1,odd,6364,145584,NA,NA,251968,1617,141581,235137,1616,179630,252992,NA,253093,253600,252991,253093,Flanker Task Lab 2.1,140,71548,147,1024
95,95,485,485,#000000,legacy,legacy,legacy,congruent,1,undefined,1,h,0,0,0,0,147,0,0,147,0,147,147,0,147,147,147,147,Thu Sep 14 12:02:02 2023,600,The main experiment item,FALSE,FlankerTaskLab21.osexp,C:/Users/katjo/OneDrive/Desktop,FALSE,mono,FALSE,18,no,white,no,no,768,legacy,67,79,C:/Users/katjo/OneDrive/Desktop/KJ-subject-1.csv,legacy,Melodramatic Milgram,4.0.5,0,h,NA,h,h,NA,h,311,NA,4746,4003,NA,311,2,legacy,1024,2,48000,-16,experiment,HHHHH,1,odd,6364,145584,NA,NA,253607,1617,141581,235137,1616,179630,254636,NA,254737,255049,254635,254737,Flanker Task Lab 2.1,141,71859,148,1024
95,95,485,485,#000000,legacy,legacy,legacy,incongruent,1,undefined,1,h,0,0,0,0,148,0,0,148,0,148,148,0,148,148,148,148,Thu Sep 14 12:02:02 2023,600,The main experiment item,FALSE,FlankerTaskLab21.osexp,C:/Users/katjo/OneDrive/Desktop,FALSE,mono,FALSE,18,no,white,no,no,768,legacy,68,79,C:/Users/katjo/OneDrive/Desktop/KJ-subject-1.csv,legacy,Melodramatic Milgram,4.0.5,0,h,NA,h,h,NA,h,461,NA,4746,4003,NA,461,2,legacy,1024,2,48000,-16,experiment,SSHSS,1,odd,6364,145584,NA,NA,255075,1617,141581,235137,1616,179630,256118,NA,256219,256680,256117,256219,Flanker Task Lab 2.1,142,72320,149,1024
95,95,485,485,#000000,legacy,legacy,legacy,congruent,1,undefined,1,s,0,0,0,0,149,0,0,149,0,149,149,0,149,149,149,149,Thu Sep 14 12:02:02 2023,600,The main experiment item,FALSE,FlankerTaskLab21.osexp,C:/Users/katjo/OneDrive/Desktop,FALSE,mono,FALSE,18,no,white,no,no,768,legacy,69,79,C:/Users/katjo/OneDrive/Desktop/KJ-subject-1.csv,legacy,Melodramatic Milgram,4.0.5,0,s,NA,h,h,NA,s,482,NA,4746,4003,NA,482,2,legacy,1024,2,48000,-16,experiment,SSSSS,1,odd,6364,145584,NA,NA,256682,1617,141581,235137,1616,179630,257706,NA,257807,258290,257705,257807,Flanker Task Lab 2.1,143,72802,150,1024
95,95,484,484,#000000,legacy,legacy,legacy,congruent,1,undefined,1,s,0,0,0,0,150,0,0,150,0,150,150,0,150,150,150,150,Thu Sep 14 12:02:02 2023,600,The main experiment item,FALSE,FlankerTaskLab21.osexp,C:/Users/katjo/OneDrive/Desktop,FALSE,mono,FALSE,18,no,white,no,no,768,legacy,70,79,C:/Users/katjo/OneDrive/Desktop/KJ-subject-1.csv,legacy,Melodramatic Milgram,4.0.5,0,s,NA,h,h,NA,s,395,NA,4746,4003,NA,395,2,legacy,1024,2,48000,-16,experiment,SSSSS,1,odd,6364,145584,NA,NA,258316,1617,141581,235137,1616,179630,259361,NA,259461,259857,259360,259461,Flanker Task Lab 2.1,144,73197,151,1024
95,95,484,484,#000000,legacy,legacy,legacy,congruent,1,undefined,1,s,0,0,0,0,151,0,0,151,0,151,151,0,151,151,151,151,Thu Sep 14 12:02:02 2023,600,The main experiment item,FALSE,FlankerTaskLab21.osexp,C:/Users/katjo/OneDrive/Desktop,FALSE,mono,FALSE,18,no,white,no,no,768,legacy,71,79,C:/Users/katjo/OneDrive/Desktop/KJ-subject-1.csv,legacy,Melodramatic Milgram,4.0.5,0,s,NA,h,h,NA,s,392,NA,4746,4003,NA,392,2,legacy,1024,2,48000,-16,experiment,SSSSS,1,odd,6364,145584,NA,NA,259884,1617,141581,235137,1616,179630,260908,NA,261009,261402,260907,261009,Flanker Task Lab 2.1,145,73589,152,1024
95,95,484,484,#000000,legacy,legacy,legacy,incongruent,1,undefined,1,h,0,0,0,0,152,0,0,152,0,152,152,0,152,152,152,152,Thu Sep 14 12:02:02 2023,600,The main experiment item,FALSE,FlankerTaskLab21.osexp,C:/Users/katjo/OneDrive/Desktop,FALSE,mono,FALSE,18,no,white,no,no,768,legacy,72,79,C:/Users/katjo/OneDrive/Desktop/KJ-subject-1.csv,legacy,Melodramatic Milgram,4.0.5,0,h,NA,h,h,NA,h,476,NA,4746,4003,NA,476,2,legacy,1024,2,48000,-16,experiment,SSHSS,1,odd,6364,145584,NA,NA,261428,1617,141581,235137,1616,179630,262452,NA,262553,263030,262451,262553,Flanker Task Lab 2.1,146,74065,153,1024
95,95,483,483,#000000,legacy,legacy,legacy,congruent,1,undefined,1,h,0,0,0,0,153,0,0,153,0,153,153,0,153,153,153,153,Thu Sep 14 12:02:02 2023,600,The main experiment item,FALSE,FlankerTaskLab21.osexp,C:/Users/katjo/OneDrive/Desktop,FALSE,mono,FALSE,18,no,white,no,no,768,legacy,73,79,C:/Users/katjo/OneDrive/Desktop/KJ-subject-1.csv,legacy,Melodramatic Milgram,4.0.5,0,h,NA,h,h,NA,h,423,NA,4746,4003,NA,423,2,legacy,1024,2,48000,-16,experiment,HHHHH,1,odd,6364,145584,NA,NA,263044,1617,141581,235137,1616,179630,264069,NA,264169,264593,264068,264169,Flanker Task Lab 2.1,147,74488,154,1024
95,95,482,482,#000000,legacy,legacy,legacy,congruent,1,undefined,1,h,0,0,0,0,154,0,0,154,0,154,154,0,154,154,154,154,Thu Sep 14 12:02:02 2023,600,The main experiment item,FALSE,FlankerTaskLab21.osexp,C:/Users/katjo/OneDrive/Desktop,FALSE,mono,FALSE,18,no,white,no,no,768,legacy,74,79,C:/Users/katjo/OneDrive/Desktop/KJ-subject-1.csv,legacy,Melodramatic Milgram,4.0.5,0,h,NA,h,h,NA,h,360,NA,4746,4003,NA,360,2,legacy,1024,2,48000,-16,experiment,HHHHH,1,odd,6364,145584,NA,NA,264595,1617,141581,235137,1616,179630,265618,NA,265718,266079,265617,265718,Flanker Task Lab 2.1,148,74848,155,1024
95,95,482,482,#000000,legacy,legacy,legacy,incongruent,1,undefined,1,h,0,0,0,0,155,0,0,155,0,155,155,0,155,155,155,155,Thu Sep 14 12:02:02 2023,600,The main experiment item,FALSE,FlankerTaskLab21.osexp,C:/Users/katjo/OneDrive/Desktop,FALSE,mono,FALSE,18,no,white,no,no,768,legacy,75,79,C:/Users/katjo/OneDrive/Desktop/KJ-subject-1.csv,legacy,Melodramatic Milgram,4.0.5,0,h,NA,h,h,NA,h,382,NA,4746,4003,NA,382,2,legacy,1024,2,48000,-16,experiment,SSHSS,1,odd,6364,145584,NA,NA,266088,1617,141581,235137,1616,179630,267118,NA,267218,267601,267117,267218,Flanker Task Lab 2.1,149,75230,156,1024
95,95,481,481,#000000,legacy,legacy,legacy,congruent,1,undefined,1,h,0,0,0,0,156,0,0,156,0,156,156,0,156,156,156,156,Thu Sep 14 12:02:02 2023,600,The main experiment item,FALSE,FlankerTaskLab21.osexp,C:/Users/katjo/OneDrive/Desktop,FALSE,mono,FALSE,18,no,white,no,no,768,legacy,76,79,C:/Users/katjo/OneDrive/Desktop/KJ-subject-1.csv,legacy,Melodramatic Milgram,4.0.5,0,h,NA,h,h,NA,h,366,NA,4746,4003,NA,366,2,legacy,1024,2,48000,-16,experiment,HHHHH,1,odd,6364,145584,NA,NA,267604,1617,141581,235137,1616,179630,268626,NA,268726,269093,268625,268726,Flanker Task Lab 2.1,150,75596,157,1024
95,95,480,480,#000000,legacy,legacy,legacy,congruent,1,undefined,1,h,0,0,0,0,157,0,0,157,0,157,157,0,157,157,157,157,Thu Sep 14 12:02:02 2023,600,The main experiment item,FALSE,FlankerTaskLab21.osexp,C:/Users/katjo/OneDrive/Desktop,FALSE,mono,FALSE,18,no,white,no,no,768,legacy,77,79,C:/Users/katjo/OneDrive/Desktop/KJ-subject-1.csv,legacy,Melodramatic Milgram,4.0.5,0,h,NA,h,h,NA,h,358,NA,4746,4003,NA,358,2,legacy,1024,2,48000,-16,experiment,HHHHH,1,odd,6364,145584,NA,NA,269099,1617,141581,235137,1616,179630,270121,NA,270221,270580,270120,270221,Flanker Task Lab 2.1,151,75954,158,1024
95,95,479,479,#000000,legacy,legacy,legacy,congruent,1,undefined,1,h,0,0,0,0,158,0,0,158,0,158,158,0,158,158,158,158,Thu Sep 14 12:02:02 2023,600,The main experiment item,FALSE,FlankerTaskLab21.osexp,C:/Users/katjo/OneDrive/Desktop,FALSE,mono,FALSE,18,no,white,no,no,768,legacy,78,79,C:/Users/katjo/OneDrive/Desktop/KJ-subject-1.csv,legacy,Melodramatic Milgram,4.0.5,0,h,NA,h,h,NA,h,335,NA,4746,4003,NA,335,2,legacy,1024,2,48000,-16,experiment,HHHHH,1,odd,6364,145584,NA,NA,270586,1617,141581,235137,1616,179630,271611,NA,271711,272047,271610,271711,Flanker Task Lab 2.1,152,76289,159,1024
95,95,479,479,#000000,legacy,legacy,legacy,congruent,1,undefined,1,h,0,0,0,0,159,0,0,159,0,159,159,0,159,159,159,159,Thu Sep 14 12:02:02 2023,600,The main experiment item,FALSE,FlankerTaskLab21.osexp,C:/Users/katjo/OneDrive/Desktop,FALSE,mono,FALSE,18,no,white,no,no,768,legacy,79,79,C:/Users/katjo/OneDrive/Desktop/KJ-subject-1.csv,legacy,Melodramatic Milgram,4.0.5,0,h,NA,h,h,NA,h,363,NA,4746,4003,NA,363,2,legacy,1024,2,48000,-16,experiment,HHHHH,1,odd,6364,145584,NA,NA,272053,1617,141581,235137,1616,179630,273078,NA,273178,273542,273077,273178,Flanker Task Lab 2.1,153,76652,160,1024
95,95,478,478,#000000,legacy,legacy,legacy,congruent,1,undefined,1,h,0,0,0,0,160,0,0,160,0,160,160,0,160,160,160,160,Thu Sep 14 12:02:02 2023,300,The main experiment item,FALSE,FlankerTaskLab21.osexp,C:/Users/katjo/OneDrive/Desktop,FALSE,mono,FALSE,18,no,white,no,no,768,legacy,0,79,C:/Users/katjo/OneDrive/Desktop/KJ-subject-1.csv,legacy,Melodramatic Milgram,4.0.5,0,h,NA,h,h,h,h,415,NA,4746,4003,11684,415,2,legacy,1024,2,48000,-16,experiment,HHHHH,1,odd,6364,145584,286237,NA,273549,1617,141581,235137,1616,179630,286268,274552,286368,286784,286268,286368,Flanker Task Lab 2.1,154,77067,161,1024
95,95,478,478,#000000,legacy,legacy,legacy,incongruent,1,undefined,1,h,0,0,0,0,161,0,0,161,0,161,161,0,161,161,161,161,Thu Sep 14 12:02:02 2023,300,The main experiment item,FALSE,FlankerTaskLab21.osexp,C:/Users/katjo/OneDrive/Desktop,FALSE,mono,FALSE,18,no,white,no,no,768,legacy,1,79,C:/Users/katjo/OneDrive/Desktop/KJ-subject-1.csv,legacy,Melodramatic Milgram,4.0.5,0,h,NA,h,h,h,h,524,NA,4746,4003,11684,524,2,legacy,1024,2,48000,-16,experiment,SSHSS,1,odd,6364,145584,286237,NA,287288,1617,141581,235137,1616,286788,288312,274552,288412,288937,288311,288412,Flanker Task Lab 2.1,155,77591,162,1024
95,95,478,478,#000000,legacy,legacy,legacy,congruent,1,undefined,1,h,0,0,0,0,162,0,0,162,0,162,162,0,162,162,162,162,Thu Sep 14 12:02:02 2023,300,The main experiment item,FALSE,FlankerTaskLab21.osexp,C:/Users/katjo/OneDrive/Desktop,FALSE,mono,FALSE,18,no,white,no,no,768,legacy,2,79,C:/Users/katjo/OneDrive/Desktop/KJ-subject-1.csv,legacy,Melodramatic Milgram,4.0.5,0,h,NA,h,h,h,h,360,NA,4746,4003,11684,360,2,legacy,1024,2,48000,-16,experiment,HHHHH,1,odd,6364,145584,286237,NA,289439,1617,141581,235137,1616,288939,290463,274552,290563,290924,290462,290563,Flanker Task Lab 2.1,156,77951,163,1024
95,95,477,477,#000000,legacy,legacy,legacy,congruent,0,undefined,0,s,0,0,0,0,163,0,0,163,0,163,163,0,163,163,163,163,Thu Sep 14 12:02:02 2023,300,The main experiment item,FALSE,FlankerTaskLab21.osexp,C:/Users/katjo/OneDrive/Desktop,FALSE,mono,FALSE,18,no,white,no,no,768,legacy,3,79,C:/Users/katjo/OneDrive/Desktop/KJ-subject-1.csv,legacy,Melodramatic Milgram,4.0.5,0,h,NA,h,h,h,h,341,NA,4746,4003,11684,341,2,legacy,1024,2,48000,-16,experiment,SSSSS,1,odd,6364,145584,286237,NA,291426,1617,141581,235137,1616,290926,292448,274552,292548,292890,292447,292548,Flanker Task Lab 2.1,156,78292,164,1024
94,94,476,476,#000000,legacy,legacy,legacy,incongruent,0,undefined,0,s,0,0,0,0,164,0,0,164,0,164,164,0,164,164,164,164,Thu Sep 14 12:02:02 2023,300,The main experiment item,FALSE,FlankerTaskLab21.osexp,C:/Users/katjo/OneDrive/Desktop,FALSE,mono,FALSE,18,no,white,no,no,768,legacy,4,79,C:/Users/katjo/OneDrive/Desktop/KJ-subject-1.csv,legacy,Melodramatic Milgram,4.0.5,0,h,NA,h,h,h,h,322,NA,4746,4003,11684,322,2,legacy,1024,2,48000,-16,experiment,HHSHH,1,odd,6364,145584,286237,NA,293896,1617,141581,292896,1616,293396,294930,274552,295030,295353,294929,295030,Flanker Task Lab 2.1,156,78614,165,1024
94,94,475,475,#000000,legacy,legacy,legacy,congruent,1,undefined,1,s,0,0,0,0,165,0,0,165,0,165,165,0,165,165,165,165,Thu Sep 14 12:02:02 2023,300,The main experiment item,FALSE,FlankerTaskLab21.osexp,C:/Users/katjo/OneDrive/Desktop,FALSE,mono,FALSE,18,no,white,no,no,768,legacy,5,79,C:/Users/katjo/OneDrive/Desktop/KJ-subject-1.csv,legacy,Melodramatic Milgram,4.0.5,0,s,NA,h,h,h,s,364,NA,4746,4003,11684,364,2,legacy,1024,2,48000,-16,experiment,SSSSS,1,odd,6364,145584,286237,NA,296355,1617,141581,295355,1616,295855,297378,274552,297478,297842,297377,297478,Flanker Task Lab 2.1,157,78978,166,1024
94,94,475,475,#000000,legacy,legacy,legacy,congruent,1,undefined,1,h,0,0,0,0,166,0,0,166,0,166,166,0,166,166,166,166,Thu Sep 14 12:02:02 2023,300,The main experiment item,FALSE,FlankerTaskLab21.osexp,C:/Users/katjo/OneDrive/Desktop,FALSE,mono,FALSE,18,no,white,no,no,768,legacy,6,79,C:/Users/katjo/OneDrive/Desktop/KJ-subject-1.csv,legacy,Melodramatic Milgram,4.0.5,0,h,NA,h,h,h,h,441,NA,4746,4003,11684,441,2,legacy,1024,2,48000,-16,experiment,HHHHH,1,odd,6364,145584,286237,NA,298344,1617,141581,295355,1616,297844,299366,274552,299466,299909,299365,299466,Flanker Task Lab 2.1,158,79419,167,1024
94,94,474,474,#000000,legacy,legacy,legacy,congruent,1,undefined,1,h,0,0,0,0,167,0,0,167,0,167,167,0,167,167,167,167,Thu Sep 14 12:02:02 2023,300,The main experiment item,FALSE,FlankerTaskLab21.osexp,C:/Users/katjo/OneDrive/Desktop,FALSE,mono,FALSE,18,no,white,no,no,768,legacy,7,79,C:/Users/katjo/OneDrive/Desktop/KJ-subject-1.csv,legacy,Melodramatic Milgram,4.0.5,0,h,NA,h,h,h,h,351,NA,4746,4003,11684,351,2,legacy,1024,2,48000,-16,experiment,HHHHH,1,odd,6364,145584,286237,NA,300418,1617,141581,295355,1616,299918,301440,274552,301540,301892,301440,301540,Flanker Task Lab 2.1,159,79770,168,1024
94,94,474,474,#000000,legacy,legacy,legacy,incongruent,0,undefined,0,h,0,0,0,0,168,0,0,168,0,168,168,0,168,168,168,168,Thu Sep 14 12:02:02 2023,300,The main experiment item,FALSE,FlankerTaskLab21.osexp,C:/Users/katjo/OneDrive/Desktop,FALSE,mono,FALSE,18,no,white,no,no,768,legacy,8,79,C:/Users/katjo/OneDrive/Desktop/KJ-subject-1.csv,legacy,Melodramatic Milgram,4.0.5,0,s,NA,h,h,h,s,390,NA,4746,4003,11684,390,2,legacy,1024,2,48000,-16,experiment,SSHSS,1,odd,6364,145584,286237,NA,302394,1617,141581,295355,1616,301894,303421,274552,303522,303913,303420,303522,Flanker Task Lab 2.1,159,80160,169,1024
94,94,473,473,#000000,legacy,legacy,legacy,congruent,1,undefined,1,h,0,0,0,0,169,0,0,169,0,169,169,0,169,169,169,169,Thu Sep 14 12:02:02 2023,300,The main experiment item,FALSE,FlankerTaskLab21.osexp,C:/Users/katjo/OneDrive/Desktop,FALSE,mono,FALSE,18,no,white,no,no,768,legacy,9,79,C:/Users/katjo/OneDrive/Desktop/KJ-subject-1.csv,legacy,Melodramatic Milgram,4.0.5,0,h,NA,h,h,h,h,326,NA,4746,4003,11684,326,2,legacy,1024,2,48000,-16,experiment,HHHHH,1,odd,6364,145584,286237,NA,304919,1617,141581,303919,1616,304419,305951,274552,306051,306378,305950,306051,Flanker Task Lab 2.1,160,80486,170,1024
