"acc","accuracy","average_response_time","avg_rt","background","canvas_backend","clock_backend","color_backend","compensation","condition","coordinates","correct","correct_instructions1","correct_keyboard_response","correct_response","count_Block1","count_Block2","count_Block3","count_ISI","count_errorFeedback","count_experiment","count_faster","count_finish","count_fixation","count_instructions1","count_instructions2","count_instructions3","count_keyboard_response","count_logger","count_sequence","count_stimulus","datetime","deadline","description","disable_garbage_collection","experiment_file","experiment_path","font_bold","font_family","font_italic","font_size","font_underline","foreground","form_clicks","fullscreen","height","keyboard_backend","live_row","live_row_Block1","logfile","mouse_backend","opensesame_codename","opensesame_version","repeat_cycle","response","response_finish","response_instructions1","response_instructions2","response_instructions3","response_keyboard_response","response_time","response_time_finish","response_time_instructions1","response_time_instructions2","response_time_instructions3","response_time_keyboard_response","round_decimals","sampler_backend","sound_buf_size","sound_channels","sound_freq","sound_sample_size","start","stimulus","subject_nr","subject_parity","time_Block1","time_Block2","time_Block3","time_ISI","time_errorFeedback","time_experiment","time_faster","time_finish","time_fixation","time_instructions1","time_instructions2","time_instructions3","time_keyboard_response","time_logger","time_sequence","time_stimulus","title","total_correct","total_response_time","total_responses","uniform_coordinates","width"
"100","100","580","580","#800080","legacy","legacy","legacy","0","congruent","uniform","1","undefined","1","s","0","0","0","0","0","0","0","0","0","0","0","0","0","0","0","0","Sat Sep 26 10:50:02 2020","1500","The main experiment item","yes","FlankerTaskLab.osexp","/Users/Arianna/Desktop","no","sans","no","18","no","white","no","yes","768","legacy","0","0","/Users/Arianna/Desktop/AG-subject-2.csv","legacy","Lentiform Loewenfeld","3.3.3","0","s","NA","h","NA","NA","s","580","NA","8609","NA","NA","580","2","legacy","1024","2","48000","-16","experiment","SSSSS","2","even","12264","NA","NA","NA","NA","3614","NA","NA","12338","3628","NA","NA","12454","13035","12325","12454","Flanker Task Lab 2.1","1","580","1","yes","1024"
"100","100","579","579","#800080","legacy","legacy","legacy","0","incongruent","uniform","1","undefined","1","s","0","0","0","1","1","0","1","0","1","0","0","0","1","1","1","1","Sat Sep 26 10:50:02 2020","1500","The main experiment item","yes","FlankerTaskLab.osexp","/Users/Arianna/Desktop","no","sans","no","18","no","white","no","yes","768","legacy","1","1","/Users/Arianna/Desktop/AG-subject-2.csv","legacy","Lentiform Loewenfeld","3.3.3","0","s","NA","h","NA","NA","s","578","NA","8609","NA","NA","578","2","legacy","1024","2","48000","-16","experiment","HHSHH","2","even","12264","NA","NA","13065","NA","3614","NA","NA","14166","3628","NA","NA","14282","14861","14153","14281","Flanker Task Lab 2.1","2","1158","2","yes","1024"
"66.66666666666667","66.66666666666667","538.3333333333334","538.3333333333334","#800080","legacy","legacy","legacy","0","incongruent","uniform","0","undefined","0","h","0","0","0","2","2","0","2","0","2","0","0","0","2","2","2","2","Sat Sep 26 10:50:02 2020","1500","The main experiment item","yes","FlankerTaskLab.osexp","/Users/Arianna/Desktop","no","sans","no","18","no","white","no","yes","768","legacy","2","2","/Users/Arianna/Desktop/AG-subject-2.csv","legacy","Lentiform Loewenfeld","3.3.3","0","s","NA","h","NA","NA","s","457","NA","8609","NA","NA","457","2","legacy","1024","2","48000","-16","experiment","SSHSS","2","even","12264","NA","NA","14886","NA","3614","NA","NA","15972","3628","NA","NA","16087","16545","15959","16087","Flanker Task Lab 2.1","2","1615","3","yes","1024"
"75","75","562.75","562.75","#800080","legacy","legacy","legacy","0","incongruent","uniform","1","undefined","1","s","0","0","0","3","3","0","3","0","3","0","0","0","3","3","3","3","Sat Sep 26 10:50:02 2020","1500","The main experiment item","yes","FlankerTaskLab.osexp","/Users/Arianna/Desktop","no","sans","no","18","no","white","no","yes","768","legacy","3","3","/Users/Arianna/Desktop/AG-subject-2.csv","legacy","Lentiform Loewenfeld","3.3.3","0","s","NA","h","NA","NA","s","636","NA","8609","NA","NA","636","2","legacy","1024","2","48000","-16","experiment","HHSHH","2","even","12264","NA","NA","17086","16572","3614","NA","NA","18171","3628","NA","NA","18291","18928","18158","18291","Flanker Task Lab 2.1","3","2251","4","yes","1024"
"60","60","546","546","#800080","legacy","legacy","legacy","0","incongruent","uniform","0","undefined","0","s","0","0","0","4","4","0","4","0","4","0","0","0","4","4","4","4","Sat Sep 26 10:50:02 2020","1500","The main experiment item","yes","FlankerTaskLab.osexp","/Users/Arianna/Desktop","no","sans","no","18","no","white","no","yes","768","legacy","4","4","/Users/Arianna/Desktop/AG-subject-2.csv","legacy","Lentiform Loewenfeld","3.3.3","0","h","NA","h","NA","NA","h","479","NA","8609","NA","NA","479","2","legacy","1024","2","48000","-16","experiment","HHSHH","2","even","12264","NA","NA","18956","16572","3614","NA","NA","20043","3628","NA","NA","20163","20644","20030","20163","Flanker Task Lab 2.1","3","2730","5","yes","1024"
"66.66666666666667","66.66666666666667","527.5","527.5","#800080","legacy","legacy","legacy","0","congruent","uniform","1","undefined","1","s","0","0","0","5","5","0","5","0","5","0","0","0","5","5","5","5","Sat Sep 26 10:50:02 2020","1500","The main experiment item","yes","FlankerTaskLab.osexp","/Users/Arianna/Desktop","no","sans","no","18","no","white","no","yes","768","legacy","5","5","/Users/Arianna/Desktop/AG-subject-2.csv","legacy","Lentiform Loewenfeld","3.3.3","0","s","NA","h","NA","NA","s","435","NA","8609","NA","NA","435","2","legacy","1024","2","48000","-16","experiment","SSSSS","2","even","12264","NA","NA","21183","20670","3614","NA","NA","22272","3628","NA","NA","22387","22824","22255","22387","Flanker Task Lab 2.1","4","3165","6","yes","1024"
"71.42857142857143","71.42857142857143","519.5714285714286","519.5714285714286","#800080","legacy","legacy","legacy","0","congruent","uniform","1","undefined","1","h","0","0","0","6","6","0","6","0","6","0","0","0","6","6","6","6","Sat Sep 26 10:50:02 2020","1500","The main experiment item","yes","FlankerTaskLab.osexp","/Users/Arianna/Desktop","no","sans","no","18","no","white","no","yes","768","legacy","6","6","/Users/Arianna/Desktop/AG-subject-2.csv","legacy","Lentiform Loewenfeld","3.3.3","0","h","NA","h","NA","NA","h","472","NA","8609","NA","NA","472","2","legacy","1024","2","48000","-16","experiment","HHHHH","2","even","12264","NA","NA","22839","20670","3614","NA","NA","23926","3628","NA","NA","24044","24518","23912","24044","Flanker Task Lab 2.1","5","3637","7","yes","1024"
"75","75","520.25","520.25","#800080","legacy","legacy","legacy","0","incongruent","uniform","1","undefined","1","s","0","0","0","7","7","0","7","0","7","0","0","0","7","7","7","7","Sat Sep 26 10:50:02 2020","1500","The main experiment item","yes","FlankerTaskLab.osexp","/Users/Arianna/Desktop","no","sans","no","18","no","white","no","yes","768","legacy","7","7","/Users/Arianna/Desktop/AG-subject-2.csv","legacy","Lentiform Loewenfeld","3.3.3","0","s","NA","h","NA","NA","s","525","NA","8609","NA","NA","525","2","legacy","1024","2","48000","-16","experiment","HHSHH","2","even","12264","NA","NA","24545","20670","3614","NA","NA","25630","3628","NA","NA","25745","26271","25617","25745","Flanker Task Lab 2.1","6","4162","8","yes","1024"
"77.77777777777777","77.77777777777777","516.1111111111111","516.1111111111111","#800080","legacy","legacy","legacy","0","incongruent","uniform","1","undefined","1","s","0","0","0","8","8","0","8","0","8","0","0","0","8","8","8","8","Sat Sep 26 10:50:02 2020","1500","The main experiment item","yes","FlankerTaskLab.osexp","/Users/Arianna/Desktop","no","sans","no","18","no","white","no","yes","768","legacy","8","8","/Users/Arianna/Desktop/AG-subject-2.csv","legacy","Lentiform Loewenfeld","3.3.3","0","s","NA","h","NA","NA","s","483","NA","8609","NA","NA","483","2","legacy","1024","2","48000","-16","experiment","HHSHH","2","even","12264","NA","NA","26295","20670","3614","NA","NA","27382","3628","NA","NA","27497","27982","27367","27497","Flanker Task Lab 2.1","7","4645","9","yes","1024"
"80","80","522.4","522.4","#800080","legacy","legacy","legacy","0","incongruent","uniform","1","undefined","1","h","0","0","0","9","9","0","9","0","9","0","0","0","9","9","9","9","Sat Sep 26 10:50:02 2020","1500","The main experiment item","yes","FlankerTaskLab.osexp","/Users/Arianna/Desktop","no","sans","no","18","no","white","no","yes","768","legacy","9","9","/Users/Arianna/Desktop/AG-subject-2.csv","legacy","Lentiform Loewenfeld","3.3.3","0","h","NA","h","NA","NA","h","579","NA","8609","NA","NA","579","2","legacy","1024","2","48000","-16","experiment","SSHSS","2","even","12264","NA","NA","28008","20670","3614","NA","NA","29095","3628","NA","NA","29210","29790","29080","29210","Flanker Task Lab 2.1","8","5224","10","yes","1024"
"81.81818181818181","81.81818181818181","521.4545454545455","521.4545454545455","#800080","legacy","legacy","legacy","0","incongruent","uniform","1","undefined","1","h","0","0","0","10","10","0","10","0","10","0","0","0","10","10","10","10","Sat Sep 26 10:50:02 2020","1500","The main experiment item","yes","FlankerTaskLab.osexp","/Users/Arianna/Desktop","no","sans","no","18","no","white","no","yes","768","legacy","10","10","/Users/Arianna/Desktop/AG-subject-2.csv","legacy","Lentiform Loewenfeld","3.3.3","0","h","NA","h","NA","NA","h","512","NA","8609","NA","NA","512","2","legacy","1024","2","48000","-16","experiment","SSHSS","2","even","12264","NA","NA","29817","20670","3614","NA","NA","30902","3628","NA","NA","31018","31531","30889","31018","Flanker Task Lab 2.1","9","5736","11","yes","1024"
"83.33333333333333","83.33333333333333","523.4166666666666","523.4166666666666","#800080","legacy","legacy","legacy","0","incongruent","uniform","1","undefined","1","s","0","0","0","11","11","0","11","0","11","0","0","0","11","11","11","11","Sat Sep 26 10:50:02 2020","1500","The main experiment item","yes","FlankerTaskLab.osexp","/Users/Arianna/Desktop","no","sans","no","18","no","white","no","yes","768","legacy","11","11","/Users/Arianna/Desktop/AG-subject-2.csv","legacy","Lentiform Loewenfeld","3.3.3","0","s","NA","h","NA","NA","s","545","NA","8609","NA","NA","545","2","legacy","1024","2","48000","-16","experiment","HHSHH","2","even","12264","NA","NA","31557","20670","3614","NA","NA","32646","3628","NA","NA","32762","33308","32632","32762","Flanker Task Lab 2.1","10","6281","12","yes","1024"
"84.61538461538461","84.61538461538461","526.2307692307693","526.2307692307693","#800080","legacy","legacy","legacy","0","incongruent","uniform","1","undefined","1","h","0","0","0","12","12","0","12","0","12","0","0","0","12","12","12","12","Sat Sep 26 10:50:02 2020","1500","The main experiment item","yes","FlankerTaskLab.osexp","/Users/Arianna/Desktop","no","sans","no","18","no","white","no","yes","768","legacy","12","12","/Users/Arianna/Desktop/AG-subject-2.csv","legacy","Lentiform Loewenfeld","3.3.3","0","h","NA","h","NA","NA","h","560","NA","8609","NA","NA","560","2","legacy","1024","2","48000","-16","experiment","SSHSS","2","even","12264","NA","NA","33335","20670","3614","NA","NA","34420","3628","NA","NA","34535","35096","34406","34535","Flanker Task Lab 2.1","11","6841","13","yes","1024"
"85.71428571428571","85.71428571428571","524.4285714285714","524.4285714285714","#800080","legacy","legacy","legacy","0","incongruent","uniform","1","undefined","1","s","0","0","0","13","13","0","13","0","13","0","0","0","13","13","13","13","Sat Sep 26 10:50:02 2020","1500","The main experiment item","yes","FlankerTaskLab.osexp","/Users/Arianna/Desktop","no","sans","no","18","no","white","no","yes","768","legacy","13","13","/Users/Arianna/Desktop/AG-subject-2.csv","legacy","Lentiform Loewenfeld","3.3.3","0","s","NA","h","NA","NA","s","501","NA","8609","NA","NA","501","2","legacy","1024","2","48000","-16","experiment","HHSHH","2","even","12264","NA","NA","35122","20670","3614","NA","NA","36208","3628","NA","NA","36323","36826","36194","36323","Flanker Task Lab 2.1","12","7342","14","yes","1024"
"86.66666666666667","86.66666666666667","524.6666666666666","524.6666666666666","#800080","legacy","legacy","legacy","0","congruent","uniform","1","undefined","1","h","0","0","0","14","14","0","14","0","14","0","0","0","14","14","14","14","Sat Sep 26 10:50:02 2020","1500","The main experiment item","yes","FlankerTaskLab.osexp","/Users/Arianna/Desktop","no","sans","no","18","no","white","no","yes","768","legacy","14","14","/Users/Arianna/Desktop/AG-subject-2.csv","legacy","Lentiform Loewenfeld","3.3.3","0","h","NA","h","NA","NA","h","528","NA","8609","NA","NA","528","2","legacy","1024","2","48000","-16","experiment","HHHHH","2","even","12264","NA","NA","36854","20670","3614","NA","NA","37939","3628","NA","NA","38054","38584","37926","38054","Flanker Task Lab 2.1","13","7870","15","yes","1024"
"87.5","87.5","526.1875","526.1875","#800080","legacy","legacy","legacy","0","congruent","uniform","1","undefined","1","h","0","0","0","15","15","0","15","0","15","0","0","0","15","15","15","15","Sat Sep 26 10:50:02 2020","1500","The main experiment item","yes","FlankerTaskLab.osexp","/Users/Arianna/Desktop","no","sans","no","18","no","white","no","yes","768","legacy","15","15","/Users/Arianna/Desktop/AG-subject-2.csv","legacy","Lentiform Loewenfeld","3.3.3","0","h","NA","h","NA","NA","h","549","NA","8609","NA","NA","549","2","legacy","1024","2","48000","-16","experiment","HHHHH","2","even","12264","NA","NA","38610","20670","3614","NA","NA","39696","3628","NA","NA","39812","40363","39683","39812","Flanker Task Lab 2.1","14","8419","16","yes","1024"
"82.3529411764706","82.3529411764706","519.6470588235294","519.6470588235294","#800080","legacy","legacy","legacy","0","incongruent","uniform","0","undefined","0","h","0","0","0","16","16","0","16","0","16","0","0","0","16","16","16","16","Sat Sep 26 10:50:02 2020","1500","The main experiment item","yes","FlankerTaskLab.osexp","/Users/Arianna/Desktop","no","sans","no","18","no","white","no","yes","768","legacy","16","16","/Users/Arianna/Desktop/AG-subject-2.csv","legacy","Lentiform Loewenfeld","3.3.3","0","s","NA","h","NA","NA","s","415","NA","8609","NA","NA","415","2","legacy","1024","2","48000","-16","experiment","SSHSS","2","even","12264","NA","NA","40385","20670","3614","NA","NA","41469","3628","NA","NA","41585","42002","41456","41585","Flanker Task Lab 2.1","14","8834","17","yes","1024"
"83.33333333333333","83.33333333333333","526.4444444444445","526.4444444444445","#800080","legacy","legacy","legacy","0","incongruent","uniform","1","undefined","1","h","0","0","0","17","17","0","17","0","17","0","0","0","17","17","17","17","Sat Sep 26 10:50:02 2020","1500","The main experiment item","yes","FlankerTaskLab.osexp","/Users/Arianna/Desktop","no","sans","no","18","no","white","no","yes","768","legacy","17","17","/Users/Arianna/Desktop/AG-subject-2.csv","legacy","Lentiform Loewenfeld","3.3.3","0","h","NA","h","NA","NA","h","642","NA","8609","NA","NA","642","2","legacy","1024","2","48000","-16","experiment","SSHSS","2","even","12264","NA","NA","42542","42028","3614","NA","NA","43626","3628","NA","NA","43742","44385","43614","43742","Flanker Task Lab 2.1","15","9476","18","yes","1024"
"84.21052631578948","84.21052631578948","521.2631578947369","521.2631578947369","#800080","legacy","legacy","legacy","0","congruent","uniform","1","undefined","1","h","0","0","0","18","18","0","18","0","18","0","0","0","18","18","18","18","Sat Sep 26 10:50:02 2020","1500","The main experiment item","yes","FlankerTaskLab.osexp","/Users/Arianna/Desktop","no","sans","no","18","no","white","no","yes","768","legacy","18","18","/Users/Arianna/Desktop/AG-subject-2.csv","legacy","Lentiform Loewenfeld","3.3.3","0","h","NA","h","NA","NA","h","428","NA","8609","NA","NA","428","2","legacy","1024","2","48000","-16","experiment","HHHHH","2","even","12264","NA","NA","44413","42028","3614","NA","NA","45498","3628","NA","NA","45614","46043","45484","45613","Flanker Task Lab 2.1","16","9904","19","yes","1024"
"85","85","517.4","517.4","#800080","legacy","legacy","legacy","0","congruent","uniform","1","undefined","1","h","0","0","0","19","19","0","19","0","19","0","0","0","19","19","19","19","Sat Sep 26 10:50:02 2020","1500","The main experiment item","yes","FlankerTaskLab.osexp","/Users/Arianna/Desktop","no","sans","no","18","no","white","no","yes","768","legacy","19","19","/Users/Arianna/Desktop/AG-subject-2.csv","legacy","Lentiform Loewenfeld","3.3.3","0","h","NA","h","NA","NA","h","444","NA","8609","NA","NA","444","2","legacy","1024","2","48000","-16","experiment","HHHHH","2","even","12264","NA","NA","46069","42028","3614","NA","NA","47156","3628","NA","NA","47272","47717","47142","47272","Flanker Task Lab 2.1","17","10348","20","yes","1024"
"85.71428571428571","85.71428571428571","513.3333333333334","513.3333333333334","#800080","legacy","legacy","legacy","0","congruent","uniform","1","undefined","1","h","0","0","0","20","20","0","20","0","20","0","0","0","20","20","20","20","Sat Sep 26 10:50:02 2020","1500","The main experiment item","yes","FlankerTaskLab.osexp","/Users/Arianna/Desktop","no","sans","no","18","no","white","no","yes","768","legacy","20","20","/Users/Arianna/Desktop/AG-subject-2.csv","legacy","Lentiform Loewenfeld","3.3.3","0","h","NA","h","NA","NA","h","432","NA","8609","NA","NA","432","2","legacy","1024","2","48000","-16","experiment","HHHHH","2","even","12264","NA","NA","47744","42028","3614","NA","NA","48829","3628","NA","NA","48945","49378","48816","48945","Flanker Task Lab 2.1","18","10780","21","yes","1024"
"86.36363636363636","86.36363636363636","511","511","#800080","legacy","legacy","legacy","0","congruent","uniform","1","undefined","1","h","0","0","0","21","21","0","21","0","21","0","0","0","21","21","21","21","Sat Sep 26 10:50:02 2020","1500","The main experiment item","yes","FlankerTaskLab.osexp","/Users/Arianna/Desktop","no","sans","no","18","no","white","no","yes","768","legacy","21","21","/Users/Arianna/Desktop/AG-subject-2.csv","legacy","Lentiform Loewenfeld","3.3.3","0","h","NA","h","NA","NA","h","462","NA","8609","NA","NA","462","2","legacy","1024","2","48000","-16","experiment","HHHHH","2","even","12264","NA","NA","49405","42028","3614","NA","NA","50490","3628","NA","NA","50606","51069","50477","50605","Flanker Task Lab 2.1","19","11242","22","yes","1024"
"86.95652173913044","86.95652173913044","510.82608695652175","510.82608695652175","#800080","legacy","legacy","legacy","0","incongruent","uniform","1","undefined","1","s","0","0","0","22","22","0","22","0","22","0","0","0","22","22","22","22","Sat Sep 26 10:50:02 2020","1500","The main experiment item","yes","FlankerTaskLab.osexp","/Users/Arianna/Desktop","no","sans","no","18","no","white","no","yes","768","legacy","22","22","/Users/Arianna/Desktop/AG-subject-2.csv","legacy","Lentiform Loewenfeld","3.3.3","0","s","NA","h","NA","NA","s","507","NA","8609","NA","NA","507","2","legacy","1024","2","48000","-16","experiment","HHSHH","2","even","12264","NA","NA","51096","42028","3614","NA","NA","52181","3628","NA","NA","52297","52805","52168","52297","Flanker Task Lab 2.1","20","11749","23","yes","1024"
"87.5","87.5","508.5833333333333","508.5833333333333","#800080","legacy","legacy","legacy","0","congruent","uniform","1","undefined","1","s","0","0","0","23","23","0","23","0","23","0","0","0","23","23","23","23","Sat Sep 26 10:50:02 2020","1500","The main experiment item","yes","FlankerTaskLab.osexp","/Users/Arianna/Desktop","no","sans","no","18","no","white","no","yes","768","legacy","23","23","/Users/Arianna/Desktop/AG-subject-2.csv","legacy","Lentiform Loewenfeld","3.3.3","0","s","NA","h","NA","NA","s","457","NA","8609","NA","NA","457","2","legacy","1024","2","48000","-16","experiment","SSSSS","2","even","12264","NA","NA","52831","42028","3614","NA","NA","53917","3628","NA","NA","54033","54492","53903","54033","Flanker Task Lab 2.1","21","12206","24","yes","1024"
"88","88","507.84","507.84","#800080","legacy","legacy","legacy","0","congruent","uniform","1","undefined","1","h","0","0","0","24","24","0","24","0","24","0","0","0","24","24","24","24","Sat Sep 26 10:50:02 2020","1500","The main experiment item","yes","FlankerTaskLab.osexp","/Users/Arianna/Desktop","no","sans","no","18","no","white","no","yes","768","legacy","24","24","/Users/Arianna/Desktop/AG-subject-2.csv","legacy","Lentiform Loewenfeld","3.3.3","0","h","NA","h","NA","NA","h","490","NA","8609","NA","NA","490","2","legacy","1024","2","48000","-16","experiment","HHHHH","2","even","12264","NA","NA","54519","42028","3614","NA","NA","55606","3628","NA","NA","55722","56214","55593","55721","Flanker Task Lab 2.1","22","12696","25","yes","1024"
"88.46153846153847","88.46153846153847","507.84615384615387","507.84615384615387","#800080","legacy","legacy","legacy","0","incongruent","uniform","1","undefined","1","s","0","0","0","25","25","0","25","0","25","0","0","0","25","25","25","25","Sat Sep 26 10:50:02 2020","1500","The main experiment item","yes","FlankerTaskLab.osexp","/Users/Arianna/Desktop","no","sans","no","18","no","white","no","yes","768","legacy","25","25","/Users/Arianna/Desktop/AG-subject-2.csv","legacy","Lentiform Loewenfeld","3.3.3","0","s","NA","h","NA","NA","s","508","NA","8609","NA","NA","508","2","legacy","1024","2","48000","-16","experiment","HHSHH","2","even","12264","NA","NA","56240","42028","3614","NA","NA","57327","3628","NA","NA","57442","57952","57313","57442","Flanker Task Lab 2.1","23","13204","26","yes","1024"
"88.88888888888889","88.88888888888889","509.6296296296296","509.6296296296296","#800080","legacy","legacy","legacy","0","incongruent","uniform","1","undefined","1","s","0","0","0","26","26","0","26","0","26","0","0","0","26","26","26","26","Sat Sep 26 10:50:02 2020","1500","The main experiment item","yes","FlankerTaskLab.osexp","/Users/Arianna/Desktop","no","sans","no","18","no","white","no","yes","768","legacy","26","26","/Users/Arianna/Desktop/AG-subject-2.csv","legacy","Lentiform Loewenfeld","3.3.3","0","s","NA","h","NA","NA","s","556","NA","8609","NA","NA","556","2","legacy","1024","2","48000","-16","experiment","HHSHH","2","even","12264","NA","NA","57979","42028","3614","NA","NA","59068","3628","NA","NA","59183","59740","59055","59183","Flanker Task Lab 2.1","24","13760","27","yes","1024"
"89.28571428571429","89.28571428571429","508.10714285714283","508.10714285714283","#800080","legacy","legacy","legacy","0","congruent","uniform","1","undefined","1","s","0","0","0","27","27","0","27","0","27","0","0","0","27","27","27","27","Sat Sep 26 10:50:02 2020","1500","The main experiment item","yes","FlankerTaskLab.osexp","/Users/Arianna/Desktop","no","sans","no","18","no","white","no","yes","768","legacy","27","27","/Users/Arianna/Desktop/AG-subject-2.csv","legacy","Lentiform Loewenfeld","3.3.3","0","s","NA","h","NA","NA","s","467","NA","8609","NA","NA","467","2","legacy","1024","2","48000","-16","experiment","SSSSS","2","even","12264","NA","NA","59767","42028","3614","NA","NA","60855","3628","NA","NA","60971","61439","60843","60971","Flanker Task Lab 2.1","25","14227","28","yes","1024"
"89.65517241379311","89.65517241379311","510","510","#800080","legacy","legacy","legacy","0","incongruent","uniform","1","undefined","1","h","0","0","0","28","28","0","28","0","28","0","0","0","28","28","28","28","Sat Sep 26 10:50:02 2020","1500","The main experiment item","yes","FlankerTaskLab.osexp","/Users/Arianna/Desktop","no","sans","no","18","no","white","no","yes","768","legacy","28","28","/Users/Arianna/Desktop/AG-subject-2.csv","legacy","Lentiform Loewenfeld","3.3.3","0","h","NA","h","NA","NA","h","563","NA","8609","NA","NA","563","2","legacy","1024","2","48000","-16","experiment","SSHSS","2","even","12264","NA","NA","61466","42028","3614","NA","NA","62556","3628","NA","NA","62672","63236","62539","62672","Flanker Task Lab 2.1","26","14790","29","yes","1024"
"90","90","506.6","506.6","#800080","legacy","legacy","legacy","0","congruent","uniform","1","undefined","1","s","0","0","0","29","29","0","29","0","29","0","0","0","29","29","29","29","Sat Sep 26 10:50:02 2020","1500","The main experiment item","yes","FlankerTaskLab.osexp","/Users/Arianna/Desktop","no","sans","no","18","no","white","no","yes","768","legacy","29","29","/Users/Arianna/Desktop/AG-subject-2.csv","legacy","Lentiform Loewenfeld","3.3.3","0","s","NA","h","NA","NA","s","408","NA","8609","NA","NA","408","2","legacy","1024","2","48000","-16","experiment","SSSSS","2","even","12264","NA","NA","63264","42028","3614","NA","NA","64350","3628","NA","NA","64466","64875","64337","64465","Flanker Task Lab 2.1","27","15198","30","yes","1024"
"90.3225806451613","90.3225806451613","505.3225806451613","505.3225806451613","#800080","legacy","legacy","legacy","0","congruent","uniform","1","undefined","1","h","0","0","0","30","30","0","30","0","30","0","0","0","30","30","30","30","Sat Sep 26 10:50:02 2020","1500","The main experiment item","yes","FlankerTaskLab.osexp","/Users/Arianna/Desktop","no","sans","no","18","no","white","no","yes","768","legacy","30","30","/Users/Arianna/Desktop/AG-subject-2.csv","legacy","Lentiform Loewenfeld","3.3.3","0","h","NA","h","NA","NA","h","467","NA","8609","NA","NA","467","2","legacy","1024","2","48000","-16","experiment","HHHHH","2","even","12264","NA","NA","64902","42028","3614","NA","NA","65986","3628","NA","NA","66102","66570","65973","66102","Flanker Task Lab 2.1","28","15665","31","yes","1024"
"90.625","90.625","504.96875","504.96875","#800080","legacy","legacy","legacy","0","congruent","uniform","1","undefined","1","s","0","0","0","31","31","0","31","0","31","0","0","0","31","31","31","31","Sat Sep 26 10:50:02 2020","1500","The main experiment item","yes","FlankerTaskLab.osexp","/Users/Arianna/Desktop","no","sans","no","18","no","white","no","yes","768","legacy","31","31","/Users/Arianna/Desktop/AG-subject-2.csv","legacy","Lentiform Loewenfeld","3.3.3","0","s","NA","h","NA","NA","s","494","NA","8609","NA","NA","494","2","legacy","1024","2","48000","-16","experiment","SSSSS","2","even","12264","NA","NA","66597","42028","3614","NA","NA","67684","3628","NA","NA","67799","68295","67670","67799","Flanker Task Lab 2.1","29","16159","32","yes","1024"
"90.9090909090909","90.9090909090909","503.2121212121212","503.2121212121212","#800080","legacy","legacy","legacy","0","incongruent","uniform","1","undefined","1","h","0","0","0","32","32","0","32","0","32","0","0","0","32","32","32","32","Sat Sep 26 10:50:02 2020","1500","The main experiment item","yes","FlankerTaskLab.osexp","/Users/Arianna/Desktop","no","sans","no","18","no","white","no","yes","768","legacy","32","32","/Users/Arianna/Desktop/AG-subject-2.csv","legacy","Lentiform Loewenfeld","3.3.3","0","h","NA","h","NA","NA","h","447","NA","8609","NA","NA","447","2","legacy","1024","2","48000","-16","experiment","SSHSS","2","even","12264","NA","NA","68318","42028","3614","NA","NA","69404","3628","NA","NA","69519","69968","69391","69519","Flanker Task Lab 2.1","30","16606","33","yes","1024"
"91.17647058823529","91.17647058823529","501.55882352941177","501.55882352941177","#800080","legacy","legacy","legacy","0","incongruent","uniform","1","undefined","1","s","0","0","0","33","33","0","33","0","33","0","0","0","33","33","33","33","Sat Sep 26 10:50:02 2020","1500","The main experiment item","yes","FlankerTaskLab.osexp","/Users/Arianna/Desktop","no","sans","no","18","no","white","no","yes","768","legacy","33","33","/Users/Arianna/Desktop/AG-subject-2.csv","legacy","Lentiform Loewenfeld","3.3.3","0","s","NA","h","NA","NA","s","447","NA","8609","NA","NA","447","2","legacy","1024","2","48000","-16","experiment","HHSHH","2","even","12264","NA","NA","69993","42028","3614","NA","NA","71078","3628","NA","NA","71193","71642","71064","71193","Flanker Task Lab 2.1","31","17053","34","yes","1024"
"91.42857142857143","91.42857142857143","497.9428571428571","497.9428571428571","#800080","legacy","legacy","legacy","0","congruent","uniform","1","undefined","1","h","0","0","0","34","34","0","34","0","34","0","0","0","34","34","34","34","Sat Sep 26 10:50:02 2020","1500","The main experiment item","yes","FlankerTaskLab.osexp","/Users/Arianna/Desktop","no","sans","no","18","no","white","no","yes","768","legacy","34","34","/Users/Arianna/Desktop/AG-subject-2.csv","legacy","Lentiform Loewenfeld","3.3.3","0","h","NA","h","NA","NA","h","375","NA","8609","NA","NA","375","2","legacy","1024","2","48000","-16","experiment","HHHHH","2","even","12264","NA","NA","71667","42028","3614","NA","NA","72752","3628","NA","NA","72867","73244","72739","72867","Flanker Task Lab 2.1","32","17428","35","yes","1024"
"91.66666666666667","91.66666666666667","495.1666666666667","495.1666666666667","#800080","legacy","legacy","legacy","0","congruent","uniform","1","undefined","1","h","0","0","0","35","35","0","35","0","35","0","0","0","35","35","35","35","Sat Sep 26 10:50:02 2020","1500","The main experiment item","yes","FlankerTaskLab.osexp","/Users/Arianna/Desktop","no","sans","no","18","no","white","no","yes","768","legacy","35","35","/Users/Arianna/Desktop/AG-subject-2.csv","legacy","Lentiform Loewenfeld","3.3.3","0","h","NA","h","NA","NA","h","398","NA","8609","NA","NA","398","2","legacy","1024","2","48000","-16","experiment","HHHHH","2","even","12264","NA","NA","73280","42028","3614","NA","NA","74368","3628","NA","NA","74483","74882","74355","74483","Flanker Task Lab 2.1","33","17826","36","yes","1024"
"91.89189189189189","91.89189189189189","494.4054054054054","494.4054054054054","#800080","legacy","legacy","legacy","0","congruent","uniform","1","undefined","1","h","0","0","0","36","36","0","36","0","36","0","0","0","36","36","36","36","Sat Sep 26 10:50:02 2020","1500","The main experiment item","yes","FlankerTaskLab.osexp","/Users/Arianna/Desktop","no","sans","no","18","no","white","no","yes","768","legacy","36","36","/Users/Arianna/Desktop/AG-subject-2.csv","legacy","Lentiform Loewenfeld","3.3.3","0","h","NA","h","NA","NA","h","467","NA","8609","NA","NA","467","2","legacy","1024","2","48000","-16","experiment","HHHHH","2","even","12264","NA","NA","74909","42028","3614","NA","NA","75997","3628","NA","NA","76112","76580","75984","76112","Flanker Task Lab 2.1","34","18293","37","yes","1024"
"92.10526315789474","92.10526315789474","493.7368421052632","493.7368421052632","#800080","legacy","legacy","legacy","0","congruent","uniform","1","undefined","1","h","0","0","0","37","37","0","37","0","37","0","0","0","37","37","37","37","Sat Sep 26 10:50:02 2020","1500","The main experiment item","yes","FlankerTaskLab.osexp","/Users/Arianna/Desktop","no","sans","no","18","no","white","no","yes","768","legacy","37","37","/Users/Arianna/Desktop/AG-subject-2.csv","legacy","Lentiform Loewenfeld","3.3.3","0","h","NA","h","NA","NA","h","469","NA","8609","NA","NA","469","2","legacy","1024","2","48000","-16","experiment","HHHHH","2","even","12264","NA","NA","76605","42028","3614","NA","NA","77692","3628","NA","NA","77808","78278","77679","77808","Flanker Task Lab 2.1","35","18762","38","yes","1024"
"89.74358974358974","89.74358974358974","493.53846153846155","493.53846153846155","#800080","legacy","legacy","legacy","0","incongruent","uniform","0","undefined","0","h","0","0","0","38","38","0","38","0","38","0","0","0","38","38","38","38","Sat Sep 26 10:50:02 2020","1500","The main experiment item","yes","FlankerTaskLab.osexp","/Users/Arianna/Desktop","no","sans","no","18","no","white","no","yes","768","legacy","38","38","/Users/Arianna/Desktop/AG-subject-2.csv","legacy","Lentiform Loewenfeld","3.3.3","0","s","NA","h","NA","NA","s","486","NA","8609","NA","NA","486","2","legacy","1024","2","48000","-16","experiment","SSHSS","2","even","12264","NA","NA","78305","42028","3614","NA","NA","79391","3628","NA","NA","79506","79993","79377","79506","Flanker Task Lab 2.1","35","19248","39","yes","1024"
"90","90","495.85","495.85","#800080","legacy","legacy","legacy","0","incongruent","uniform","1","undefined","1","s","0","0","0","39","39","0","39","0","39","0","0","0","39","39","39","39","Sat Sep 26 10:50:02 2020","1500","The main experiment item","yes","FlankerTaskLab.osexp","/Users/Arianna/Desktop","no","sans","no","18","no","white","no","yes","768","legacy","39","39","/Users/Arianna/Desktop/AG-subject-2.csv","legacy","Lentiform Loewenfeld","3.3.3","0","s","NA","h","NA","NA","s","586","NA","8609","NA","NA","586","2","legacy","1024","2","48000","-16","experiment","HHSHH","2","even","12264","NA","NA","80534","80019","3614","NA","NA","81619","3628","NA","NA","81735","82322","81606","81735","Flanker Task Lab 2.1","36","19834","40","yes","1024"
"90.2439024390244","90.2439024390244","495.7073170731707","495.7073170731707","#800080","legacy","legacy","legacy","0","congruent","uniform","1","undefined","1","s","0","0","0","40","40","0","40","0","40","0","0","0","40","40","40","40","Sat Sep 26 10:50:02 2020","1500","The main experiment item","yes","FlankerTaskLab.osexp","/Users/Arianna/Desktop","no","sans","no","18","no","white","no","yes","768","legacy","40","40","/Users/Arianna/Desktop/AG-subject-2.csv","legacy","Lentiform Loewenfeld","3.3.3","0","s","NA","h","NA","NA","s","490","NA","8609","NA","NA","490","2","legacy","1024","2","48000","-16","experiment","SSSSS","2","even","12264","NA","NA","82349","80019","3614","NA","NA","83434","3628","NA","NA","83550","84041","83420","83549","Flanker Task Lab 2.1","37","20324","41","yes","1024"
"90.47619047619048","90.47619047619048","499.0238095238095","499.0238095238095","#800080","legacy","legacy","legacy","0","incongruent","uniform","1","undefined","1","s","0","0","0","41","41","0","41","0","41","0","0","0","41","41","41","41","Sat Sep 26 10:50:02 2020","1500","The main experiment item","yes","FlankerTaskLab.osexp","/Users/Arianna/Desktop","no","sans","no","18","no","white","no","yes","768","legacy","41","41","/Users/Arianna/Desktop/AG-subject-2.csv","legacy","Lentiform Loewenfeld","3.3.3","0","s","NA","h","NA","NA","s","635","NA","8609","NA","NA","635","2","legacy","1024","2","48000","-16","experiment","HHSHH","2","even","12264","NA","NA","84065","80019","3614","NA","NA","85150","3628","NA","NA","85265","85902","85137","85265","Flanker Task Lab 2.1","38","20959","42","yes","1024"
"90.69767441860465","90.69767441860465","498.6744186046512","498.6744186046512","#800080","legacy","legacy","legacy","0","incongruent","uniform","1","undefined","1","s","0","0","0","42","42","0","42","0","42","0","0","0","42","42","42","42","Sat Sep 26 10:50:02 2020","1500","The main experiment item","yes","FlankerTaskLab.osexp","/Users/Arianna/Desktop","no","sans","no","18","no","white","no","yes","768","legacy","42","42","/Users/Arianna/Desktop/AG-subject-2.csv","legacy","Lentiform Loewenfeld","3.3.3","0","s","NA","h","NA","NA","s","484","NA","8609","NA","NA","484","2","legacy","1024","2","48000","-16","experiment","HHSHH","2","even","12264","NA","NA","85929","80019","3614","NA","NA","87013","3628","NA","NA","87130","87616","87001","87130","Flanker Task Lab 2.1","39","21443","43","yes","1024"
"90.9090909090909","90.9090909090909","496.9318181818182","496.9318181818182","#800080","legacy","legacy","legacy","0","congruent","uniform","1","undefined","1","s","0","0","0","43","43","0","43","0","43","0","0","0","43","43","43","43","Sat Sep 26 10:50:02 2020","1500","The main experiment item","yes","FlankerTaskLab.osexp","/Users/Arianna/Desktop","no","sans","no","18","no","white","no","yes","768","legacy","43","43","/Users/Arianna/Desktop/AG-subject-2.csv","legacy","Lentiform Loewenfeld","3.3.3","0","s","NA","h","NA","NA","s","422","NA","8609","NA","NA","422","2","legacy","1024","2","48000","-16","experiment","SSSSS","2","even","12264","NA","NA","87642","80019","3614","NA","NA","88731","3628","NA","NA","88846","89270","88717","88846","Flanker Task Lab 2.1","40","21865","44","yes","1024"
"91.11111111111111","91.11111111111111","497.22222222222223","497.22222222222223","#800080","legacy","legacy","legacy","0","incongruent","uniform","1","undefined","1","h","0","0","0","44","44","0","44","0","44","0","0","0","44","44","44","44","Sat Sep 26 10:50:02 2020","1500","The main experiment item","yes","FlankerTaskLab.osexp","/Users/Arianna/Desktop","no","sans","no","18","no","white","no","yes","768","legacy","44","44","/Users/Arianna/Desktop/AG-subject-2.csv","legacy","Lentiform Loewenfeld","3.3.3","0","h","NA","h","NA","NA","h","510","NA","8609","NA","NA","510","2","legacy","1024","2","48000","-16","experiment","SSHSS","2","even","12264","NA","NA","89296","80019","3614","NA","NA","90384","3628","NA","NA","90500","91011","90371","90500","Flanker Task Lab 2.1","41","22375","45","yes","1024"
"91.30434782608695","91.30434782608695","498.60869565217394","498.60869565217394","#800080","legacy","legacy","legacy","0","incongruent","uniform","1","undefined","1","h","0","0","0","45","45","0","45","0","45","0","0","0","45","45","45","45","Sat Sep 26 10:50:02 2020","1500","The main experiment item","yes","FlankerTaskLab.osexp","/Users/Arianna/Desktop","no","sans","no","18","no","white","no","yes","768","legacy","45","45","/Users/Arianna/Desktop/AG-subject-2.csv","legacy","Lentiform Loewenfeld","3.3.3","0","h","NA","h","NA","NA","h","561","NA","8609","NA","NA","561","2","legacy","1024","2","48000","-16","experiment","SSHSS","2","even","12264","NA","NA","91036","80019","3614","NA","NA","92123","3628","NA","NA","92239","92801","92109","92238","Flanker Task Lab 2.1","42","22936","46","yes","1024"
"91.48936170212765","91.48936170212765","500.21276595744683","500.21276595744683","#800080","legacy","legacy","legacy","0","incongruent","uniform","1","undefined","1","s","0","0","0","46","46","0","46","0","46","0","0","0","46","46","46","46","Sat Sep 26 10:50:02 2020","1500","The main experiment item","yes","FlankerTaskLab.osexp","/Users/Arianna/Desktop","no","sans","no","18","no","white","no","yes","768","legacy","46","46","/Users/Arianna/Desktop/AG-subject-2.csv","legacy","Lentiform Loewenfeld","3.3.3","0","s","NA","h","NA","NA","s","574","NA","8609","NA","NA","574","2","legacy","1024","2","48000","-16","experiment","HHSHH","2","even","12264","NA","NA","92828","80019","3614","NA","NA","93914","3628","NA","NA","94030","94605","93900","94030","Flanker Task Lab 2.1","43","23510","47","yes","1024"
"91.66666666666667","91.66666666666667","500.75","500.75","#800080","legacy","legacy","legacy","0","incongruent","uniform","1","undefined","1","s","0","0","0","47","47","0","47","0","47","0","0","0","47","47","47","47","Sat Sep 26 10:50:02 2020","1500","The main experiment item","yes","FlankerTaskLab.osexp","/Users/Arianna/Desktop","no","sans","no","18","no","white","no","yes","768","legacy","47","47","/Users/Arianna/Desktop/AG-subject-2.csv","legacy","Lentiform Loewenfeld","3.3.3","0","s","NA","h","NA","NA","s","526","NA","8609","NA","NA","526","2","legacy","1024","2","48000","-16","experiment","HHSHH","2","even","12264","NA","NA","94620","80019","3614","NA","NA","95706","3628","NA","NA","95821","96348","95693","95821","Flanker Task Lab 2.1","44","24036","48","yes","1024"
"91.83673469387755","91.83673469387755","500.42857142857144","500.42857142857144","#800080","legacy","legacy","legacy","0","incongruent","uniform","1","undefined","1","h","0","0","0","48","48","0","48","0","48","0","0","0","48","48","48","48","Sat Sep 26 10:50:02 2020","1500","The main experiment item","yes","FlankerTaskLab.osexp","/Users/Arianna/Desktop","no","sans","no","18","no","white","no","yes","768","legacy","48","48","/Users/Arianna/Desktop/AG-subject-2.csv","legacy","Lentiform Loewenfeld","3.3.3","0","h","NA","h","NA","NA","h","485","NA","8609","NA","NA","485","2","legacy","1024","2","48000","-16","experiment","SSHSS","2","even","12264","NA","NA","96375","80019","3614","NA","NA","97460","3628","NA","NA","97575","98062","97446","97575","Flanker Task Lab 2.1","45","24521","49","yes","1024"
"92","92","500.88","500.88","#800080","legacy","legacy","legacy","0","incongruent","uniform","1","undefined","1","h","0","0","0","49","49","0","49","0","49","0","0","0","49","49","49","49","Sat Sep 26 10:50:02 2020","1500","The main experiment item","yes","FlankerTaskLab.osexp","/Users/Arianna/Desktop","no","sans","no","18","no","white","no","yes","768","legacy","49","49","/Users/Arianna/Desktop/AG-subject-2.csv","legacy","Lentiform Loewenfeld","3.3.3","0","h","NA","h","NA","NA","h","523","NA","8609","NA","NA","523","2","legacy","1024","2","48000","-16","experiment","SSHSS","2","even","12264","NA","NA","98088","80019","3614","NA","NA","99173","3628","NA","NA","99289","99814","99159","99289","Flanker Task Lab 2.1","46","25044","50","yes","1024"
"92.15686274509804","92.15686274509804","500.6666666666667","500.6666666666667","#800080","legacy","legacy","legacy","0","congruent","uniform","1","undefined","1","s","0","0","0","50","50","0","50","0","50","0","0","0","50","50","50","50","Sat Sep 26 10:50:02 2020","1500","The main experiment item","yes","FlankerTaskLab.osexp","/Users/Arianna/Desktop","no","sans","no","18","no","white","no","yes","768","legacy","50","50","/Users/Arianna/Desktop/AG-subject-2.csv","legacy","Lentiform Loewenfeld","3.3.3","0","s","NA","h","NA","NA","s","490","NA","8609","NA","NA","490","2","legacy","1024","2","48000","-16","experiment","SSSSS","2","even","12264","NA","NA","99840","80019","3614","NA","NA","100926","3628","NA","NA","101042","101534","100912","101041","Flanker Task Lab 2.1","47","25534","51","yes","1024"
"92.3076923076923","92.3076923076923","498.7692307692308","498.7692307692308","#800080","legacy","legacy","legacy","0","congruent","uniform","1","undefined","1","s","0","0","0","51","51","0","51","0","51","0","0","0","51","51","51","51","Sat Sep 26 10:50:02 2020","1500","The main experiment item","yes","FlankerTaskLab.osexp","/Users/Arianna/Desktop","no","sans","no","18","no","white","no","yes","768","legacy","51","51","/Users/Arianna/Desktop/AG-subject-2.csv","legacy","Lentiform Loewenfeld","3.3.3","0","s","NA","h","NA","NA","s","402","NA","8609","NA","NA","402","2","legacy","1024","2","48000","-16","experiment","SSSSS","2","even","12264","NA","NA","101561","80019","3614","NA","NA","102654","3628","NA","NA","102769","103173","102640","102769","Flanker Task Lab 2.1","48","25936","52","yes","1024"
"92.45283018867924","92.45283018867924","497.9056603773585","497.9056603773585","#800080","legacy","legacy","legacy","0","incongruent","uniform","1","undefined","1","s","0","0","0","52","52","0","52","0","52","0","0","0","52","52","52","52","Sat Sep 26 10:50:02 2020","1500","The main experiment item","yes","FlankerTaskLab.osexp","/Users/Arianna/Desktop","no","sans","no","18","no","white","no","yes","768","legacy","52","52","/Users/Arianna/Desktop/AG-subject-2.csv","legacy","Lentiform Loewenfeld","3.3.3","0","s","NA","h","NA","NA","s","453","NA","8609","NA","NA","453","2","legacy","1024","2","48000","-16","experiment","HHSHH","2","even","12264","NA","NA","103201","80019","3614","NA","NA","104285","3628","NA","NA","104399","104853","104271","104398","Flanker Task Lab 2.1","49","26389","53","yes","1024"
"92.5925925925926","92.5925925925926","497.5925925925926","497.5925925925926","#800080","legacy","legacy","legacy","0","congruent","uniform","1","undefined","1","s","0","0","0","53","53","0","53","0","53","0","0","0","53","53","53","53","Sat Sep 26 10:50:02 2020","1500","The main experiment item","yes","FlankerTaskLab.osexp","/Users/Arianna/Desktop","no","sans","no","18","no","white","no","yes","768","legacy","53","53","/Users/Arianna/Desktop/AG-subject-2.csv","legacy","Lentiform Loewenfeld","3.3.3","0","s","NA","h","NA","NA","s","481","NA","8609","NA","NA","481","2","legacy","1024","2","48000","-16","experiment","SSSSS","2","even","12264","NA","NA","104881","80019","3614","NA","NA","105979","3628","NA","NA","106101","106583","105965","106101","Flanker Task Lab 2.1","50","26870","54","yes","1024"
"92.72727272727273","92.72727272727273","496.25454545454545","496.25454545454545","#800080","legacy","legacy","legacy","0","congruent","uniform","1","undefined","1","s","0","0","0","54","54","0","54","0","54","0","0","0","54","54","54","54","Sat Sep 26 10:50:02 2020","1500","The main experiment item","yes","FlankerTaskLab.osexp","/Users/Arianna/Desktop","no","sans","no","18","no","white","no","yes","768","legacy","54","54","/Users/Arianna/Desktop/AG-subject-2.csv","legacy","Lentiform Loewenfeld","3.3.3","0","s","NA","h","NA","NA","s","424","NA","8609","NA","NA","424","2","legacy","1024","2","48000","-16","experiment","SSSSS","2","even","12264","NA","NA","106601","80019","3614","NA","NA","107686","3628","NA","NA","107801","108226","107673","107801","Flanker Task Lab 2.1","51","27294","55","yes","1024"
"92.85714285714286","92.85714285714286","496.32142857142856","496.32142857142856","#800080","legacy","legacy","legacy","0","congruent","uniform","1","undefined","1","s","0","0","0","55","55","0","55","0","55","0","0","0","55","55","55","55","Sat Sep 26 10:50:02 2020","1500","The main experiment item","yes","FlankerTaskLab.osexp","/Users/Arianna/Desktop","no","sans","no","18","no","white","no","yes","768","legacy","55","55","/Users/Arianna/Desktop/AG-subject-2.csv","legacy","Lentiform Loewenfeld","3.3.3","0","s","NA","h","NA","NA","s","500","NA","8609","NA","NA","500","2","legacy","1024","2","48000","-16","experiment","SSSSS","2","even","12264","NA","NA","108252","80019","3614","NA","NA","109341","3628","NA","NA","109456","109957","109326","109456","Flanker Task Lab 2.1","52","27794","56","yes","1024"
"92.98245614035088","92.98245614035088","496.4035087719298","496.4035087719298","#800080","legacy","legacy","legacy","0","congruent","uniform","1","undefined","1","h","0","0","0","56","56","0","56","0","56","0","0","0","56","56","56","56","Sat Sep 26 10:50:02 2020","1500","The main experiment item","yes","FlankerTaskLab.osexp","/Users/Arianna/Desktop","no","sans","no","18","no","white","no","yes","768","legacy","56","56","/Users/Arianna/Desktop/AG-subject-2.csv","legacy","Lentiform Loewenfeld","3.3.3","0","h","NA","h","NA","NA","h","501","NA","8609","NA","NA","501","2","legacy","1024","2","48000","-16","experiment","HHHHH","2","even","12264","NA","NA","109984","80019","3614","NA","NA","111070","3628","NA","NA","111185","111688","111057","111185","Flanker Task Lab 2.1","53","28295","57","yes","1024"
"93.10344827586206","93.10344827586206","496.1551724137931","496.1551724137931","#800080","legacy","legacy","legacy","0","congruent","uniform","1","undefined","1","s","0","0","0","57","57","0","57","0","57","0","0","0","57","57","57","57","Sat Sep 26 10:50:02 2020","1500","The main experiment item","yes","FlankerTaskLab.osexp","/Users/Arianna/Desktop","no","sans","no","18","no","white","no","yes","768","legacy","57","57","/Users/Arianna/Desktop/AG-subject-2.csv","legacy","Lentiform Loewenfeld","3.3.3","0","s","NA","h","NA","NA","s","482","NA","8609","NA","NA","482","2","legacy","1024","2","48000","-16","experiment","SSSSS","2","even","12264","NA","NA","111714","80019","3614","NA","NA","112800","3628","NA","NA","112916","113400","112786","112916","Flanker Task Lab 2.1","54","28777","58","yes","1024"
"93.22033898305085","93.22033898305085","496.6949152542373","496.6949152542373","#800080","legacy","legacy","legacy","0","congruent","uniform","1","undefined","1","h","0","0","0","58","58","0","58","0","58","0","0","0","58","58","58","58","Sat Sep 26 10:50:02 2020","1500","The main experiment item","yes","FlankerTaskLab.osexp","/Users/Arianna/Desktop","no","sans","no","18","no","white","no","yes","768","legacy","58","58","/Users/Arianna/Desktop/AG-subject-2.csv","legacy","Lentiform Loewenfeld","3.3.3","0","h","NA","h","NA","NA","h","528","NA","8609","NA","NA","528","2","legacy","1024","2","48000","-16","experiment","HHHHH","2","even","12264","NA","NA","113427","80019","3614","NA","NA","114511","3628","NA","NA","114630","115160","114498","114630","Flanker Task Lab 2.1","55","29305","59","yes","1024"
"93.33333333333333","93.33333333333333","496.9166666666667","496.9166666666667","#800080","legacy","legacy","legacy","0","incongruent","uniform","1","undefined","1","h","0","0","0","59","59","0","59","0","59","0","0","0","59","59","59","59","Sat Sep 26 10:50:02 2020","1500","The main experiment item","yes","FlankerTaskLab.osexp","/Users/Arianna/Desktop","no","sans","no","18","no","white","no","yes","768","legacy","59","59","/Users/Arianna/Desktop/AG-subject-2.csv","legacy","Lentiform Loewenfeld","3.3.3","0","h","NA","h","NA","NA","h","510","NA","8609","NA","NA","510","2","legacy","1024","2","48000","-16","experiment","SSHSS","2","even","12264","NA","NA","115186","80019","3614","NA","NA","116284","3628","NA","NA","116400","116912","116268","116399","Flanker Task Lab 2.1","56","29815","60","yes","1024"
"93.44262295081967","93.44262295081967","495.8196721311475","495.8196721311475","#800080","legacy","legacy","legacy","0","congruent","uniform","1","undefined","1","h","0","0","0","60","60","0","60","0","60","0","0","0","60","60","60","60","Sat Sep 26 10:50:02 2020","1500","The main experiment item","yes","FlankerTaskLab.osexp","/Users/Arianna/Desktop","no","sans","no","18","no","white","no","yes","768","legacy","60","60","/Users/Arianna/Desktop/AG-subject-2.csv","legacy","Lentiform Loewenfeld","3.3.3","0","h","NA","h","NA","NA","h","430","NA","8609","NA","NA","430","2","legacy","1024","2","48000","-16","experiment","HHHHH","2","even","12264","NA","NA","116937","80019","3614","NA","NA","118021","3628","NA","NA","118136","118568","118006","118136","Flanker Task Lab 2.1","57","30245","61","yes","1024"
"93.54838709677419","93.54838709677419","493.7741935483871","493.7741935483871","#800080","legacy","legacy","legacy","0","congruent","uniform","1","undefined","1","s","0","0","0","61","61","0","61","0","61","0","0","0","61","61","61","61","Sat Sep 26 10:50:02 2020","1500","The main experiment item","yes","FlankerTaskLab.osexp","/Users/Arianna/Desktop","no","sans","no","18","no","white","no","yes","768","legacy","61","61","/Users/Arianna/Desktop/AG-subject-2.csv","legacy","Lentiform Loewenfeld","3.3.3","0","s","NA","h","NA","NA","s","369","NA","8609","NA","NA","369","2","legacy","1024","2","48000","-16","experiment","SSSSS","2","even","12264","NA","NA","118594","80019","3614","NA","NA","119682","3628","NA","NA","119798","120169","119668","119797","Flanker Task Lab 2.1","58","30614","62","yes","1024"
"93.65079365079364","93.65079365079364","496.3174603174603","496.3174603174603","#800080","legacy","legacy","legacy","0","congruent","uniform","1","undefined","1","h","0","0","0","62","62","0","62","0","62","0","0","0","62","62","62","62","Sat Sep 26 10:50:02 2020","1500","The main experiment item","yes","FlankerTaskLab.osexp","/Users/Arianna/Desktop","no","sans","no","18","no","white","no","yes","768","legacy","62","62","/Users/Arianna/Desktop/AG-subject-2.csv","legacy","Lentiform Loewenfeld","3.3.3","0","h","NA","h","NA","NA","h","654","NA","8609","NA","NA","654","2","legacy","1024","2","48000","-16","experiment","HHHHH","2","even","12264","NA","NA","120196","80019","3614","NA","NA","121282","3628","NA","NA","121398","122054","121269","121398","Flanker Task Lab 2.1","59","31268","63","yes","1024"
"93.75","93.75","495.625","495.625","#800080","legacy","legacy","legacy","0","incongruent","uniform","1","undefined","1","s","0","0","0","63","63","0","63","0","63","0","0","0","63","63","63","63","Sat Sep 26 10:50:02 2020","1500","The main experiment item","yes","FlankerTaskLab.osexp","/Users/Arianna/Desktop","no","sans","no","18","no","white","no","yes","768","legacy","63","63","/Users/Arianna/Desktop/AG-subject-2.csv","legacy","Lentiform Loewenfeld","3.3.3","0","s","NA","h","NA","NA","s","452","NA","8609","NA","NA","452","2","legacy","1024","2","48000","-16","experiment","HHSHH","2","even","12264","NA","NA","122080","80019","3614","NA","NA","123166","3628","NA","NA","123282","123735","123152","123282","Flanker Task Lab 2.1","60","31720","64","yes","1024"
"93.84615384615384","93.84615384615384","496.7846153846154","496.7846153846154","#800080","legacy","legacy","legacy","0","incongruent","uniform","1","undefined","1","h","0","0","0","64","64","0","64","0","64","0","0","0","64","64","64","64","Sat Sep 26 10:50:02 2020","1500","The main experiment item","yes","FlankerTaskLab.osexp","/Users/Arianna/Desktop","no","sans","no","18","no","white","no","yes","768","legacy","64","64","/Users/Arianna/Desktop/AG-subject-2.csv","legacy","Lentiform Loewenfeld","3.3.3","0","h","NA","h","NA","NA","h","571","NA","8609","NA","NA","571","2","legacy","1024","2","48000","-16","experiment","SSHSS","2","even","12264","NA","NA","123762","80019","3614","NA","NA","124852","3628","NA","NA","124966","125538","124839","124966","Flanker Task Lab 2.1","61","32291","65","yes","1024"
"93.93939393939394","93.93939393939394","496.45454545454544","496.45454545454544","#800080","legacy","legacy","legacy","0","congruent","uniform","1","undefined","1","s","0","0","0","65","65","0","65","0","65","0","0","0","65","65","65","65","Sat Sep 26 10:50:02 2020","1500","The main experiment item","yes","FlankerTaskLab.osexp","/Users/Arianna/Desktop","no","sans","no","18","no","white","no","yes","768","legacy","65","65","/Users/Arianna/Desktop/AG-subject-2.csv","legacy","Lentiform Loewenfeld","3.3.3","0","s","NA","h","NA","NA","s","475","NA","8609","NA","NA","475","2","legacy","1024","2","48000","-16","experiment","SSSSS","2","even","12264","NA","NA","125564","80019","3614","NA","NA","126650","3628","NA","NA","126766","127243","126637","126766","Flanker Task Lab 2.1","62","32766","66","yes","1024"
"94.02985074626865","94.02985074626865","495.6865671641791","495.6865671641791","#800080","legacy","legacy","legacy","0","congruent","uniform","1","undefined","1","s","0","0","0","66","66","0","66","0","66","0","0","0","66","66","66","66","Sat Sep 26 10:50:02 2020","1500","The main experiment item","yes","FlankerTaskLab.osexp","/Users/Arianna/Desktop","no","sans","no","18","no","white","no","yes","768","legacy","66","66","/Users/Arianna/Desktop/AG-subject-2.csv","legacy","Lentiform Loewenfeld","3.3.3","0","s","NA","h","NA","NA","s","445","NA","8609","NA","NA","445","2","legacy","1024","2","48000","-16","experiment","SSSSS","2","even","12264","NA","NA","127270","80019","3614","NA","NA","128355","3628","NA","NA","128470","128917","128341","128470","Flanker Task Lab 2.1","63","33211","67","yes","1024"
"94.11764705882354","94.11764705882354","496.30882352941177","496.30882352941177","#800080","legacy","legacy","legacy","0","congruent","uniform","1","undefined","1","s","0","0","0","67","67","0","67","0","67","0","0","0","67","67","67","67","Sat Sep 26 10:50:02 2020","1500","The main experiment item","yes","FlankerTaskLab.osexp","/Users/Arianna/Desktop","no","sans","no","18","no","white","no","yes","768","legacy","67","67","/Users/Arianna/Desktop/AG-subject-2.csv","legacy","Lentiform Loewenfeld","3.3.3","0","s","NA","h","NA","NA","s","538","NA","8609","NA","NA","538","2","legacy","1024","2","48000","-16","experiment","SSSSS","2","even","12264","NA","NA","128941","80019","3614","NA","NA","130027","3628","NA","NA","130143","130683","130012","130142","Flanker Task Lab 2.1","64","33749","68","yes","1024"
"94.20289855072464","94.20289855072464","498.3333333333333","498.3333333333333","#800080","legacy","legacy","legacy","0","incongruent","uniform","1","undefined","1","s","0","0","0","68","68","0","68","0","68","0","0","0","68","68","68","68","Sat Sep 26 10:50:02 2020","1500","The main experiment item","yes","FlankerTaskLab.osexp","/Users/Arianna/Desktop","no","sans","no","18","no","white","no","yes","768","legacy","68","68","/Users/Arianna/Desktop/AG-subject-2.csv","legacy","Lentiform Loewenfeld","3.3.3","0","s","NA","h","NA","NA","s","636","NA","8609","NA","NA","636","2","legacy","1024","2","48000","-16","experiment","HHSHH","2","even","12264","NA","NA","130710","80019","3614","NA","NA","131795","3628","NA","NA","131911","132549","131782","131911","Flanker Task Lab 2.1","65","34385","69","yes","1024"
"94.28571428571429","94.28571428571429","497.7142857142857","497.7142857142857","#800080","legacy","legacy","legacy","0","incongruent","uniform","1","undefined","1","s","0","0","0","69","69","0","69","0","69","0","0","0","69","69","69","69","Sat Sep 26 10:50:02 2020","1500","The main experiment item","yes","FlankerTaskLab.osexp","/Users/Arianna/Desktop","no","sans","no","18","no","white","no","yes","768","legacy","69","69","/Users/Arianna/Desktop/AG-subject-2.csv","legacy","Lentiform Loewenfeld","3.3.3","0","s","NA","h","NA","NA","s","455","NA","8609","NA","NA","455","2","legacy","1024","2","48000","-16","experiment","HHSHH","2","even","12264","NA","NA","132569","80019","3614","NA","NA","133656","3628","NA","NA","133771","134228","133642","133771","Flanker Task Lab 2.1","66","34840","70","yes","1024"
"94.36619718309859","94.36619718309859","497.32394366197184","497.32394366197184","#800080","legacy","legacy","legacy","0","congruent","uniform","1","undefined","1","h","0","0","0","70","70","0","70","0","70","0","0","0","70","70","70","70","Sat Sep 26 10:50:02 2020","1500","The main experiment item","yes","FlankerTaskLab.osexp","/Users/Arianna/Desktop","no","sans","no","18","no","white","no","yes","768","legacy","70","70","/Users/Arianna/Desktop/AG-subject-2.csv","legacy","Lentiform Loewenfeld","3.3.3","0","h","NA","h","NA","NA","h","470","NA","8609","NA","NA","470","2","legacy","1024","2","48000","-16","experiment","HHHHH","2","even","12264","NA","NA","134256","80019","3614","NA","NA","135344","3628","NA","NA","135459","135931","135332","135459","Flanker Task Lab 2.1","67","35310","71","yes","1024"
"94.44444444444444","94.44444444444444","496.7083333333333","496.7083333333333","#800080","legacy","legacy","legacy","0","congruent","uniform","1","undefined","1","h","0","0","0","71","71","0","71","0","71","0","0","0","71","71","71","71","Sat Sep 26 10:50:02 2020","1500","The main experiment item","yes","FlankerTaskLab.osexp","/Users/Arianna/Desktop","no","sans","no","18","no","white","no","yes","768","legacy","71","71","/Users/Arianna/Desktop/AG-subject-2.csv","legacy","Lentiform Loewenfeld","3.3.3","0","h","NA","h","NA","NA","h","453","NA","8609","NA","NA","453","2","legacy","1024","2","48000","-16","experiment","HHHHH","2","even","12264","NA","NA","135958","80019","3614","NA","NA","137045","3628","NA","NA","137161","137615","137032","137161","Flanker Task Lab 2.1","68","35763","72","yes","1024"
"94.52054794520548","94.52054794520548","496.13698630136986","496.13698630136986","#800080","legacy","legacy","legacy","0","congruent","uniform","1","undefined","1","s","0","0","0","72","72","0","72","0","72","0","0","0","72","72","72","72","Sat Sep 26 10:50:02 2020","1500","The main experiment item","yes","FlankerTaskLab.osexp","/Users/Arianna/Desktop","no","sans","no","18","no","white","no","yes","768","legacy","72","72","/Users/Arianna/Desktop/AG-subject-2.csv","legacy","Lentiform Loewenfeld","3.3.3","0","s","NA","h","NA","NA","s","455","NA","8609","NA","NA","455","2","legacy","1024","2","48000","-16","experiment","SSSSS","2","even","12264","NA","NA","137641","80019","3614","NA","NA","138727","3628","NA","NA","138843","139299","138714","138842","Flanker Task Lab 2.1","69","36218","73","yes","1024"
"94.5945945945946","94.5945945945946","496.55405405405406","496.55405405405406","#800080","legacy","legacy","legacy","0","incongruent","uniform","1","undefined","1","h","0","0","0","73","73","0","73","0","73","0","0","0","73","73","73","73","Sat Sep 26 10:50:02 2020","1500","The main experiment item","yes","FlankerTaskLab.osexp","/Users/Arianna/Desktop","no","sans","no","18","no","white","no","yes","768","legacy","73","73","/Users/Arianna/Desktop/AG-subject-2.csv","legacy","Lentiform Loewenfeld","3.3.3","0","h","NA","h","NA","NA","h","527","NA","8609","NA","NA","527","2","legacy","1024","2","48000","-16","experiment","SSHSS","2","even","12264","NA","NA","139325","80019","3614","NA","NA","140415","3628","NA","NA","140530","141059","140401","140530","Flanker Task Lab 2.1","70","36745","74","yes","1024"
"94.66666666666667","94.66666666666667","495.92","495.92","#800080","legacy","legacy","legacy","0","congruent","uniform","1","undefined","1","h","0","0","0","74","74","0","74","0","74","0","0","0","74","74","74","74","Sat Sep 26 10:50:02 2020","1500","The main experiment item","yes","FlankerTaskLab.osexp","/Users/Arianna/Desktop","no","sans","no","18","no","white","no","yes","768","legacy","74","74","/Users/Arianna/Desktop/AG-subject-2.csv","legacy","Lentiform Loewenfeld","3.3.3","0","h","NA","h","NA","NA","h","449","NA","8609","NA","NA","449","2","legacy","1024","2","48000","-16","experiment","HHHHH","2","even","12264","NA","NA","141085","80019","3614","NA","NA","142170","3628","NA","NA","142284","142735","142156","142284","Flanker Task Lab 2.1","71","37194","75","yes","1024"
"94.73684210526316","94.73684210526316","494.9736842105263","494.9736842105263","#800080","legacy","legacy","legacy","0","congruent","uniform","1","undefined","1","s","0","0","0","75","75","0","75","0","75","0","0","0","75","75","75","75","Sat Sep 26 10:50:02 2020","1500","The main experiment item","yes","FlankerTaskLab.osexp","/Users/Arianna/Desktop","no","sans","no","18","no","white","no","yes","768","legacy","75","75","/Users/Arianna/Desktop/AG-subject-2.csv","legacy","Lentiform Loewenfeld","3.3.3","0","s","NA","h","NA","NA","s","424","NA","8609","NA","NA","424","2","legacy","1024","2","48000","-16","experiment","SSSSS","2","even","12264","NA","NA","142759","80019","3614","NA","NA","143850","3628","NA","NA","143965","144390","143836","143965","Flanker Task Lab 2.1","72","37618","76","yes","1024"
"94.8051948051948","94.8051948051948","498.5194805194805","498.5194805194805","#800080","legacy","legacy","legacy","0","incongruent","uniform","1","undefined","1","h","0","0","0","76","76","0","76","0","76","0","0","0","76","76","76","76","Sat Sep 26 10:50:02 2020","1500","The main experiment item","yes","FlankerTaskLab.osexp","/Users/Arianna/Desktop","no","sans","no","18","no","white","no","yes","768","legacy","76","76","/Users/Arianna/Desktop/AG-subject-2.csv","legacy","Lentiform Loewenfeld","3.3.3","0","h","NA","h","NA","NA","h","768","NA","8609","NA","NA","768","2","legacy","1024","2","48000","-16","experiment","SSHSS","2","even","12264","NA","NA","144417","80019","3614","NA","NA","145502","3628","NA","NA","145617","146387","145489","145617","Flanker Task Lab 2.1","73","38386","77","yes","1024"
"94.87179487179488","94.87179487179488","498.38461538461536","498.38461538461536","#800080","legacy","legacy","legacy","0","incongruent","uniform","1","undefined","1","h","0","0","0","77","77","0","77","0","77","0","0","0","77","77","77","77","Sat Sep 26 10:50:02 2020","1500","The main experiment item","yes","FlankerTaskLab.osexp","/Users/Arianna/Desktop","no","sans","no","18","no","white","no","yes","768","legacy","77","77","/Users/Arianna/Desktop/AG-subject-2.csv","legacy","Lentiform Loewenfeld","3.3.3","0","h","NA","h","NA","NA","h","488","NA","8609","NA","NA","488","2","legacy","1024","2","48000","-16","experiment","SSHSS","2","even","12264","NA","NA","146413","80019","3614","NA","NA","147503","3628","NA","NA","147618","148108","147490","147618","Flanker Task Lab 2.1","74","38874","78","yes","1024"
"94.9367088607595","94.9367088607595","497.75949367088606","497.75949367088606","#800080","legacy","legacy","legacy","0","incongruent","uniform","1","undefined","1","h","0","0","0","78","78","0","78","0","78","0","0","0","78","78","78","78","Sat Sep 26 10:50:02 2020","1500","The main experiment item","yes","FlankerTaskLab.osexp","/Users/Arianna/Desktop","no","sans","no","18","no","white","no","yes","768","legacy","78","78","/Users/Arianna/Desktop/AG-subject-2.csv","legacy","Lentiform Loewenfeld","3.3.3","0","h","NA","h","NA","NA","h","449","NA","8609","NA","NA","449","2","legacy","1024","2","48000","-16","experiment","SSHSS","2","even","12264","NA","NA","148135","80019","3614","NA","NA","149222","3628","NA","NA","149338","149789","149208","149338","Flanker Task Lab 2.1","75","39323","79","yes","1024"
"95","95","496.9875","496.9875","#800080","legacy","legacy","legacy","0","incongruent","uniform","1","undefined","1","h","0","0","0","79","79","0","79","0","79","0","0","0","79","79","79","79","Sat Sep 26 10:50:02 2020","1500","The main experiment item","yes","FlankerTaskLab.osexp","/Users/Arianna/Desktop","no","sans","no","18","no","white","no","yes","768","legacy","79","79","/Users/Arianna/Desktop/AG-subject-2.csv","legacy","Lentiform Loewenfeld","3.3.3","0","h","NA","h","NA","NA","h","436","NA","8609","NA","NA","436","2","legacy","1024","2","48000","-16","experiment","SSHSS","2","even","12264","NA","NA","149816","80019","3614","NA","NA","150904","3628","NA","NA","151021","151459","150890","151020","Flanker Task Lab 2.1","76","39759","80","yes","1024"
"95.06172839506173","95.06172839506173","498.9259259259259","498.9259259259259","#800080","legacy","legacy","legacy","0","incongruent","uniform","1","undefined","1","h","0","0","0","80","80","0","80","0","80","0","0","0","80","80","80","80","Sat Sep 26 10:50:02 2020","600","The main experiment item","yes","FlankerTaskLab.osexp","/Users/Arianna/Desktop","no","sans","no","18","no","white","no","yes","768","legacy","0","79","/Users/Arianna/Desktop/AG-subject-2.csv","legacy","Lentiform Loewenfeld","3.3.3","0","h","NA","h","h","NA","h","654","NA","8609","2194","NA","654","2","legacy","1024","2","48000","-16","experiment","SSHSS","2","even","12264","154734","NA","151486","80019","3614","NA","NA","154786","3628","152538","NA","154901","155557","154773","154901","Flanker Task Lab 2.1","77","40413","81","yes","1024"
"95.1219512195122","95.1219512195122","498.4268292682927","498.4268292682927","#800080","legacy","legacy","legacy","0","congruent","uniform","1","undefined","1","s","0","0","0","81","81","0","81","0","81","0","0","0","81","81","81","81","Sat Sep 26 10:50:02 2020","600","The main experiment item","yes","FlankerTaskLab.osexp","/Users/Arianna/Desktop","no","sans","no","18","no","white","no","yes","768","legacy","1","79","/Users/Arianna/Desktop/AG-subject-2.csv","legacy","Lentiform Loewenfeld","3.3.3","0","s","NA","h","h","NA","s","458","NA","8609","2194","NA","458","2","legacy","1024","2","48000","-16","experiment","SSSSS","2","even","12264","154734","NA","156098","80019","3614","155584","NA","157181","3628","152538","NA","157296","157755","157167","157296","Flanker Task Lab 2.1","78","40871","82","yes","1024"
"95.18072289156626","95.18072289156626","497.4578313253012","497.4578313253012","#800080","legacy","legacy","legacy","0","incongruent","uniform","1","undefined","1","h","0","0","0","82","82","0","82","0","82","0","0","0","82","82","82","82","Sat Sep 26 10:50:02 2020","600","The main experiment item","yes","FlankerTaskLab.osexp","/Users/Arianna/Desktop","no","sans","no","18","no","white","no","yes","768","legacy","2","79","/Users/Arianna/Desktop/AG-subject-2.csv","legacy","Lentiform Loewenfeld","3.3.3","0","h","NA","h","h","NA","h","418","NA","8609","2194","NA","418","2","legacy","1024","2","48000","-16","experiment","SSHSS","2","even","12264","154734","NA","157782","80019","3614","155584","NA","158868","3628","152538","NA","158984","159404","158855","158984","Flanker Task Lab 2.1","79","41289","83","yes","1024"
"95.23809523809524","95.23809523809524","496.5833333333333","496.5833333333333","#800080","legacy","legacy","legacy","0","congruent","uniform","1","undefined","1","h","0","0","0","83","83","0","83","0","83","0","0","0","83","83","83","83","Sat Sep 26 10:50:02 2020","600","The main experiment item","yes","FlankerTaskLab.osexp","/Users/Arianna/Desktop","no","sans","no","18","no","white","no","yes","768","legacy","3","79","/Users/Arianna/Desktop/AG-subject-2.csv","legacy","Lentiform Loewenfeld","3.3.3","0","h","NA","h","h","NA","h","424","NA","8609","2194","NA","424","2","legacy","1024","2","48000","-16","experiment","HHHHH","2","even","12264","154734","NA","159430","80019","3614","155584","NA","160516","3628","152538","NA","160632","161058","160503","160632","Flanker Task Lab 2.1","80","41713","84","yes","1024"
"95.29411764705883","95.29411764705883","495.4117647058824","495.4117647058824","#800080","legacy","legacy","legacy","0","incongruent","uniform","1","undefined","1","h","0","0","0","84","84","0","84","0","84","0","0","0","84","84","84","84","Sat Sep 26 10:50:02 2020","600","The main experiment item","yes","FlankerTaskLab.osexp","/Users/Arianna/Desktop","no","sans","no","18","no","white","no","yes","768","legacy","4","79","/Users/Arianna/Desktop/AG-subject-2.csv","legacy","Lentiform Loewenfeld","3.3.3","0","h","NA","h","h","NA","h","397","NA","8609","2194","NA","397","2","legacy","1024","2","48000","-16","experiment","SSHSS","2","even","12264","154734","NA","161085","80019","3614","155584","NA","162170","3628","152538","NA","162287","162686","162157","162286","Flanker Task Lab 2.1","81","42110","85","yes","1024"
"95.34883720930233","95.34883720930233","496.43023255813955","496.43023255813955","#800080","legacy","legacy","legacy","0","incongruent","uniform","1","undefined","1","s","0","0","0","85","85","0","85","0","85","0","0","0","85","85","85","85","Sat Sep 26 10:50:02 2020","600","The main experiment item","yes","FlankerTaskLab.osexp","/Users/Arianna/Desktop","no","sans","no","18","no","white","no","yes","768","legacy","5","79","/Users/Arianna/Desktop/AG-subject-2.csv","legacy","Lentiform Loewenfeld","3.3.3","0","s","NA","h","h","NA","s","583","NA","8609","2194","NA","583","2","legacy","1024","2","48000","-16","experiment","HHSHH","2","even","12264","154734","NA","162701","80019","3614","155584","NA","163802","3628","152538","NA","163917","164502","163774","163917","Flanker Task Lab 2.1","82","42693","86","yes","1024"
"95.40229885057471","95.40229885057471","496.0919540229885","496.0919540229885","#800080","legacy","legacy","legacy","0","congruent","uniform","1","undefined","1","s","0","0","0","86","86","0","86","0","86","0","0","0","86","86","86","86","Sat Sep 26 10:50:02 2020","600","The main experiment item","yes","FlankerTaskLab.osexp","/Users/Arianna/Desktop","no","sans","no","18","no","white","no","yes","768","legacy","6","79","/Users/Arianna/Desktop/AG-subject-2.csv","legacy","Lentiform Loewenfeld","3.3.3","0","s","NA","h","h","NA","s","467","NA","8609","2194","NA","467","2","legacy","1024","2","48000","-16","experiment","SSSSS","2","even","12264","154734","NA","164528","80019","3614","155584","NA","165613","3628","152538","NA","165729","166198","165599","165729","Flanker Task Lab 2.1","83","43160","87","yes","1024"
"95.45454545454545","95.45454545454545","495.3636363636364","495.3636363636364","#800080","legacy","legacy","legacy","0","congruent","uniform","1","undefined","1","s","0","0","0","87","87","0","87","0","87","0","0","0","87","87","87","87","Sat Sep 26 10:50:02 2020","600","The main experiment item","yes","FlankerTaskLab.osexp","/Users/Arianna/Desktop","no","sans","no","18","no","white","no","yes","768","legacy","7","79","/Users/Arianna/Desktop/AG-subject-2.csv","legacy","Lentiform Loewenfeld","3.3.3","0","s","NA","h","h","NA","s","432","NA","8609","2194","NA","432","2","legacy","1024","2","48000","-16","experiment","SSSSS","2","even","12264","154734","NA","166224","80019","3614","155584","NA","167311","3628","152538","NA","167426","167860","167297","167426","Flanker Task Lab 2.1","84","43592","88","yes","1024"
"94.38202247191012","94.38202247191012","495.02247191011236","495.02247191011236","#800080","legacy","legacy","legacy","0","incongruent","uniform","0","undefined","0","s","0","0","0","88","88","0","88","0","88","0","0","0","88","88","88","88","Sat Sep 26 10:50:02 2020","600","The main experiment item","yes","FlankerTaskLab.osexp","/Users/Arianna/Desktop","no","sans","no","18","no","white","no","yes","768","legacy","8","79","/Users/Arianna/Desktop/AG-subject-2.csv","legacy","Lentiform Loewenfeld","3.3.3","0","h","NA","h","h","NA","h","465","NA","8609","2194","NA","465","2","legacy","1024","2","48000","-16","experiment","HHSHH","2","even","12264","154734","NA","167885","80019","3614","155584","NA","168970","3628","152538","NA","169086","169553","168957","169085","Flanker Task Lab 2.1","84","44057","89","yes","1024"
"94.44444444444444","94.44444444444444","494.5777777777778","494.5777777777778","#800080","legacy","legacy","legacy","0","congruent","uniform","1","undefined","1","h","0","0","0","89","89","0","89","0","89","0","0","0","89","89","89","89","Sat Sep 26 10:50:02 2020","600","The main experiment item","yes","FlankerTaskLab.osexp","/Users/Arianna/Desktop","no","sans","no","18","no","white","no","yes","768","legacy","9","79","/Users/Arianna/Desktop/AG-subject-2.csv","legacy","Lentiform Loewenfeld","3.3.3","0","h","NA","h","h","NA","h","455","NA","8609","2194","NA","455","2","legacy","1024","2","48000","-16","experiment","HHHHH","2","even","12264","154734","NA","170093","169579","3614","155584","NA","171180","3628","152538","NA","171295","171751","171167","171295","Flanker Task Lab 2.1","85","44512","90","yes","1024"
"94.50549450549451","94.50549450549451","493.9120879120879","493.9120879120879","#800080","legacy","legacy","legacy","0","congruent","uniform","1","undefined","1","h","0","0","0","90","90","0","90","0","90","0","0","0","90","90","90","90","Sat Sep 26 10:50:02 2020","600","The main experiment item","yes","FlankerTaskLab.osexp","/Users/Arianna/Desktop","no","sans","no","18","no","white","no","yes","768","legacy","10","79","/Users/Arianna/Desktop/AG-subject-2.csv","legacy","Lentiform Loewenfeld","3.3.3","0","h","NA","h","h","NA","h","434","NA","8609","2194","NA","434","2","legacy","1024","2","48000","-16","experiment","HHHHH","2","even","12264","154734","NA","171778","169579","3614","155584","NA","172863","3628","152538","NA","172979","173414","172849","172978","Flanker Task Lab 2.1","86","44946","91","yes","1024"
"94.56521739130434","94.56521739130434","493.64130434782606","493.64130434782606","#800080","legacy","legacy","legacy","0","incongruent","uniform","1","undefined","1","h","0","0","0","91","91","0","91","0","91","0","0","0","91","91","91","91","Sat Sep 26 10:50:02 2020","600","The main experiment item","yes","FlankerTaskLab.osexp","/Users/Arianna/Desktop","no","sans","no","18","no","white","no","yes","768","legacy","11","79","/Users/Arianna/Desktop/AG-subject-2.csv","legacy","Lentiform Loewenfeld","3.3.3","0","h","NA","h","h","NA","h","469","NA","8609","2194","NA","469","2","legacy","1024","2","48000","-16","experiment","SSHSS","2","even","12264","154734","NA","173429","169579","3614","155584","NA","174515","3628","152538","NA","174632","175103","174502","174631","Flanker Task Lab 2.1","87","45415","92","yes","1024"
"93.54838709677419","93.54838709677419","492.68817204301075","492.68817204301075","#800080","legacy","legacy","legacy","0","incongruent","uniform","0","undefined","0","h","0","0","0","92","92","0","92","0","92","0","0","0","92","92","92","92","Sat Sep 26 10:50:02 2020","600","The main experiment item","yes","FlankerTaskLab.osexp","/Users/Arianna/Desktop","no","sans","no","18","no","white","no","yes","768","legacy","12","79","/Users/Arianna/Desktop/AG-subject-2.csv","legacy","Lentiform Loewenfeld","3.3.3","0","s","NA","h","h","NA","s","405","NA","8609","2194","NA","405","2","legacy","1024","2","48000","-16","experiment","SSHSS","2","even","12264","154734","NA","175129","169579","3614","155584","NA","176218","3628","152538","NA","176333","176740","176205","176333","Flanker Task Lab 2.1","87","45820","93","yes","1024"
"93.61702127659575","93.61702127659575","493.40425531914894","493.40425531914894","#800080","legacy","legacy","legacy","0","incongruent","uniform","1","undefined","1","s","0","0","0","93","93","0","93","0","93","0","0","0","93","93","93","93","Sat Sep 26 10:50:02 2020","600","The main experiment item","yes","FlankerTaskLab.osexp","/Users/Arianna/Desktop","no","sans","no","18","no","white","no","yes","768","legacy","13","79","/Users/Arianna/Desktop/AG-subject-2.csv","legacy","Lentiform Loewenfeld","3.3.3","0","s","NA","h","h","NA","s","560","NA","8609","2194","NA","560","2","legacy","1024","2","48000","-16","experiment","HHSHH","2","even","12264","154734","NA","177280","176766","3614","155584","NA","178366","3628","152538","NA","178482","179044","178352","178482","Flanker Task Lab 2.1","88","46380","94","yes","1024"
"93.6842105263158","93.6842105263158","493.82105263157894","493.82105263157894","#800080","legacy","legacy","legacy","0","congruent","uniform","1","undefined","1","h","0","0","0","94","94","0","94","0","94","0","0","0","94","94","94","94","Sat Sep 26 10:50:02 2020","600","The main experiment item","yes","FlankerTaskLab.osexp","/Users/Arianna/Desktop","no","sans","no","18","no","white","no","yes","768","legacy","14","79","/Users/Arianna/Desktop/AG-subject-2.csv","legacy","Lentiform Loewenfeld","3.3.3","0","h","NA","h","h","NA","h","533","NA","8609","2194","NA","533","2","legacy","1024","2","48000","-16","experiment","HHHHH","2","even","12264","154734","NA","179070","176766","3614","155584","NA","180156","3628","152538","NA","180272","180807","180143","180271","Flanker Task Lab 2.1","89","46913","95","yes","1024"
"93.75","93.75","493.2604166666667","493.2604166666667","#800080","legacy","legacy","legacy","0","incongruent","uniform","1","undefined","1","h","0","0","0","95","95","0","95","0","95","0","0","0","95","95","95","95","Sat Sep 26 10:50:02 2020","600","The main experiment item","yes","FlankerTaskLab.osexp","/Users/Arianna/Desktop","no","sans","no","18","no","white","no","yes","768","legacy","15","79","/Users/Arianna/Desktop/AG-subject-2.csv","legacy","Lentiform Loewenfeld","3.3.3","0","h","NA","h","h","NA","h","440","NA","8609","2194","NA","440","2","legacy","1024","2","48000","-16","experiment","SSHSS","2","even","12264","154734","NA","180834","176766","3614","155584","NA","181919","3628","152538","NA","182034","182476","181906","182034","Flanker Task Lab 2.1","90","47353","96","yes","1024"
"93.81443298969072","93.81443298969072","492.7628865979381","492.7628865979381","#800080","legacy","legacy","legacy","0","congruent","uniform","1","undefined","1","h","0","0","0","96","96","0","96","0","96","0","0","0","96","96","96","96","Sat Sep 26 10:50:02 2020","600","The main experiment item","yes","FlankerTaskLab.osexp","/Users/Arianna/Desktop","no","sans","no","18","no","white","no","yes","768","legacy","16","79","/Users/Arianna/Desktop/AG-subject-2.csv","legacy","Lentiform Loewenfeld","3.3.3","0","h","NA","h","h","NA","h","445","NA","8609","2194","NA","445","2","legacy","1024","2","48000","-16","experiment","HHHHH","2","even","12264","154734","NA","182503","176766","3614","155584","NA","183588","3628","152538","NA","183703","184149","183575","183703","Flanker Task Lab 2.1","91","47798","97","yes","1024"
"93.87755102040816","93.87755102040816","492.03061224489795","492.03061224489795","#800080","legacy","legacy","legacy","0","congruent","uniform","1","undefined","1","s","0","0","0","97","97","0","97","0","97","0","0","0","97","97","97","97","Sat Sep 26 10:50:02 2020","600","The main experiment item","yes","FlankerTaskLab.osexp","/Users/Arianna/Desktop","no","sans","no","18","no","white","no","yes","768","legacy","17","79","/Users/Arianna/Desktop/AG-subject-2.csv","legacy","Lentiform Loewenfeld","3.3.3","0","s","NA","h","h","NA","s","421","NA","8609","2194","NA","421","2","legacy","1024","2","48000","-16","experiment","SSSSS","2","even","12264","154734","NA","184175","176766","3614","155584","NA","185261","3628","152538","NA","185377","185800","185248","185377","Flanker Task Lab 2.1","92","48219","98","yes","1024"
"93.93939393939394","93.93939393939394","491.6666666666667","491.6666666666667","#800080","legacy","legacy","legacy","0","incongruent","uniform","1","undefined","1","s","0","0","0","98","98","0","98","0","98","0","0","0","98","98","98","98","Sat Sep 26 10:50:02 2020","600","The main experiment item","yes","FlankerTaskLab.osexp","/Users/Arianna/Desktop","no","sans","no","18","no","white","no","yes","768","legacy","18","79","/Users/Arianna/Desktop/AG-subject-2.csv","legacy","Lentiform Loewenfeld","3.3.3","0","s","NA","h","h","NA","s","456","NA","8609","2194","NA","456","2","legacy","1024","2","48000","-16","experiment","HHSHH","2","even","12264","154734","NA","185824","176766","3614","155584","NA","186912","3628","152538","NA","187027","187485","186899","187027","Flanker Task Lab 2.1","93","48675","99","yes","1024"
"94","94","491.02","491.02","#800080","legacy","legacy","legacy","0","congruent","uniform","1","undefined","1","h","0","0","0","99","99","0","99","0","99","0","0","0","99","99","99","99","Sat Sep 26 10:50:02 2020","600","The main experiment item","yes","FlankerTaskLab.osexp","/Users/Arianna/Desktop","no","sans","no","18","no","white","no","yes","768","legacy","19","79","/Users/Arianna/Desktop/AG-subject-2.csv","legacy","Lentiform Loewenfeld","3.3.3","0","h","NA","h","h","NA","h","427","NA","8609","2194","NA","427","2","legacy","1024","2","48000","-16","experiment","HHHHH","2","even","12264","154734","NA","187512","176766","3614","155584","NA","188600","3628","152538","NA","188715","189144","188586","188715","Flanker Task Lab 2.1","94","49102","100","yes","1024"
"94.05940594059406","94.05940594059406","490.83168316831683","490.83168316831683","#800080","legacy","legacy","legacy","0","congruent","uniform","1","undefined","1","s","0","0","0","100","100","0","100","0","100","0","0","0","100","100","100","100","Sat Sep 26 10:50:02 2020","600","The main experiment item","yes","FlankerTaskLab.osexp","/Users/Arianna/Desktop","no","sans","no","18","no","white","no","yes","768","legacy","20","79","/Users/Arianna/Desktop/AG-subject-2.csv","legacy","Lentiform Loewenfeld","3.3.3","0","s","NA","h","h","NA","s","472","NA","8609","2194","NA","472","2","legacy","1024","2","48000","-16","experiment","SSSSS","2","even","12264","154734","NA","189171","176766","3614","155584","NA","190256","3628","152538","NA","190372","190846","190243","190372","Flanker Task Lab 2.1","95","49574","101","yes","1024"
"94.11764705882354","94.11764705882354","490.7156862745098","490.7156862745098","#800080","legacy","legacy","legacy","0","congruent","uniform","1","undefined","1","s","0","0","0","101","101","0","101","0","101","0","0","0","101","101","101","101","Sat Sep 26 10:50:02 2020","600","The main experiment item","yes","FlankerTaskLab.osexp","/Users/Arianna/Desktop","no","sans","no","18","no","white","no","yes","768","legacy","21","79","/Users/Arianna/Desktop/AG-subject-2.csv","legacy","Lentiform Loewenfeld","3.3.3","0","s","NA","h","h","NA","s","479","NA","8609","2194","NA","479","2","legacy","1024","2","48000","-16","experiment","SSSSS","2","even","12264","154734","NA","190873","176766","3614","155584","NA","191961","3628","152538","NA","192079","192561","191946","192078","Flanker Task Lab 2.1","96","50053","102","yes","1024"
"93.20388349514563","93.20388349514563","490.4466019417476","490.4466019417476","#800080","legacy","legacy","legacy","0","incongruent","uniform","0","undefined","0","s","0","0","0","102","102","0","102","0","102","0","0","0","102","102","102","102","Sat Sep 26 10:50:02 2020","600","The main experiment item","yes","FlankerTaskLab.osexp","/Users/Arianna/Desktop","no","sans","no","18","no","white","no","yes","768","legacy","22","79","/Users/Arianna/Desktop/AG-subject-2.csv","legacy","Lentiform Loewenfeld","3.3.3","0","h","NA","h","h","NA","h","463","NA","8609","2194","NA","463","2","legacy","1024","2","48000","-16","experiment","HHSHH","2","even","12264","154734","NA","192580","176766","3614","155584","NA","193666","3628","152538","NA","193782","194247","193652","193781","Flanker Task Lab 2.1","96","50516","103","yes","1024"
"93.26923076923077","93.26923076923077","492.7019230769231","492.7019230769231","#800080","legacy","legacy","legacy","0","incongruent","uniform","1","undefined","1","h","0","0","0","103","103","0","103","0","103","0","0","0","103","103","103","103","Sat Sep 26 10:50:02 2020","600","The main experiment item","yes","FlankerTaskLab.osexp","/Users/Arianna/Desktop","no","sans","no","18","no","white","no","yes","768","legacy","23","79","/Users/Arianna/Desktop/AG-subject-2.csv","legacy","Lentiform Loewenfeld","3.3.3","0","h","NA","h","h","NA","h","725","NA","8609","2194","NA","725","2","legacy","1024","2","48000","-16","experiment","SSHSS","2","even","12264","154734","NA","194788","194274","3614","155584","NA","195873","3628","152538","NA","195989","196716","195860","195989","Flanker Task Lab 2.1","97","51241","104","yes","1024"
"93.33333333333333","93.33333333333333","492.9428571428571","492.9428571428571","#800080","legacy","legacy","legacy","0","incongruent","uniform","1","undefined","1","s","0","0","0","104","104","0","104","0","104","0","0","0","104","104","104","104","Sat Sep 26 10:50:02 2020","600","The main experiment item","yes","FlankerTaskLab.osexp","/Users/Arianna/Desktop","no","sans","no","18","no","white","no","yes","768","legacy","24","79","/Users/Arianna/Desktop/AG-subject-2.csv","legacy","Lentiform Loewenfeld","3.3.3","0","s","NA","h","h","NA","s","518","NA","8609","2194","NA","518","2","legacy","1024","2","48000","-16","experiment","HHSHH","2","even","12264","154734","NA","197256","194274","3614","196742","NA","198340","3628","152538","NA","198455","198975","198327","198455","Flanker Task Lab 2.1","98","51759","105","yes","1024"
"93.39622641509433","93.39622641509433","491.8301886792453","491.8301886792453","#800080","legacy","legacy","legacy","0","congruent","uniform","1","undefined","1","s","0","0","0","105","105","0","105","0","105","0","0","0","105","105","105","105","Sat Sep 26 10:50:02 2020","600","The main experiment item","yes","FlankerTaskLab.osexp","/Users/Arianna/Desktop","no","sans","no","18","no","white","no","yes","768","legacy","25","79","/Users/Arianna/Desktop/AG-subject-2.csv","legacy","Lentiform Loewenfeld","3.3.3","0","s","NA","h","h","NA","s","375","NA","8609","2194","NA","375","2","legacy","1024","2","48000","-16","experiment","SSSSS","2","even","12264","154734","NA","199001","194274","3614","196742","NA","200087","3628","152538","NA","200202","200579","200074","200202","Flanker Task Lab 2.1","99","52134","106","yes","1024"
"93.45794392523365","93.45794392523365","493.8224299065421","493.8224299065421","#800080","legacy","legacy","legacy","0","incongruent","uniform","1","undefined","1","s","0","0","0","106","106","0","106","0","106","0","0","0","106","106","106","106","Sat Sep 26 10:50:02 2020","600","The main experiment item","yes","FlankerTaskLab.osexp","/Users/Arianna/Desktop","no","sans","no","18","no","white","no","yes","768","legacy","26","79","/Users/Arianna/Desktop/AG-subject-2.csv","legacy","Lentiform Loewenfeld","3.3.3","0","s","NA","h","h","NA","s","705","NA","8609","2194","NA","705","2","legacy","1024","2","48000","-16","experiment","HHSHH","2","even","12264","154734","NA","200606","194274","3614","196742","NA","201696","3628","152538","NA","201811","202518","201683","201811","Flanker Task Lab 2.1","100","52839","107","yes","1024"
"93.51851851851852","93.51851851851852","492.8425925925926","492.8425925925926","#800080","legacy","legacy","legacy","0","congruent","uniform","1","undefined","1","s","0","0","0","107","107","0","107","0","107","0","0","0","107","107","107","107","Sat Sep 26 10:50:02 2020","600","The main experiment item","yes","FlankerTaskLab.osexp","/Users/Arianna/Desktop","no","sans","no","18","no","white","no","yes","768","legacy","27","79","/Users/Arianna/Desktop/AG-subject-2.csv","legacy","Lentiform Loewenfeld","3.3.3","0","s","NA","h","h","NA","s","388","NA","8609","2194","NA","388","2","legacy","1024","2","48000","-16","experiment","SSSSS","2","even","12264","154734","NA","203058","194274","3614","202544","NA","204144","3628","152538","NA","204259","204649","204131","204259","Flanker Task Lab 2.1","101","53227","108","yes","1024"
"93.57798165137615","93.57798165137615","491.56880733944956","491.56880733944956","#800080","legacy","legacy","legacy","0","congruent","uniform","1","undefined","1","s","0","0","0","108","108","0","108","0","108","0","0","0","108","108","108","108","Sat Sep 26 10:50:02 2020","600","The main experiment item","yes","FlankerTaskLab.osexp","/Users/Arianna/Desktop","no","sans","no","18","no","white","no","yes","768","legacy","28","79","/Users/Arianna/Desktop/AG-subject-2.csv","legacy","Lentiform Loewenfeld","3.3.3","0","s","NA","h","h","NA","s","354","NA","8609","2194","NA","354","2","legacy","1024","2","48000","-16","experiment","SSSSS","2","even","12264","154734","NA","204664","194274","3614","202544","NA","205752","3628","152538","NA","205868","206224","205739","205867","Flanker Task Lab 2.1","102","53581","109","yes","1024"
"93.63636363636364","93.63636363636364","490.6636363636364","490.6636363636364","#800080","legacy","legacy","legacy","0","congruent","uniform","1","undefined","1","s","0","0","0","109","109","0","109","0","109","0","0","0","109","109","109","109","Sat Sep 26 10:50:02 2020","600","The main experiment item","yes","FlankerTaskLab.osexp","/Users/Arianna/Desktop","no","sans","no","18","no","white","no","yes","768","legacy","29","79","/Users/Arianna/Desktop/AG-subject-2.csv","legacy","Lentiform Loewenfeld","3.3.3","0","s","NA","h","h","NA","s","392","NA","8609","2194","NA","392","2","legacy","1024","2","48000","-16","experiment","SSSSS","2","even","12264","154734","NA","206251","194274","3614","202544","NA","207336","3628","152538","NA","207451","207845","207323","207451","Flanker Task Lab 2.1","103","53973","110","yes","1024"
"93.69369369369369","93.69369369369369","489.56756756756755","489.56756756756755","#800080","legacy","legacy","legacy","0","congruent","uniform","1","undefined","1","s","0","0","0","110","110","0","110","0","110","0","0","0","110","110","110","110","Sat Sep 26 10:50:02 2020","600","The main experiment item","yes","FlankerTaskLab.osexp","/Users/Arianna/Desktop","no","sans","no","18","no","white","no","yes","768","legacy","30","79","/Users/Arianna/Desktop/AG-subject-2.csv","legacy","Lentiform Loewenfeld","3.3.3","0","s","NA","h","h","NA","s","369","NA","8609","2194","NA","369","2","legacy","1024","2","48000","-16","experiment","SSSSS","2","even","12264","154734","NA","207872","194274","3614","202544","NA","208960","3628","152538","NA","209075","209446","208947","209075","Flanker Task Lab 2.1","104","54342","111","yes","1024"
"93.75","93.75","489.26785714285717","489.26785714285717","#800080","legacy","legacy","legacy","0","congruent","uniform","1","undefined","1","h","0","0","0","111","111","0","111","0","111","0","0","0","111","111","111","111","Sat Sep 26 10:50:02 2020","600","The main experiment item","yes","FlankerTaskLab.osexp","/Users/Arianna/Desktop","no","sans","no","18","no","white","no","yes","768","legacy","31","79","/Users/Arianna/Desktop/AG-subject-2.csv","legacy","Lentiform Loewenfeld","3.3.3","0","h","NA","h","h","NA","h","456","NA","8609","2194","NA","456","2","legacy","1024","2","48000","-16","experiment","HHHHH","2","even","12264","154734","NA","209473","194274","3614","202544","NA","210558","3628","152538","NA","210674","211132","210545","210673","Flanker Task Lab 2.1","105","54798","112","yes","1024"
"93.80530973451327","93.80530973451327","490.08849557522126","490.08849557522126","#800080","legacy","legacy","legacy","0","incongruent","uniform","1","undefined","1","s","0","0","0","112","112","0","112","0","112","0","0","0","112","112","112","112","Sat Sep 26 10:50:02 2020","600","The main experiment item","yes","FlankerTaskLab.osexp","/Users/Arianna/Desktop","no","sans","no","18","no","white","no","yes","768","legacy","32","79","/Users/Arianna/Desktop/AG-subject-2.csv","legacy","Lentiform Loewenfeld","3.3.3","0","s","NA","h","h","NA","s","582","NA","8609","2194","NA","582","2","legacy","1024","2","48000","-16","experiment","HHSHH","2","even","12264","154734","NA","211159","194274","3614","202544","NA","212246","3628","152538","NA","212362","212946","212233","212361","Flanker Task Lab 2.1","106","55380","113","yes","1024"
"92.98245614035088","92.98245614035088","489.5877192982456","489.5877192982456","#800080","legacy","legacy","legacy","0","incongruent","uniform","0","undefined","0","h","0","0","0","113","113","0","113","0","113","0","0","0","113","113","113","113","Sat Sep 26 10:50:02 2020","600","The main experiment item","yes","FlankerTaskLab.osexp","/Users/Arianna/Desktop","no","sans","no","18","no","white","no","yes","768","legacy","33","79","/Users/Arianna/Desktop/AG-subject-2.csv","legacy","Lentiform Loewenfeld","3.3.3","0","s","NA","h","h","NA","s","433","NA","8609","2194","NA","433","2","legacy","1024","2","48000","-16","experiment","SSHSS","2","even","12264","154734","NA","212973","194274","3614","202544","NA","214059","3628","152538","NA","214174","214609","214045","214174","Flanker Task Lab 2.1","106","55813","114","yes","1024"
"93.04347826086956","93.04347826086956","490.0695652173913","490.0695652173913","#800080","legacy","legacy","legacy","0","incongruent","uniform","1","undefined","1","h","0","0","0","114","114","0","114","0","114","0","0","0","114","114","114","114","Sat Sep 26 10:50:02 2020","600","The main experiment item","yes","FlankerTaskLab.osexp","/Users/Arianna/Desktop","no","sans","no","18","no","white","no","yes","768","legacy","34","79","/Users/Arianna/Desktop/AG-subject-2.csv","legacy","Lentiform Loewenfeld","3.3.3","0","h","NA","h","h","NA","h","545","NA","8609","2194","NA","545","2","legacy","1024","2","48000","-16","experiment","SSHSS","2","even","12264","154734","NA","215139","214625","3614","202544","NA","216225","3628","152538","NA","216341","216888","216212","216341","Flanker Task Lab 2.1","107","56358","115","yes","1024"
"92.24137931034483","92.24137931034483","489.30172413793105","489.30172413793105","#800080","legacy","legacy","legacy","0","incongruent","uniform","0","undefined","0","h","0","0","0","115","115","0","115","0","115","0","0","0","115","115","115","115","Sat Sep 26 10:50:02 2020","600","The main experiment item","yes","FlankerTaskLab.osexp","/Users/Arianna/Desktop","no","sans","no","18","no","white","no","yes","768","legacy","35","79","/Users/Arianna/Desktop/AG-subject-2.csv","legacy","Lentiform Loewenfeld","3.3.3","0","s","NA","h","h","NA","s","401","NA","8609","2194","NA","401","2","legacy","1024","2","48000","-16","experiment","SSHSS","2","even","12264","154734","NA","216904","214625","3614","202544","NA","217989","3628","152538","NA","218104","218506","217976","218104","Flanker Task Lab 2.1","107","56759","116","yes","1024"
"92.3076923076923","92.3076923076923","489.63247863247864","489.63247863247864","#800080","legacy","legacy","legacy","0","incongruent","uniform","1","undefined","1","s","0","0","0","116","116","0","116","0","116","0","0","0","116","116","116","116","Sat Sep 26 10:50:02 2020","600","The main experiment item","yes","FlankerTaskLab.osexp","/Users/Arianna/Desktop","no","sans","no","18","no","white","no","yes","768","legacy","36","79","/Users/Arianna/Desktop/AG-subject-2.csv","legacy","Lentiform Loewenfeld","3.3.3","0","s","NA","h","h","NA","s","528","NA","8609","2194","NA","528","2","legacy","1024","2","48000","-16","experiment","HHSHH","2","even","12264","154734","NA","219047","218533","3614","202544","NA","220134","3628","152538","NA","220249","220779","220120","220249","Flanker Task Lab 2.1","108","57287","117","yes","1024"
"92.37288135593221","92.37288135593221","491","491","#800080","legacy","legacy","legacy","0","incongruent","uniform","1","undefined","1","h","0","0","0","117","117","0","117","0","117","0","0","0","117","117","117","117","Sat Sep 26 10:50:02 2020","600","The main experiment item","yes","FlankerTaskLab.osexp","/Users/Arianna/Desktop","no","sans","no","18","no","white","no","yes","768","legacy","37","79","/Users/Arianna/Desktop/AG-subject-2.csv","legacy","Lentiform Loewenfeld","3.3.3","0","h","NA","h","h","NA","h","651","NA","8609","2194","NA","651","2","legacy","1024","2","48000","-16","experiment","SSHSS","2","even","12264","154734","NA","220806","218533","3614","202544","NA","221892","3628","152538","NA","222006","222659","221878","222006","Flanker Task Lab 2.1","109","57938","118","yes","1024"
"92.43697478991596","92.43697478991596","490.56302521008405","490.56302521008405","#800080","legacy","legacy","legacy","0","congruent","uniform","1","undefined","1","h","0","0","0","118","118","0","118","0","118","0","0","0","118","118","118","118","Sat Sep 26 10:50:02 2020","600","The main experiment item","yes","FlankerTaskLab.osexp","/Users/Arianna/Desktop","no","sans","no","18","no","white","no","yes","768","legacy","38","79","/Users/Arianna/Desktop/AG-subject-2.csv","legacy","Lentiform Loewenfeld","3.3.3","0","h","NA","h","h","NA","h","439","NA","8609","2194","NA","439","2","legacy","1024","2","48000","-16","experiment","HHHHH","2","even","12264","154734","NA","223189","218533","3614","222674","NA","224275","3628","152538","NA","224390","224831","224262","224390","Flanker Task Lab 2.1","110","58377","119","yes","1024"
"92.5","92.5","490.60833333333335","490.60833333333335","#800080","legacy","legacy","legacy","0","incongruent","uniform","1","undefined","1","s","0","0","0","119","119","0","119","0","119","0","0","0","119","119","119","119","Sat Sep 26 10:50:02 2020","600","The main experiment item","yes","FlankerTaskLab.osexp","/Users/Arianna/Desktop","no","sans","no","18","no","white","no","yes","768","legacy","39","79","/Users/Arianna/Desktop/AG-subject-2.csv","legacy","Lentiform Loewenfeld","3.3.3","0","s","NA","h","h","NA","s","496","NA","8609","2194","NA","496","2","legacy","1024","2","48000","-16","experiment","HHSHH","2","even","12264","154734","NA","224858","218533","3614","222674","NA","225944","3628","152538","NA","226060","226558","225931","226059","Flanker Task Lab 2.1","111","58873","120","yes","1024"
"92.56198347107438","92.56198347107438","490.7603305785124","490.7603305785124","#800080","legacy","legacy","legacy","0","incongruent","uniform","1","undefined","1","s","0","0","0","120","120","0","120","0","120","0","0","0","120","120","120","120","Sat Sep 26 10:50:02 2020","600","The main experiment item","yes","FlankerTaskLab.osexp","/Users/Arianna/Desktop","no","sans","no","18","no","white","no","yes","768","legacy","40","79","/Users/Arianna/Desktop/AG-subject-2.csv","legacy","Lentiform Loewenfeld","3.3.3","0","s","NA","h","h","NA","s","509","NA","8609","2194","NA","509","2","legacy","1024","2","48000","-16","experiment","HHSHH","2","even","12264","154734","NA","226585","218533","3614","222674","NA","227669","3628","152538","NA","227785","228296","227656","227785","Flanker Task Lab 2.1","112","59382","121","yes","1024"
"92.62295081967213","92.62295081967213","490.2704918032787","490.2704918032787","#800080","legacy","legacy","legacy","0","congruent","uniform","1","undefined","1","s","0","0","0","121","121","0","121","0","121","0","0","0","121","121","121","121","Sat Sep 26 10:50:02 2020","600","The main experiment item","yes","FlankerTaskLab.osexp","/Users/Arianna/Desktop","no","sans","no","18","no","white","no","yes","768","legacy","41","79","/Users/Arianna/Desktop/AG-subject-2.csv","legacy","Lentiform Loewenfeld","3.3.3","0","s","NA","h","h","NA","s","431","NA","8609","2194","NA","431","2","legacy","1024","2","48000","-16","experiment","SSSSS","2","even","12264","154734","NA","228322","218533","3614","222674","NA","229408","3628","152538","NA","229523","229956","229395","229523","Flanker Task Lab 2.1","113","59813","122","yes","1024"
