"acc","accuracy","average_response_time","avg_rt","background","canvas_backend","clock_backend","color_backend","compensation","condition","coordinates","correct","correct_instructions1","correct_keyboard_response","correct_response","count_ISI","count_block1","count_block2","count_block3","count_errorfeedback","count_experiment","count_faster","count_finish","count_fixation","count_instructions1","count_instructions2","count_instructions3","count_keyboard_response","count_ogger","count_sequence","count_stimulus","datetime","deadline","description","disable_garbage_collection","experiment_file","experiment_path","font_bold","font_family","font_italic","font_size","font_underline","foreground","form_clicks","fullscreen","height","keyboard_backend","live_row","live_row_block1","logfile","mouse_backend","opensesame_codename","opensesame_version","repeat_cycle","response","response_finish","response_instructions1","response_instructions2","response_instructions3","response_keyboard_response","response_time","response_time_finish","response_time_instructions1","response_time_instructions2","response_time_instructions3","response_time_keyboard_response","round_decimals","sampler_backend","sound_buf_size","sound_channels","sound_freq","sound_sample_size","start","stimulus","subject_nr","subject_parity","time_ISI","time_block1","time_block2","time_block3","time_errorfeedback","time_experiment","time_faster","time_finish","time_fixation","time_instructions1","time_instructions2","time_instructions3","time_keyboard_response","time_ogger","time_sequence","time_stimulus","title","total_correct","total_response_time","total_responses","uniform_coordinates","width"
"100","100","704","704","black","legacy","legacy","legacy","0","congruent","uniform","1","undefined","1","h","0","0","0","0","0","0","0","0","0","0","0","0","0","0","0","0","Sun Sep 27 13:13:47 2020","1500","The main experiment item","yes","ab-Flankertask.osexp","/Users/alisonbeason/Desktop/PSYC 5316/Lab 2.1","no","mono","no","18","no","white","no","yes","768","legacy","0","0","/Users/alisonbeason/Desktop/ab-subject-2.csv","legacy","Lentiform Loewenfeld","3.3.3","0","h","NA","s","NA","NA","h","704","NA","82104","NA","NA","704","2","legacy","1024","2","48000","-16","experiment","HHHHH","2","even","NA","85388","NA","NA","NA","3235","NA","NA","85459","3257","NA","NA","85578","86283","85441","85577","Flanker task","1","704","1","yes","1024"
"100","100","596.5","596.5","black","legacy","legacy","legacy","0","congruent","uniform","1","undefined","1","s","1","0","0","0","1","0","1","0","1","0","0","0","1","1","1","1","Sun Sep 27 13:13:47 2020","1500","The main experiment item","yes","ab-Flankertask.osexp","/Users/alisonbeason/Desktop/PSYC 5316/Lab 2.1","no","mono","no","18","no","white","no","yes","768","legacy","1","1","/Users/alisonbeason/Desktop/ab-subject-2.csv","legacy","Lentiform Loewenfeld","3.3.3","0","s","NA","s","NA","NA","s","489","NA","82104","NA","NA","489","2","legacy","1024","2","48000","-16","experiment","SSSSS","2","even","86298","85388","NA","NA","NA","3235","NA","NA","87391","3257","NA","NA","87509","87999","87372","87509","Flanker task","2","1193","2","yes","1024"
"100","100","640.6666666666666","640.6666666666666","black","legacy","legacy","legacy","0","incongruent","uniform","1","undefined","1","s","2","0","0","0","2","0","2","0","2","0","0","0","2","2","2","2","Sun Sep 27 13:13:47 2020","1500","The main experiment item","yes","ab-Flankertask.osexp","/Users/alisonbeason/Desktop/PSYC 5316/Lab 2.1","no","mono","no","18","no","white","no","yes","768","legacy","2","2","/Users/alisonbeason/Desktop/ab-subject-2.csv","legacy","Lentiform Loewenfeld","3.3.3","0","s","NA","s","NA","NA","s","729","NA","82104","NA","NA","729","2","legacy","1024","2","48000","-16","experiment","HHSHH","2","even","88019","85388","NA","NA","NA","3235","NA","NA","89085","3257","NA","NA","89203","89933","89071","89202","Flanker task","3","1922","3","yes","1024"
"100","100","667.25","667.25","black","legacy","legacy","legacy","0","incongruent","uniform","1","undefined","1","s","3","0","0","0","3","0","3","0","3","0","0","0","3","3","3","3","Sun Sep 27 13:13:47 2020","1500","The main experiment item","yes","ab-Flankertask.osexp","/Users/alisonbeason/Desktop/PSYC 5316/Lab 2.1","no","mono","no","18","no","white","no","yes","768","legacy","3","3","/Users/alisonbeason/Desktop/ab-subject-2.csv","legacy","Lentiform Loewenfeld","3.3.3","0","s","NA","s","NA","NA","s","747","NA","82104","NA","NA","747","2","legacy","1024","2","48000","-16","experiment","HHSHH","2","even","89952","85388","NA","NA","NA","3235","NA","NA","91025","3257","NA","NA","91140","91889","91008","91140","Flanker task","4","2669","4","yes","1024"
"100","100","662","662","black","legacy","legacy","legacy","0","incongruent","uniform","1","undefined","1","h","4","0","0","0","4","0","4","0","4","0","0","0","4","4","4","4","Sun Sep 27 13:13:47 2020","1500","The main experiment item","yes","ab-Flankertask.osexp","/Users/alisonbeason/Desktop/PSYC 5316/Lab 2.1","no","mono","no","18","no","white","no","yes","768","legacy","4","4","/Users/alisonbeason/Desktop/ab-subject-2.csv","legacy","Lentiform Loewenfeld","3.3.3","0","h","NA","s","NA","NA","h","641","NA","82104","NA","NA","641","2","legacy","1024","2","48000","-16","experiment","SSHSS","2","even","91908","85388","NA","NA","NA","3235","NA","NA","92983","3257","NA","NA","93099","93741","92965","93099","Flanker task","5","3310","5","yes","1024"
"100","100","648.3333333333334","648.3333333333334","black","legacy","legacy","legacy","0","congruent","uniform","1","undefined","1","h","5","0","0","0","5","0","5","0","5","0","0","0","5","5","5","5","Sun Sep 27 13:13:47 2020","1500","The main experiment item","yes","ab-Flankertask.osexp","/Users/alisonbeason/Desktop/PSYC 5316/Lab 2.1","no","mono","no","18","no","white","no","yes","768","legacy","5","5","/Users/alisonbeason/Desktop/ab-subject-2.csv","legacy","Lentiform Loewenfeld","3.3.3","0","h","NA","s","NA","NA","h","580","NA","82104","NA","NA","580","2","legacy","1024","2","48000","-16","experiment","HHHHH","2","even","93758","85388","NA","NA","NA","3235","NA","NA","94829","3257","NA","NA","94943","95524","94813","94943","Flanker task","6","3890","6","yes","1024"
"100","100","636.7142857142857","636.7142857142857","black","legacy","legacy","legacy","0","congruent","uniform","1","undefined","1","s","6","0","0","0","6","0","6","0","6","0","0","0","6","6","6","6","Sun Sep 27 13:13:47 2020","1500","The main experiment item","yes","ab-Flankertask.osexp","/Users/alisonbeason/Desktop/PSYC 5316/Lab 2.1","no","mono","no","18","no","white","no","yes","768","legacy","6","6","/Users/alisonbeason/Desktop/ab-subject-2.csv","legacy","Lentiform Loewenfeld","3.3.3","0","s","NA","s","NA","NA","s","567","NA","82104","NA","NA","567","2","legacy","1024","2","48000","-16","experiment","SSSSS","2","even","95542","85388","NA","NA","NA","3235","NA","NA","96625","3257","NA","NA","96744","97312","96606","96744","Flanker task","7","4457","7","yes","1024"
"100","100","628.25","628.25","black","legacy","legacy","legacy","0","incongruent","uniform","1","undefined","1","s","7","0","0","0","7","0","7","0","7","0","0","0","7","7","7","7","Sun Sep 27 13:13:47 2020","1500","The main experiment item","yes","ab-Flankertask.osexp","/Users/alisonbeason/Desktop/PSYC 5316/Lab 2.1","no","mono","no","18","no","white","no","yes","768","legacy","7","7","/Users/alisonbeason/Desktop/ab-subject-2.csv","legacy","Lentiform Loewenfeld","3.3.3","0","s","NA","s","NA","NA","s","569","NA","82104","NA","NA","569","2","legacy","1024","2","48000","-16","experiment","HHSHH","2","even","97332","85388","NA","NA","NA","3235","NA","NA","98415","3257","NA","NA","98534","99105","98396","98534","Flanker task","8","5026","8","yes","1024"
"100","100","626.2222222222222","626.2222222222222","black","legacy","legacy","legacy","0","congruent","uniform","1","undefined","1","h","8","0","0","0","8","0","8","0","8","0","0","0","8","8","8","8","Sun Sep 27 13:13:47 2020","1500","The main experiment item","yes","ab-Flankertask.osexp","/Users/alisonbeason/Desktop/PSYC 5316/Lab 2.1","no","mono","no","18","no","white","no","yes","768","legacy","8","8","/Users/alisonbeason/Desktop/ab-subject-2.csv","legacy","Lentiform Loewenfeld","3.3.3","0","h","NA","s","NA","NA","h","610","NA","82104","NA","NA","610","2","legacy","1024","2","48000","-16","experiment","HHHHH","2","even","99126","85388","NA","NA","NA","3235","NA","NA","100207","3257","NA","NA","100325","100936","100188","100325","Flanker task","9","5636","9","yes","1024"
"100","100","630.4","630.4","black","legacy","legacy","legacy","0","incongruent","uniform","1","undefined","1","s","9","0","0","0","9","0","9","0","9","0","0","0","9","9","9","9","Sun Sep 27 13:13:47 2020","1500","The main experiment item","yes","ab-Flankertask.osexp","/Users/alisonbeason/Desktop/PSYC 5316/Lab 2.1","no","mono","no","18","no","white","no","yes","768","legacy","9","9","/Users/alisonbeason/Desktop/ab-subject-2.csv","legacy","Lentiform Loewenfeld","3.3.3","0","s","NA","s","NA","NA","s","668","NA","82104","NA","NA","668","2","legacy","1024","2","48000","-16","experiment","HHSHH","2","even","100951","85388","NA","NA","NA","3235","NA","NA","102019","3257","NA","NA","102134","102803","102005","102134","Flanker task","10","6304","10","yes","1024"
"100","100","629.8181818181819","629.8181818181819","black","legacy","legacy","legacy","0","congruent","uniform","1","undefined","1","s","10","0","0","0","10","0","10","0","10","0","0","0","10","10","10","10","Sun Sep 27 13:13:47 2020","1500","The main experiment item","yes","ab-Flankertask.osexp","/Users/alisonbeason/Desktop/PSYC 5316/Lab 2.1","no","mono","no","18","no","white","no","yes","768","legacy","10","10","/Users/alisonbeason/Desktop/ab-subject-2.csv","legacy","Lentiform Loewenfeld","3.3.3","0","s","NA","s","NA","NA","s","624","NA","82104","NA","NA","624","2","legacy","1024","2","48000","-16","experiment","SSSSS","2","even","102819","85388","NA","NA","NA","3235","NA","NA","103901","3257","NA","NA","104022","104648","103881","104022","Flanker task","11","6928","11","yes","1024"
"100","100","634.9166666666666","634.9166666666666","black","legacy","legacy","legacy","0","incongruent","uniform","1","undefined","1","h","11","0","0","0","11","0","11","0","11","0","0","0","11","11","11","11","Sun Sep 27 13:13:47 2020","1500","The main experiment item","yes","ab-Flankertask.osexp","/Users/alisonbeason/Desktop/PSYC 5316/Lab 2.1","no","mono","no","18","no","white","no","yes","768","legacy","11","11","/Users/alisonbeason/Desktop/ab-subject-2.csv","legacy","Lentiform Loewenfeld","3.3.3","0","h","NA","s","NA","NA","h","691","NA","82104","NA","NA","691","2","legacy","1024","2","48000","-16","experiment","SSHSS","2","even","104669","85388","NA","NA","NA","3235","NA","NA","105747","3257","NA","NA","105868","106560","105730","105867","Flanker task","12","7619","12","yes","1024"
"100","100","629.4615384615385","629.4615384615385","black","legacy","legacy","legacy","0","congruent","uniform","1","undefined","1","s","12","0","0","0","12","0","12","0","12","0","0","0","12","12","12","12","Sun Sep 27 13:13:47 2020","1500","The main experiment item","yes","ab-Flankertask.osexp","/Users/alisonbeason/Desktop/PSYC 5316/Lab 2.1","no","mono","no","18","no","white","no","yes","768","legacy","12","12","/Users/alisonbeason/Desktop/ab-subject-2.csv","legacy","Lentiform Loewenfeld","3.3.3","0","s","NA","s","NA","NA","s","564","NA","82104","NA","NA","564","2","legacy","1024","2","48000","-16","experiment","SSSSS","2","even","106579","85388","NA","NA","NA","3235","NA","NA","107662","3257","NA","NA","107779","108344","107641","107779","Flanker task","13","8183","13","yes","1024"
"100","100","635.8571428571429","635.8571428571429","black","legacy","legacy","legacy","0","incongruent","uniform","1","undefined","1","s","13","0","0","0","13","0","13","0","13","0","0","0","13","13","13","13","Sun Sep 27 13:13:47 2020","1500","The main experiment item","yes","ab-Flankertask.osexp","/Users/alisonbeason/Desktop/PSYC 5316/Lab 2.1","no","mono","no","18","no","white","no","yes","768","legacy","13","13","/Users/alisonbeason/Desktop/ab-subject-2.csv","legacy","Lentiform Loewenfeld","3.3.3","0","s","NA","s","NA","NA","s","719","NA","82104","NA","NA","719","2","legacy","1024","2","48000","-16","experiment","HHSHH","2","even","108360","85388","NA","NA","NA","3235","NA","NA","109441","3257","NA","NA","109560","110281","109423","109559","Flanker task","14","8902","14","yes","1024"
"100","100","634.6","634.6","black","legacy","legacy","legacy","0","congruent","uniform","1","undefined","1","s","14","0","0","0","14","0","14","0","14","0","0","0","14","14","14","14","Sun Sep 27 13:13:47 2020","1500","The main experiment item","yes","ab-Flankertask.osexp","/Users/alisonbeason/Desktop/PSYC 5316/Lab 2.1","no","mono","no","18","no","white","no","yes","768","legacy","14","14","/Users/alisonbeason/Desktop/ab-subject-2.csv","legacy","Lentiform Loewenfeld","3.3.3","0","s","NA","s","NA","NA","s","617","NA","82104","NA","NA","617","2","legacy","1024","2","48000","-16","experiment","SSSSS","2","even","110303","85388","NA","NA","NA","3235","NA","NA","111384","3257","NA","NA","111504","112122","111366","111504","Flanker task","15","9519","15","yes","1024"
"100","100","644.875","644.875","black","legacy","legacy","legacy","0","incongruent","uniform","1","undefined","1","h","15","0","0","0","15","0","15","0","15","0","0","0","15","15","15","15","Sun Sep 27 13:13:47 2020","1500","The main experiment item","yes","ab-Flankertask.osexp","/Users/alisonbeason/Desktop/PSYC 5316/Lab 2.1","no","mono","no","18","no","white","no","yes","768","legacy","15","15","/Users/alisonbeason/Desktop/ab-subject-2.csv","legacy","Lentiform Loewenfeld","3.3.3","0","h","NA","s","NA","NA","h","799","NA","82104","NA","NA","799","2","legacy","1024","2","48000","-16","experiment","SSHSS","2","even","112144","85388","NA","NA","NA","3235","NA","NA","113228","3257","NA","NA","113347","114147","113208","113347","Flanker task","16","10318","16","yes","1024"
"100","100","645.9411764705883","645.9411764705883","black","legacy","legacy","legacy","0","incongruent","uniform","1","undefined","1","h","16","0","0","0","16","0","16","0","16","0","0","0","16","16","16","16","Sun Sep 27 13:13:47 2020","1500","The main experiment item","yes","ab-Flankertask.osexp","/Users/alisonbeason/Desktop/PSYC 5316/Lab 2.1","no","mono","no","18","no","white","no","yes","768","legacy","16","16","/Users/alisonbeason/Desktop/ab-subject-2.csv","legacy","Lentiform Loewenfeld","3.3.3","0","h","NA","s","NA","NA","h","663","NA","82104","NA","NA","663","2","legacy","1024","2","48000","-16","experiment","SSHSS","2","even","114163","85388","NA","NA","NA","3235","NA","NA","115229","3257","NA","NA","115344","116008","115214","115344","Flanker task","17","10981","17","yes","1024"
"100","100","655.5","655.5","black","legacy","legacy","legacy","0","incongruent","uniform","1","undefined","1","s","17","0","0","0","17","0","17","0","17","0","0","0","17","17","17","17","Sun Sep 27 13:13:47 2020","1500","The main experiment item","yes","ab-Flankertask.osexp","/Users/alisonbeason/Desktop/PSYC 5316/Lab 2.1","no","mono","no","18","no","white","no","yes","768","legacy","17","17","/Users/alisonbeason/Desktop/ab-subject-2.csv","legacy","Lentiform Loewenfeld","3.3.3","0","s","NA","s","NA","NA","s","818","NA","82104","NA","NA","818","2","legacy","1024","2","48000","-16","experiment","HHSHH","2","even","116031","85388","NA","NA","NA","3235","NA","NA","117101","3257","NA","NA","117216","118036","117083","117215","Flanker task","18","11799","18","yes","1024"
"100","100","655.2105263157895","655.2105263157895","black","legacy","legacy","legacy","0","incongruent","uniform","1","undefined","1","s","18","0","0","0","18","0","18","0","18","0","0","0","18","18","18","18","Sun Sep 27 13:13:47 2020","1500","The main experiment item","yes","ab-Flankertask.osexp","/Users/alisonbeason/Desktop/PSYC 5316/Lab 2.1","no","mono","no","18","no","white","no","yes","768","legacy","18","18","/Users/alisonbeason/Desktop/ab-subject-2.csv","legacy","Lentiform Loewenfeld","3.3.3","0","s","NA","s","NA","NA","s","650","NA","82104","NA","NA","650","2","legacy","1024","2","48000","-16","experiment","HHSHH","2","even","118055","85388","NA","NA","NA","3235","NA","NA","119130","3257","NA","NA","119250","119902","119111","119250","Flanker task","19","12449","19","yes","1024"
"100","100","660.45","660.45","black","legacy","legacy","legacy","0","incongruent","uniform","1","undefined","1","s","19","0","0","0","19","0","19","0","19","0","0","0","19","19","19","19","Sun Sep 27 13:13:47 2020","1500","The main experiment item","yes","ab-Flankertask.osexp","/Users/alisonbeason/Desktop/PSYC 5316/Lab 2.1","no","mono","no","18","no","white","no","yes","768","legacy","19","19","/Users/alisonbeason/Desktop/ab-subject-2.csv","legacy","Lentiform Loewenfeld","3.3.3","0","s","NA","s","NA","NA","s","760","NA","82104","NA","NA","760","2","legacy","1024","2","48000","-16","experiment","HHSHH","2","even","119922","85388","NA","NA","NA","3235","NA","NA","121001","3257","NA","NA","121121","121882","120984","121121","Flanker task","20","13209","20","yes","1024"
"100","100","656.6666666666666","656.6666666666666","black","legacy","legacy","legacy","0","congruent","uniform","1","undefined","1","s","20","0","0","0","20","0","20","0","20","0","0","0","20","20","20","20","Sun Sep 27 13:13:47 2020","1500","The main experiment item","yes","ab-Flankertask.osexp","/Users/alisonbeason/Desktop/PSYC 5316/Lab 2.1","no","mono","no","18","no","white","no","yes","768","legacy","20","20","/Users/alisonbeason/Desktop/ab-subject-2.csv","legacy","Lentiform Loewenfeld","3.3.3","0","s","NA","s","NA","NA","s","581","NA","82104","NA","NA","581","2","legacy","1024","2","48000","-16","experiment","SSSSS","2","even","121904","85388","NA","NA","NA","3235","NA","NA","122984","3257","NA","NA","123103","123685","122964","123102","Flanker task","21","13790","21","yes","1024"
"100","100","656.0909090909091","656.0909090909091","black","legacy","legacy","legacy","0","congruent","uniform","1","undefined","1","h","21","0","0","0","21","0","21","0","21","0","0","0","21","21","21","21","Sun Sep 27 13:13:47 2020","1500","The main experiment item","yes","ab-Flankertask.osexp","/Users/alisonbeason/Desktop/PSYC 5316/Lab 2.1","no","mono","no","18","no","white","no","yes","768","legacy","21","21","/Users/alisonbeason/Desktop/ab-subject-2.csv","legacy","Lentiform Loewenfeld","3.3.3","0","h","NA","s","NA","NA","h","644","NA","82104","NA","NA","644","2","legacy","1024","2","48000","-16","experiment","HHHHH","2","even","123707","85388","NA","NA","NA","3235","NA","NA","124790","3257","NA","NA","124909","125554","124771","124909","Flanker task","22","14434","22","yes","1024"
"100","100","667.0869565217391","667.0869565217391","black","legacy","legacy","legacy","0","incongruent","uniform","1","undefined","1","s","22","0","0","0","22","0","22","0","22","0","0","0","22","22","22","22","Sun Sep 27 13:13:47 2020","1500","The main experiment item","yes","ab-Flankertask.osexp","/Users/alisonbeason/Desktop/PSYC 5316/Lab 2.1","no","mono","no","18","no","white","no","yes","768","legacy","22","22","/Users/alisonbeason/Desktop/ab-subject-2.csv","legacy","Lentiform Loewenfeld","3.3.3","0","s","NA","s","NA","NA","s","909","NA","82104","NA","NA","909","2","legacy","1024","2","48000","-16","experiment","HHSHH","2","even","125574","85388","NA","NA","NA","3235","NA","NA","126654","3257","NA","NA","126772","127682","126635","126772","Flanker task","23","15343","23","yes","1024"
"100","100","663.2916666666666","663.2916666666666","black","legacy","legacy","legacy","0","congruent","uniform","1","undefined","1","h","23","0","0","0","23","0","23","0","23","0","0","0","23","23","23","23","Sun Sep 27 13:13:47 2020","1500","The main experiment item","yes","ab-Flankertask.osexp","/Users/alisonbeason/Desktop/PSYC 5316/Lab 2.1","no","mono","no","18","no","white","no","yes","768","legacy","23","23","/Users/alisonbeason/Desktop/ab-subject-2.csv","legacy","Lentiform Loewenfeld","3.3.3","0","h","NA","s","NA","NA","h","576","NA","82104","NA","NA","576","2","legacy","1024","2","48000","-16","experiment","HHHHH","2","even","127705","85388","NA","NA","NA","3235","NA","NA","128787","3257","NA","NA","128907","129485","128767","128907","Flanker task","24","15919","24","yes","1024"
"100","100","663.44","663.44","black","legacy","legacy","legacy","0","congruent","uniform","1","undefined","1","s","24","0","0","0","24","0","24","0","24","0","0","0","24","24","24","24","Sun Sep 27 13:13:47 2020","1500","The main experiment item","yes","ab-Flankertask.osexp","/Users/alisonbeason/Desktop/PSYC 5316/Lab 2.1","no","mono","no","18","no","white","no","yes","768","legacy","24","24","/Users/alisonbeason/Desktop/ab-subject-2.csv","legacy","Lentiform Loewenfeld","3.3.3","0","s","NA","s","NA","NA","s","667","NA","82104","NA","NA","667","2","legacy","1024","2","48000","-16","experiment","SSSSS","2","even","129506","85388","NA","NA","NA","3235","NA","NA","130585","3257","NA","NA","130706","131374","130566","130706","Flanker task","25","16586","25","yes","1024"
"100","100","660.8846153846154","660.8846153846154","black","legacy","legacy","legacy","0","congruent","uniform","1","undefined","1","h","25","0","0","0","25","0","25","0","25","0","0","0","25","25","25","25","Sun Sep 27 13:13:47 2020","1500","The main experiment item","yes","ab-Flankertask.osexp","/Users/alisonbeason/Desktop/PSYC 5316/Lab 2.1","no","mono","no","18","no","white","no","yes","768","legacy","25","25","/Users/alisonbeason/Desktop/ab-subject-2.csv","legacy","Lentiform Loewenfeld","3.3.3","0","h","NA","s","NA","NA","h","597","NA","82104","NA","NA","597","2","legacy","1024","2","48000","-16","experiment","HHHHH","2","even","131397","85388","NA","NA","NA","3235","NA","NA","132480","3257","NA","NA","132600","133199","132460","132600","Flanker task","26","17183","26","yes","1024"
"100","100","656.6666666666666","656.6666666666666","black","legacy","legacy","legacy","0","congruent","uniform","1","undefined","1","h","26","0","0","0","26","0","26","0","26","0","0","0","26","26","26","26","Sun Sep 27 13:13:47 2020","1500","The main experiment item","yes","ab-Flankertask.osexp","/Users/alisonbeason/Desktop/PSYC 5316/Lab 2.1","no","mono","no","18","no","white","no","yes","768","legacy","26","26","/Users/alisonbeason/Desktop/ab-subject-2.csv","legacy","Lentiform Loewenfeld","3.3.3","0","h","NA","s","NA","NA","h","547","NA","82104","NA","NA","547","2","legacy","1024","2","48000","-16","experiment","HHHHH","2","even","133222","85388","NA","NA","NA","3235","NA","NA","134304","3257","NA","NA","134425","134973","134285","134425","Flanker task","27","17730","27","yes","1024"
"100","100","659.0714285714286","659.0714285714286","black","legacy","legacy","legacy","0","congruent","uniform","1","undefined","1","s","27","0","0","0","27","0","27","0","27","0","0","0","27","27","27","27","Sun Sep 27 13:13:47 2020","1500","The main experiment item","yes","ab-Flankertask.osexp","/Users/alisonbeason/Desktop/PSYC 5316/Lab 2.1","no","mono","no","18","no","white","no","yes","768","legacy","27","27","/Users/alisonbeason/Desktop/ab-subject-2.csv","legacy","Lentiform Loewenfeld","3.3.3","0","s","NA","s","NA","NA","s","724","NA","82104","NA","NA","724","2","legacy","1024","2","48000","-16","experiment","SSSSS","2","even","134995","85388","NA","NA","NA","3235","NA","NA","136077","3257","NA","NA","136197","136923","136057","136197","Flanker task","28","18454","28","yes","1024"
"100","100","656.7241379310345","656.7241379310345","black","legacy","legacy","legacy","0","congruent","uniform","1","undefined","1","s","28","0","0","0","28","0","28","0","28","0","0","0","28","28","28","28","Sun Sep 27 13:13:47 2020","1500","The main experiment item","yes","ab-Flankertask.osexp","/Users/alisonbeason/Desktop/PSYC 5316/Lab 2.1","no","mono","no","18","no","white","no","yes","768","legacy","28","28","/Users/alisonbeason/Desktop/ab-subject-2.csv","legacy","Lentiform Loewenfeld","3.3.3","0","s","NA","s","NA","NA","s","591","NA","82104","NA","NA","591","2","legacy","1024","2","48000","-16","experiment","SSSSS","2","even","136945","85388","NA","NA","NA","3235","NA","NA","138022","3257","NA","NA","138142","138734","138002","138142","Flanker task","29","19045","29","yes","1024"
"100","100","662.7333333333333","662.7333333333333","black","legacy","legacy","legacy","0","incongruent","uniform","1","undefined","1","s","29","0","0","0","29","0","29","0","29","0","0","0","29","29","29","29","Sun Sep 27 13:13:47 2020","1500","The main experiment item","yes","ab-Flankertask.osexp","/Users/alisonbeason/Desktop/PSYC 5316/Lab 2.1","no","mono","no","18","no","white","no","yes","768","legacy","29","29","/Users/alisonbeason/Desktop/ab-subject-2.csv","legacy","Lentiform Loewenfeld","3.3.3","0","s","NA","s","NA","NA","s","837","NA","82104","NA","NA","837","2","legacy","1024","2","48000","-16","experiment","HHSHH","2","even","138752","85388","NA","NA","NA","3235","NA","NA","139832","3257","NA","NA","139951","140790","139812","139951","Flanker task","30","19882","30","yes","1024"
"100","100","661.5806451612904","661.5806451612904","black","legacy","legacy","legacy","0","incongruent","uniform","1","undefined","1","s","30","0","0","0","30","0","30","0","30","0","0","0","30","30","30","30","Sun Sep 27 13:13:47 2020","1500","The main experiment item","yes","ab-Flankertask.osexp","/Users/alisonbeason/Desktop/PSYC 5316/Lab 2.1","no","mono","no","18","no","white","no","yes","768","legacy","30","30","/Users/alisonbeason/Desktop/ab-subject-2.csv","legacy","Lentiform Loewenfeld","3.3.3","0","s","NA","s","NA","NA","s","627","NA","82104","NA","NA","627","2","legacy","1024","2","48000","-16","experiment","HHSHH","2","even","140810","85388","NA","NA","NA","3235","NA","NA","141895","3257","NA","NA","142011","142639","141874","142011","Flanker task","31","20509","31","yes","1024"
"100","100","663.96875","663.96875","black","legacy","legacy","legacy","0","incongruent","uniform","1","undefined","1","s","31","0","0","0","31","0","31","0","31","0","0","0","31","31","31","31","Sun Sep 27 13:13:47 2020","1500","The main experiment item","yes","ab-Flankertask.osexp","/Users/alisonbeason/Desktop/PSYC 5316/Lab 2.1","no","mono","no","18","no","white","no","yes","768","legacy","31","31","/Users/alisonbeason/Desktop/ab-subject-2.csv","legacy","Lentiform Loewenfeld","3.3.3","0","s","NA","s","NA","NA","s","738","NA","82104","NA","NA","738","2","legacy","1024","2","48000","-16","experiment","HHSHH","2","even","142662","85388","NA","NA","NA","3235","NA","NA","143745","3257","NA","NA","143866","144605","143725","143865","Flanker task","32","21247","32","yes","1024"
"100","100","664.6969696969697","664.6969696969697","black","legacy","legacy","legacy","0","congruent","uniform","1","undefined","1","h","32","0","0","0","32","0","32","0","32","0","0","0","32","32","32","32","Sun Sep 27 13:13:47 2020","1500","The main experiment item","yes","ab-Flankertask.osexp","/Users/alisonbeason/Desktop/PSYC 5316/Lab 2.1","no","mono","no","18","no","white","no","yes","768","legacy","32","32","/Users/alisonbeason/Desktop/ab-subject-2.csv","legacy","Lentiform Loewenfeld","3.3.3","0","h","NA","s","NA","NA","h","688","NA","82104","NA","NA","688","2","legacy","1024","2","48000","-16","experiment","HHHHH","2","even","144620","85388","NA","NA","NA","3235","NA","NA","145698","3257","NA","NA","145816","146505","145680","145816","Flanker task","33","21935","33","yes","1024"
"100","100","661.1470588235294","661.1470588235294","black","legacy","legacy","legacy","0","incongruent","uniform","1","undefined","1","s","33","0","0","0","33","0","33","0","33","0","0","0","33","33","33","33","Sun Sep 27 13:13:47 2020","1500","The main experiment item","yes","ab-Flankertask.osexp","/Users/alisonbeason/Desktop/PSYC 5316/Lab 2.1","no","mono","no","18","no","white","no","yes","768","legacy","33","33","/Users/alisonbeason/Desktop/ab-subject-2.csv","legacy","Lentiform Loewenfeld","3.3.3","0","s","NA","s","NA","NA","s","544","NA","82104","NA","NA","544","2","legacy","1024","2","48000","-16","experiment","HHSHH","2","even","146523","85388","NA","NA","NA","3235","NA","NA","147600","3257","NA","NA","147718","148263","147583","147718","Flanker task","34","22479","34","yes","1024"
"100","100","659.3714285714286","659.3714285714286","black","legacy","legacy","legacy","0","congruent","uniform","1","undefined","1","s","34","0","0","0","34","0","34","0","34","0","0","0","34","34","34","34","Sun Sep 27 13:13:47 2020","1500","The main experiment item","yes","ab-Flankertask.osexp","/Users/alisonbeason/Desktop/PSYC 5316/Lab 2.1","no","mono","no","18","no","white","no","yes","768","legacy","34","34","/Users/alisonbeason/Desktop/ab-subject-2.csv","legacy","Lentiform Loewenfeld","3.3.3","0","s","NA","s","NA","NA","s","599","NA","82104","NA","NA","599","2","legacy","1024","2","48000","-16","experiment","SSSSS","2","even","148281","85388","NA","NA","NA","3235","NA","NA","149358","3257","NA","NA","149476","150076","149340","149476","Flanker task","35","23078","35","yes","1024"
"100","100","657.2777777777778","657.2777777777778","black","legacy","legacy","legacy","0","congruent","uniform","1","undefined","1","h","35","0","0","0","35","0","35","0","35","0","0","0","35","35","35","35","Sun Sep 27 13:13:47 2020","1500","The main experiment item","yes","ab-Flankertask.osexp","/Users/alisonbeason/Desktop/PSYC 5316/Lab 2.1","no","mono","no","18","no","white","no","yes","768","legacy","35","35","/Users/alisonbeason/Desktop/ab-subject-2.csv","legacy","Lentiform Loewenfeld","3.3.3","0","h","NA","s","NA","NA","h","584","NA","82104","NA","NA","584","2","legacy","1024","2","48000","-16","experiment","HHHHH","2","even","150093","85388","NA","NA","NA","3235","NA","NA","151162","3257","NA","NA","151277","151862","151145","151277","Flanker task","36","23662","36","yes","1024"
"100","100","656","656","black","legacy","legacy","legacy","0","incongruent","uniform","1","undefined","1","h","36","0","0","0","36","0","36","0","36","0","0","0","36","36","36","36","Sun Sep 27 13:13:47 2020","1500","The main experiment item","yes","ab-Flankertask.osexp","/Users/alisonbeason/Desktop/PSYC 5316/Lab 2.1","no","mono","no","18","no","white","no","yes","768","legacy","36","36","/Users/alisonbeason/Desktop/ab-subject-2.csv","legacy","Lentiform Loewenfeld","3.3.3","0","h","NA","s","NA","NA","h","610","NA","82104","NA","NA","610","2","legacy","1024","2","48000","-16","experiment","SSHSS","2","even","151877","85388","NA","NA","NA","3235","NA","NA","152961","3257","NA","NA","153082","153693","152941","153082","Flanker task","37","24272","37","yes","1024"
"100","100","654.078947368421","654.078947368421","black","legacy","legacy","legacy","0","incongruent","uniform","1","undefined","1","s","37","0","0","0","37","0","37","0","37","0","0","0","37","37","37","37","Sun Sep 27 13:13:47 2020","1500","The main experiment item","yes","ab-Flankertask.osexp","/Users/alisonbeason/Desktop/PSYC 5316/Lab 2.1","no","mono","no","18","no","white","no","yes","768","legacy","37","37","/Users/alisonbeason/Desktop/ab-subject-2.csv","legacy","Lentiform Loewenfeld","3.3.3","0","s","NA","s","NA","NA","s","583","NA","82104","NA","NA","583","2","legacy","1024","2","48000","-16","experiment","HHSHH","2","even","153715","85388","NA","NA","NA","3235","NA","NA","154798","3257","NA","NA","154919","155503","154778","154919","Flanker task","38","24855","38","yes","1024"
"100","100","652.9230769230769","652.9230769230769","black","legacy","legacy","legacy","0","incongruent","uniform","1","undefined","1","h","38","0","0","0","38","0","38","0","38","0","0","0","38","38","38","38","Sun Sep 27 13:13:47 2020","1500","The main experiment item","yes","ab-Flankertask.osexp","/Users/alisonbeason/Desktop/PSYC 5316/Lab 2.1","no","mono","no","18","no","white","no","yes","768","legacy","38","38","/Users/alisonbeason/Desktop/ab-subject-2.csv","legacy","Lentiform Loewenfeld","3.3.3","0","h","NA","s","NA","NA","h","609","NA","82104","NA","NA","609","2","legacy","1024","2","48000","-16","experiment","SSHSS","2","even","155521","85388","NA","NA","NA","3235","NA","NA","156601","3257","NA","NA","156722","157332","156581","156721","Flanker task","39","25464","39","yes","1024"
"100","100","651.05","651.05","black","legacy","legacy","legacy","0","incongruent","uniform","1","undefined","1","h","39","0","0","0","39","0","39","0","39","0","0","0","39","39","39","39","Sun Sep 27 13:13:47 2020","1500","The main experiment item","yes","ab-Flankertask.osexp","/Users/alisonbeason/Desktop/PSYC 5316/Lab 2.1","no","mono","no","18","no","white","no","yes","768","legacy","39","39","/Users/alisonbeason/Desktop/ab-subject-2.csv","legacy","Lentiform Loewenfeld","3.3.3","0","h","NA","s","NA","NA","h","578","NA","82104","NA","NA","578","2","legacy","1024","2","48000","-16","experiment","SSHSS","2","even","157354","85388","NA","NA","NA","3235","NA","NA","158434","3257","NA","NA","158552","159131","158414","158552","Flanker task","40","26042","40","yes","1024"
"100","100","655.829268292683","655.829268292683","black","legacy","legacy","legacy","0","incongruent","uniform","1","undefined","1","h","40","0","0","0","40","0","40","0","40","0","0","0","40","40","40","40","Sun Sep 27 13:13:47 2020","1500","The main experiment item","yes","ab-Flankertask.osexp","/Users/alisonbeason/Desktop/PSYC 5316/Lab 2.1","no","mono","no","18","no","white","no","yes","768","legacy","40","40","/Users/alisonbeason/Desktop/ab-subject-2.csv","legacy","Lentiform Loewenfeld","3.3.3","0","h","NA","s","NA","NA","h","847","NA","82104","NA","NA","847","2","legacy","1024","2","48000","-16","experiment","SSHSS","2","even","159155","85388","NA","NA","NA","3235","NA","NA","160236","3257","NA","NA","160356","161204","160217","160356","Flanker task","41","26889","41","yes","1024"
"100","100","657.9047619047619","657.9047619047619","black","legacy","legacy","legacy","0","congruent","uniform","1","undefined","1","s","41","0","0","0","41","0","41","0","41","0","0","0","41","41","41","41","Sun Sep 27 13:13:47 2020","1500","The main experiment item","yes","ab-Flankertask.osexp","/Users/alisonbeason/Desktop/PSYC 5316/Lab 2.1","no","mono","no","18","no","white","no","yes","768","legacy","41","41","/Users/alisonbeason/Desktop/ab-subject-2.csv","legacy","Lentiform Loewenfeld","3.3.3","0","s","NA","s","NA","NA","s","743","NA","82104","NA","NA","743","2","legacy","1024","2","48000","-16","experiment","SSSSS","2","even","161226","85388","NA","NA","NA","3235","NA","NA","162309","3257","NA","NA","162430","163174","162289","162429","Flanker task","42","27632","42","yes","1024"
"100","100","659.0930232558139","659.0930232558139","black","legacy","legacy","legacy","0","congruent","uniform","1","undefined","1","s","42","0","0","0","42","0","42","0","42","0","0","0","42","42","42","42","Sun Sep 27 13:13:47 2020","1500","The main experiment item","yes","ab-Flankertask.osexp","/Users/alisonbeason/Desktop/PSYC 5316/Lab 2.1","no","mono","no","18","no","white","no","yes","768","legacy","42","42","/Users/alisonbeason/Desktop/ab-subject-2.csv","legacy","Lentiform Loewenfeld","3.3.3","0","s","NA","s","NA","NA","s","709","NA","82104","NA","NA","709","2","legacy","1024","2","48000","-16","experiment","SSSSS","2","even","163196","85388","NA","NA","NA","3235","NA","NA","164280","3257","NA","NA","164398","165108","164259","164398","Flanker task","43","28341","43","yes","1024"
"100","100","657.6590909090909","657.6590909090909","black","legacy","legacy","legacy","0","congruent","uniform","1","undefined","1","h","43","0","0","0","43","0","43","0","43","0","0","0","43","43","43","43","Sun Sep 27 13:13:47 2020","1500","The main experiment item","yes","ab-Flankertask.osexp","/Users/alisonbeason/Desktop/PSYC 5316/Lab 2.1","no","mono","no","18","no","white","no","yes","768","legacy","43","43","/Users/alisonbeason/Desktop/ab-subject-2.csv","legacy","Lentiform Loewenfeld","3.3.3","0","h","NA","s","NA","NA","h","596","NA","82104","NA","NA","596","2","legacy","1024","2","48000","-16","experiment","HHHHH","2","even","165126","85388","NA","NA","NA","3235","NA","NA","166196","3257","NA","NA","166311","166908","166181","166310","Flanker task","44","28937","44","yes","1024"
"100","100","660.4222222222222","660.4222222222222","black","legacy","legacy","legacy","0","congruent","uniform","1","undefined","1","h","44","0","0","0","44","0","44","0","44","0","0","0","44","44","44","44","Sun Sep 27 13:13:47 2020","1500","The main experiment item","yes","ab-Flankertask.osexp","/Users/alisonbeason/Desktop/PSYC 5316/Lab 2.1","no","mono","no","18","no","white","no","yes","768","legacy","44","44","/Users/alisonbeason/Desktop/ab-subject-2.csv","legacy","Lentiform Loewenfeld","3.3.3","0","h","NA","s","NA","NA","h","782","NA","82104","NA","NA","782","2","legacy","1024","2","48000","-16","experiment","HHHHH","2","even","166923","85388","NA","NA","NA","3235","NA","NA","167990","3257","NA","NA","168105","168888","167975","168105","Flanker task","45","29719","45","yes","1024"
"100","100","662.8913043478261","662.8913043478261","black","legacy","legacy","legacy","0","congruent","uniform","1","undefined","1","h","45","0","0","0","45","0","45","0","45","0","0","0","45","45","45","45","Sun Sep 27 13:13:47 2020","1500","The main experiment item","yes","ab-Flankertask.osexp","/Users/alisonbeason/Desktop/PSYC 5316/Lab 2.1","no","mono","no","18","no","white","no","yes","768","legacy","45","45","/Users/alisonbeason/Desktop/ab-subject-2.csv","legacy","Lentiform Loewenfeld","3.3.3","0","h","NA","s","NA","NA","h","774","NA","82104","NA","NA","774","2","legacy","1024","2","48000","-16","experiment","HHHHH","2","even","168904","85388","NA","NA","NA","3235","NA","NA","169974","3257","NA","NA","170092","170867","169957","170092","Flanker task","46","30493","46","yes","1024"
"100","100","666.7872340425532","666.7872340425532","black","legacy","legacy","legacy","0","congruent","uniform","1","undefined","1","s","46","0","0","0","46","0","46","0","46","0","0","0","46","46","46","46","Sun Sep 27 13:13:47 2020","1500","The main experiment item","yes","ab-Flankertask.osexp","/Users/alisonbeason/Desktop/PSYC 5316/Lab 2.1","no","mono","no","18","no","white","no","yes","768","legacy","46","46","/Users/alisonbeason/Desktop/ab-subject-2.csv","legacy","Lentiform Loewenfeld","3.3.3","0","s","NA","s","NA","NA","s","846","NA","82104","NA","NA","846","2","legacy","1024","2","48000","-16","experiment","SSSSS","2","even","170890","85388","NA","NA","NA","3235","NA","NA","171974","3257","NA","NA","172094","172942","171953","172094","Flanker task","47","31339","47","yes","1024"
"100","100","669.8125","669.8125","black","legacy","legacy","legacy","0","congruent","uniform","1","undefined","1","h","47","0","0","0","47","0","47","0","47","0","0","0","47","47","47","47","Sun Sep 27 13:13:47 2020","1500","The main experiment item","yes","ab-Flankertask.osexp","/Users/alisonbeason/Desktop/PSYC 5316/Lab 2.1","no","mono","no","18","no","white","no","yes","768","legacy","47","47","/Users/alisonbeason/Desktop/ab-subject-2.csv","legacy","Lentiform Loewenfeld","3.3.3","0","h","NA","s","NA","NA","h","812","NA","82104","NA","NA","812","2","legacy","1024","2","48000","-16","experiment","HHHHH","2","even","172957","85388","NA","NA","NA","3235","NA","NA","174023","3257","NA","NA","174138","174951","174008","174138","Flanker task","48","32151","48","yes","1024"
"100","100","665.0408163265306","665.0408163265306","black","legacy","legacy","legacy","0","congruent","uniform","1","undefined","1","s","48","0","0","0","48","0","48","0","48","0","0","0","48","48","48","48","Sun Sep 27 13:13:47 2020","1500","The main experiment item","yes","ab-Flankertask.osexp","/Users/alisonbeason/Desktop/PSYC 5316/Lab 2.1","no","mono","no","18","no","white","no","yes","768","legacy","48","48","/Users/alisonbeason/Desktop/ab-subject-2.csv","legacy","Lentiform Loewenfeld","3.3.3","0","s","NA","s","NA","NA","s","436","NA","82104","NA","NA","436","2","legacy","1024","2","48000","-16","experiment","SSSSS","2","even","174966","85388","NA","NA","NA","3235","NA","NA","176033","3257","NA","NA","176149","176586","176018","176149","Flanker task","49","32587","49","yes","1024"
"100","100","662.4","662.4","black","legacy","legacy","legacy","0","incongruent","uniform","1","undefined","1","h","49","0","0","0","49","0","49","0","49","0","0","0","49","49","49","49","Sun Sep 27 13:13:47 2020","1500","The main experiment item","yes","ab-Flankertask.osexp","/Users/alisonbeason/Desktop/PSYC 5316/Lab 2.1","no","mono","no","18","no","white","no","yes","768","legacy","49","49","/Users/alisonbeason/Desktop/ab-subject-2.csv","legacy","Lentiform Loewenfeld","3.3.3","0","h","NA","s","NA","NA","h","533","NA","82104","NA","NA","533","2","legacy","1024","2","48000","-16","experiment","SSHSS","2","even","176604","85388","NA","NA","NA","3235","NA","NA","177684","3257","NA","NA","177803","178337","177664","177803","Flanker task","50","33120","50","yes","1024"
"100","100","660.6666666666666","660.6666666666666","black","legacy","legacy","legacy","0","incongruent","uniform","1","undefined","1","h","50","0","0","0","50","0","50","0","50","0","0","0","50","50","50","50","Sun Sep 27 13:13:47 2020","1500","The main experiment item","yes","ab-Flankertask.osexp","/Users/alisonbeason/Desktop/PSYC 5316/Lab 2.1","no","mono","no","18","no","white","no","yes","768","legacy","50","50","/Users/alisonbeason/Desktop/ab-subject-2.csv","legacy","Lentiform Loewenfeld","3.3.3","0","h","NA","s","NA","NA","h","574","NA","82104","NA","NA","574","2","legacy","1024","2","48000","-16","experiment","SSHSS","2","even","178352","85388","NA","NA","NA","3235","NA","NA","179423","3257","NA","NA","179538","180113","179406","179538","Flanker task","51","33694","51","yes","1024"
"100","100","663.9038461538462","663.9038461538462","black","legacy","legacy","legacy","0","congruent","uniform","1","undefined","1","s","51","0","0","0","51","0","51","0","51","0","0","0","51","51","51","51","Sun Sep 27 13:13:47 2020","1500","The main experiment item","yes","ab-Flankertask.osexp","/Users/alisonbeason/Desktop/PSYC 5316/Lab 2.1","no","mono","no","18","no","white","no","yes","768","legacy","51","51","/Users/alisonbeason/Desktop/ab-subject-2.csv","legacy","Lentiform Loewenfeld","3.3.3","0","s","NA","s","NA","NA","s","829","NA","82104","NA","NA","829","2","legacy","1024","2","48000","-16","experiment","SSSSS","2","even","180131","85388","NA","NA","NA","3235","NA","NA","181204","3257","NA","NA","181325","182155","181187","181325","Flanker task","52","34523","52","yes","1024"
"100","100","665.3018867924528","665.3018867924528","black","legacy","legacy","legacy","0","congruent","uniform","1","undefined","1","s","52","0","0","0","52","0","52","0","52","0","0","0","52","52","52","52","Sun Sep 27 13:13:47 2020","1500","The main experiment item","yes","ab-Flankertask.osexp","/Users/alisonbeason/Desktop/PSYC 5316/Lab 2.1","no","mono","no","18","no","white","no","yes","768","legacy","52","52","/Users/alisonbeason/Desktop/ab-subject-2.csv","legacy","Lentiform Loewenfeld","3.3.3","0","s","NA","s","NA","NA","s","738","NA","82104","NA","NA","738","2","legacy","1024","2","48000","-16","experiment","SSSSS","2","even","182175","85388","NA","NA","NA","3235","NA","NA","183257","3257","NA","NA","183377","184116","183237","183377","Flanker task","53","35261","53","yes","1024"
"100","100","665.0555555555555","665.0555555555555","black","legacy","legacy","legacy","0","incongruent","uniform","1","undefined","1","h","53","0","0","0","53","0","53","0","53","0","0","0","53","53","53","53","Sun Sep 27 13:13:47 2020","1500","The main experiment item","yes","ab-Flankertask.osexp","/Users/alisonbeason/Desktop/PSYC 5316/Lab 2.1","no","mono","no","18","no","white","no","yes","768","legacy","53","53","/Users/alisonbeason/Desktop/ab-subject-2.csv","legacy","Lentiform Loewenfeld","3.3.3","0","h","NA","s","NA","NA","h","652","NA","82104","NA","NA","652","2","legacy","1024","2","48000","-16","experiment","SSHSS","2","even","184138","85388","NA","NA","NA","3235","NA","NA","185211","3257","NA","NA","185328","185982","185194","185328","Flanker task","54","35913","54","yes","1024"
"100","100","668.0181818181818","668.0181818181818","black","legacy","legacy","legacy","0","incongruent","uniform","1","undefined","1","h","54","0","0","0","54","0","54","0","54","0","0","0","54","54","54","54","Sun Sep 27 13:13:47 2020","1500","The main experiment item","yes","ab-Flankertask.osexp","/Users/alisonbeason/Desktop/PSYC 5316/Lab 2.1","no","mono","no","18","no","white","no","yes","768","legacy","54","54","/Users/alisonbeason/Desktop/ab-subject-2.csv","legacy","Lentiform Loewenfeld","3.3.3","0","h","NA","s","NA","NA","h","828","NA","82104","NA","NA","828","2","legacy","1024","2","48000","-16","experiment","SSHSS","2","even","186003","85388","NA","NA","NA","3235","NA","NA","187079","3257","NA","NA","187194","188024","187062","187194","Flanker task","55","36741","55","yes","1024"
"100","100","669.8392857142857","669.8392857142857","black","legacy","legacy","legacy","0","incongruent","uniform","1","undefined","1","h","55","0","0","0","55","0","55","0","55","0","0","0","55","55","55","55","Sun Sep 27 13:13:47 2020","1500","The main experiment item","yes","ab-Flankertask.osexp","/Users/alisonbeason/Desktop/PSYC 5316/Lab 2.1","no","mono","no","18","no","white","no","yes","768","legacy","55","55","/Users/alisonbeason/Desktop/ab-subject-2.csv","legacy","Lentiform Loewenfeld","3.3.3","0","h","NA","s","NA","NA","h","770","NA","82104","NA","NA","770","2","legacy","1024","2","48000","-16","experiment","SSHSS","2","even","188045","85388","NA","NA","NA","3235","NA","NA","189120","3257","NA","NA","189235","190006","189102","189235","Flanker task","56","37511","56","yes","1024"
"100","100","672.3157894736842","672.3157894736842","black","legacy","legacy","legacy","0","congruent","uniform","1","undefined","1","h","56","0","0","0","56","0","56","0","56","0","0","0","56","56","56","56","Sun Sep 27 13:13:47 2020","1500","The main experiment item","yes","ab-Flankertask.osexp","/Users/alisonbeason/Desktop/PSYC 5316/Lab 2.1","no","mono","no","18","no","white","no","yes","768","legacy","56","56","/Users/alisonbeason/Desktop/ab-subject-2.csv","legacy","Lentiform Loewenfeld","3.3.3","0","h","NA","s","NA","NA","h","811","NA","82104","NA","NA","811","2","legacy","1024","2","48000","-16","experiment","HHHHH","2","even","190024","85388","NA","NA","NA","3235","NA","NA","191104","3257","NA","NA","191223","192035","191085","191223","Flanker task","57","38322","57","yes","1024"
"100","100","670.948275862069","670.948275862069","black","legacy","legacy","legacy","0","congruent","uniform","1","undefined","1","s","57","0","0","0","57","0","57","0","57","0","0","0","57","57","57","57","Sun Sep 27 13:13:47 2020","1500","The main experiment item","yes","ab-Flankertask.osexp","/Users/alisonbeason/Desktop/PSYC 5316/Lab 2.1","no","mono","no","18","no","white","no","yes","768","legacy","57","57","/Users/alisonbeason/Desktop/ab-subject-2.csv","legacy","Lentiform Loewenfeld","3.3.3","0","s","NA","s","NA","NA","s","593","NA","82104","NA","NA","593","2","legacy","1024","2","48000","-16","experiment","SSSSS","2","even","192052","85388","NA","NA","NA","3235","NA","NA","193117","3257","NA","NA","193232","193827","193103","193232","Flanker task","58","38915","58","yes","1024"
"100","100","670.6779661016949","670.6779661016949","black","legacy","legacy","legacy","0","incongruent","uniform","1","undefined","1","h","58","0","0","0","58","0","58","0","58","0","0","0","58","58","58","58","Sun Sep 27 13:13:47 2020","1500","The main experiment item","yes","ab-Flankertask.osexp","/Users/alisonbeason/Desktop/PSYC 5316/Lab 2.1","no","mono","no","18","no","white","no","yes","768","legacy","58","58","/Users/alisonbeason/Desktop/ab-subject-2.csv","legacy","Lentiform Loewenfeld","3.3.3","0","h","NA","s","NA","NA","h","655","NA","82104","NA","NA","655","2","legacy","1024","2","48000","-16","experiment","SSHSS","2","even","193843","85388","NA","NA","NA","3235","NA","NA","194911","3257","NA","NA","195026","195683","194896","195026","Flanker task","59","39570","59","yes","1024"
"100","100","669.8333333333334","669.8333333333334","black","legacy","legacy","legacy","0","congruent","uniform","1","undefined","1","h","59","0","0","0","59","0","59","0","59","0","0","0","59","59","59","59","Sun Sep 27 13:13:47 2020","1500","The main experiment item","yes","ab-Flankertask.osexp","/Users/alisonbeason/Desktop/PSYC 5316/Lab 2.1","no","mono","no","18","no","white","no","yes","768","legacy","59","59","/Users/alisonbeason/Desktop/ab-subject-2.csv","legacy","Lentiform Loewenfeld","3.3.3","0","h","NA","s","NA","NA","h","620","NA","82104","NA","NA","620","2","legacy","1024","2","48000","-16","experiment","HHHHH","2","even","195704","85388","NA","NA","NA","3235","NA","NA","196773","3257","NA","NA","196888","197509","196758","196888","Flanker task","60","40190","60","yes","1024"
"100","100","671.4262295081967","671.4262295081967","black","legacy","legacy","legacy","0","incongruent","uniform","1","undefined","1","h","60","0","0","0","60","0","60","0","60","0","0","0","60","60","60","60","Sun Sep 27 13:13:47 2020","1500","The main experiment item","yes","ab-Flankertask.osexp","/Users/alisonbeason/Desktop/PSYC 5316/Lab 2.1","no","mono","no","18","no","white","no","yes","768","legacy","60","60","/Users/alisonbeason/Desktop/ab-subject-2.csv","legacy","Lentiform Loewenfeld","3.3.3","0","h","NA","s","NA","NA","h","767","NA","82104","NA","NA","767","2","legacy","1024","2","48000","-16","experiment","SSHSS","2","even","197525","85388","NA","NA","NA","3235","NA","NA","198607","3257","NA","NA","198724","199493","198588","198724","Flanker task","61","40957","61","yes","1024"
"100","100","669.9516129032259","669.9516129032259","black","legacy","legacy","legacy","0","congruent","uniform","1","undefined","1","s","61","0","0","0","61","0","61","0","61","0","0","0","61","61","61","61","Sun Sep 27 13:13:47 2020","1500","The main experiment item","yes","ab-Flankertask.osexp","/Users/alisonbeason/Desktop/PSYC 5316/Lab 2.1","no","mono","no","18","no","white","no","yes","768","legacy","61","61","/Users/alisonbeason/Desktop/ab-subject-2.csv","legacy","Lentiform Loewenfeld","3.3.3","0","s","NA","s","NA","NA","s","580","NA","82104","NA","NA","580","2","legacy","1024","2","48000","-16","experiment","SSSSS","2","even","199514","85388","NA","NA","NA","3235","NA","NA","200580","3257","NA","NA","200695","201277","200565","200695","Flanker task","62","41537","62","yes","1024"
"100","100","668.3650793650794","668.3650793650794","black","legacy","legacy","legacy","0","congruent","uniform","1","undefined","1","h","62","0","0","0","62","0","62","0","62","0","0","0","62","62","62","62","Sun Sep 27 13:13:47 2020","1500","The main experiment item","yes","ab-Flankertask.osexp","/Users/alisonbeason/Desktop/PSYC 5316/Lab 2.1","no","mono","no","18","no","white","no","yes","768","legacy","62","62","/Users/alisonbeason/Desktop/ab-subject-2.csv","legacy","Lentiform Loewenfeld","3.3.3","0","h","NA","s","NA","NA","h","570","NA","82104","NA","NA","570","2","legacy","1024","2","48000","-16","experiment","HHHHH","2","even","201294","85388","NA","NA","NA","3235","NA","NA","202362","3257","NA","NA","202477","203048","202346","202477","Flanker task","63","42107","63","yes","1024"
"100","100","667.71875","667.71875","black","legacy","legacy","legacy","0","incongruent","uniform","1","undefined","1","h","63","0","0","0","63","0","63","0","63","0","0","0","63","63","63","63","Sun Sep 27 13:13:47 2020","1500","The main experiment item","yes","ab-Flankertask.osexp","/Users/alisonbeason/Desktop/PSYC 5316/Lab 2.1","no","mono","no","18","no","white","no","yes","768","legacy","63","63","/Users/alisonbeason/Desktop/ab-subject-2.csv","legacy","Lentiform Loewenfeld","3.3.3","0","h","NA","s","NA","NA","h","627","NA","82104","NA","NA","627","2","legacy","1024","2","48000","-16","experiment","SSHSS","2","even","203064","85388","NA","NA","NA","3235","NA","NA","204136","3257","NA","NA","204254","204883","204119","204254","Flanker task","64","42734","64","yes","1024"
"100","100","667.5384615384615","667.5384615384615","black","legacy","legacy","legacy","0","incongruent","uniform","1","undefined","1","s","64","0","0","0","64","0","64","0","64","0","0","0","64","64","64","64","Sun Sep 27 13:13:47 2020","1500","The main experiment item","yes","ab-Flankertask.osexp","/Users/alisonbeason/Desktop/PSYC 5316/Lab 2.1","no","mono","no","18","no","white","no","yes","768","legacy","64","64","/Users/alisonbeason/Desktop/ab-subject-2.csv","legacy","Lentiform Loewenfeld","3.3.3","0","s","NA","s","NA","NA","s","656","NA","82104","NA","NA","656","2","legacy","1024","2","48000","-16","experiment","HHSHH","2","even","204904","85388","NA","NA","NA","3235","NA","NA","205983","3257","NA","NA","206103","206761","205964","206103","Flanker task","65","43390","65","yes","1024"
"100","100","666.0757575757576","666.0757575757576","black","legacy","legacy","legacy","0","incongruent","uniform","1","undefined","1","s","65","0","0","0","65","0","65","0","65","0","0","0","65","65","65","65","Sun Sep 27 13:13:47 2020","1500","The main experiment item","yes","ab-Flankertask.osexp","/Users/alisonbeason/Desktop/PSYC 5316/Lab 2.1","no","mono","no","18","no","white","no","yes","768","legacy","65","65","/Users/alisonbeason/Desktop/ab-subject-2.csv","legacy","Lentiform Loewenfeld","3.3.3","0","s","NA","s","NA","NA","s","571","NA","82104","NA","NA","571","2","legacy","1024","2","48000","-16","experiment","HHSHH","2","even","206776","85388","NA","NA","NA","3235","NA","NA","207843","3257","NA","NA","207959","208531","207828","207959","Flanker task","66","43961","66","yes","1024"
"100","100","665.044776119403","665.044776119403","black","legacy","legacy","legacy","0","incongruent","uniform","1","undefined","1","s","66","0","0","0","66","0","66","0","66","0","0","0","66","66","66","66","Sun Sep 27 13:13:47 2020","1500","The main experiment item","yes","ab-Flankertask.osexp","/Users/alisonbeason/Desktop/PSYC 5316/Lab 2.1","no","mono","no","18","no","white","no","yes","768","legacy","66","66","/Users/alisonbeason/Desktop/ab-subject-2.csv","legacy","Lentiform Loewenfeld","3.3.3","0","s","NA","s","NA","NA","s","597","NA","82104","NA","NA","597","2","legacy","1024","2","48000","-16","experiment","HHSHH","2","even","208547","85388","NA","NA","NA","3235","NA","NA","209614","3257","NA","NA","209730","210329","209599","209730","Flanker task","67","44558","67","yes","1024"
"100","100","663.9705882352941","663.9705882352941","black","legacy","legacy","legacy","0","incongruent","uniform","1","undefined","1","h","67","0","0","0","67","0","67","0","67","0","0","0","67","67","67","67","Sun Sep 27 13:13:47 2020","1500","The main experiment item","yes","ab-Flankertask.osexp","/Users/alisonbeason/Desktop/PSYC 5316/Lab 2.1","no","mono","no","18","no","white","no","yes","768","legacy","67","67","/Users/alisonbeason/Desktop/ab-subject-2.csv","legacy","Lentiform Loewenfeld","3.3.3","0","h","NA","s","NA","NA","h","592","NA","82104","NA","NA","592","2","legacy","1024","2","48000","-16","experiment","SSHSS","2","even","210346","85388","NA","NA","NA","3235","NA","NA","211412","3257","NA","NA","211527","212121","211397","211527","Flanker task","68","45150","68","yes","1024"
"100","100","664.2608695652174","664.2608695652174","black","legacy","legacy","legacy","0","incongruent","uniform","1","undefined","1","s","68","0","0","0","68","0","68","0","68","0","0","0","68","68","68","68","Sun Sep 27 13:13:47 2020","1500","The main experiment item","yes","ab-Flankertask.osexp","/Users/alisonbeason/Desktop/PSYC 5316/Lab 2.1","no","mono","no","18","no","white","no","yes","768","legacy","68","68","/Users/alisonbeason/Desktop/ab-subject-2.csv","legacy","Lentiform Loewenfeld","3.3.3","0","s","NA","s","NA","NA","s","684","NA","82104","NA","NA","684","2","legacy","1024","2","48000","-16","experiment","HHSHH","2","even","212142","85388","NA","NA","NA","3235","NA","NA","213211","3257","NA","NA","213326","214011","213196","213326","Flanker task","69","45834","69","yes","1024"
"100","100","665.8142857142857","665.8142857142857","black","legacy","legacy","legacy","0","congruent","uniform","1","undefined","1","s","69","0","0","0","69","0","69","0","69","0","0","0","69","69","69","69","Sun Sep 27 13:13:47 2020","1500","The main experiment item","yes","ab-Flankertask.osexp","/Users/alisonbeason/Desktop/PSYC 5316/Lab 2.1","no","mono","no","18","no","white","no","yes","768","legacy","69","69","/Users/alisonbeason/Desktop/ab-subject-2.csv","legacy","Lentiform Loewenfeld","3.3.3","0","s","NA","s","NA","NA","s","773","NA","82104","NA","NA","773","2","legacy","1024","2","48000","-16","experiment","SSSSS","2","even","214028","85388","NA","NA","NA","3235","NA","NA","215106","3257","NA","NA","215227","216002","215089","215227","Flanker task","70","46607","70","yes","1024"
"100","100","664.3661971830986","664.3661971830986","black","legacy","legacy","legacy","0","congruent","uniform","1","undefined","1","s","70","0","0","0","70","0","70","0","70","0","0","0","70","70","70","70","Sun Sep 27 13:13:47 2020","1500","The main experiment item","yes","ab-Flankertask.osexp","/Users/alisonbeason/Desktop/PSYC 5316/Lab 2.1","no","mono","no","18","no","white","no","yes","768","legacy","70","70","/Users/alisonbeason/Desktop/ab-subject-2.csv","legacy","Lentiform Loewenfeld","3.3.3","0","s","NA","s","NA","NA","s","563","NA","82104","NA","NA","563","2","legacy","1024","2","48000","-16","experiment","SSSSS","2","even","216023","85388","NA","NA","NA","3235","NA","NA","217089","3257","NA","NA","217204","217768","217074","217204","Flanker task","71","47170","71","yes","1024"
"100","100","663.0833333333334","663.0833333333334","black","legacy","legacy","legacy","0","congruent","uniform","1","undefined","1","h","71","0","0","0","71","0","71","0","71","0","0","0","71","71","71","71","Sun Sep 27 13:13:47 2020","1500","The main experiment item","yes","ab-Flankertask.osexp","/Users/alisonbeason/Desktop/PSYC 5316/Lab 2.1","no","mono","no","18","no","white","no","yes","768","legacy","71","71","/Users/alisonbeason/Desktop/ab-subject-2.csv","legacy","Lentiform Loewenfeld","3.3.3","0","h","NA","s","NA","NA","h","572","NA","82104","NA","NA","572","2","legacy","1024","2","48000","-16","experiment","HHHHH","2","even","217783","85388","NA","NA","NA","3235","NA","NA","218852","3257","NA","NA","218967","219540","218836","218967","Flanker task","72","47742","72","yes","1024"
"100","100","661.3835616438356","661.3835616438356","black","legacy","legacy","legacy","0","incongruent","uniform","1","undefined","1","s","72","0","0","0","72","0","72","0","72","0","0","0","72","72","72","72","Sun Sep 27 13:13:47 2020","1500","The main experiment item","yes","ab-Flankertask.osexp","/Users/alisonbeason/Desktop/PSYC 5316/Lab 2.1","no","mono","no","18","no","white","no","yes","768","legacy","72","72","/Users/alisonbeason/Desktop/ab-subject-2.csv","legacy","Lentiform Loewenfeld","3.3.3","0","s","NA","s","NA","NA","s","539","NA","82104","NA","NA","539","2","legacy","1024","2","48000","-16","experiment","HHSHH","2","even","219555","85388","NA","NA","NA","3235","NA","NA","220625","3257","NA","NA","220740","221280","220609","220740","Flanker task","73","48281","73","yes","1024"
"100","100","659.7432432432432","659.7432432432432","black","legacy","legacy","legacy","0","incongruent","uniform","1","undefined","1","h","73","0","0","0","73","0","73","0","73","0","0","0","73","73","73","73","Sun Sep 27 13:13:47 2020","1500","The main experiment item","yes","ab-Flankertask.osexp","/Users/alisonbeason/Desktop/PSYC 5316/Lab 2.1","no","mono","no","18","no","white","no","yes","768","legacy","73","73","/Users/alisonbeason/Desktop/ab-subject-2.csv","legacy","Lentiform Loewenfeld","3.3.3","0","h","NA","s","NA","NA","h","540","NA","82104","NA","NA","540","2","legacy","1024","2","48000","-16","experiment","SSHSS","2","even","221296","85388","NA","NA","NA","3235","NA","NA","222365","3257","NA","NA","222481","223022","222349","222480","Flanker task","74","48821","74","yes","1024"
"100","100","659.84","659.84","black","legacy","legacy","legacy","0","incongruent","uniform","1","undefined","1","h","74","0","0","0","74","0","74","0","74","0","0","0","74","74","74","74","Sun Sep 27 13:13:47 2020","1500","The main experiment item","yes","ab-Flankertask.osexp","/Users/alisonbeason/Desktop/PSYC 5316/Lab 2.1","no","mono","no","18","no","white","no","yes","768","legacy","74","74","/Users/alisonbeason/Desktop/ab-subject-2.csv","legacy","Lentiform Loewenfeld","3.3.3","0","h","NA","s","NA","NA","h","667","NA","82104","NA","NA","667","2","legacy","1024","2","48000","-16","experiment","SSHSS","2","even","223038","85388","NA","NA","NA","3235","NA","NA","224107","3257","NA","NA","224222","224891","224090","224222","Flanker task","75","49488","75","yes","1024"
"100","100","660.0394736842105","660.0394736842105","black","legacy","legacy","legacy","0","incongruent","uniform","1","undefined","1","h","75","0","0","0","75","0","75","0","75","0","0","0","75","75","75","75","Sun Sep 27 13:13:47 2020","1500","The main experiment item","yes","ab-Flankertask.osexp","/Users/alisonbeason/Desktop/PSYC 5316/Lab 2.1","no","mono","no","18","no","white","no","yes","768","legacy","75","75","/Users/alisonbeason/Desktop/ab-subject-2.csv","legacy","Lentiform Loewenfeld","3.3.3","0","h","NA","s","NA","NA","h","675","NA","82104","NA","NA","675","2","legacy","1024","2","48000","-16","experiment","SSHSS","2","even","224907","85388","NA","NA","NA","3235","NA","NA","225975","3257","NA","NA","226090","226766","225959","226090","Flanker task","76","50163","76","yes","1024"
"100","100","660.6103896103896","660.6103896103896","black","legacy","legacy","legacy","0","congruent","uniform","1","undefined","1","h","76","0","0","0","76","0","76","0","76","0","0","0","76","76","76","76","Sun Sep 27 13:13:47 2020","1500","The main experiment item","yes","ab-Flankertask.osexp","/Users/alisonbeason/Desktop/PSYC 5316/Lab 2.1","no","mono","no","18","no","white","no","yes","768","legacy","76","76","/Users/alisonbeason/Desktop/ab-subject-2.csv","legacy","Lentiform Loewenfeld","3.3.3","0","h","NA","s","NA","NA","h","704","NA","82104","NA","NA","704","2","legacy","1024","2","48000","-16","experiment","HHHHH","2","even","226785","85388","NA","NA","NA","3235","NA","NA","227854","3257","NA","NA","227969","228674","227838","227968","Flanker task","77","50867","77","yes","1024"
"100","100","662.1538461538462","662.1538461538462","black","legacy","legacy","legacy","0","congruent","uniform","1","undefined","1","h","77","0","0","0","77","0","77","0","77","0","0","0","77","77","77","77","Sun Sep 27 13:13:47 2020","1500","The main experiment item","yes","ab-Flankertask.osexp","/Users/alisonbeason/Desktop/PSYC 5316/Lab 2.1","no","mono","no","18","no","white","no","yes","768","legacy","77","77","/Users/alisonbeason/Desktop/ab-subject-2.csv","legacy","Lentiform Loewenfeld","3.3.3","0","h","NA","s","NA","NA","h","781","NA","82104","NA","NA","781","2","legacy","1024","2","48000","-16","experiment","HHHHH","2","even","228691","85388","NA","NA","NA","3235","NA","NA","229760","3257","NA","NA","229879","230661","229742","229879","Flanker task","78","51648","78","yes","1024"
"100","100","661.620253164557","661.620253164557","black","legacy","legacy","legacy","0","incongruent","uniform","1","undefined","1","s","78","0","0","0","78","0","78","0","78","0","0","0","78","78","78","78","Sun Sep 27 13:13:47 2020","1500","The main experiment item","yes","ab-Flankertask.osexp","/Users/alisonbeason/Desktop/PSYC 5316/Lab 2.1","no","mono","no","18","no","white","no","yes","768","legacy","78","78","/Users/alisonbeason/Desktop/ab-subject-2.csv","legacy","Lentiform Loewenfeld","3.3.3","0","s","NA","s","NA","NA","s","620","NA","82104","NA","NA","620","2","legacy","1024","2","48000","-16","experiment","HHSHH","2","even","230677","85388","NA","NA","NA","3235","NA","NA","231745","3257","NA","NA","231861","232482","231730","231861","Flanker task","79","52268","79","yes","1024"
"100","100","659.8125","659.8125","black","legacy","legacy","legacy","0","congruent","uniform","1","undefined","1","h","79","0","0","0","79","0","79","0","79","0","0","0","79","79","79","79","Sun Sep 27 13:13:47 2020","1500","The main experiment item","yes","ab-Flankertask.osexp","/Users/alisonbeason/Desktop/PSYC 5316/Lab 2.1","no","mono","no","18","no","white","no","yes","768","legacy","79","79","/Users/alisonbeason/Desktop/ab-subject-2.csv","legacy","Lentiform Loewenfeld","3.3.3","0","h","NA","s","NA","NA","h","517","NA","82104","NA","NA","517","2","legacy","1024","2","48000","-16","experiment","HHHHH","2","even","232500","85388","NA","NA","NA","3235","NA","NA","233568","3257","NA","NA","233684","234202","233553","233684","Flanker task","80","52785","80","yes","1024"
"100","100","658.8395061728395","658.8395061728395","black","legacy","legacy","legacy","0","congruent","uniform","1","undefined","1","s","80","0","0","0","80","0","80","0","80","0","0","0","80","80","80","80","Sun Sep 27 13:13:47 2020","600","The main experiment item","yes","ab-Flankertask.osexp","/Users/alisonbeason/Desktop/PSYC 5316/Lab 2.1","no","mono","no","18","no","white","no","yes","768","legacy","0","79","/Users/alisonbeason/Desktop/ab-subject-2.csv","legacy","Lentiform Loewenfeld","3.3.3","0","s","NA","s","s","NA","s","581","NA","82104","41426","NA","581","2","legacy","1024","2","48000","-16","experiment","SSSSS","2","even","234218","85388","276688","NA","NA","3235","NA","NA","276742","3257","235260","NA","276859","277441","276726","276859","Flanker task","81","53366","81","yes","1024"
"100","100","656.1585365853658","656.1585365853658","black","legacy","legacy","legacy","0","congruent","uniform","1","undefined","1","h","81","0","0","0","81","0","81","0","81","0","0","0","81","81","81","81","Sun Sep 27 13:13:47 2020","600","The main experiment item","yes","ab-Flankertask.osexp","/Users/alisonbeason/Desktop/PSYC 5316/Lab 2.1","no","mono","no","18","no","white","no","yes","768","legacy","1","79","/Users/alisonbeason/Desktop/ab-subject-2.csv","legacy","Lentiform Loewenfeld","3.3.3","0","h","NA","s","s","NA","h","439","NA","82104","41426","NA","439","2","legacy","1024","2","48000","-16","experiment","HHHHH","2","even","277460","85388","276688","NA","NA","3235","NA","NA","278542","3257","235260","NA","278663","279103","278523","278662","Flanker task","82","53805","82","yes","1024"
"100","100","653.6506024096385","653.6506024096385","black","legacy","legacy","legacy","0","congruent","uniform","1","undefined","1","h","82","0","0","0","82","0","82","0","82","0","0","0","82","82","82","82","Sun Sep 27 13:13:47 2020","600","The main experiment item","yes","ab-Flankertask.osexp","/Users/alisonbeason/Desktop/PSYC 5316/Lab 2.1","no","mono","no","18","no","white","no","yes","768","legacy","2","79","/Users/alisonbeason/Desktop/ab-subject-2.csv","legacy","Lentiform Loewenfeld","3.3.3","0","h","NA","s","s","NA","h","448","NA","82104","41426","NA","448","2","legacy","1024","2","48000","-16","experiment","HHHHH","2","even","279120","85388","276688","NA","NA","3235","NA","NA","280202","3257","235260","NA","280319","280769","280183","280319","Flanker task","83","54253","83","yes","1024"
"100","100","651.952380952381","651.952380952381","black","legacy","legacy","legacy","0","congruent","uniform","1","undefined","1","s","83","0","0","0","83","0","83","0","83","0","0","0","83","83","83","83","Sun Sep 27 13:13:47 2020","600","The main experiment item","yes","ab-Flankertask.osexp","/Users/alisonbeason/Desktop/PSYC 5316/Lab 2.1","no","mono","no","18","no","white","no","yes","768","legacy","3","79","/Users/alisonbeason/Desktop/ab-subject-2.csv","legacy","Lentiform Loewenfeld","3.3.3","0","s","NA","s","s","NA","s","511","NA","82104","41426","NA","511","2","legacy","1024","2","48000","-16","experiment","SSSSS","2","even","280791","85388","276688","NA","NA","3235","NA","NA","281874","3257","235260","NA","281994","282507","281854","281994","Flanker task","84","54764","84","yes","1024"
"100","100","649.4470588235295","649.4470588235295","black","legacy","legacy","legacy","0","congruent","uniform","1","undefined","1","s","84","0","0","0","84","0","84","0","84","0","0","0","84","84","84","84","Sun Sep 27 13:13:47 2020","600","The main experiment item","yes","ab-Flankertask.osexp","/Users/alisonbeason/Desktop/PSYC 5316/Lab 2.1","no","mono","no","18","no","white","no","yes","768","legacy","4","79","/Users/alisonbeason/Desktop/ab-subject-2.csv","legacy","Lentiform Loewenfeld","3.3.3","0","s","NA","s","s","NA","s","439","NA","82104","41426","NA","439","2","legacy","1024","2","48000","-16","experiment","SSSSS","2","even","282524","85388","276688","NA","NA","3235","NA","NA","283605","3257","235260","NA","283726","284167","283587","283726","Flanker task","85","55203","85","yes","1024"
"100","100","648.6395348837209","648.6395348837209","black","legacy","legacy","legacy","0","incongruent","uniform","1","undefined","1","h","85","0","0","0","85","0","85","0","85","0","0","0","85","85","85","85","Sun Sep 27 13:13:47 2020","600","The main experiment item","yes","ab-Flankertask.osexp","/Users/alisonbeason/Desktop/PSYC 5316/Lab 2.1","no","mono","no","18","no","white","no","yes","768","legacy","5","79","/Users/alisonbeason/Desktop/ab-subject-2.csv","legacy","Lentiform Loewenfeld","3.3.3","0","h","NA","s","s","NA","h","580","NA","82104","41426","NA","580","2","legacy","1024","2","48000","-16","experiment","SSHSS","2","even","284186","85388","276688","NA","NA","3235","NA","NA","285258","3257","235260","NA","285376","285958","285242","285376","Flanker task","86","55783","86","yes","1024"
"100","100","647.5632183908046","647.5632183908046","black","legacy","legacy","legacy","0","incongruent","uniform","1","undefined","1","s","86","0","0","0","86","0","86","0","86","0","0","0","86","86","86","86","Sun Sep 27 13:13:47 2020","600","The main experiment item","yes","ab-Flankertask.osexp","/Users/alisonbeason/Desktop/PSYC 5316/Lab 2.1","no","mono","no","18","no","white","no","yes","768","legacy","6","79","/Users/alisonbeason/Desktop/ab-subject-2.csv","legacy","Lentiform Loewenfeld","3.3.3","0","s","NA","s","s","NA","s","555","NA","82104","41426","NA","555","2","legacy","1024","2","48000","-16","experiment","HHSHH","2","even","285979","85388","276688","NA","NA","3235","NA","NA","287063","3257","235260","NA","287184","287740","287043","287184","Flanker task","87","56338","87","yes","1024"
"100","100","646.6022727272727","646.6022727272727","black","legacy","legacy","legacy","0","incongruent","uniform","1","undefined","1","s","87","0","0","0","87","0","87","0","87","0","0","0","87","87","87","87","Sun Sep 27 13:13:47 2020","600","The main experiment item","yes","ab-Flankertask.osexp","/Users/alisonbeason/Desktop/PSYC 5316/Lab 2.1","no","mono","no","18","no","white","no","yes","768","legacy","7","79","/Users/alisonbeason/Desktop/ab-subject-2.csv","legacy","Lentiform Loewenfeld","3.3.3","0","s","NA","s","s","NA","s","563","NA","82104","41426","NA","563","2","legacy","1024","2","48000","-16","experiment","HHSHH","2","even","287757","85388","276688","NA","NA","3235","NA","NA","288835","3257","235260","NA","288952","289517","288816","288952","Flanker task","88","56901","88","yes","1024"
"100","100","646.5280898876405","646.5280898876405","black","legacy","legacy","legacy","0","congruent","uniform","1","undefined","1","h","88","0","0","0","88","0","88","0","88","0","0","0","88","88","88","88","Sun Sep 27 13:13:47 2020","600","The main experiment item","yes","ab-Flankertask.osexp","/Users/alisonbeason/Desktop/PSYC 5316/Lab 2.1","no","mono","no","18","no","white","no","yes","768","legacy","8","79","/Users/alisonbeason/Desktop/ab-subject-2.csv","legacy","Lentiform Loewenfeld","3.3.3","0","h","NA","s","s","NA","h","640","NA","82104","41426","NA","640","2","legacy","1024","2","48000","-16","experiment","HHHHH","2","even","289535","85388","276688","NA","NA","3235","NA","NA","290612","3257","235260","NA","290728","291370","290595","290728","Flanker task","89","57541","89","yes","1024"
"100","100","645.5","645.5","black","legacy","legacy","legacy","0","incongruent","uniform","1","undefined","1","h","89","0","0","0","89","0","89","0","89","0","0","0","89","89","89","89","Sun Sep 27 13:13:47 2020","600","The main experiment item","yes","ab-Flankertask.osexp","/Users/alisonbeason/Desktop/PSYC 5316/Lab 2.1","no","mono","no","18","no","white","no","yes","768","legacy","9","79","/Users/alisonbeason/Desktop/ab-subject-2.csv","legacy","Lentiform Loewenfeld","3.3.3","0","h","NA","s","s","NA","h","554","NA","82104","41426","NA","554","2","legacy","1024","2","48000","-16","experiment","SSHSS","2","even","291912","85388","276688","NA","NA","3235","291392","NA","292995","3257","235260","NA","293115","293671","292976","293115","Flanker task","90","58095","90","yes","1024"
"100","100","644.8241758241758","644.8241758241758","black","legacy","legacy","legacy","0","incongruent","uniform","1","undefined","1","h","90","0","0","0","90","0","90","0","90","0","0","0","90","90","90","90","Sun Sep 27 13:13:47 2020","600","The main experiment item","yes","ab-Flankertask.osexp","/Users/alisonbeason/Desktop/PSYC 5316/Lab 2.1","no","mono","no","18","no","white","no","yes","768","legacy","10","79","/Users/alisonbeason/Desktop/ab-subject-2.csv","legacy","Lentiform Loewenfeld","3.3.3","0","h","NA","s","s","NA","h","584","NA","82104","41426","NA","584","2","legacy","1024","2","48000","-16","experiment","SSHSS","2","even","293693","85388","276688","NA","NA","3235","291392","NA","294776","3257","235260","NA","294894","295480","294756","294893","Flanker task","91","58679","91","yes","1024"
"100","100","643.1413043478261","643.1413043478261","black","legacy","legacy","legacy","0","congruent","uniform","1","undefined","1","s","91","0","0","0","91","0","91","0","91","0","0","0","91","91","91","91","Sun Sep 27 13:13:47 2020","600","The main experiment item","yes","ab-Flankertask.osexp","/Users/alisonbeason/Desktop/PSYC 5316/Lab 2.1","no","mono","no","18","no","white","no","yes","768","legacy","11","79","/Users/alisonbeason/Desktop/ab-subject-2.csv","legacy","Lentiform Loewenfeld","3.3.3","0","s","NA","s","s","NA","s","490","NA","82104","41426","NA","490","2","legacy","1024","2","48000","-16","experiment","SSSSS","2","even","295500","85388","276688","NA","NA","3235","291392","NA","296568","3257","235260","NA","296684","297176","296553","296683","Flanker task","92","59169","92","yes","1024"
"100","100","641.4301075268817","641.4301075268817","black","legacy","legacy","legacy","0","congruent","uniform","1","undefined","1","h","92","0","0","0","92","0","92","0","92","0","0","0","92","92","92","92","Sun Sep 27 13:13:47 2020","600","The main experiment item","yes","ab-Flankertask.osexp","/Users/alisonbeason/Desktop/PSYC 5316/Lab 2.1","no","mono","no","18","no","white","no","yes","768","legacy","12","79","/Users/alisonbeason/Desktop/ab-subject-2.csv","legacy","Lentiform Loewenfeld","3.3.3","0","h","NA","s","s","NA","h","484","NA","82104","41426","NA","484","2","legacy","1024","2","48000","-16","experiment","HHHHH","2","even","297198","85388","276688","NA","NA","3235","291392","NA","298284","3257","235260","NA","298405","298891","298263","298405","Flanker task","93","59653","93","yes","1024"
"100","100","639.5","639.5","black","legacy","legacy","legacy","0","incongruent","uniform","1","undefined","1","s","93","0","0","0","93","0","93","0","93","0","0","0","93","93","93","93","Sun Sep 27 13:13:47 2020","600","The main experiment item","yes","ab-Flankertask.osexp","/Users/alisonbeason/Desktop/PSYC 5316/Lab 2.1","no","mono","no","18","no","white","no","yes","768","legacy","13","79","/Users/alisonbeason/Desktop/ab-subject-2.csv","legacy","Lentiform Loewenfeld","3.3.3","0","s","NA","s","s","NA","s","460","NA","82104","41426","NA","460","2","legacy","1024","2","48000","-16","experiment","HHSHH","2","even","298913","85388","276688","NA","NA","3235","291392","NA","299998","3257","235260","NA","300118","300580","299977","300118","Flanker task","94","60113","94","yes","1024"
"100","100","640.2842105263157","640.2842105263157","black","legacy","legacy","legacy","0","congruent","uniform","1","undefined","1","h","94","0","0","0","94","0","94","0","94","0","0","0","94","94","94","94","Sun Sep 27 13:13:47 2020","600","The main experiment item","yes","ab-Flankertask.osexp","/Users/alisonbeason/Desktop/PSYC 5316/Lab 2.1","no","mono","no","18","no","white","no","yes","768","legacy","14","79","/Users/alisonbeason/Desktop/ab-subject-2.csv","legacy","Lentiform Loewenfeld","3.3.3","0","h","NA","s","s","NA","h","714","NA","82104","41426","NA","714","2","legacy","1024","2","48000","-16","experiment","HHHHH","2","even","300601","85388","276688","NA","NA","3235","291392","NA","301684","3257","235260","NA","301805","302521","301664","301805","Flanker task","95","60827","95","yes","1024"
"98.95833333333333","98.95833333333333","638.7291666666666","638.7291666666666","black","legacy","legacy","legacy","0","incongruent","uniform","0","undefined","0","h","95","0","0","0","95","0","95","0","95","0","0","0","95","95","95","95","Sun Sep 27 13:13:47 2020","600","The main experiment item","yes","ab-Flankertask.osexp","/Users/alisonbeason/Desktop/PSYC 5316/Lab 2.1","no","mono","no","18","no","white","no","yes","768","legacy","15","79","/Users/alisonbeason/Desktop/ab-subject-2.csv","legacy","Lentiform Loewenfeld","3.3.3","0","s","NA","s","s","NA","s","491","NA","82104","41426","NA","491","2","legacy","1024","2","48000","-16","experiment","SSHSS","2","even","303058","85388","276688","NA","NA","3235","302543","NA","304138","3257","235260","NA","304256","304748","304119","304256","Flanker task","95","61318","96","yes","1024"
"98.96907216494846","98.96907216494846","638.1134020618557","638.1134020618557","black","legacy","legacy","legacy","0","incongruent","uniform","1","undefined","1","s","96","0","0","0","96","0","96","0","96","0","0","0","96","96","96","96","Sun Sep 27 13:13:47 2020","600","The main experiment item","yes","ab-Flankertask.osexp","/Users/alisonbeason/Desktop/PSYC 5316/Lab 2.1","no","mono","no","18","no","white","no","yes","768","legacy","16","79","/Users/alisonbeason/Desktop/ab-subject-2.csv","legacy","Lentiform Loewenfeld","3.3.3","0","s","NA","s","s","NA","s","579","NA","82104","41426","NA","579","2","legacy","1024","2","48000","-16","experiment","HHSHH","2","even","305284","85388","276688","NA","304766","3235","302543","NA","306367","3257","235260","NA","306489","307070","306347","306489","Flanker task","96","61897","97","yes","1024"
"98.9795918367347","98.9795918367347","636.6020408163265","636.6020408163265","black","legacy","legacy","legacy","0","incongruent","uniform","1","undefined","1","s","97","0","0","0","97","0","97","0","97","0","0","0","97","97","97","97","Sun Sep 27 13:13:47 2020","600","The main experiment item","yes","ab-Flankertask.osexp","/Users/alisonbeason/Desktop/PSYC 5316/Lab 2.1","no","mono","no","18","no","white","no","yes","768","legacy","17","79","/Users/alisonbeason/Desktop/ab-subject-2.csv","legacy","Lentiform Loewenfeld","3.3.3","0","s","NA","s","s","NA","s","490","NA","82104","41426","NA","490","2","legacy","1024","2","48000","-16","experiment","HHSHH","2","even","307086","85388","276688","NA","304766","3235","302543","NA","308162","3257","235260","NA","308283","308775","308144","308282","Flanker task","97","62387","98","yes","1024"
"98.98989898989899","98.98989898989899","634.8484848484849","634.8484848484849","black","legacy","legacy","legacy","0","incongruent","uniform","1","undefined","1","s","98","0","0","0","98","0","98","0","98","0","0","0","98","98","98","98","Sun Sep 27 13:13:47 2020","600","The main experiment item","yes","ab-Flankertask.osexp","/Users/alisonbeason/Desktop/PSYC 5316/Lab 2.1","no","mono","no","18","no","white","no","yes","768","legacy","18","79","/Users/alisonbeason/Desktop/ab-subject-2.csv","legacy","Lentiform Loewenfeld","3.3.3","0","s","NA","s","s","NA","s","463","NA","82104","41426","NA","463","2","legacy","1024","2","48000","-16","experiment","HHSHH","2","even","308797","85388","276688","NA","304766","3235","302543","NA","309866","3257","235260","NA","309984","310448","309851","309984","Flanker task","98","62850","99","yes","1024"
"99","99","633.34","633.34","black","legacy","legacy","legacy","0","congruent","uniform","1","undefined","1","s","99","0","0","0","99","0","99","0","99","0","0","0","99","99","99","99","Sun Sep 27 13:13:47 2020","600","The main experiment item","yes","ab-Flankertask.osexp","/Users/alisonbeason/Desktop/PSYC 5316/Lab 2.1","no","mono","no","18","no","white","no","yes","768","legacy","19","79","/Users/alisonbeason/Desktop/ab-subject-2.csv","legacy","Lentiform Loewenfeld","3.3.3","0","s","NA","s","s","NA","s","484","NA","82104","41426","NA","484","2","legacy","1024","2","48000","-16","experiment","SSSSS","2","even","310470","85388","276688","NA","304766","3235","302543","NA","311555","3257","235260","NA","311676","312161","311535","311676","Flanker task","99","63334","100","yes","1024"
"99.00990099009901","99.00990099009901","631.2871287128713","631.2871287128713","black","legacy","legacy","legacy","0","incongruent","uniform","1","undefined","1","s","100","0","0","0","100","0","100","0","100","0","0","0","100","100","100","100","Sun Sep 27 13:13:47 2020","600","The main experiment item","yes","ab-Flankertask.osexp","/Users/alisonbeason/Desktop/PSYC 5316/Lab 2.1","no","mono","no","18","no","white","no","yes","768","legacy","20","79","/Users/alisonbeason/Desktop/ab-subject-2.csv","legacy","Lentiform Loewenfeld","3.3.3","0","s","NA","s","s","NA","s","426","NA","82104","41426","NA","426","2","legacy","1024","2","48000","-16","experiment","HHSHH","2","even","312185","85388","276688","NA","304766","3235","302543","NA","313268","3257","235260","NA","313389","313817","313248","313389","Flanker task","100","63760","101","yes","1024"
"99.01960784313725","99.01960784313725","630.0784313725491","630.0784313725491","black","legacy","legacy","legacy","0","incongruent","uniform","1","undefined","1","s","101","0","0","0","101","0","101","0","101","0","0","0","101","101","101","101","Sun Sep 27 13:13:47 2020","600","The main experiment item","yes","ab-Flankertask.osexp","/Users/alisonbeason/Desktop/PSYC 5316/Lab 2.1","no","mono","no","18","no","white","no","yes","768","legacy","21","79","/Users/alisonbeason/Desktop/ab-subject-2.csv","legacy","Lentiform Loewenfeld","3.3.3","0","s","NA","s","s","NA","s","508","NA","82104","41426","NA","508","2","legacy","1024","2","48000","-16","experiment","HHSHH","2","even","313838","85388","276688","NA","304766","3235","302543","NA","314921","3257","235260","NA","315041","315550","314901","315041","Flanker task","101","64268","102","yes","1024"
"99.02912621359224","99.02912621359224","628.1359223300971","628.1359223300971","black","legacy","legacy","legacy","0","congruent","uniform","1","undefined","1","s","102","0","0","0","102","0","102","0","102","0","0","0","102","102","102","102","Sun Sep 27 13:13:47 2020","600","The main experiment item","yes","ab-Flankertask.osexp","/Users/alisonbeason/Desktop/PSYC 5316/Lab 2.1","no","mono","no","18","no","white","no","yes","768","legacy","22","79","/Users/alisonbeason/Desktop/ab-subject-2.csv","legacy","Lentiform Loewenfeld","3.3.3","0","s","NA","s","s","NA","s","430","NA","82104","41426","NA","430","2","legacy","1024","2","48000","-16","experiment","SSSSS","2","even","315571","85388","276688","NA","304766","3235","302543","NA","316653","3257","235260","NA","316773","317204","316633","316773","Flanker task","102","64698","103","yes","1024"
"99.03846153846153","99.03846153846153","627.4230769230769","627.4230769230769","black","legacy","legacy","legacy","0","congruent","uniform","1","undefined","1","h","103","0","0","0","103","0","103","0","103","0","0","0","103","103","103","103","Sun Sep 27 13:13:47 2020","600","The main experiment item","yes","ab-Flankertask.osexp","/Users/alisonbeason/Desktop/PSYC 5316/Lab 2.1","no","mono","no","18","no","white","no","yes","768","legacy","23","79","/Users/alisonbeason/Desktop/ab-subject-2.csv","legacy","Lentiform Loewenfeld","3.3.3","0","h","NA","s","s","NA","h","554","NA","82104","41426","NA","554","2","legacy","1024","2","48000","-16","experiment","HHHHH","2","even","317225","85388","276688","NA","304766","3235","302543","NA","318307","3257","235260","NA","318427","318983","318287","318427","Flanker task","103","65252","104","yes","1024"
"99.04761904761905","99.04761904761905","626.9428571428572","626.9428571428572","black","legacy","legacy","legacy","0","congruent","uniform","1","undefined","1","s","104","0","0","0","104","0","104","0","104","0","0","0","104","104","104","104","Sun Sep 27 13:13:47 2020","600","The main experiment item","yes","ab-Flankertask.osexp","/Users/alisonbeason/Desktop/PSYC 5316/Lab 2.1","no","mono","no","18","no","white","no","yes","768","legacy","24","79","/Users/alisonbeason/Desktop/ab-subject-2.csv","legacy","Lentiform Loewenfeld","3.3.3","0","s","NA","s","s","NA","s","577","NA","82104","41426","NA","577","2","legacy","1024","2","48000","-16","experiment","SSSSS","2","even","319004","85388","276688","NA","304766","3235","302543","NA","320086","3257","235260","NA","320207","320786","320067","320207","Flanker task","104","65829","105","yes","1024"
"99.05660377358491","99.05660377358491","626.377358490566","626.377358490566","black","legacy","legacy","legacy","0","incongruent","uniform","1","undefined","1","s","105","0","0","0","105","0","105","0","105","0","0","0","105","105","105","105","Sun Sep 27 13:13:47 2020","600","The main experiment item","yes","ab-Flankertask.osexp","/Users/alisonbeason/Desktop/PSYC 5316/Lab 2.1","no","mono","no","18","no","white","no","yes","768","legacy","25","79","/Users/alisonbeason/Desktop/ab-subject-2.csv","legacy","Lentiform Loewenfeld","3.3.3","0","s","NA","s","s","NA","s","567","NA","82104","41426","NA","567","2","legacy","1024","2","48000","-16","experiment","HHSHH","2","even","320809","85388","276688","NA","304766","3235","302543","NA","321891","3257","235260","NA","322012","322581","321871","322012","Flanker task","105","66396","106","yes","1024"
"99.06542056074767","99.06542056074767","625.5420560747664","625.5420560747664","black","legacy","legacy","legacy","0","incongruent","uniform","1","undefined","1","h","106","0","0","0","106","0","106","0","106","0","0","0","106","106","106","106","Sun Sep 27 13:13:47 2020","600","The main experiment item","yes","ab-Flankertask.osexp","/Users/alisonbeason/Desktop/PSYC 5316/Lab 2.1","no","mono","no","18","no","white","no","yes","768","legacy","26","79","/Users/alisonbeason/Desktop/ab-subject-2.csv","legacy","Lentiform Loewenfeld","3.3.3","0","h","NA","s","s","NA","h","537","NA","82104","41426","NA","537","2","legacy","1024","2","48000","-16","experiment","SSHSS","2","even","322603","85388","276688","NA","304766","3235","302543","NA","323685","3257","235260","NA","323806","324344","323666","323806","Flanker task","106","66933","107","yes","1024"
"99.07407407407408","99.07407407407408","623.824074074074","623.824074074074","black","legacy","legacy","legacy","0","incongruent","uniform","1","undefined","1","h","107","0","0","0","107","0","107","0","107","0","0","0","107","107","107","107","Sun Sep 27 13:13:47 2020","600","The main experiment item","yes","ab-Flankertask.osexp","/Users/alisonbeason/Desktop/PSYC 5316/Lab 2.1","no","mono","no","18","no","white","no","yes","768","legacy","27","79","/Users/alisonbeason/Desktop/ab-subject-2.csv","legacy","Lentiform Loewenfeld","3.3.3","0","h","NA","s","s","NA","h","440","NA","82104","41426","NA","440","2","legacy","1024","2","48000","-16","experiment","SSHSS","2","even","324366","85388","276688","NA","304766","3235","302543","NA","325448","3257","235260","NA","325568","326010","325428","325567","Flanker task","107","67373","108","yes","1024"
"99.08256880733946","99.08256880733946","622.1192660550458","622.1192660550458","black","legacy","legacy","legacy","0","congruent","uniform","1","undefined","1","h","108","0","0","0","108","0","108","0","108","0","0","0","108","108","108","108","Sun Sep 27 13:13:47 2020","600","The main experiment item","yes","ab-Flankertask.osexp","/Users/alisonbeason/Desktop/PSYC 5316/Lab 2.1","no","mono","no","18","no","white","no","yes","768","legacy","28","79","/Users/alisonbeason/Desktop/ab-subject-2.csv","legacy","Lentiform Loewenfeld","3.3.3","0","h","NA","s","s","NA","h","438","NA","82104","41426","NA","438","2","legacy","1024","2","48000","-16","experiment","HHHHH","2","even","326031","85388","276688","NA","304766","3235","302543","NA","327113","3257","235260","NA","327234","327673","327093","327234","Flanker task","108","67811","109","yes","1024"
"99.0909090909091","99.0909090909091","619.9727272727273","619.9727272727273","black","legacy","legacy","legacy","0","incongruent","uniform","1","undefined","1","h","109","0","0","0","109","0","109","0","109","0","0","0","109","109","109","109","Sun Sep 27 13:13:47 2020","600","The main experiment item","yes","ab-Flankertask.osexp","/Users/alisonbeason/Desktop/PSYC 5316/Lab 2.1","no","mono","no","18","no","white","no","yes","768","legacy","29","79","/Users/alisonbeason/Desktop/ab-subject-2.csv","legacy","Lentiform Loewenfeld","3.3.3","0","h","NA","s","s","NA","h","386","NA","82104","41426","NA","386","2","legacy","1024","2","48000","-16","experiment","SSHSS","2","even","327696","85388","276688","NA","304766","3235","302543","NA","328779","3257","235260","NA","328899","329287","328758","328899","Flanker task","109","68197","110","yes","1024"
"98.1981981981982","98.1981981981982","617.0900900900901","617.0900900900901","black","legacy","legacy","legacy","0","congruent","uniform","0","undefined","0","s","110","0","0","0","110","0","110","0","110","0","0","0","110","110","110","110","Sun Sep 27 13:13:47 2020","600","The main experiment item","yes","ab-Flankertask.osexp","/Users/alisonbeason/Desktop/PSYC 5316/Lab 2.1","no","mono","no","18","no","white","no","yes","768","legacy","30","79","/Users/alisonbeason/Desktop/ab-subject-2.csv","legacy","Lentiform Loewenfeld","3.3.3","0","h","NA","s","s","NA","h","300","NA","82104","41426","NA","300","2","legacy","1024","2","48000","-16","experiment","SSSSS","2","even","329309","85388","276688","NA","304766","3235","302543","NA","330391","3257","235260","NA","330513","330814","330371","330513","Flanker task","109","68497","111","yes","1024"
"98.21428571428571","98.21428571428571","617.7857142857143","617.7857142857143","black","legacy","legacy","legacy","0","incongruent","uniform","1","undefined","1","h","111","0","0","0","111","0","111","0","111","0","0","0","111","111","111","111","Sun Sep 27 13:13:47 2020","600","The main experiment item","yes","ab-Flankertask.osexp","/Users/alisonbeason/Desktop/PSYC 5316/Lab 2.1","no","mono","no","18","no","white","no","yes","768","legacy","31","79","/Users/alisonbeason/Desktop/ab-subject-2.csv","legacy","Lentiform Loewenfeld","3.3.3","0","h","NA","s","s","NA","h","695","NA","82104","41426","NA","695","2","legacy","1024","2","48000","-16","experiment","SSHSS","2","even","331357","85388","276688","NA","330836","3235","302543","NA","332438","3257","235260","NA","332559","333255","332418","332559","Flanker task","110","69192","112","yes","1024"
"98.23008849557522","98.23008849557522","617.433628318584","617.433628318584","black","legacy","legacy","legacy","0","incongruent","uniform","1","undefined","1","h","112","0","0","0","112","0","112","0","112","0","0","0","112","112","112","112","Sun Sep 27 13:13:47 2020","600","The main experiment item","yes","ab-Flankertask.osexp","/Users/alisonbeason/Desktop/PSYC 5316/Lab 2.1","no","mono","no","18","no","white","no","yes","768","legacy","32","79","/Users/alisonbeason/Desktop/ab-subject-2.csv","legacy","Lentiform Loewenfeld","3.3.3","0","h","NA","s","s","NA","h","578","NA","82104","41426","NA","578","2","legacy","1024","2","48000","-16","experiment","SSHSS","2","even","333796","85388","276688","NA","330836","3235","333276","NA","334877","3257","235260","NA","334998","335577","334858","334998","Flanker task","111","69770","113","yes","1024"
"98.24561403508773","98.24561403508773","616.5701754385965","616.5701754385965","black","legacy","legacy","legacy","0","incongruent","uniform","1","undefined","1","h","113","0","0","0","113","0","113","0","113","0","0","0","113","113","113","113","Sun Sep 27 13:13:47 2020","600","The main experiment item","yes","ab-Flankertask.osexp","/Users/alisonbeason/Desktop/PSYC 5316/Lab 2.1","no","mono","no","18","no","white","no","yes","768","legacy","33","79","/Users/alisonbeason/Desktop/ab-subject-2.csv","legacy","Lentiform Loewenfeld","3.3.3","0","h","NA","s","s","NA","h","519","NA","82104","41426","NA","519","2","legacy","1024","2","48000","-16","experiment","SSHSS","2","even","335599","85388","276688","NA","330836","3235","333276","NA","336680","3257","235260","NA","336800","337321","336660","336800","Flanker task","112","70289","114","yes","1024"
"98.26086956521739","98.26086956521739","615.1478260869566","615.1478260869566","black","legacy","legacy","legacy","0","congruent","uniform","1","undefined","1","s","114","0","0","0","114","0","114","0","114","0","0","0","114","114","114","114","Sun Sep 27 13:13:47 2020","600","The main experiment item","yes","ab-Flankertask.osexp","/Users/alisonbeason/Desktop/PSYC 5316/Lab 2.1","no","mono","no","18","no","white","no","yes","768","legacy","34","79","/Users/alisonbeason/Desktop/ab-subject-2.csv","legacy","Lentiform Loewenfeld","3.3.3","0","s","NA","s","s","NA","s","453","NA","82104","41426","NA","453","2","legacy","1024","2","48000","-16","experiment","SSSSS","2","even","337343","85388","276688","NA","330836","3235","333276","NA","338427","3257","235260","NA","338547","339001","338406","338547","Flanker task","113","70742","115","yes","1024"
"98.27586206896552","98.27586206896552","613.4655172413793","613.4655172413793","black","legacy","legacy","legacy","0","congruent","uniform","1","undefined","1","s","115","0","0","0","115","0","115","0","115","0","0","0","115","115","115","115","Sun Sep 27 13:13:47 2020","600","The main experiment item","yes","ab-Flankertask.osexp","/Users/alisonbeason/Desktop/PSYC 5316/Lab 2.1","no","mono","no","18","no","white","no","yes","768","legacy","35","79","/Users/alisonbeason/Desktop/ab-subject-2.csv","legacy","Lentiform Loewenfeld","3.3.3","0","s","NA","s","s","NA","s","420","NA","82104","41426","NA","420","2","legacy","1024","2","48000","-16","experiment","SSSSS","2","even","339024","85388","276688","NA","330836","3235","333276","NA","340109","3257","235260","NA","340229","340651","340089","340229","Flanker task","114","71162","116","yes","1024"
"98.2905982905983","98.2905982905983","611.3504273504274","611.3504273504274","black","legacy","legacy","legacy","0","congruent","uniform","1","undefined","1","s","116","0","0","0","116","0","116","0","116","0","0","0","116","116","116","116","Sun Sep 27 13:13:47 2020","600","The main experiment item","yes","ab-Flankertask.osexp","/Users/alisonbeason/Desktop/PSYC 5316/Lab 2.1","no","mono","no","18","no","white","no","yes","768","legacy","36","79","/Users/alisonbeason/Desktop/ab-subject-2.csv","legacy","Lentiform Loewenfeld","3.3.3","0","s","NA","s","s","NA","s","366","NA","82104","41426","NA","366","2","legacy","1024","2","48000","-16","experiment","SSSSS","2","even","340673","85388","276688","NA","330836","3235","333276","NA","341760","3257","235260","NA","341881","342248","341740","341881","Flanker task","115","71528","117","yes","1024"
"98.30508474576271","98.30508474576271","609.9152542372881","609.9152542372881","black","legacy","legacy","legacy","0","congruent","uniform","1","undefined","1","h","117","0","0","0","117","0","117","0","117","0","0","0","117","117","117","117","Sun Sep 27 13:13:47 2020","600","The main experiment item","yes","ab-Flankertask.osexp","/Users/alisonbeason/Desktop/PSYC 5316/Lab 2.1","no","mono","no","18","no","white","no","yes","768","legacy","37","79","/Users/alisonbeason/Desktop/ab-subject-2.csv","legacy","Lentiform Loewenfeld","3.3.3","0","h","NA","s","s","NA","h","442","NA","82104","41426","NA","442","2","legacy","1024","2","48000","-16","experiment","HHHHH","2","even","342264","85388","276688","NA","330836","3235","333276","NA","343342","3257","235260","NA","343463","343907","343322","343463","Flanker task","116","71970","118","yes","1024"
"98.31932773109244","98.31932773109244","609.0840336134454","609.0840336134454","black","legacy","legacy","legacy","0","incongruent","uniform","1","undefined","1","s","118","0","0","0","118","0","118","0","118","0","0","0","118","118","118","118","Sun Sep 27 13:13:47 2020","600","The main experiment item","yes","ab-Flankertask.osexp","/Users/alisonbeason/Desktop/PSYC 5316/Lab 2.1","no","mono","no","18","no","white","no","yes","768","legacy","38","79","/Users/alisonbeason/Desktop/ab-subject-2.csv","legacy","Lentiform Loewenfeld","3.3.3","0","s","NA","s","s","NA","s","511","NA","82104","41426","NA","511","2","legacy","1024","2","48000","-16","experiment","HHSHH","2","even","343929","85388","276688","NA","330836","3235","333276","NA","344996","3257","235260","NA","345111","345624","344981","345111","Flanker task","117","72481","119","yes","1024"
"98.33333333333333","98.33333333333333","608.1083333333333","608.1083333333333","black","legacy","legacy","legacy","0","congruent","uniform","1","undefined","1","s","119","0","0","0","119","0","119","0","119","0","0","0","119","119","119","119","Sun Sep 27 13:13:47 2020","600","The main experiment item","yes","ab-Flankertask.osexp","/Users/alisonbeason/Desktop/PSYC 5316/Lab 2.1","no","mono","no","18","no","white","no","yes","768","legacy","39","79","/Users/alisonbeason/Desktop/ab-subject-2.csv","legacy","Lentiform Loewenfeld","3.3.3","0","s","NA","s","s","NA","s","492","NA","82104","41426","NA","492","2","legacy","1024","2","48000","-16","experiment","SSSSS","2","even","345639","85388","276688","NA","330836","3235","333276","NA","346706","3257","235260","NA","346821","347315","346691","346821","Flanker task","118","72973","120","yes","1024"
"98.34710743801652","98.34710743801652","607.4710743801653","607.4710743801653","black","legacy","legacy","legacy","0","incongruent","uniform","1","undefined","1","s","120","0","0","0","120","0","120","0","120","0","0","0","120","120","120","120","Sun Sep 27 13:13:47 2020","600","The main experiment item","yes","ab-Flankertask.osexp","/Users/alisonbeason/Desktop/PSYC 5316/Lab 2.1","no","mono","no","18","no","white","no","yes","768","legacy","40","79","/Users/alisonbeason/Desktop/ab-subject-2.csv","legacy","Lentiform Loewenfeld","3.3.3","0","s","NA","s","s","NA","s","531","NA","82104","41426","NA","531","2","legacy","1024","2","48000","-16","experiment","HHSHH","2","even","347330","85388","276688","NA","330836","3235","333276","NA","348397","3257","235260","NA","348512","349045","348382","348512","Flanker task","119","73504","121","yes","1024"
