acc,accuracy,average_response_time,avg_rt,background,canvas_backend,clock_backend,color_backend,compensation,condition,coordinates,correct,correct_instructions1,correct_keyboard_response,correct_response,count_ISI,count_block1,count_block2,count_block3,count_errorfeedback,count_experiment,count_faster,count_finish,count_fixation,count_instructions1,count_instructions2,count_instructions3,count_keyboard_response,count_logger,count_sequence,count_stimulus,datetime,deadline,description,disable_garbage_collection,experiment_file,experiment_path,font_bold,font_family,font_italic,font_size,font_underline,foreground,form_clicks,fullscreen,height,keyboard_backend,live_row,live_row_block1,logfile,mouse_backend,opensesame_codename,opensesame_version,repeat_cycle,response,response_finish,response_instructions1,response_instructions2,response_instructions3,response_keyboard_response,response_time,response_time_finish,response_time_instructions1,response_time_instructions2,response_time_instructions3,response_time_keyboard_response,round_decimals,sampler_backend,sound_buf_size,sound_channels,sound_freq,sound_sample_size,start,stimulus,subject_nr,subject_parity,time_ISI,time_block1,time_block2,time_block3,time_errorfeedback,time_experiment,time_faster,time_finish,time_fixation,time_instructions1,time_instructions2,time_instructions3,time_keyboard_response,time_logger,time_sequence,time_stimulus,title,total_correct,total_response_time,total_responses,uniform_coordinates,width
0,0,1500,1500,black,legacy,legacy,legacy,0,incongruent,uniform,0,undefined,0,h,0,0,0,0,0,0,0,0,0,0,0,0,0,0,0,0,9/26/19 17:29,1500,The main experiment item,yes,FlankertaskSL.osexp,C:/Users/Sarah Linan/Desktop,no,mono,no,18,no,white,no,yes,768,legacy,0,0,C:/Users/Sarah Linan/Desktop/SL-subject-2.csv,legacy,Kafkaesque Koffka,3.2.8,0,None,NA,s,NA,NA,None,1500,NA,42624,NA,NA,1500,2,legacy,1024,2,48000,-16,experiment,SSHSS,2,even,NA,45297,NA,NA,NA,2664,NA,NA,45459,2672,NA,NA,45563,47063,45457,45562,Flanker task SL,0,1500,1,yes,1024
50,50,1302,1302,black,legacy,legacy,legacy,0,congruent,uniform,1,undefined,1,h,1,0,0,0,1,0,1,0,1,0,0,0,1,1,1,1,9/26/19 17:29,1500,The main experiment item,yes,FlankertaskSL.osexp,C:/Users/Sarah Linan/Desktop,no,mono,no,18,no,white,no,yes,768,legacy,1,1,C:/Users/Sarah Linan/Desktop/SL-subject-2.csv,legacy,Kafkaesque Koffka,3.2.8,0,h,NA,s,NA,NA,h,1104,NA,42624,NA,NA,1104,2,legacy,1024,2,48000,-16,experiment,HHHHH,2,even,47931,45297,NA,NA,47428,2664,NA,NA,49031,2672,NA,NA,49135,50239,49028,49134,Flanker task SL,1,2604,2,yes,1024
66.66666667,66.66666667,1140,1140,black,legacy,legacy,legacy,0,congruent,uniform,1,undefined,1,s,2,0,0,0,2,0,2,0,2,0,0,0,2,2,2,2,9/26/19 17:29,1500,The main experiment item,yes,FlankertaskSL.osexp,C:/Users/Sarah Linan/Desktop,no,mono,no,18,no,white,no,yes,768,legacy,2,2,C:/Users/Sarah Linan/Desktop/SL-subject-2.csv,legacy,Kafkaesque Koffka,3.2.8,0,s,NA,s,NA,NA,s,816,NA,42624,NA,NA,816,2,legacy,1024,2,48000,-16,experiment,SSSSS,2,even,50327,45297,NA,NA,47428,2664,NA,NA,51424,2672,NA,NA,51526,52342,51421,51526,Flanker task SL,2,3420,3,yes,1024
50,50,981.5,981.5,black,legacy,legacy,legacy,0,congruent,uniform,0,undefined,0,s,3,0,0,0,3,0,3,0,3,0,0,0,3,3,3,3,9/26/19 17:29,1500,The main experiment item,yes,FlankertaskSL.osexp,C:/Users/Sarah Linan/Desktop,no,mono,no,18,no,white,no,yes,768,legacy,3,3,C:/Users/Sarah Linan/Desktop/SL-subject-2.csv,legacy,Kafkaesque Koffka,3.2.8,0,h,NA,s,NA,NA,h,506,NA,42624,NA,NA,506,2,legacy,1024,2,48000,-16,experiment,SSSSS,2,even,52435,45297,NA,NA,47428,2664,NA,NA,53540,2672,NA,NA,53642,54148,53537,53642,Flanker task SL,2,3926,4,yes,1024
60,60,939,939,black,legacy,legacy,legacy,0,congruent,uniform,1,undefined,1,h,4,0,0,0,4,0,4,0,4,0,0,0,4,4,4,4,9/26/19 17:29,1500,The main experiment item,yes,FlankertaskSL.osexp,C:/Users/Sarah Linan/Desktop,no,mono,no,18,no,white,no,yes,768,legacy,4,4,C:/Users/Sarah Linan/Desktop/SL-subject-2.csv,legacy,Kafkaesque Koffka,3.2.8,0,h,NA,s,NA,NA,h,769,NA,42624,NA,NA,769,2,legacy,1024,2,48000,-16,experiment,HHHHH,2,even,54736,45297,NA,NA,54233,2664,NA,NA,55859,2672,NA,NA,55963,56733,55855,55962,Flanker task SL,3,4695,5,yes,1024
50,50,1032.5,1032.5,black,legacy,legacy,legacy,0,incongruent,uniform,0,undefined,0,h,5,0,0,0,5,0,5,0,5,0,0,0,5,5,5,5,9/26/19 17:29,1500,The main experiment item,yes,FlankertaskSL.osexp,C:/Users/Sarah Linan/Desktop,no,mono,no,18,no,white,no,yes,768,legacy,5,5,C:/Users/Sarah Linan/Desktop/SL-subject-2.csv,legacy,Kafkaesque Koffka,3.2.8,0,None,NA,s,NA,NA,None,1500,NA,42624,NA,NA,1500,2,legacy,1024,2,48000,-16,experiment,SSHSS,2,even,56818,45297,NA,NA,54233,2664,NA,NA,57926,2672,NA,NA,58028,59528,57922,58028,Flanker task SL,3,6195,6,yes,1024
57.14285714,57.14285714,1085.571429,1085.571429,black,legacy,legacy,legacy,0,congruent,uniform,1,undefined,1,h,6,0,0,0,6,0,6,0,6,0,0,0,6,6,6,6,9/26/19 17:29,1500,The main experiment item,yes,FlankertaskSL.osexp,C:/Users/Sarah Linan/Desktop,no,mono,no,18,no,white,no,yes,768,legacy,6,6,C:/Users/Sarah Linan/Desktop/SL-subject-2.csv,legacy,Kafkaesque Koffka,3.2.8,0,h,NA,s,NA,NA,h,1404,NA,42624,NA,NA,1404,2,legacy,1024,2,48000,-16,experiment,HHHHH,2,even,60117,45297,NA,NA,59613,2664,NA,NA,61214,2672,NA,NA,61318,62723,61211,61318,Flanker task SL,4,7599,7,yes,1024
62.5,62.5,1111.625,1111.625,black,legacy,legacy,legacy,0,congruent,uniform,1,undefined,1,s,7,0,0,0,7,0,7,0,7,0,0,0,7,7,7,7,9/26/19 17:29,1500,The main experiment item,yes,FlankertaskSL.osexp,C:/Users/Sarah Linan/Desktop,no,mono,no,18,no,white,no,yes,768,legacy,7,7,C:/Users/Sarah Linan/Desktop/SL-subject-2.csv,legacy,Kafkaesque Koffka,3.2.8,0,s,NA,s,NA,NA,s,1294,NA,42624,NA,NA,1294,2,legacy,1024,2,48000,-16,experiment,SSSSS,2,even,62809,45297,NA,NA,59613,2664,NA,NA,63914,2672,NA,NA,64016,65310,63912,64016,Flanker task SL,5,8893,8,yes,1024
66.66666667,66.66666667,1062.888889,1062.888889,black,legacy,legacy,legacy,0,congruent,uniform,1,undefined,1,s,8,0,0,0,8,0,8,0,8,0,0,0,8,8,8,8,9/26/19 17:29,1500,The main experiment item,yes,FlankertaskSL.osexp,C:/Users/Sarah Linan/Desktop,no,mono,no,18,no,white,no,yes,768,legacy,8,8,C:/Users/Sarah Linan/Desktop/SL-subject-2.csv,legacy,Kafkaesque Koffka,3.2.8,0,s,NA,s,NA,NA,s,673,NA,42624,NA,NA,673,2,legacy,1024,2,48000,-16,experiment,SSSSS,2,even,65350,45297,NA,NA,59613,2664,NA,NA,66449,2672,NA,NA,66552,67225,66446,66552,Flanker task SL,6,9566,9,yes,1024
70,70,1022.4,1022.4,black,legacy,legacy,legacy,0,congruent,uniform,1,undefined,1,s,9,0,0,0,9,0,9,0,9,0,0,0,9,9,9,9,9/26/19 17:29,1500,The main experiment item,yes,FlankertaskSL.osexp,C:/Users/Sarah Linan/Desktop,no,mono,no,18,no,white,no,yes,768,legacy,9,9,C:/Users/Sarah Linan/Desktop/SL-subject-2.csv,legacy,Kafkaesque Koffka,3.2.8,0,s,NA,s,NA,NA,s,658,NA,42624,NA,NA,658,2,legacy,1024,2,48000,-16,experiment,SSSSS,2,even,67314,45297,NA,NA,59613,2664,NA,NA,68414,2672,NA,NA,68516,69174,68411,68516,Flanker task SL,7,10224,10,yes,1024
72.72727273,72.72727273,1016.272727,1016.272727,black,legacy,legacy,legacy,0,incongruent ,uniform,1,undefined,1,s,10,0,0,0,10,0,10,0,10,0,0,0,10,10,10,10,9/26/19 17:29,1500,The main experiment item,yes,FlankertaskSL.osexp,C:/Users/Sarah Linan/Desktop,no,mono,no,18,no,white,no,yes,768,legacy,10,10,C:/Users/Sarah Linan/Desktop/SL-subject-2.csv,legacy,Kafkaesque Koffka,3.2.8,0,s,NA,s,NA,NA,s,955,NA,42624,NA,NA,955,2,legacy,1024,2,48000,-16,experiment,HHSHH,2,even,69267,45297,NA,NA,59613,2664,NA,NA,70366,2672,NA,NA,70469,71424,70364,70469,Flanker task SL,8,11179,11,yes,1024
75,75,995.5833333,995.5833333,black,legacy,legacy,legacy,0,congruent,uniform,1,undefined,1,h,11,0,0,0,11,0,11,0,11,0,0,0,11,11,11,11,9/26/19 17:29,1500,The main experiment item,yes,FlankertaskSL.osexp,C:/Users/Sarah Linan/Desktop,no,mono,no,18,no,white,no,yes,768,legacy,11,11,C:/Users/Sarah Linan/Desktop/SL-subject-2.csv,legacy,Kafkaesque Koffka,3.2.8,0,h,NA,s,NA,NA,h,768,NA,42624,NA,NA,768,2,legacy,1024,2,48000,-16,experiment,HHHHH,2,even,71508,45297,NA,NA,59613,2664,NA,NA,72607,2672,NA,NA,72709,73478,72604,72709,Flanker task SL,9,11947,12,yes,1024
76.92307692,76.92307692,985.2307692,985.2307692,black,legacy,legacy,legacy,0,incongruent ,uniform,1,undefined,1,s,12,0,0,0,12,0,12,0,12,0,0,0,12,12,12,12,9/26/19 17:29,1500,The main experiment item,yes,FlankertaskSL.osexp,C:/Users/Sarah Linan/Desktop,no,mono,no,18,no,white,no,yes,768,legacy,12,12,C:/Users/Sarah Linan/Desktop/SL-subject-2.csv,legacy,Kafkaesque Koffka,3.2.8,0,s,NA,s,NA,NA,s,861,NA,42624,NA,NA,861,2,legacy,1024,2,48000,-16,experiment,HHSHH,2,even,73561,45297,NA,NA,59613,2664,NA,NA,74649,2672,NA,NA,74752,75614,74646,74752,Flanker task SL,10,12808,13,yes,1024
78.57142857,78.57142857,972.0714286,972.0714286,black,legacy,legacy,legacy,0,incongruent ,uniform,1,undefined,1,s,13,0,0,0,13,0,13,0,13,0,0,0,13,13,13,13,9/26/19 17:29,1500,The main experiment item,yes,FlankertaskSL.osexp,C:/Users/Sarah Linan/Desktop,no,mono,no,18,no,white,no,yes,768,legacy,13,13,C:/Users/Sarah Linan/Desktop/SL-subject-2.csv,legacy,Kafkaesque Koffka,3.2.8,0,s,NA,s,NA,NA,s,801,NA,42624,NA,NA,801,2,legacy,1024,2,48000,-16,experiment,HHSHH,2,even,75702,45297,NA,NA,59613,2664,NA,NA,76804,2672,NA,NA,76907,77708,76801,76907,Flanker task SL,11,13609,14,yes,1024
80,80,941.0666667,941.0666667,black,legacy,legacy,legacy,0,incongruent ,uniform,1,undefined,1,s,14,0,0,0,14,0,14,0,14,0,0,0,14,14,14,14,9/26/19 17:29,1500,The main experiment item,yes,FlankertaskSL.osexp,C:/Users/Sarah Linan/Desktop,no,mono,no,18,no,white,no,yes,768,legacy,14,14,C:/Users/Sarah Linan/Desktop/SL-subject-2.csv,legacy,Kafkaesque Koffka,3.2.8,0,s,NA,s,NA,NA,s,507,NA,42624,NA,NA,507,2,legacy,1024,2,48000,-16,experiment,HHSHH,2,even,77799,45297,NA,NA,59613,2664,NA,NA,78891,2672,NA,NA,78993,79500,78887,78993,Flanker task SL,12,14116,15,yes,1024
81.25,81.25,931.8125,931.8125,black,legacy,legacy,legacy,0,incongruent,uniform,1,undefined,1,h,15,0,0,0,15,0,15,0,15,0,0,0,15,15,15,15,9/26/19 17:29,1500,The main experiment item,yes,FlankertaskSL.osexp,C:/Users/Sarah Linan/Desktop,no,mono,no,18,no,white,no,yes,768,legacy,15,15,C:/Users/Sarah Linan/Desktop/SL-subject-2.csv,legacy,Kafkaesque Koffka,3.2.8,0,h,NA,s,NA,NA,h,793,NA,42624,NA,NA,793,2,legacy,1024,2,48000,-16,experiment,SSHSS,2,even,79585,45297,NA,NA,59613,2664,NA,NA,80682,2672,NA,NA,80784,81577,80679,80784,Flanker task SL,13,14909,16,yes,1024
82.35294118,82.35294118,908.6470588,908.6470588,black,legacy,legacy,legacy,0,congruent,uniform,1,undefined,1,s,16,0,0,0,16,0,16,0,16,0,0,0,16,16,16,16,9/26/19 17:29,1500,The main experiment item,yes,FlankertaskSL.osexp,C:/Users/Sarah Linan/Desktop,no,mono,no,18,no,white,no,yes,768,legacy,16,16,C:/Users/Sarah Linan/Desktop/SL-subject-2.csv,legacy,Kafkaesque Koffka,3.2.8,0,s,NA,s,NA,NA,s,538,NA,42624,NA,NA,538,2,legacy,1024,2,48000,-16,experiment,SSSSS,2,even,81660,45297,NA,NA,59613,2664,NA,NA,82760,2672,NA,NA,82862,83400,82757,82862,Flanker task SL,14,15447,17,yes,1024
83.33333333,83.33333333,894.8333333,894.8333333,black,legacy,legacy,legacy,0,congruent,uniform,1,undefined,1,h,17,0,0,0,17,0,17,0,17,0,0,0,17,17,17,17,9/26/19 17:29,1500,The main experiment item,yes,FlankertaskSL.osexp,C:/Users/Sarah Linan/Desktop,no,mono,no,18,no,white,no,yes,768,legacy,17,17,C:/Users/Sarah Linan/Desktop/SL-subject-2.csv,legacy,Kafkaesque Koffka,3.2.8,0,h,NA,s,NA,NA,h,660,NA,42624,NA,NA,660,2,legacy,1024,2,48000,-16,experiment,HHHHH,2,even,83492,45297,NA,NA,59613,2664,NA,NA,84583,2672,NA,NA,84686,85347,84579,84686,Flanker task SL,15,16107,18,yes,1024
84.21052632,84.21052632,887.9473684,887.9473684,black,legacy,legacy,legacy,0,congruent,uniform,1,undefined,1,h,18,0,0,0,18,0,18,0,18,0,0,0,18,18,18,18,9/26/19 17:29,1500,The main experiment item,yes,FlankertaskSL.osexp,C:/Users/Sarah Linan/Desktop,no,mono,no,18,no,white,no,yes,768,legacy,18,18,C:/Users/Sarah Linan/Desktop/SL-subject-2.csv,legacy,Kafkaesque Koffka,3.2.8,0,h,NA,s,NA,NA,h,764,NA,42624,NA,NA,764,2,legacy,1024,2,48000,-16,experiment,HHHHH,2,even,85433,45297,NA,NA,59613,2664,NA,NA,86541,2672,NA,NA,86643,87407,86538,86643,Flanker task SL,16,16871,19,yes,1024
85,85,877.4,877.4,black,legacy,legacy,legacy,0,incongruent ,uniform,1,undefined,1,s,19,0,0,0,19,0,19,0,19,0,0,0,19,19,19,19,9/26/19 17:29,1500,The main experiment item,yes,FlankertaskSL.osexp,C:/Users/Sarah Linan/Desktop,no,mono,no,18,no,white,no,yes,768,legacy,19,19,C:/Users/Sarah Linan/Desktop/SL-subject-2.csv,legacy,Kafkaesque Koffka,3.2.8,0,s,NA,s,NA,NA,s,677,NA,42624,NA,NA,677,2,legacy,1024,2,48000,-16,experiment,HHSHH,2,even,87497,45297,NA,NA,59613,2664,NA,NA,88602,2672,NA,NA,88704,89381,88599,88704,Flanker task SL,17,17548,20,yes,1024
85.71428571,85.71428571,862.8571429,862.8571429,black,legacy,legacy,legacy,0,incongruent ,uniform,1,undefined,1,s,20,0,0,0,20,0,20,0,20,0,0,0,20,20,20,20,9/26/19 17:29,1500,The main experiment item,yes,FlankertaskSL.osexp,C:/Users/Sarah Linan/Desktop,no,mono,no,18,no,white,no,yes,768,legacy,20,20,C:/Users/Sarah Linan/Desktop/SL-subject-2.csv,legacy,Kafkaesque Koffka,3.2.8,0,s,NA,s,NA,NA,s,572,NA,42624,NA,NA,572,2,legacy,1024,2,48000,-16,experiment,HHSHH,2,even,89471,45297,NA,NA,59613,2664,NA,NA,90576,2672,NA,NA,90679,91252,90573,90678,Flanker task SL,18,18120,21,yes,1024
86.36363636,86.36363636,854.5909091,854.5909091,black,legacy,legacy,legacy,0,congruent,uniform,1,undefined,1,h,21,0,0,0,21,0,21,0,21,0,0,0,21,21,21,21,9/26/19 17:29,1500,The main experiment item,yes,FlankertaskSL.osexp,C:/Users/Sarah Linan/Desktop,no,mono,no,18,no,white,no,yes,768,legacy,21,21,C:/Users/Sarah Linan/Desktop/SL-subject-2.csv,legacy,Kafkaesque Koffka,3.2.8,0,h,NA,s,NA,NA,h,681,NA,42624,NA,NA,681,2,legacy,1024,2,48000,-16,experiment,HHHHH,2,even,91335,45297,NA,NA,59613,2664,NA,NA,92433,2672,NA,NA,92535,93216,92429,92535,Flanker task SL,19,18801,22,yes,1024
86.95652174,86.95652174,851,851,black,legacy,legacy,legacy,0,incongruent,uniform,1,undefined,1,h,22,0,0,0,22,0,22,0,22,0,0,0,22,22,22,22,9/26/19 17:29,1500,The main experiment item,yes,FlankertaskSL.osexp,C:/Users/Sarah Linan/Desktop,no,mono,no,18,no,white,no,yes,768,legacy,22,22,C:/Users/Sarah Linan/Desktop/SL-subject-2.csv,legacy,Kafkaesque Koffka,3.2.8,0,h,NA,s,NA,NA,h,772,NA,42624,NA,NA,772,2,legacy,1024,2,48000,-16,experiment,SSHSS,2,even,93254,45297,NA,NA,59613,2664,NA,NA,94353,2672,NA,NA,94454,95226,94350,94454,Flanker task SL,20,19573,23,yes,1024
87.5,87.5,841.7916667,841.7916667,black,legacy,legacy,legacy,0,incongruent,uniform,1,undefined,1,h,23,0,0,0,23,0,23,0,23,0,0,0,23,23,23,23,9/26/19 17:29,1500,The main experiment item,yes,FlankertaskSL.osexp,C:/Users/Sarah Linan/Desktop,no,mono,no,18,no,white,no,yes,768,legacy,23,23,C:/Users/Sarah Linan/Desktop/SL-subject-2.csv,legacy,Kafkaesque Koffka,3.2.8,0,h,NA,s,NA,NA,h,630,NA,42624,NA,NA,630,2,legacy,1024,2,48000,-16,experiment,SSHSS,2,even,95318,45297,NA,NA,59613,2664,NA,NA,96417,2672,NA,NA,96519,97150,96413,96519,Flanker task SL,21,20203,24,yes,1024
88,88,833.84,833.84,black,legacy,legacy,legacy,0,congruent,uniform,1,undefined,1,s,24,0,0,0,24,0,24,0,24,0,0,0,24,24,24,24,9/26/19 17:29,1500,The main experiment item,yes,FlankertaskSL.osexp,C:/Users/Sarah Linan/Desktop,no,mono,no,18,no,white,no,yes,768,legacy,24,24,C:/Users/Sarah Linan/Desktop/SL-subject-2.csv,legacy,Kafkaesque Koffka,3.2.8,0,s,NA,s,NA,NA,s,643,NA,42624,NA,NA,643,2,legacy,1024,2,48000,-16,experiment,SSSSS,2,even,97238,45297,NA,NA,59613,2664,NA,NA,98327,2672,NA,NA,98429,99073,98324,98429,Flanker task SL,22,20846,25,yes,1024
88.46153846,88.46153846,824.3076923,824.3076923,black,legacy,legacy,legacy,0,congruent,uniform,1,undefined,1,s,25,0,0,0,25,0,25,0,25,0,0,0,25,25,25,25,9/26/19 17:29,1500,The main experiment item,yes,FlankertaskSL.osexp,C:/Users/Sarah Linan/Desktop,no,mono,no,18,no,white,no,yes,768,legacy,25,25,C:/Users/Sarah Linan/Desktop/SL-subject-2.csv,legacy,Kafkaesque Koffka,3.2.8,0,s,NA,s,NA,NA,s,586,NA,42624,NA,NA,586,2,legacy,1024,2,48000,-16,experiment,SSSSS,2,even,99160,45297,NA,NA,59613,2664,NA,NA,100260,2672,NA,NA,100363,100949,100258,100362,Flanker task SL,23,21432,26,yes,1024
88.88888889,88.88888889,818.7037037,818.7037037,black,legacy,legacy,legacy,0,congruent,uniform,1,undefined,1,h,26,0,0,0,26,0,26,0,26,0,0,0,26,26,26,26,9/26/19 17:29,1500,The main experiment item,yes,FlankertaskSL.osexp,C:/Users/Sarah Linan/Desktop,no,mono,no,18,no,white,no,yes,768,legacy,26,26,C:/Users/Sarah Linan/Desktop/SL-subject-2.csv,legacy,Kafkaesque Koffka,3.2.8,0,h,NA,s,NA,NA,h,673,NA,42624,NA,NA,673,2,legacy,1024,2,48000,-16,experiment,HHHHH,2,even,101036,45297,NA,NA,59613,2664,NA,NA,102136,2672,NA,NA,102240,102913,102134,102240,Flanker task SL,24,22105,27,yes,1024
89.28571429,89.28571429,812.6785714,812.6785714,black,legacy,legacy,legacy,0,incongruent ,uniform,1,undefined,1,s,27,0,0,0,27,0,27,0,27,0,0,0,27,27,27,27,9/26/19 17:29,1500,The main experiment item,yes,FlankertaskSL.osexp,C:/Users/Sarah Linan/Desktop,no,mono,no,18,no,white,no,yes,768,legacy,27,27,C:/Users/Sarah Linan/Desktop/SL-subject-2.csv,legacy,Kafkaesque Koffka,3.2.8,0,s,NA,s,NA,NA,s,650,NA,42624,NA,NA,650,2,legacy,1024,2,48000,-16,experiment,HHSHH,2,even,103000,45297,NA,NA,59613,2664,NA,NA,104109,2672,NA,NA,104211,104861,104106,104211,Flanker task SL,25,22755,28,yes,1024
89.65517241,89.65517241,801.4827586,801.4827586,black,legacy,legacy,legacy,0,congruent,uniform,1,undefined,1,s,28,0,0,0,28,0,28,0,28,0,0,0,28,28,28,28,9/26/19 17:29,1500,The main experiment item,yes,FlankertaskSL.osexp,C:/Users/Sarah Linan/Desktop,no,mono,no,18,no,white,no,yes,768,legacy,28,28,C:/Users/Sarah Linan/Desktop/SL-subject-2.csv,legacy,Kafkaesque Koffka,3.2.8,0,s,NA,s,NA,NA,s,488,NA,42624,NA,NA,488,2,legacy,1024,2,48000,-16,experiment,SSSSS,2,even,104953,45297,NA,NA,59613,2664,NA,NA,106050,2672,NA,NA,106153,106642,106047,106153,Flanker task SL,26,23243,29,yes,1024
90,90,792.3,792.3,black,legacy,legacy,legacy,0,incongruent,uniform,1,undefined,1,h,29,0,0,0,29,0,29,0,29,0,0,0,29,29,29,29,9/26/19 17:29,1500,The main experiment item,yes,FlankertaskSL.osexp,C:/Users/Sarah Linan/Desktop,no,mono,no,18,no,white,no,yes,768,legacy,29,29,C:/Users/Sarah Linan/Desktop/SL-subject-2.csv,legacy,Kafkaesque Koffka,3.2.8,0,h,NA,s,NA,NA,h,526,NA,42624,NA,NA,526,2,legacy,1024,2,48000,-16,experiment,SSHSS,2,even,106738,45297,NA,NA,59613,2664,NA,NA,107833,2672,NA,NA,107935,108461,107829,107935,Flanker task SL,27,23769,30,yes,1024
90.32258065,90.32258065,786.483871,786.483871,black,legacy,legacy,legacy,0,incongruent,uniform,1,undefined,1,h,30,0,0,0,30,0,30,0,30,0,0,0,30,30,30,30,9/26/19 17:29,1500,The main experiment item,yes,FlankertaskSL.osexp,C:/Users/Sarah Linan/Desktop,no,mono,no,18,no,white,no,yes,768,legacy,30,30,C:/Users/Sarah Linan/Desktop/SL-subject-2.csv,legacy,Kafkaesque Koffka,3.2.8,0,h,NA,s,NA,NA,h,612,NA,42624,NA,NA,612,2,legacy,1024,2,48000,-16,experiment,SSHSS,2,even,108548,45297,NA,NA,59613,2664,NA,NA,109647,2672,NA,NA,109749,110362,109644,109749,Flanker task SL,28,24381,31,yes,1024
90.625,90.625,778.15625,778.15625,black,legacy,legacy,legacy,0,incongruent,uniform,1,undefined,1,h,31,0,0,0,31,0,31,0,31,0,0,0,31,31,31,31,9/26/19 17:29,1500,The main experiment item,yes,FlankertaskSL.osexp,C:/Users/Sarah Linan/Desktop,no,mono,no,18,no,white,no,yes,768,legacy,31,31,C:/Users/Sarah Linan/Desktop/SL-subject-2.csv,legacy,Kafkaesque Koffka,3.2.8,0,h,NA,s,NA,NA,h,520,NA,42624,NA,NA,520,2,legacy,1024,2,48000,-16,experiment,SSHSS,2,even,110456,45297,NA,NA,59613,2664,NA,NA,111548,2672,NA,NA,111650,112170,111546,111650,Flanker task SL,29,24901,32,yes,1024
90.90909091,90.90909091,768.6969697,768.6969697,black,legacy,legacy,legacy,0,congruent,uniform,1,undefined,1,s,32,0,0,0,32,0,32,0,32,0,0,0,32,32,32,32,9/26/19 17:29,1500,The main experiment item,yes,FlankertaskSL.osexp,C:/Users/Sarah Linan/Desktop,no,mono,no,18,no,white,no,yes,768,legacy,32,32,C:/Users/Sarah Linan/Desktop/SL-subject-2.csv,legacy,Kafkaesque Koffka,3.2.8,0,s,NA,s,NA,NA,s,466,NA,42624,NA,NA,466,2,legacy,1024,2,48000,-16,experiment,SSSSS,2,even,112265,45297,NA,NA,59613,2664,NA,NA,113363,2672,NA,NA,113465,113932,113360,113465,Flanker task SL,30,25367,33,yes,1024
91.17647059,91.17647059,763.5,763.5,black,legacy,legacy,legacy,0,incongruent ,uniform,1,undefined,1,s,33,0,0,0,33,0,33,0,33,0,0,0,33,33,33,33,9/26/19 17:29,1500,The main experiment item,yes,FlankertaskSL.osexp,C:/Users/Sarah Linan/Desktop,no,mono,no,18,no,white,no,yes,768,legacy,33,33,C:/Users/Sarah Linan/Desktop/SL-subject-2.csv,legacy,Kafkaesque Koffka,3.2.8,0,s,NA,s,NA,NA,s,592,NA,42624,NA,NA,592,2,legacy,1024,2,48000,-16,experiment,HHSHH,2,even,114028,45297,NA,NA,59613,2664,NA,NA,115125,2672,NA,NA,115228,115821,115123,115228,Flanker task SL,31,25959,34,yes,1024
91.42857143,91.42857143,754.6571429,754.6571429,black,legacy,legacy,legacy,0,congruent,uniform,1,undefined,1,h,34,0,0,0,34,0,34,0,34,0,0,0,34,34,34,34,9/26/19 17:29,1500,The main experiment item,yes,FlankertaskSL.osexp,C:/Users/Sarah Linan/Desktop,no,mono,no,18,no,white,no,yes,768,legacy,34,34,C:/Users/Sarah Linan/Desktop/SL-subject-2.csv,legacy,Kafkaesque Koffka,3.2.8,0,h,NA,s,NA,NA,h,454,NA,42624,NA,NA,454,2,legacy,1024,2,48000,-16,experiment,HHHHH,2,even,115915,45297,NA,NA,59613,2664,NA,NA,117015,2672,NA,NA,117118,117572,117012,117118,Flanker task SL,32,26413,35,yes,1024
91.66666667,91.66666667,752.8333333,752.8333333,black,legacy,legacy,legacy,0,incongruent,uniform,1,undefined,1,h,35,0,0,0,35,0,35,0,35,0,0,0,35,35,35,35,9/26/19 17:29,1500,The main experiment item,yes,FlankertaskSL.osexp,C:/Users/Sarah Linan/Desktop,no,mono,no,18,no,white,no,yes,768,legacy,35,35,C:/Users/Sarah Linan/Desktop/SL-subject-2.csv,legacy,Kafkaesque Koffka,3.2.8,0,h,NA,s,NA,NA,h,689,NA,42624,NA,NA,689,2,legacy,1024,2,48000,-16,experiment,SSHSS,2,even,117667,45297,NA,NA,59613,2664,NA,NA,118768,2672,NA,NA,118870,119559,118764,118870,Flanker task SL,33,27102,36,yes,1024
91.89189189,91.89189189,749.0810811,749.0810811,black,legacy,legacy,legacy,0,congruent,uniform,1,undefined,1,h,36,0,0,0,36,0,36,0,36,0,0,0,36,36,36,36,9/26/19 17:29,1500,The main experiment item,yes,FlankertaskSL.osexp,C:/Users/Sarah Linan/Desktop,no,mono,no,18,no,white,no,yes,768,legacy,36,36,C:/Users/Sarah Linan/Desktop/SL-subject-2.csv,legacy,Kafkaesque Koffka,3.2.8,0,h,NA,s,NA,NA,h,614,NA,42624,NA,NA,614,2,legacy,1024,2,48000,-16,experiment,HHHHH,2,even,119709,45297,NA,NA,59613,2664,NA,NA,120806,2672,NA,NA,120908,121523,120803,120908,Flanker task SL,34,27716,37,yes,1024
89.47368421,89.47368421,741.4473684,741.4473684,black,legacy,legacy,legacy,0,incongruent,uniform,0,undefined,0,h,37,0,0,0,37,0,37,0,37,0,0,0,37,37,37,37,9/26/19 17:29,1500,The main experiment item,yes,FlankertaskSL.osexp,C:/Users/Sarah Linan/Desktop,no,mono,no,18,no,white,no,yes,768,legacy,37,37,C:/Users/Sarah Linan/Desktop/SL-subject-2.csv,legacy,Kafkaesque Koffka,3.2.8,0,s,NA,s,NA,NA,s,459,NA,42624,NA,NA,459,2,legacy,1024,2,48000,-16,experiment,SSHSS,2,even,121618,45297,NA,NA,59613,2664,NA,NA,122715,2672,NA,NA,122817,123277,122712,122817,Flanker task SL,34,28175,38,yes,1024
89.74358974,89.74358974,739.3076923,739.3076923,black,legacy,legacy,legacy,0,congruent,uniform,1,undefined,1,s,38,0,0,0,38,0,38,0,38,0,0,0,38,38,38,38,9/26/19 17:29,1500,The main experiment item,yes,FlankertaskSL.osexp,C:/Users/Sarah Linan/Desktop,no,mono,no,18,no,white,no,yes,768,legacy,38,38,C:/Users/Sarah Linan/Desktop/SL-subject-2.csv,legacy,Kafkaesque Koffka,3.2.8,0,s,NA,s,NA,NA,s,658,NA,42624,NA,NA,658,2,legacy,1024,2,48000,-16,experiment,SSSSS,2,even,123821,45297,NA,NA,123318,2664,NA,NA,124905,2672,NA,NA,125009,125668,124902,125009,Flanker task SL,35,28833,39,yes,1024
90,90,737.925,737.925,black,legacy,legacy,legacy,0,congruent,uniform,1,undefined,1,h,39,0,0,0,39,0,39,0,39,0,0,0,39,39,39,39,9/26/19 17:29,1500,The main experiment item,yes,FlankertaskSL.osexp,C:/Users/Sarah Linan/Desktop,no,mono,no,18,no,white,no,yes,768,legacy,39,39,C:/Users/Sarah Linan/Desktop/SL-subject-2.csv,legacy,Kafkaesque Koffka,3.2.8,0,h,NA,s,NA,NA,h,684,NA,42624,NA,NA,684,2,legacy,1024,2,48000,-16,experiment,HHHHH,2,even,125756,45297,NA,NA,123318,2664,NA,NA,126848,2672,NA,NA,126950,127635,126845,126950,Flanker task SL,36,29517,40,yes,1024
90.24390244,90.24390244,735.4390244,735.4390244,black,legacy,legacy,legacy,0,congruent,uniform,1,undefined,1,s,40,0,0,0,40,0,40,0,40,0,0,0,40,40,40,40,9/26/19 17:29,1500,The main experiment item,yes,FlankertaskSL.osexp,C:/Users/Sarah Linan/Desktop,no,mono,no,18,no,white,no,yes,768,legacy,40,40,C:/Users/Sarah Linan/Desktop/SL-subject-2.csv,legacy,Kafkaesque Koffka,3.2.8,0,s,NA,s,NA,NA,s,636,NA,42624,NA,NA,636,2,legacy,1024,2,48000,-16,experiment,SSSSS,2,even,127731,45297,NA,NA,123318,2664,NA,NA,128836,2672,NA,NA,128938,129575,128832,128938,Flanker task SL,37,30153,41,yes,1024
90.47619048,90.47619048,731.4761905,731.4761905,black,legacy,legacy,legacy,0,congruent,uniform,1,undefined,1,s,41,0,0,0,41,0,41,0,41,0,0,0,41,41,41,41,9/26/19 17:29,1500,The main experiment item,yes,FlankertaskSL.osexp,C:/Users/Sarah Linan/Desktop,no,mono,no,18,no,white,no,yes,768,legacy,41,41,C:/Users/Sarah Linan/Desktop/SL-subject-2.csv,legacy,Kafkaesque Koffka,3.2.8,0,s,NA,s,NA,NA,s,569,NA,42624,NA,NA,569,2,legacy,1024,2,48000,-16,experiment,SSSSS,2,even,129605,45297,NA,NA,123318,2664,NA,NA,130701,2672,NA,NA,130803,131373,130698,130803,Flanker task SL,38,30722,42,yes,1024
90.69767442,90.69767442,730.2325581,730.2325581,black,legacy,legacy,legacy,0,congruent,uniform,1,undefined,1,h,42,0,0,0,42,0,42,0,42,0,0,0,42,42,42,42,9/26/19 17:29,1500,The main experiment item,yes,FlankertaskSL.osexp,C:/Users/Sarah Linan/Desktop,no,mono,no,18,no,white,no,yes,768,legacy,42,42,C:/Users/Sarah Linan/Desktop/SL-subject-2.csv,legacy,Kafkaesque Koffka,3.2.8,0,h,NA,s,NA,NA,h,678,NA,42624,NA,NA,678,2,legacy,1024,2,48000,-16,experiment,HHHHH,2,even,131459,45297,NA,NA,123318,2664,NA,NA,132560,2672,NA,NA,132662,133341,132557,132662,Flanker task SL,39,31400,43,yes,1024
90.90909091,90.90909091,731.7045455,731.7045455,black,legacy,legacy,legacy,0,incongruent,uniform,1,undefined,1,h,43,0,0,0,43,0,43,0,43,0,0,0,43,43,43,43,9/26/19 17:29,1500,The main experiment item,yes,FlankertaskSL.osexp,C:/Users/Sarah Linan/Desktop,no,mono,no,18,no,white,no,yes,768,legacy,43,43,C:/Users/Sarah Linan/Desktop/SL-subject-2.csv,legacy,Kafkaesque Koffka,3.2.8,0,h,NA,s,NA,NA,h,795,NA,42624,NA,NA,795,2,legacy,1024,2,48000,-16,experiment,SSHSS,2,even,133434,45297,NA,NA,123318,2664,NA,NA,134539,2672,NA,NA,134642,135438,134536,134641,Flanker task SL,40,32195,44,yes,1024
91.11111111,91.11111111,727.8666667,727.8666667,black,legacy,legacy,legacy,0,congruent,uniform,1,undefined,1,s,44,0,0,0,44,0,44,0,44,0,0,0,44,44,44,44,9/26/19 17:29,1500,The main experiment item,yes,FlankertaskSL.osexp,C:/Users/Sarah Linan/Desktop,no,mono,no,18,no,white,no,yes,768,legacy,44,44,C:/Users/Sarah Linan/Desktop/SL-subject-2.csv,legacy,Kafkaesque Koffka,3.2.8,0,s,NA,s,NA,NA,s,559,NA,42624,NA,NA,559,2,legacy,1024,2,48000,-16,experiment,SSSSS,2,even,135531,45297,NA,NA,123318,2664,NA,NA,136626,2672,NA,NA,136728,137288,136622,136728,Flanker task SL,41,32754,45,yes,1024
91.30434783,91.30434783,726.9347826,726.9347826,black,legacy,legacy,legacy,0,incongruent ,uniform,1,undefined,1,s,45,0,0,0,45,0,45,0,45,0,0,0,45,45,45,45,9/26/19 17:29,1500,The main experiment item,yes,FlankertaskSL.osexp,C:/Users/Sarah Linan/Desktop,no,mono,no,18,no,white,no,yes,768,legacy,45,45,C:/Users/Sarah Linan/Desktop/SL-subject-2.csv,legacy,Kafkaesque Koffka,3.2.8,0,s,NA,s,NA,NA,s,685,NA,42624,NA,NA,685,2,legacy,1024,2,48000,-16,experiment,HHSHH,2,even,137384,45297,NA,NA,123318,2664,NA,NA,138496,2672,NA,NA,138599,139284,138492,138598,Flanker task SL,42,33439,46,yes,1024
91.4893617,91.4893617,722.4680851,722.4680851,black,legacy,legacy,legacy,0,congruent,uniform,1,undefined,1,s,46,0,0,0,46,0,46,0,46,0,0,0,46,46,46,46,9/26/19 17:29,1500,The main experiment item,yes,FlankertaskSL.osexp,C:/Users/Sarah Linan/Desktop,no,mono,no,18,no,white,no,yes,768,legacy,46,46,C:/Users/Sarah Linan/Desktop/SL-subject-2.csv,legacy,Kafkaesque Koffka,3.2.8,0,s,NA,s,NA,NA,s,517,NA,42624,NA,NA,517,2,legacy,1024,2,48000,-16,experiment,SSSSS,2,even,139331,45297,NA,NA,123318,2664,NA,NA,140430,2672,NA,NA,140532,141049,140427,140532,Flanker task SL,43,33956,47,yes,1024
91.66666667,91.66666667,721.8125,721.8125,black,legacy,legacy,legacy,0,incongruent ,uniform,1,undefined,1,s,47,0,0,0,47,0,47,0,47,0,0,0,47,47,47,47,9/26/19 17:29,1500,The main experiment item,yes,FlankertaskSL.osexp,C:/Users/Sarah Linan/Desktop,no,mono,no,18,no,white,no,yes,768,legacy,47,47,C:/Users/Sarah Linan/Desktop/SL-subject-2.csv,legacy,Kafkaesque Koffka,3.2.8,0,s,NA,s,NA,NA,s,691,NA,42624,NA,NA,691,2,legacy,1024,2,48000,-16,experiment,HHSHH,2,even,141146,45297,NA,NA,123318,2664,NA,NA,142245,2672,NA,NA,142347,143039,142242,142347,Flanker task SL,44,34647,48,yes,1024
91.83673469,91.83673469,721.2857143,721.2857143,black,legacy,legacy,legacy,0,incongruent ,uniform,1,undefined,1,s,48,0,0,0,48,0,48,0,48,0,0,0,48,48,48,48,9/26/19 17:29,1500,The main experiment item,yes,FlankertaskSL.osexp,C:/Users/Sarah Linan/Desktop,no,mono,no,18,no,white,no,yes,768,legacy,48,48,C:/Users/Sarah Linan/Desktop/SL-subject-2.csv,legacy,Kafkaesque Koffka,3.2.8,0,s,NA,s,NA,NA,s,696,NA,42624,NA,NA,696,2,legacy,1024,2,48000,-16,experiment,HHSHH,2,even,143129,45297,NA,NA,123318,2664,NA,NA,144226,2672,NA,NA,144327,145024,144222,144327,Flanker task SL,45,35343,49,yes,1024
92,92,720.02,720.02,black,legacy,legacy,legacy,0,incongruent,uniform,1,undefined,1,h,49,0,0,0,49,0,49,0,49,0,0,0,49,49,49,49,9/26/19 17:29,1500,The main experiment item,yes,FlankertaskSL.osexp,C:/Users/Sarah Linan/Desktop,no,mono,no,18,no,white,no,yes,768,legacy,49,49,C:/Users/Sarah Linan/Desktop/SL-subject-2.csv,legacy,Kafkaesque Koffka,3.2.8,0,h,NA,s,NA,NA,h,658,NA,42624,NA,NA,658,2,legacy,1024,2,48000,-16,experiment,SSHSS,2,even,145118,45297,NA,NA,123318,2664,NA,NA,146220,2672,NA,NA,146323,146982,146217,146323,Flanker task SL,46,36001,50,yes,1024
92.15686275,92.15686275,718.0392157,718.0392157,black,legacy,legacy,legacy,0,congruent,uniform,1,undefined,1,h,50,0,0,0,50,0,50,0,50,0,0,0,50,50,50,50,9/26/19 17:29,1500,The main experiment item,yes,FlankertaskSL.osexp,C:/Users/Sarah Linan/Desktop,no,mono,no,18,no,white,no,yes,768,legacy,50,50,C:/Users/Sarah Linan/Desktop/SL-subject-2.csv,legacy,Kafkaesque Koffka,3.2.8,0,h,NA,s,NA,NA,h,619,NA,42624,NA,NA,619,2,legacy,1024,2,48000,-16,experiment,HHHHH,2,even,147018,45297,NA,NA,123318,2664,NA,NA,148117,2672,NA,NA,148219,148839,148114,148219,Flanker task SL,47,36620,51,yes,1024
92.30769231,92.30769231,712.9038462,712.9038462,black,legacy,legacy,legacy,0,congruent,uniform,1,undefined,1,h,51,0,0,0,51,0,51,0,51,0,0,0,51,51,51,51,9/26/19 17:29,1500,The main experiment item,yes,FlankertaskSL.osexp,C:/Users/Sarah Linan/Desktop,no,mono,no,18,no,white,no,yes,768,legacy,51,51,C:/Users/Sarah Linan/Desktop/SL-subject-2.csv,legacy,Kafkaesque Koffka,3.2.8,0,h,NA,s,NA,NA,h,451,NA,42624,NA,NA,451,2,legacy,1024,2,48000,-16,experiment,HHHHH,2,even,148934,45297,NA,NA,123318,2664,NA,NA,150035,2672,NA,NA,150137,150589,150031,150137,Flanker task SL,48,37071,52,yes,1024
92.45283019,92.45283019,710.9433962,710.9433962,black,legacy,legacy,legacy,0,incongruent,uniform,1,undefined,1,h,52,0,0,0,52,0,52,0,52,0,0,0,52,52,52,52,9/26/19 17:29,1500,The main experiment item,yes,FlankertaskSL.osexp,C:/Users/Sarah Linan/Desktop,no,mono,no,18,no,white,no,yes,768,legacy,52,52,C:/Users/Sarah Linan/Desktop/SL-subject-2.csv,legacy,Kafkaesque Koffka,3.2.8,0,h,NA,s,NA,NA,h,609,NA,42624,NA,NA,609,2,legacy,1024,2,48000,-16,experiment,SSHSS,2,even,150676,45297,NA,NA,123318,2664,NA,NA,151761,2672,NA,NA,151863,152473,151758,151863,Flanker task SL,49,37680,53,yes,1024
92.59259259,92.59259259,708.3148148,708.3148148,black,legacy,legacy,legacy,0,incongruent,uniform,1,undefined,1,h,53,0,0,0,53,0,53,0,53,0,0,0,53,53,53,53,9/26/19 17:29,1500,The main experiment item,yes,FlankertaskSL.osexp,C:/Users/Sarah Linan/Desktop,no,mono,no,18,no,white,no,yes,768,legacy,53,53,C:/Users/Sarah Linan/Desktop/SL-subject-2.csv,legacy,Kafkaesque Koffka,3.2.8,0,h,NA,s,NA,NA,h,569,NA,42624,NA,NA,569,2,legacy,1024,2,48000,-16,experiment,SSHSS,2,even,152562,45297,NA,NA,123318,2664,NA,NA,153658,2672,NA,NA,153761,154331,153655,153760,Flanker task SL,50,38249,54,yes,1024
92.72727273,92.72727273,705.0181818,705.0181818,black,legacy,legacy,legacy,0,incongruent,uniform,1,undefined,1,h,54,0,0,0,54,0,54,0,54,0,0,0,54,54,54,54,9/26/19 17:29,1500,The main experiment item,yes,FlankertaskSL.osexp,C:/Users/Sarah Linan/Desktop,no,mono,no,18,no,white,no,yes,768,legacy,54,54,C:/Users/Sarah Linan/Desktop/SL-subject-2.csv,legacy,Kafkaesque Koffka,3.2.8,0,h,NA,s,NA,NA,h,527,NA,42624,NA,NA,527,2,legacy,1024,2,48000,-16,experiment,SSHSS,2,even,154375,45297,NA,NA,123318,2664,NA,NA,155468,2672,NA,NA,155570,156098,155465,155570,Flanker task SL,51,38776,55,yes,1024
92.85714286,92.85714286,701.625,701.625,black,legacy,legacy,legacy,0,incongruent,uniform,1,undefined,1,h,55,0,0,0,55,0,55,0,55,0,0,0,55,55,55,55,9/26/19 17:29,1500,The main experiment item,yes,FlankertaskSL.osexp,C:/Users/Sarah Linan/Desktop,no,mono,no,18,no,white,no,yes,768,legacy,55,55,C:/Users/Sarah Linan/Desktop/SL-subject-2.csv,legacy,Kafkaesque Koffka,3.2.8,0,h,NA,s,NA,NA,h,515,NA,42624,NA,NA,515,2,legacy,1024,2,48000,-16,experiment,SSHSS,2,even,156190,45297,NA,NA,123318,2664,NA,NA,157296,2672,NA,NA,157398,157914,157292,157398,Flanker task SL,52,39291,56,yes,1024
92.98245614,92.98245614,698.4736842,698.4736842,black,legacy,legacy,legacy,0,congruent,uniform,1,undefined,1,h,56,0,0,0,56,0,56,0,56,0,0,0,56,56,56,56,9/26/19 17:29,1500,The main experiment item,yes,FlankertaskSL.osexp,C:/Users/Sarah Linan/Desktop,no,mono,no,18,no,white,no,yes,768,legacy,56,56,C:/Users/Sarah Linan/Desktop/SL-subject-2.csv,legacy,Kafkaesque Koffka,3.2.8,0,h,NA,s,NA,NA,h,522,NA,42624,NA,NA,522,2,legacy,1024,2,48000,-16,experiment,HHHHH,2,even,158010,45297,NA,NA,123318,2664,NA,NA,159107,2672,NA,NA,159209,159732,159104,159209,Flanker task SL,53,39813,57,yes,1024
93.10344828,93.10344828,694.5689655,694.5689655,black,legacy,legacy,legacy,0,congruent,uniform,1,undefined,1,h,57,0,0,0,57,0,57,0,57,0,0,0,57,57,57,57,9/26/19 17:29,1500,The main experiment item,yes,FlankertaskSL.osexp,C:/Users/Sarah Linan/Desktop,no,mono,no,18,no,white,no,yes,768,legacy,57,57,C:/Users/Sarah Linan/Desktop/SL-subject-2.csv,legacy,Kafkaesque Koffka,3.2.8,0,h,NA,s,NA,NA,h,472,NA,42624,NA,NA,472,2,legacy,1024,2,48000,-16,experiment,HHHHH,2,even,159819,45297,NA,NA,123318,2664,NA,NA,160926,2672,NA,NA,161028,161500,160923,161028,Flanker task SL,54,40285,58,yes,1024
93.22033898,93.22033898,694.4237288,694.4237288,black,legacy,legacy,legacy,0,congruent,uniform,1,undefined,1,s,58,0,0,0,58,0,58,0,58,0,0,0,58,58,58,58,9/26/19 17:29,1500,The main experiment item,yes,FlankertaskSL.osexp,C:/Users/Sarah Linan/Desktop,no,mono,no,18,no,white,no,yes,768,legacy,58,58,C:/Users/Sarah Linan/Desktop/SL-subject-2.csv,legacy,Kafkaesque Koffka,3.2.8,0,s,NA,s,NA,NA,s,686,NA,42624,NA,NA,686,2,legacy,1024,2,48000,-16,experiment,SSSSS,2,even,161594,45297,NA,NA,123318,2664,NA,NA,162688,2672,NA,NA,162790,163477,162685,162790,Flanker task SL,55,40971,59,yes,1024
93.33333333,93.33333333,694.05,694.05,black,legacy,legacy,legacy,0,incongruent ,uniform,1,undefined,1,s,59,0,0,0,59,0,59,0,59,0,0,0,59,59,59,59,9/26/19 17:29,1500,The main experiment item,yes,FlankertaskSL.osexp,C:/Users/Sarah Linan/Desktop,no,mono,no,18,no,white,no,yes,768,legacy,59,59,C:/Users/Sarah Linan/Desktop/SL-subject-2.csv,legacy,Kafkaesque Koffka,3.2.8,0,s,NA,s,NA,NA,s,672,NA,42624,NA,NA,672,2,legacy,1024,2,48000,-16,experiment,HHSHH,2,even,163568,45297,NA,NA,123318,2664,NA,NA,164664,2672,NA,NA,164767,165440,164662,164767,Flanker task SL,56,41643,60,yes,1024
93.44262295,93.44262295,692.4754098,692.4754098,black,legacy,legacy,legacy,0,incongruent,uniform,1,undefined,1,h,60,0,0,0,60,0,60,0,60,0,0,0,60,60,60,60,9/26/19 17:29,1500,The main experiment item,yes,FlankertaskSL.osexp,C:/Users/Sarah Linan/Desktop,no,mono,no,18,no,white,no,yes,768,legacy,60,60,C:/Users/Sarah Linan/Desktop/SL-subject-2.csv,legacy,Kafkaesque Koffka,3.2.8,0,h,NA,s,NA,NA,h,598,NA,42624,NA,NA,598,2,legacy,1024,2,48000,-16,experiment,SSHSS,2,even,165532,45297,NA,NA,123318,2664,NA,NA,166626,2672,NA,NA,166728,167327,166623,166728,Flanker task SL,57,42241,61,yes,1024
93.5483871,93.5483871,692.0483871,692.0483871,black,legacy,legacy,legacy,0,incongruent ,uniform,1,undefined,1,s,61,0,0,0,61,0,61,0,61,0,0,0,61,61,61,61,9/26/19 17:29,1500,The main experiment item,yes,FlankertaskSL.osexp,C:/Users/Sarah Linan/Desktop,no,mono,no,18,no,white,no,yes,768,legacy,61,61,C:/Users/Sarah Linan/Desktop/SL-subject-2.csv,legacy,Kafkaesque Koffka,3.2.8,0,s,NA,s,NA,NA,s,666,NA,42624,NA,NA,666,2,legacy,1024,2,48000,-16,experiment,HHSHH,2,even,167419,45297,NA,NA,123318,2664,NA,NA,168525,2672,NA,NA,168627,169294,168521,168627,Flanker task SL,58,42907,62,yes,1024
93.65079365,93.65079365,689.984127,689.984127,black,legacy,legacy,legacy,0,congruent,uniform,1,undefined,1,h,62,0,0,0,62,0,62,0,62,0,0,0,62,62,62,62,9/26/19 17:29,1500,The main experiment item,yes,FlankertaskSL.osexp,C:/Users/Sarah Linan/Desktop,no,mono,no,18,no,white,no,yes,768,legacy,62,62,C:/Users/Sarah Linan/Desktop/SL-subject-2.csv,legacy,Kafkaesque Koffka,3.2.8,0,h,NA,s,NA,NA,h,562,NA,42624,NA,NA,562,2,legacy,1024,2,48000,-16,experiment,HHHHH,2,even,169326,45297,NA,NA,123318,2664,NA,NA,170426,2672,NA,NA,170528,171091,170423,170528,Flanker task SL,59,43469,63,yes,1024
93.75,93.75,687.90625,687.90625,black,legacy,legacy,legacy,0,congruent,uniform,1,undefined,1,h,63,0,0,0,63,0,63,0,63,0,0,0,63,63,63,63,9/26/19 17:29,1500,The main experiment item,yes,FlankertaskSL.osexp,C:/Users/Sarah Linan/Desktop,no,mono,no,18,no,white,no,yes,768,legacy,63,63,C:/Users/Sarah Linan/Desktop/SL-subject-2.csv,legacy,Kafkaesque Koffka,3.2.8,0,h,NA,s,NA,NA,h,557,NA,42624,NA,NA,557,2,legacy,1024,2,48000,-16,experiment,HHHHH,2,even,171178,45297,NA,NA,123318,2664,NA,NA,172276,2672,NA,NA,172377,172935,172273,172377,Flanker task SL,60,44026,64,yes,1024
93.84615385,93.84615385,687.7692308,687.7692308,black,legacy,legacy,legacy,0,incongruent ,uniform,1,undefined,1,s,64,0,0,0,64,0,64,0,64,0,0,0,64,64,64,64,9/26/19 17:29,1500,The main experiment item,yes,FlankertaskSL.osexp,C:/Users/Sarah Linan/Desktop,no,mono,no,18,no,white,no,yes,768,legacy,64,64,C:/Users/Sarah Linan/Desktop/SL-subject-2.csv,legacy,Kafkaesque Koffka,3.2.8,0,s,NA,s,NA,NA,s,679,NA,42624,NA,NA,679,2,legacy,1024,2,48000,-16,experiment,HHSHH,2,even,173022,45297,NA,NA,123318,2664,NA,NA,174116,2672,NA,NA,174217,174897,174113,174217,Flanker task SL,61,44705,65,yes,1024
93.93939394,93.93939394,685.0151515,685.0151515,black,legacy,legacy,legacy,0,congruent,uniform,1,undefined,1,h,65,0,0,0,65,0,65,0,65,0,0,0,65,65,65,65,9/26/19 17:29,1500,The main experiment item,yes,FlankertaskSL.osexp,C:/Users/Sarah Linan/Desktop,no,mono,no,18,no,white,no,yes,768,legacy,65,65,C:/Users/Sarah Linan/Desktop/SL-subject-2.csv,legacy,Kafkaesque Koffka,3.2.8,0,h,NA,s,NA,NA,h,506,NA,42624,NA,NA,506,2,legacy,1024,2,48000,-16,experiment,HHHHH,2,even,174985,45297,NA,NA,123318,2664,NA,NA,176081,2672,NA,NA,176183,176689,176077,176183,Flanker task SL,62,45211,66,yes,1024
94.02985075,94.02985075,682.6268657,682.6268657,black,legacy,legacy,legacy,0,congruent,uniform,1,undefined,1,s,66,0,0,0,66,0,66,0,66,0,0,0,66,66,66,66,9/26/19 17:29,1500,The main experiment item,yes,FlankertaskSL.osexp,C:/Users/Sarah Linan/Desktop,no,mono,no,18,no,white,no,yes,768,legacy,66,66,C:/Users/Sarah Linan/Desktop/SL-subject-2.csv,legacy,Kafkaesque Koffka,3.2.8,0,s,NA,s,NA,NA,s,525,NA,42624,NA,NA,525,2,legacy,1024,2,48000,-16,experiment,SSSSS,2,even,176783,45297,NA,NA,123318,2664,NA,NA,177887,2672,NA,NA,177990,178516,177884,177990,Flanker task SL,63,45736,67,yes,1024
94.11764706,94.11764706,682.3529412,682.3529412,black,legacy,legacy,legacy,0,incongruent,uniform,1,undefined,1,h,67,0,0,0,67,0,67,0,67,0,0,0,67,67,67,67,9/26/19 17:29,1500,The main experiment item,yes,FlankertaskSL.osexp,C:/Users/Sarah Linan/Desktop,no,mono,no,18,no,white,no,yes,768,legacy,67,67,C:/Users/Sarah Linan/Desktop/SL-subject-2.csv,legacy,Kafkaesque Koffka,3.2.8,0,h,NA,s,NA,NA,h,664,NA,42624,NA,NA,664,2,legacy,1024,2,48000,-16,experiment,SSHSS,2,even,178546,45297,NA,NA,123318,2664,NA,NA,179647,2672,NA,NA,179750,180415,179644,179750,Flanker task SL,64,46400,68,yes,1024
94.20289855,94.20289855,682.2028986,682.2028986,black,legacy,legacy,legacy,0,incongruent ,uniform,1,undefined,1,s,68,0,0,0,68,0,68,0,68,0,0,0,68,68,68,68,9/26/19 17:29,1500,The main experiment item,yes,FlankertaskSL.osexp,C:/Users/Sarah Linan/Desktop,no,mono,no,18,no,white,no,yes,768,legacy,68,68,C:/Users/Sarah Linan/Desktop/SL-subject-2.csv,legacy,Kafkaesque Koffka,3.2.8,0,s,NA,s,NA,NA,s,672,NA,42624,NA,NA,672,2,legacy,1024,2,48000,-16,experiment,HHSHH,2,even,180511,45297,NA,NA,123318,2664,NA,NA,181611,2672,NA,NA,181714,182387,181608,181714,Flanker task SL,65,47072,69,yes,1024
94.28571429,94.28571429,682.8,682.8,black,legacy,legacy,legacy,0,incongruent ,uniform,1,undefined,1,s,69,0,0,0,69,0,69,0,69,0,0,0,69,69,69,69,9/26/19 17:29,1500,The main experiment item,yes,FlankertaskSL.osexp,C:/Users/Sarah Linan/Desktop,no,mono,no,18,no,white,no,yes,768,legacy,69,69,C:/Users/Sarah Linan/Desktop/SL-subject-2.csv,legacy,Kafkaesque Koffka,3.2.8,0,s,NA,s,NA,NA,s,724,NA,42624,NA,NA,724,2,legacy,1024,2,48000,-16,experiment,HHSHH,2,even,182475,45297,NA,NA,123318,2664,NA,NA,183575,2672,NA,NA,183677,184401,183571,183677,Flanker task SL,66,47796,70,yes,1024
94.36619718,94.36619718,681.4084507,681.4084507,black,legacy,legacy,legacy,0,incongruent,uniform,1,undefined,1,h,70,0,0,0,70,0,70,0,70,0,0,0,70,70,70,70,9/26/19 17:29,1500,The main experiment item,yes,FlankertaskSL.osexp,C:/Users/Sarah Linan/Desktop,no,mono,no,18,no,white,no,yes,768,legacy,70,70,C:/Users/Sarah Linan/Desktop/SL-subject-2.csv,legacy,Kafkaesque Koffka,3.2.8,0,h,NA,s,NA,NA,h,584,NA,42624,NA,NA,584,2,legacy,1024,2,48000,-16,experiment,SSHSS,2,even,184437,45297,NA,NA,123318,2664,NA,NA,185529,2672,NA,NA,185631,186216,185526,185631,Flanker task SL,67,48380,71,yes,1024
94.44444444,94.44444444,681.5416667,681.5416667,black,legacy,legacy,legacy,0,congruent,uniform,1,undefined,1,h,71,0,0,0,71,0,71,0,71,0,0,0,71,71,71,71,9/26/19 17:29,1500,The main experiment item,yes,FlankertaskSL.osexp,C:/Users/Sarah Linan/Desktop,no,mono,no,18,no,white,no,yes,768,legacy,71,71,C:/Users/Sarah Linan/Desktop/SL-subject-2.csv,legacy,Kafkaesque Koffka,3.2.8,0,h,NA,s,NA,NA,h,691,NA,42624,NA,NA,691,2,legacy,1024,2,48000,-16,experiment,HHHHH,2,even,186314,45297,NA,NA,123318,2664,NA,NA,187419,2672,NA,NA,187522,188215,187415,187521,Flanker task SL,68,49071,72,yes,1024
94.52054795,94.52054795,679.8356164,679.8356164,black,legacy,legacy,legacy,0,incongruent ,uniform,1,undefined,1,s,72,0,0,0,72,0,72,0,72,0,0,0,72,72,72,72,9/26/19 17:29,1500,The main experiment item,yes,FlankertaskSL.osexp,C:/Users/Sarah Linan/Desktop,no,mono,no,18,no,white,no,yes,768,legacy,72,72,C:/Users/Sarah Linan/Desktop/SL-subject-2.csv,legacy,Kafkaesque Koffka,3.2.8,0,s,NA,s,NA,NA,s,557,NA,42624,NA,NA,557,2,legacy,1024,2,48000,-16,experiment,HHSHH,2,even,188311,45297,NA,NA,123318,2664,NA,NA,189405,2672,NA,NA,189508,190065,189402,189508,Flanker task SL,69,49628,73,yes,1024
94.59459459,94.59459459,678.1081081,678.1081081,black,legacy,legacy,legacy,0,congruent,uniform,1,undefined,1,s,73,0,0,0,73,0,73,0,73,0,0,0,73,73,73,73,9/26/19 17:29,1500,The main experiment item,yes,FlankertaskSL.osexp,C:/Users/Sarah Linan/Desktop,no,mono,no,18,no,white,no,yes,768,legacy,73,73,C:/Users/Sarah Linan/Desktop/SL-subject-2.csv,legacy,Kafkaesque Koffka,3.2.8,0,s,NA,s,NA,NA,s,552,NA,42624,NA,NA,552,2,legacy,1024,2,48000,-16,experiment,SSSSS,2,even,190153,45297,NA,NA,123318,2664,NA,NA,191246,2672,NA,NA,191349,191902,191243,191348,Flanker task SL,70,50180,74,yes,1024
94.66666667,94.66666667,676.4133333,676.4133333,black,legacy,legacy,legacy,0,congruent,uniform,1,undefined,1,s,74,0,0,0,74,0,74,0,74,0,0,0,74,74,74,74,9/26/19 17:29,1500,The main experiment item,yes,FlankertaskSL.osexp,C:/Users/Sarah Linan/Desktop,no,mono,no,18,no,white,no,yes,768,legacy,74,74,C:/Users/Sarah Linan/Desktop/SL-subject-2.csv,legacy,Kafkaesque Koffka,3.2.8,0,s,NA,s,NA,NA,s,551,NA,42624,NA,NA,551,2,legacy,1024,2,48000,-16,experiment,SSSSS,2,even,191995,45297,NA,NA,123318,2664,NA,NA,193097,2672,NA,NA,193199,193751,193094,193199,Flanker task SL,71,50731,75,yes,1024
94.73684211,94.73684211,673.5394737,673.5394737,black,legacy,legacy,legacy,0,congruent,uniform,1,undefined,1,s,75,0,0,0,75,0,75,0,75,0,0,0,75,75,75,75,9/26/19 17:29,1500,The main experiment item,yes,FlankertaskSL.osexp,C:/Users/Sarah Linan/Desktop,no,mono,no,18,no,white,no,yes,768,legacy,75,75,C:/Users/Sarah Linan/Desktop/SL-subject-2.csv,legacy,Kafkaesque Koffka,3.2.8,0,s,NA,s,NA,NA,s,458,NA,42624,NA,NA,458,2,legacy,1024,2,48000,-16,experiment,SSSSS,2,even,193847,45297,NA,NA,123318,2664,NA,NA,194950,2672,NA,NA,195052,195511,194947,195052,Flanker task SL,72,51189,76,yes,1024
94.80519481,94.80519481,673.1038961,673.1038961,black,legacy,legacy,legacy,0,incongruent ,uniform,1,undefined,1,s,76,0,0,0,76,0,76,0,76,0,0,0,76,76,76,76,9/26/19 17:29,1500,The main experiment item,yes,FlankertaskSL.osexp,C:/Users/Sarah Linan/Desktop,no,mono,no,18,no,white,no,yes,768,legacy,76,76,C:/Users/Sarah Linan/Desktop/SL-subject-2.csv,legacy,Kafkaesque Koffka,3.2.8,0,s,NA,s,NA,NA,s,640,NA,42624,NA,NA,640,2,legacy,1024,2,48000,-16,experiment,HHSHH,2,even,195601,45297,NA,NA,123318,2664,NA,NA,196698,2672,NA,NA,196800,197441,196695,196800,Flanker task SL,73,51829,77,yes,1024
94.87179487,94.87179487,672.4358974,672.4358974,black,legacy,legacy,legacy,0,incongruent,uniform,1,undefined,1,h,77,0,0,0,77,0,77,0,77,0,0,0,77,77,77,77,9/26/19 17:29,1500,The main experiment item,yes,FlankertaskSL.osexp,C:/Users/Sarah Linan/Desktop,no,mono,no,18,no,white,no,yes,768,legacy,77,77,C:/Users/Sarah Linan/Desktop/SL-subject-2.csv,legacy,Kafkaesque Koffka,3.2.8,0,h,NA,s,NA,NA,h,621,NA,42624,NA,NA,621,2,legacy,1024,2,48000,-16,experiment,SSHSS,2,even,197531,45297,NA,NA,123318,2664,NA,NA,198625,2672,NA,NA,198727,199349,198622,198727,Flanker task SL,74,52450,78,yes,1024
94.93670886,94.93670886,672.2405063,672.2405063,black,legacy,legacy,legacy,0,incongruent ,uniform,1,undefined,1,s,78,0,0,0,78,0,78,0,78,0,0,0,78,78,78,78,9/26/19 17:29,1500,The main experiment item,yes,FlankertaskSL.osexp,C:/Users/Sarah Linan/Desktop,no,mono,no,18,no,white,no,yes,768,legacy,78,78,C:/Users/Sarah Linan/Desktop/SL-subject-2.csv,legacy,Kafkaesque Koffka,3.2.8,0,s,NA,s,NA,NA,s,657,NA,42624,NA,NA,657,2,legacy,1024,2,48000,-16,experiment,HHSHH,2,even,199439,45297,NA,NA,123318,2664,NA,NA,200532,2672,NA,NA,200634,201291,200528,200634,Flanker task SL,75,53107,79,yes,1024
95,95,672.5,672.5,black,legacy,legacy,legacy,0,incongruent ,uniform,1,undefined,1,s,79,0,0,0,79,0,79,0,79,0,0,0,79,79,79,79,9/26/19 17:29,1500,The main experiment item,yes,FlankertaskSL.osexp,C:/Users/Sarah Linan/Desktop,no,mono,no,18,no,white,no,yes,768,legacy,79,79,C:/Users/Sarah Linan/Desktop/SL-subject-2.csv,legacy,Kafkaesque Koffka,3.2.8,0,s,NA,s,NA,NA,s,693,NA,42624,NA,NA,693,2,legacy,1024,2,48000,-16,experiment,HHSHH,2,even,201381,45297,NA,NA,123318,2664,NA,NA,202482,2672,NA,NA,202584,203279,202480,202584,Flanker task SL,76,53800,80,yes,1024
95.0617284,95.0617284,673.7530864,673.7530864,black,legacy,legacy,legacy,0,incongruent ,uniform,1,undefined,1,s,80,0,0,0,80,0,80,0,80,0,0,0,80,80,80,80,9/26/19 17:29,600,The main experiment item,yes,FlankertaskSL.osexp,C:/Users/Sarah Linan/Desktop,no,mono,no,18,no,white,no,yes,768,legacy,0,79,C:/Users/Sarah Linan/Desktop/SL-subject-2.csv,legacy,Kafkaesque Koffka,3.2.8,0,s,NA,s,s,NA,s,774,NA,42624,12430,NA,774,2,legacy,1024,2,48000,-16,experiment,HHSHH,2,even,203366,45297,216819,NA,123318,2664,NA,NA,216915,2672,204388,NA,217020,217795,216913,217020,Flanker task SL,77,54574,81,yes,1024
95.12195122,95.12195122,673.2073171,673.2073171,black,legacy,legacy,legacy,0,incongruent ,uniform,1,undefined,1,s,81,0,0,0,81,0,81,0,81,0,0,0,81,81,81,81,9/26/19 17:29,600,The main experiment item,yes,FlankertaskSL.osexp,C:/Users/Sarah Linan/Desktop,no,mono,no,18,no,white,no,yes,768,legacy,1,79,C:/Users/Sarah Linan/Desktop/SL-subject-2.csv,legacy,Kafkaesque Koffka,3.2.8,0,s,NA,s,s,NA,s,629,NA,42624,12430,NA,629,2,legacy,1024,2,48000,-16,experiment,HHSHH,2,even,218697,45297,216819,NA,123318,2664,218194,NA,219795,2672,204388,NA,219899,220529,219793,219898,Flanker task SL,78,55203,82,yes,1024
95.18072289,95.18072289,670.3373494,670.3373494,black,legacy,legacy,legacy,0,incongruent ,uniform,1,undefined,1,s,82,0,0,0,82,0,82,0,82,0,0,0,82,82,82,82,9/26/19 17:29,600,The main experiment item,yes,FlankertaskSL.osexp,C:/Users/Sarah Linan/Desktop,no,mono,no,18,no,white,no,yes,768,legacy,2,79,C:/Users/Sarah Linan/Desktop/SL-subject-2.csv,legacy,Kafkaesque Koffka,3.2.8,0,s,NA,s,s,NA,s,435,NA,42624,12430,NA,435,2,legacy,1024,2,48000,-16,experiment,HHSHH,2,even,221071,45297,216819,NA,123318,2664,220568,NA,222164,2672,204388,NA,222268,222704,222161,222267,Flanker task SL,79,55638,83,yes,1024
95.23809524,95.23809524,669.4880952,669.4880952,black,legacy,legacy,legacy,0,incongruent,uniform,1,undefined,1,h,83,0,0,0,83,0,83,0,83,0,0,0,83,83,83,83,9/26/19 17:29,600,The main experiment item,yes,FlankertaskSL.osexp,C:/Users/Sarah Linan/Desktop,no,mono,no,18,no,white,no,yes,768,legacy,3,79,C:/Users/Sarah Linan/Desktop/SL-subject-2.csv,legacy,Kafkaesque Koffka,3.2.8,0,h,NA,s,s,NA,h,599,NA,42624,12430,NA,599,2,legacy,1024,2,48000,-16,experiment,SSHSS,2,even,222755,45297,216819,NA,123318,2664,220568,NA,223849,2672,204388,NA,223952,224552,223845,223952,Flanker task SL,80,56237,84,yes,1024
95.29411765,95.29411765,667.3058824,667.3058824,black,legacy,legacy,legacy,0,congruent,uniform,1,undefined,1,h,84,0,0,0,84,0,84,0,84,0,0,0,84,84,84,84,9/26/19 17:29,600,The main experiment item,yes,FlankertaskSL.osexp,C:/Users/Sarah Linan/Desktop,no,mono,no,18,no,white,no,yes,768,legacy,4,79,C:/Users/Sarah Linan/Desktop/SL-subject-2.csv,legacy,Kafkaesque Koffka,3.2.8,0,h,NA,s,s,NA,h,484,NA,42624,12430,NA,484,2,legacy,1024,2,48000,-16,experiment,HHHHH,2,even,224648,45297,216819,NA,123318,2664,220568,NA,225742,2672,204388,NA,225844,226329,225739,225844,Flanker task SL,81,56721,85,yes,1024
95.34883721,95.34883721,665.744186,665.744186,black,legacy,legacy,legacy,0,incongruent,uniform,1,undefined,1,h,85,0,0,0,85,0,85,0,85,0,0,0,85,85,85,85,9/26/19 17:29,600,The main experiment item,yes,FlankertaskSL.osexp,C:/Users/Sarah Linan/Desktop,no,mono,no,18,no,white,no,yes,768,legacy,5,79,C:/Users/Sarah Linan/Desktop/SL-subject-2.csv,legacy,Kafkaesque Koffka,3.2.8,0,h,NA,s,s,NA,h,533,NA,42624,12430,NA,533,2,legacy,1024,2,48000,-16,experiment,SSHSS,2,even,226422,45297,216819,NA,123318,2664,220568,NA,227512,2672,204388,NA,227614,228148,227509,227614,Flanker task SL,82,57254,86,yes,1024
95.40229885,95.40229885,663.6206897,663.6206897,black,legacy,legacy,legacy,0,incongruent ,uniform,1,undefined,1,s,86,0,0,0,86,0,86,0,86,0,0,0,86,86,86,86,9/26/19 17:29,600,The main experiment item,yes,FlankertaskSL.osexp,C:/Users/Sarah Linan/Desktop,no,mono,no,18,no,white,no,yes,768,legacy,6,79,C:/Users/Sarah Linan/Desktop/SL-subject-2.csv,legacy,Kafkaesque Koffka,3.2.8,0,s,NA,s,s,NA,s,481,NA,42624,12430,NA,481,2,legacy,1024,2,48000,-16,experiment,HHSHH,2,even,228243,45297,216819,NA,123318,2664,220568,NA,229341,2672,204388,NA,229443,229926,229338,229443,Flanker task SL,83,57735,87,yes,1024
95.45454545,95.45454545,662.3181818,662.3181818,black,legacy,legacy,legacy,0,congruent,uniform,1,undefined,1,s,87,0,0,0,87,0,87,0,87,0,0,0,87,87,87,87,9/26/19 17:29,600,The main experiment item,yes,FlankertaskSL.osexp,C:/Users/Sarah Linan/Desktop,no,mono,no,18,no,white,no,yes,768,legacy,7,79,C:/Users/Sarah Linan/Desktop/SL-subject-2.csv,legacy,Kafkaesque Koffka,3.2.8,0,s,NA,s,s,NA,s,549,NA,42624,12430,NA,549,2,legacy,1024,2,48000,-16,experiment,SSSSS,2,even,230019,45297,216819,NA,123318,2664,220568,NA,231122,2672,204388,NA,231225,231775,231119,231225,Flanker task SL,84,58284,88,yes,1024
95.50561798,95.50561798,661.0561798,661.0561798,black,legacy,legacy,legacy,0,congruent,uniform,1,undefined,1,h,88,0,0,0,88,0,88,0,88,0,0,0,88,88,88,88,9/26/19 17:29,600,The main experiment item,yes,FlankertaskSL.osexp,C:/Users/Sarah Linan/Desktop,no,mono,no,18,no,white,no,yes,768,legacy,8,79,C:/Users/Sarah Linan/Desktop/SL-subject-2.csv,legacy,Kafkaesque Koffka,3.2.8,0,h,NA,s,s,NA,h,550,NA,42624,12430,NA,550,2,legacy,1024,2,48000,-16,experiment,HHHHH,2,even,231871,45297,216819,NA,123318,2664,220568,NA,232964,2672,204388,NA,233067,233619,232961,233067,Flanker task SL,85,58834,89,yes,1024
95.55555556,95.55555556,661.5,661.5,black,legacy,legacy,legacy,0,incongruent,uniform,1,undefined,1,h,89,0,0,0,89,0,89,0,89,0,0,0,89,89,89,89,9/26/19 17:29,600,The main experiment item,yes,FlankertaskSL.osexp,C:/Users/Sarah Linan/Desktop,no,mono,no,18,no,white,no,yes,768,legacy,9,79,C:/Users/Sarah Linan/Desktop/SL-subject-2.csv,legacy,Kafkaesque Koffka,3.2.8,0,h,NA,s,s,NA,h,701,NA,42624,12430,NA,701,2,legacy,1024,2,48000,-16,experiment,SSHSS,2,even,233656,45297,216819,NA,123318,2664,220568,NA,234756,2672,204388,NA,234858,235560,234753,234858,Flanker task SL,86,59535,90,yes,1024
95.6043956,95.6043956,659.7032967,659.7032967,black,legacy,legacy,legacy,0,congruent,uniform,1,undefined,1,h,90,0,0,0,90,0,90,0,90,0,0,0,90,90,90,90,9/26/19 17:29,600,The main experiment item,yes,FlankertaskSL.osexp,C:/Users/Sarah Linan/Desktop,no,mono,no,18,no,white,no,yes,768,legacy,10,79,C:/Users/Sarah Linan/Desktop/SL-subject-2.csv,legacy,Kafkaesque Koffka,3.2.8,0,h,NA,s,s,NA,h,498,NA,42624,12430,NA,498,2,legacy,1024,2,48000,-16,experiment,HHHHH,2,even,236158,45297,216819,NA,123318,2664,235654,NA,237249,2672,204388,NA,237353,237853,237246,237353,Flanker task SL,87,60033,91,yes,1024
95.65217391,95.65217391,658.076087,658.076087,black,legacy,legacy,legacy,0,congruent,uniform,1,undefined,1,s,91,0,0,0,91,0,91,0,91,0,0,0,91,91,91,91,9/26/19 17:29,600,The main experiment item,yes,FlankertaskSL.osexp,C:/Users/Sarah Linan/Desktop,no,mono,no,18,no,white,no,yes,768,legacy,11,79,C:/Users/Sarah Linan/Desktop/SL-subject-2.csv,legacy,Kafkaesque Koffka,3.2.8,0,s,NA,s,s,NA,s,510,NA,42624,12430,NA,510,2,legacy,1024,2,48000,-16,experiment,SSSSS,2,even,237951,45297,216819,NA,123318,2664,235654,NA,239047,2672,204388,NA,239150,239661,239044,239150,Flanker task SL,88,60543,92,yes,1024
95.69892473,95.69892473,655.8602151,655.8602151,black,legacy,legacy,legacy,0,congruent,uniform,1,undefined,1,s,92,0,0,0,92,0,92,0,92,0,0,0,92,92,92,92,9/26/19 17:29,600,The main experiment item,yes,FlankertaskSL.osexp,C:/Users/Sarah Linan/Desktop,no,mono,no,18,no,white,no,yes,768,legacy,12,79,C:/Users/Sarah Linan/Desktop/SL-subject-2.csv,legacy,Kafkaesque Koffka,3.2.8,0,s,NA,s,s,NA,s,452,NA,42624,12430,NA,452,2,legacy,1024,2,48000,-16,experiment,SSSSS,2,even,239749,45297,216819,NA,123318,2664,235654,NA,240849,2672,204388,NA,240952,241406,240846,240951,Flanker task SL,89,60995,93,yes,1024
94.68085106,94.68085106,653.8510638,653.8510638,black,legacy,legacy,legacy,0,incongruent,uniform,0,undefined,0,h,93,0,0,0,93,0,93,0,93,0,0,0,93,93,93,93,9/26/19 17:29,600,The main experiment item,yes,FlankertaskSL.osexp,C:/Users/Sarah Linan/Desktop,no,mono,no,18,no,white,no,yes,768,legacy,13,79,C:/Users/Sarah Linan/Desktop/SL-subject-2.csv,legacy,Kafkaesque Koffka,3.2.8,0,s,NA,s,s,NA,s,467,NA,42624,12430,NA,467,2,legacy,1024,2,48000,-16,experiment,SSHSS,2,even,241501,45297,216819,NA,123318,2664,235654,NA,242606,2672,204388,NA,242708,243177,242603,242708,Flanker task SL,89,61462,94,yes,1024
94.73684211,94.73684211,652.1684211,652.1684211,black,legacy,legacy,legacy,0,congruent,uniform,1,undefined,1,s,94,0,0,0,94,0,94,0,94,0,0,0,94,94,94,94,9/26/19 17:29,600,The main experiment item,yes,FlankertaskSL.osexp,C:/Users/Sarah Linan/Desktop,no,mono,no,18,no,white,no,yes,768,legacy,14,79,C:/Users/Sarah Linan/Desktop/SL-subject-2.csv,legacy,Kafkaesque Koffka,3.2.8,0,s,NA,s,s,NA,s,494,NA,42624,12430,NA,494,2,legacy,1024,2,48000,-16,experiment,SSSSS,2,even,243785,45297,216819,NA,243281,2664,235654,NA,244871,2672,204388,NA,244975,245471,244868,244974,Flanker task SL,90,61956,95,yes,1024
94.79166667,94.79166667,650.5208333,650.5208333,black,legacy,legacy,legacy,0,incongruent,uniform,1,undefined,1,h,95,0,0,0,95,0,95,0,95,0,0,0,95,95,95,95,9/26/19 17:29,600,The main experiment item,yes,FlankertaskSL.osexp,C:/Users/Sarah Linan/Desktop,no,mono,no,18,no,white,no,yes,768,legacy,15,79,C:/Users/Sarah Linan/Desktop/SL-subject-2.csv,legacy,Kafkaesque Koffka,3.2.8,0,h,NA,s,s,NA,h,494,NA,42624,12430,NA,494,2,legacy,1024,2,48000,-16,experiment,SSHSS,2,even,245562,45297,216819,NA,243281,2664,235654,NA,246661,2672,204388,NA,246764,247260,246658,246764,Flanker task SL,91,62450,96,yes,1024
94.84536082,94.84536082,649.5463918,649.5463918,black,legacy,legacy,legacy,0,incongruent ,uniform,1,undefined,1,s,96,0,0,0,96,0,96,0,96,0,0,0,96,96,96,96,9/26/19 17:29,600,The main experiment item,yes,FlankertaskSL.osexp,C:/Users/Sarah Linan/Desktop,no,mono,no,18,no,white,no,yes,768,legacy,16,79,C:/Users/Sarah Linan/Desktop/SL-subject-2.csv,legacy,Kafkaesque Koffka,3.2.8,0,s,NA,s,s,NA,s,556,NA,42624,12430,NA,556,2,legacy,1024,2,48000,-16,experiment,HHSHH,2,even,247296,45297,216819,NA,243281,2664,235654,NA,248397,2672,204388,NA,248500,249057,248393,248500,Flanker task SL,92,63006,97,yes,1024
94.89795918,94.89795918,647.5408163,647.5408163,black,legacy,legacy,legacy,0,congruent,uniform,1,undefined,1,s,97,0,0,0,97,0,97,0,97,0,0,0,97,97,97,97,9/26/19 17:29,600,The main experiment item,yes,FlankertaskSL.osexp,C:/Users/Sarah Linan/Desktop,no,mono,no,18,no,white,no,yes,768,legacy,17,79,C:/Users/Sarah Linan/Desktop/SL-subject-2.csv,legacy,Kafkaesque Koffka,3.2.8,0,s,NA,s,s,NA,s,453,NA,42624,12430,NA,453,2,legacy,1024,2,48000,-16,experiment,SSSSS,2,even,249147,45297,216819,NA,243281,2664,235654,NA,250246,2672,204388,NA,250348,250802,250243,250348,Flanker task SL,93,63459,98,yes,1024
94.94949495,94.94949495,645.2323232,645.2323232,black,legacy,legacy,legacy,0,congruent,uniform,1,undefined,1,s,98,0,0,0,98,0,98,0,98,0,0,0,98,98,98,98,9/26/19 17:29,600,The main experiment item,yes,FlankertaskSL.osexp,C:/Users/Sarah Linan/Desktop,no,mono,no,18,no,white,no,yes,768,legacy,18,79,C:/Users/Sarah Linan/Desktop/SL-subject-2.csv,legacy,Kafkaesque Koffka,3.2.8,0,s,NA,s,s,NA,s,419,NA,42624,12430,NA,419,2,legacy,1024,2,48000,-16,experiment,SSSSS,2,even,250900,45297,216819,NA,243281,2664,235654,NA,251997,2672,204388,NA,252100,252521,251994,252100,Flanker task SL,94,63878,99,yes,1024
95,95,643.83,643.83,black,legacy,legacy,legacy,0,congruent,uniform,1,undefined,1,h,99,0,0,0,99,0,99,0,99,0,0,0,99,99,99,99,9/26/19 17:29,600,The main experiment item,yes,FlankertaskSL.osexp,C:/Users/Sarah Linan/Desktop,no,mono,no,18,no,white,no,yes,768,legacy,19,79,C:/Users/Sarah Linan/Desktop/SL-subject-2.csv,legacy,Kafkaesque Koffka,3.2.8,0,h,NA,s,s,NA,h,505,NA,42624,12430,NA,505,2,legacy,1024,2,48000,-16,experiment,HHHHH,2,even,252608,45297,216819,NA,243281,2664,235654,NA,253706,2672,204388,NA,253808,254315,253702,253808,Flanker task SL,95,64383,100,yes,1024
95.04950495,95.04950495,642.1089109,642.1089109,black,legacy,legacy,legacy,0,congruent,uniform,1,undefined,1,h,100,0,0,0,100,0,100,0,100,0,0,0,100,100,100,100,9/26/19 17:29,600,The main experiment item,yes,FlankertaskSL.osexp,C:/Users/Sarah Linan/Desktop,no,mono,no,18,no,white,no,yes,768,legacy,20,79,C:/Users/Sarah Linan/Desktop/SL-subject-2.csv,legacy,Kafkaesque Koffka,3.2.8,0,h,NA,s,s,NA,h,470,NA,42624,12430,NA,470,2,legacy,1024,2,48000,-16,experiment,HHHHH,2,even,254405,45297,216819,NA,243281,2664,235654,NA,255507,2672,204388,NA,255609,256080,255504,255609,Flanker task SL,96,64853,101,yes,1024
95.09803922,95.09803922,639.6470588,639.6470588,black,legacy,legacy,legacy,0,congruent,uniform,1,undefined,1,h,101,0,0,0,101,0,101,0,101,0,0,0,101,101,101,101,9/26/19 17:29,600,The main experiment item,yes,FlankertaskSL.osexp,C:/Users/Sarah Linan/Desktop,no,mono,no,18,no,white,no,yes,768,legacy,21,79,C:/Users/Sarah Linan/Desktop/SL-subject-2.csv,legacy,Kafkaesque Koffka,3.2.8,0,h,NA,s,s,NA,h,391,NA,42624,12430,NA,391,2,legacy,1024,2,48000,-16,experiment,HHHHH,2,even,256129,45297,216819,NA,243281,2664,235654,NA,257228,2672,204388,NA,257332,257724,257225,257332,Flanker task SL,97,65244,102,yes,1024
95.14563107,95.14563107,637.6213592,637.6213592,black,legacy,legacy,legacy,0,congruent,uniform,1,undefined,1,h,102,0,0,0,102,0,102,0,102,0,0,0,102,102,102,102,9/26/19 17:29,600,The main experiment item,yes,FlankertaskSL.osexp,C:/Users/Sarah Linan/Desktop,no,mono,no,18,no,white,no,yes,768,legacy,22,79,C:/Users/Sarah Linan/Desktop/SL-subject-2.csv,legacy,Kafkaesque Koffka,3.2.8,0,h,NA,s,s,NA,h,431,NA,42624,12430,NA,431,2,legacy,1024,2,48000,-16,experiment,HHHHH,2,even,257811,45297,216819,NA,243281,2664,235654,NA,258911,2672,204388,NA,259013,259445,258907,259013,Flanker task SL,98,65675,103,yes,1024
95.19230769,95.19230769,636.5096154,636.5096154,black,legacy,legacy,legacy,0,incongruent ,uniform,1,undefined,1,s,103,0,0,0,103,0,103,0,103,0,0,0,103,103,103,103,9/26/19 17:29,600,The main experiment item,yes,FlankertaskSL.osexp,C:/Users/Sarah Linan/Desktop,no,mono,no,18,no,white,no,yes,768,legacy,23,79,C:/Users/Sarah Linan/Desktop/SL-subject-2.csv,legacy,Kafkaesque Koffka,3.2.8,0,s,NA,s,s,NA,s,522,NA,42624,12430,NA,522,2,legacy,1024,2,48000,-16,experiment,HHSHH,2,even,259542,45297,216819,NA,243281,2664,235654,NA,260642,2672,204388,NA,260744,261268,260639,260743,Flanker task SL,99,66197,104,yes,1024
95.23809524,95.23809524,635.447619,635.447619,black,legacy,legacy,legacy,0,incongruent ,uniform,1,undefined,1,s,104,0,0,0,104,0,104,0,104,0,0,0,104,104,104,104,9/26/19 17:29,600,The main experiment item,yes,FlankertaskSL.osexp,C:/Users/Sarah Linan/Desktop,no,mono,no,18,no,white,no,yes,768,legacy,24,79,C:/Users/Sarah Linan/Desktop/SL-subject-2.csv,legacy,Kafkaesque Koffka,3.2.8,0,s,NA,s,s,NA,s,525,NA,42624,12430,NA,525,2,legacy,1024,2,48000,-16,experiment,HHSHH,2,even,261361,45297,216819,NA,243281,2664,235654,NA,262458,2672,204388,NA,262560,263087,262455,262560,Flanker task SL,100,66722,105,yes,1024
95.28301887,95.28301887,634.4622642,634.4622642,black,legacy,legacy,legacy,0,congruent,uniform,1,undefined,1,h,105,0,0,0,105,0,105,0,105,0,0,0,105,105,105,105,9/26/19 17:29,600,The main experiment item,yes,FlankertaskSL.osexp,C:/Users/Sarah Linan/Desktop,no,mono,no,18,no,white,no,yes,768,legacy,25,79,C:/Users/Sarah Linan/Desktop/SL-subject-2.csv,legacy,Kafkaesque Koffka,3.2.8,0,h,NA,s,s,NA,h,531,NA,42624,12430,NA,531,2,legacy,1024,2,48000,-16,experiment,HHHHH,2,even,263182,45297,216819,NA,243281,2664,235654,NA,264280,2672,204388,NA,264382,264915,264275,264382,Flanker task SL,101,67253,106,yes,1024
95.3271028,95.3271028,633.1495327,633.1495327,black,legacy,legacy,legacy,0,congruent,uniform,1,undefined,1,h,106,0,0,0,106,0,106,0,106,0,0,0,106,106,106,106,9/26/19 17:29,600,The main experiment item,yes,FlankertaskSL.osexp,C:/Users/Sarah Linan/Desktop,no,mono,no,18,no,white,no,yes,768,legacy,26,79,C:/Users/Sarah Linan/Desktop/SL-subject-2.csv,legacy,Kafkaesque Koffka,3.2.8,0,h,NA,s,s,NA,h,494,NA,42624,12430,NA,494,2,legacy,1024,2,48000,-16,experiment,HHHHH,2,even,265001,45297,216819,NA,243281,2664,235654,NA,266101,2672,204388,NA,266204,266699,266098,266204,Flanker task SL,102,67747,107,yes,1024
95.37037037,95.37037037,631.3148148,631.3148148,black,legacy,legacy,legacy,0,congruent,uniform,1,undefined,1,s,107,0,0,0,107,0,107,0,107,0,0,0,107,107,107,107,9/26/19 17:29,600,The main experiment item,yes,FlankertaskSL.osexp,C:/Users/Sarah Linan/Desktop,no,mono,no,18,no,white,no,yes,768,legacy,27,79,C:/Users/Sarah Linan/Desktop/SL-subject-2.csv,legacy,Kafkaesque Koffka,3.2.8,0,s,NA,s,s,NA,s,435,NA,42624,12430,NA,435,2,legacy,1024,2,48000,-16,experiment,SSSSS,2,even,266788,45297,216819,NA,243281,2664,235654,NA,267888,2672,204388,NA,267990,268427,267885,267990,Flanker task SL,103,68182,108,yes,1024
95.41284404,95.41284404,630.8715596,630.8715596,black,legacy,legacy,legacy,0,incongruent,uniform,1,undefined,1,h,108,0,0,0,108,0,108,0,108,0,0,0,108,108,108,108,9/26/19 17:29,600,The main experiment item,yes,FlankertaskSL.osexp,C:/Users/Sarah Linan/Desktop,no,mono,no,18,no,white,no,yes,768,legacy,28,79,C:/Users/Sarah Linan/Desktop/SL-subject-2.csv,legacy,Kafkaesque Koffka,3.2.8,0,h,NA,s,s,NA,h,583,NA,42624,12430,NA,583,2,legacy,1024,2,48000,-16,experiment,SSHSS,2,even,268519,45297,216819,NA,243281,2664,235654,NA,269631,2672,204388,NA,269733,270317,269627,269733,Flanker task SL,104,68765,109,yes,1024
95.45454545,95.45454545,630.4727273,630.4727273,black,legacy,legacy,legacy,0,congruent,uniform,1,undefined,1,h,109,0,0,0,109,0,109,0,109,0,0,0,109,109,109,109,9/26/19 17:29,600,The main experiment item,yes,FlankertaskSL.osexp,C:/Users/Sarah Linan/Desktop,no,mono,no,18,no,white,no,yes,768,legacy,29,79,C:/Users/Sarah Linan/Desktop/SL-subject-2.csv,legacy,Kafkaesque Koffka,3.2.8,0,h,NA,s,s,NA,h,587,NA,42624,12430,NA,587,2,legacy,1024,2,48000,-16,experiment,HHHHH,2,even,270404,45297,216819,NA,243281,2664,235654,NA,271508,2672,204388,NA,271610,272198,271504,271610,Flanker task SL,105,69352,110,yes,1024
95.4954955,95.4954955,629.6486486,629.6486486,black,legacy,legacy,legacy,0,congruent,uniform,1,undefined,1,h,110,0,0,0,110,0,110,0,110,0,0,0,110,110,110,110,9/26/19 17:29,600,The main experiment item,yes,FlankertaskSL.osexp,C:/Users/Sarah Linan/Desktop,no,mono,no,18,no,white,no,yes,768,legacy,30,79,C:/Users/Sarah Linan/Desktop/SL-subject-2.csv,legacy,Kafkaesque Koffka,3.2.8,0,h,NA,s,s,NA,h,539,NA,42624,12430,NA,539,2,legacy,1024,2,48000,-16,experiment,HHHHH,2,even,272291,45297,216819,NA,243281,2664,235654,NA,273388,2672,204388,NA,273491,274032,273384,273490,Flanker task SL,106,69891,111,yes,1024
95.53571429,95.53571429,628.4196429,628.4196429,black,legacy,legacy,legacy,0,congruent,uniform,1,undefined,1,s,111,0,0,0,111,0,111,0,111,0,0,0,111,111,111,111,9/26/19 17:29,600,The main experiment item,yes,FlankertaskSL.osexp,C:/Users/Sarah Linan/Desktop,no,mono,no,18,no,white,no,yes,768,legacy,31,79,C:/Users/Sarah Linan/Desktop/SL-subject-2.csv,legacy,Kafkaesque Koffka,3.2.8,0,s,NA,s,s,NA,s,492,NA,42624,12430,NA,492,2,legacy,1024,2,48000,-16,experiment,SSSSS,2,even,274065,45297,216819,NA,243281,2664,235654,NA,275168,2672,204388,NA,275270,275764,275165,275270,Flanker task SL,107,70383,112,yes,1024
95.57522124,95.57522124,626.9734513,626.9734513,black,legacy,legacy,legacy,0,congruent,uniform,1,undefined,1,h,112,0,0,0,112,0,112,0,112,0,0,0,112,112,112,112,9/26/19 17:29,600,The main experiment item,yes,FlankertaskSL.osexp,C:/Users/Sarah Linan/Desktop,no,mono,no,18,no,white,no,yes,768,legacy,32,79,C:/Users/Sarah Linan/Desktop/SL-subject-2.csv,legacy,Kafkaesque Koffka,3.2.8,0,h,NA,s,s,NA,h,465,NA,42624,12430,NA,465,2,legacy,1024,2,48000,-16,experiment,HHHHH,2,even,275853,45297,216819,NA,243281,2664,235654,NA,276949,2672,204388,NA,277052,277519,276945,277052,Flanker task SL,108,70848,113,yes,1024
95.61403509,95.61403509,626.0614035,626.0614035,black,legacy,legacy,legacy,0,congruent,uniform,1,undefined,1,s,113,0,0,0,113,0,113,0,113,0,0,0,113,113,113,113,9/26/19 17:29,600,The main experiment item,yes,FlankertaskSL.osexp,C:/Users/Sarah Linan/Desktop,no,mono,no,18,no,white,no,yes,768,legacy,33,79,C:/Users/Sarah Linan/Desktop/SL-subject-2.csv,legacy,Kafkaesque Koffka,3.2.8,0,s,NA,s,s,NA,s,523,NA,42624,12430,NA,523,2,legacy,1024,2,48000,-16,experiment,SSSSS,2,even,277606,45297,216819,NA,243281,2664,235654,NA,278701,2672,204388,NA,278803,279327,278698,278803,Flanker task SL,109,71371,114,yes,1024
95.65217391,95.65217391,624.1391304,624.1391304,black,legacy,legacy,legacy,0,congruent,uniform,1,undefined,1,h,114,0,0,0,114,0,114,0,114,0,0,0,114,114,114,114,9/26/19 17:29,600,The main experiment item,yes,FlankertaskSL.osexp,C:/Users/Sarah Linan/Desktop,no,mono,no,18,no,white,no,yes,768,legacy,34,79,C:/Users/Sarah Linan/Desktop/SL-subject-2.csv,legacy,Kafkaesque Koffka,3.2.8,0,h,NA,s,s,NA,h,405,NA,42624,12430,NA,405,2,legacy,1024,2,48000,-16,experiment,HHHHH,2,even,279425,45297,216819,NA,243281,2664,235654,NA,280520,2672,204388,NA,280622,281029,280517,280622,Flanker task SL,110,71776,115,yes,1024
95.68965517,95.68965517,622.4224138,622.4224138,black,legacy,legacy,legacy,0,congruent,uniform,1,undefined,1,h,115,0,0,0,115,0,115,0,115,0,0,0,115,115,115,115,9/26/19 17:29,600,The main experiment item,yes,FlankertaskSL.osexp,C:/Users/Sarah Linan/Desktop,no,mono,no,18,no,white,no,yes,768,legacy,35,79,C:/Users/Sarah Linan/Desktop/SL-subject-2.csv,legacy,Kafkaesque Koffka,3.2.8,0,h,NA,s,s,NA,h,425,NA,42624,12430,NA,425,2,legacy,1024,2,48000,-16,experiment,HHHHH,2,even,281122,45297,216819,NA,243281,2664,235654,NA,282222,2672,204388,NA,282324,282751,282219,282324,Flanker task SL,111,72201,116,yes,1024
95.72649573,95.72649573,622.1623932,622.1623932,black,legacy,legacy,legacy,0,incongruent,uniform,1,undefined,1,h,116,0,0,0,116,0,116,0,116,0,0,0,116,116,116,116,9/26/19 17:29,600,The main experiment item,yes,FlankertaskSL.osexp,C:/Users/Sarah Linan/Desktop,no,mono,no,18,no,white,no,yes,768,legacy,36,79,C:/Users/Sarah Linan/Desktop/SL-subject-2.csv,legacy,Kafkaesque Koffka,3.2.8,0,h,NA,s,s,NA,h,592,NA,42624,12430,NA,592,2,legacy,1024,2,48000,-16,experiment,SSHSS,2,even,282842,45297,216819,NA,243281,2664,235654,NA,283945,2672,204388,NA,284047,284641,283942,284047,Flanker task SL,112,72793,117,yes,1024
95.76271186,95.76271186,620.9322034,620.9322034,black,legacy,legacy,legacy,0,congruent,uniform,1,undefined,1,h,117,0,0,0,117,0,117,0,117,0,0,0,117,117,117,117,9/26/19 17:29,600,The main experiment item,yes,FlankertaskSL.osexp,C:/Users/Sarah Linan/Desktop,no,mono,no,18,no,white,no,yes,768,legacy,37,79,C:/Users/Sarah Linan/Desktop/SL-subject-2.csv,legacy,Kafkaesque Koffka,3.2.8,0,h,NA,s,s,NA,h,477,NA,42624,12430,NA,477,2,legacy,1024,2,48000,-16,experiment,HHHHH,2,even,284728,45297,216819,NA,243281,2664,235654,NA,285827,2672,204388,NA,285930,286408,285823,285930,Flanker task SL,113,73270,118,yes,1024
95.79831933,95.79831933,620.0840336,620.0840336,black,legacy,legacy,legacy,0,incongruent ,uniform,1,undefined,1,s,118,0,0,0,118,0,118,0,118,0,0,0,118,118,118,118,9/26/19 17:29,600,The main experiment item,yes,FlankertaskSL.osexp,C:/Users/Sarah Linan/Desktop,no,mono,no,18,no,white,no,yes,768,legacy,38,79,C:/Users/Sarah Linan/Desktop/SL-subject-2.csv,legacy,Kafkaesque Koffka,3.2.8,0,s,NA,s,s,NA,s,520,NA,42624,12430,NA,520,2,legacy,1024,2,48000,-16,experiment,HHSHH,2,even,286504,45297,216819,NA,243281,2664,235654,NA,287604,2672,204388,NA,287708,288230,287602,287708,Flanker task SL,114,73790,119,yes,1024
95.83333333,95.83333333,618.5666667,618.5666667,black,legacy,legacy,legacy,0,incongruent ,uniform,1,undefined,1,s,119,0,0,0,119,0,119,0,119,0,0,0,119,119,119,119,9/26/19 17:29,600,The main experiment item,yes,FlankertaskSL.osexp,C:/Users/Sarah Linan/Desktop,no,mono,no,18,no,white,no,yes,768,legacy,39,79,C:/Users/Sarah Linan/Desktop/SL-subject-2.csv,legacy,Kafkaesque Koffka,3.2.8,0,s,NA,s,s,NA,s,438,NA,42624,12430,NA,438,2,legacy,1024,2,48000,-16,experiment,HHSHH,2,even,288323,45297,216819,NA,243281,2664,235654,NA,289427,2672,204388,NA,289529,289968,289424,289529,Flanker task SL,115,74228,120,yes,1024
95.8677686,95.8677686,618.0330579,618.0330579,black,legacy,legacy,legacy,0,incongruent,uniform,1,undefined,1,h,120,0,0,0,120,0,120,0,120,0,0,0,120,120,120,120,9/26/19 17:29,600,The main experiment item,yes,FlankertaskSL.osexp,C:/Users/Sarah Linan/Desktop,no,mono,no,18,no,white,no,yes,768,legacy,40,79,C:/Users/Sarah Linan/Desktop/SL-subject-2.csv,legacy,Kafkaesque Koffka,3.2.8,0,h,NA,s,s,NA,h,554,NA,42624,12430,NA,554,2,legacy,1024,2,48000,-16,experiment,SSHSS,2,even,290065,45297,216819,NA,243281,2664,235654,NA,291166,2672,204388,NA,291268,291823,291163,291268,Flanker task SL,116,74782,121,yes,1024
95.90163934,95.90163934,618.7131148,618.7131148,black,legacy,legacy,legacy,0,incongruent,uniform,1,undefined,1,h,121,0,0,0,121,0,121,0,121,0,0,0,121,121,121,121,9/26/19 17:29,600,The main experiment item,yes,FlankertaskSL.osexp,C:/Users/Sarah Linan/Desktop,no,mono,no,18,no,white,no,yes,768,legacy,41,79,C:/Users/Sarah Linan/Desktop/SL-subject-2.csv,legacy,Kafkaesque Koffka,3.2.8,0,h,NA,s,s,NA,h,701,NA,42624,12430,NA,701,2,legacy,1024,2,48000,-16,experiment,SSHSS,2,even,291918,45297,216819,NA,243281,2664,235654,NA,293028,2672,204388,NA,293130,293833,293025,293130,Flanker task SL,117,75483,122,yes,1024
95.93495935,95.93495935,617.7723577,617.7723577,black,legacy,legacy,legacy,0,congruent,uniform,1,undefined,1,h,122,0,0,0,122,0,122,0,122,0,0,0,122,122,122,122,9/26/19 17:29,600,The main experiment item,yes,FlankertaskSL.osexp,C:/Users/Sarah Linan/Desktop,no,mono,no,18,no,white,no,yes,768,legacy,42,79,C:/Users/Sarah Linan/Desktop/SL-subject-2.csv,legacy,Kafkaesque Koffka,3.2.8,0,h,NA,s,s,NA,h,503,NA,42624,12430,NA,503,2,legacy,1024,2,48000,-16,experiment,HHHHH,2,even,294430,45297,216819,NA,243281,2664,293926,NA,295526,2672,204388,NA,295630,296135,295523,295630,Flanker task SL,118,75986,123,yes,1024
95.96774194,95.96774194,617.0725806,617.0725806,black,legacy,legacy,legacy,0,congruent,uniform,1,undefined,1,s,123,0,0,0,123,0,123,0,123,0,0,0,123,123,123,123,9/26/19 17:29,600,The main experiment item,yes,FlankertaskSL.osexp,C:/Users/Sarah Linan/Desktop,no,mono,no,18,no,white,no,yes,768,legacy,43,79,C:/Users/Sarah Linan/Desktop/SL-subject-2.csv,legacy,Kafkaesque Koffka,3.2.8,0,s,NA,s,s,NA,s,531,NA,42624,12430,NA,531,2,legacy,1024,2,48000,-16,experiment,SSSSS,2,even,296224,45297,216819,NA,243281,2664,293926,NA,297321,2672,204388,NA,297423,297956,297319,297423,Flanker task SL,119,76517,124,yes,1024
96,96,616.512,616.512,black,legacy,legacy,legacy,0,incongruent,uniform,1,undefined,1,h,124,0,0,0,124,0,124,0,124,0,0,0,124,124,124,124,9/26/19 17:29,600,The main experiment item,yes,FlankertaskSL.osexp,C:/Users/Sarah Linan/Desktop,no,mono,no,18,no,white,no,yes,768,legacy,44,79,C:/Users/Sarah Linan/Desktop/SL-subject-2.csv,legacy,Kafkaesque Koffka,3.2.8,0,h,NA,s,s,NA,h,547,NA,42624,12430,NA,547,2,legacy,1024,2,48000,-16,experiment,SSHSS,2,even,298034,45297,216819,NA,243281,2664,293926,NA,299137,2672,204388,NA,299239,299787,299133,299239,Flanker task SL,120,77064,125,yes,1024
96.03174603,96.03174603,615.2063492,615.2063492,black,legacy,legacy,legacy,0,congruent,uniform,1,undefined,1,h,125,0,0,0,125,0,125,0,125,0,0,0,125,125,125,125,9/26/19 17:29,600,The main experiment item,yes,FlankertaskSL.osexp,C:/Users/Sarah Linan/Desktop,no,mono,no,18,no,white,no,yes,768,legacy,45,79,C:/Users/Sarah Linan/Desktop/SL-subject-2.csv,legacy,Kafkaesque Koffka,3.2.8,0,h,NA,s,s,NA,h,452,NA,42624,12430,NA,452,2,legacy,1024,2,48000,-16,experiment,HHHHH,2,even,299864,45297,216819,NA,243281,2664,293926,NA,300955,2672,204388,NA,301057,301511,300952,301057,Flanker task SL,121,77516,126,yes,1024
96.06299213,96.06299213,613.6141732,613.6141732,black,legacy,legacy,legacy,0,incongruent ,uniform,1,undefined,1,s,126,0,0,0,126,0,126,0,126,0,0,0,126,126,126,126,9/26/19 17:29,600,The main experiment item,yes,FlankertaskSL.osexp,C:/Users/Sarah Linan/Desktop,no,mono,no,18,no,white,no,yes,768,legacy,46,79,C:/Users/Sarah Linan/Desktop/SL-subject-2.csv,legacy,Kafkaesque Koffka,3.2.8,0,s,NA,s,s,NA,s,413,NA,42624,12430,NA,413,2,legacy,1024,2,48000,-16,experiment,HHSHH,2,even,301595,45297,216819,NA,243281,2664,293926,NA,302699,2672,204388,NA,302801,303216,302696,302801,Flanker task SL,122,77929,127,yes,1024
96.09375,96.09375,612.53125,612.53125,black,legacy,legacy,legacy,0,incongruent,uniform,1,undefined,1,h,127,0,0,0,127,0,127,0,127,0,0,0,127,127,127,127,9/26/19 17:29,600,The main experiment item,yes,FlankertaskSL.osexp,C:/Users/Sarah Linan/Desktop,no,mono,no,18,no,white,no,yes,768,legacy,47,79,C:/Users/Sarah Linan/Desktop/SL-subject-2.csv,legacy,Kafkaesque Koffka,3.2.8,0,h,NA,s,s,NA,h,475,NA,42624,12430,NA,475,2,legacy,1024,2,48000,-16,experiment,SSHSS,2,even,303304,45297,216819,NA,243281,2664,293926,NA,304403,2672,204388,NA,304506,304982,304399,304506,Flanker task SL,123,78404,128,yes,1024
96.12403101,96.12403101,611.5193798,611.5193798,black,legacy,legacy,legacy,0,congruent,uniform,1,undefined,1,h,128,0,0,0,128,0,128,0,128,0,0,0,128,128,128,128,9/26/19 17:29,600,The main experiment item,yes,FlankertaskSL.osexp,C:/Users/Sarah Linan/Desktop,no,mono,no,18,no,white,no,yes,768,legacy,48,79,C:/Users/Sarah Linan/Desktop/SL-subject-2.csv,legacy,Kafkaesque Koffka,3.2.8,0,h,NA,s,s,NA,h,482,NA,42624,12430,NA,482,2,legacy,1024,2,48000,-16,experiment,HHHHH,2,even,305068,45297,216819,NA,243281,2664,293926,NA,306168,2672,204388,NA,306270,306754,306165,306270,Flanker task SL,124,78886,129,yes,1024
96.15384615,96.15384615,611.2615385,611.2615385,black,legacy,legacy,legacy,0,incongruent ,uniform,1,undefined,1,s,129,0,0,0,129,0,129,0,129,0,0,0,129,129,129,129,9/26/19 17:29,600,The main experiment item,yes,FlankertaskSL.osexp,C:/Users/Sarah Linan/Desktop,no,mono,no,18,no,white,no,yes,768,legacy,49,79,C:/Users/Sarah Linan/Desktop/SL-subject-2.csv,legacy,Kafkaesque Koffka,3.2.8,0,s,NA,s,s,NA,s,578,NA,42624,12430,NA,578,2,legacy,1024,2,48000,-16,experiment,HHSHH,2,even,306832,45297,216819,NA,243281,2664,293926,NA,307929,2672,204388,NA,308031,308611,307926,308031,Flanker task SL,125,79464,130,yes,1024
96.18320611,96.18320611,611.3129771,611.3129771,black,legacy,legacy,legacy,0,incongruent ,uniform,1,undefined,1,s,130,0,0,0,130,0,130,0,130,0,0,0,130,130,130,130,9/26/19 17:29,600,The main experiment item,yes,FlankertaskSL.osexp,C:/Users/Sarah Linan/Desktop,no,mono,no,18,no,white,no,yes,768,legacy,50,79,C:/Users/Sarah Linan/Desktop/SL-subject-2.csv,legacy,Kafkaesque Koffka,3.2.8,0,s,NA,s,s,NA,s,618,NA,42624,12430,NA,618,2,legacy,1024,2,48000,-16,experiment,HHSHH,2,even,308696,45297,216819,NA,243281,2664,293926,NA,309787,2672,204388,NA,309889,310509,309784,309889,Flanker task SL,126,80082,131,yes,1024
96.21212121,96.21212121,611.1590909,611.1590909,black,legacy,legacy,legacy,0,incongruent ,uniform,1,undefined,1,s,131,0,0,0,131,0,131,0,131,0,0,0,131,131,131,131,9/26/19 17:29,600,The main experiment item,yes,FlankertaskSL.osexp,C:/Users/Sarah Linan/Desktop,no,mono,no,18,no,white,no,yes,768,legacy,51,79,C:/Users/Sarah Linan/Desktop/SL-subject-2.csv,legacy,Kafkaesque Koffka,3.2.8,0,s,NA,s,s,NA,s,591,NA,42624,12430,NA,591,2,legacy,1024,2,48000,-16,experiment,HHSHH,2,even,311098,45297,216819,NA,243281,2664,310594,NA,312198,2672,204388,NA,312302,312896,312195,312302,Flanker task SL,127,80673,132,yes,1024
96.2406015,96.2406015,610.1804511,610.1804511,black,legacy,legacy,legacy,0,incongruent ,uniform,1,undefined,1,s,132,0,0,0,132,0,132,0,132,0,0,0,132,132,132,132,9/26/19 17:29,600,The main experiment item,yes,FlankertaskSL.osexp,C:/Users/Sarah Linan/Desktop,no,mono,no,18,no,white,no,yes,768,legacy,52,79,C:/Users/Sarah Linan/Desktop/SL-subject-2.csv,legacy,Kafkaesque Koffka,3.2.8,0,s,NA,s,s,NA,s,481,NA,42624,12430,NA,481,2,legacy,1024,2,48000,-16,experiment,HHSHH,2,even,312980,45297,216819,NA,243281,2664,310594,NA,314082,2672,204388,NA,314184,314667,314079,314184,Flanker task SL,128,81154,133,yes,1024
96.26865672,96.26865672,609.0447761,609.0447761,black,legacy,legacy,legacy,0,congruent,uniform,1,undefined,1,s,133,0,0,0,133,0,133,0,133,0,0,0,133,133,133,133,9/26/19 17:29,600,The main experiment item,yes,FlankertaskSL.osexp,C:/Users/Sarah Linan/Desktop,no,mono,no,18,no,white,no,yes,768,legacy,53,79,C:/Users/Sarah Linan/Desktop/SL-subject-2.csv,legacy,Kafkaesque Koffka,3.2.8,0,s,NA,s,s,NA,s,458,NA,42624,12430,NA,458,2,legacy,1024,2,48000,-16,experiment,SSSSS,2,even,314755,45297,216819,NA,243281,2664,310594,NA,315855,2672,204388,NA,315957,316417,315851,315957,Flanker task SL,129,81612,134,yes,1024
96.2962963,96.2962963,608.8592593,608.8592593,black,legacy,legacy,legacy,0,incongruent ,uniform,1,undefined,1,s,134,0,0,0,134,0,134,0,134,0,0,0,134,134,134,134,9/26/19 17:29,600,The main experiment item,yes,FlankertaskSL.osexp,C:/Users/Sarah Linan/Desktop,no,mono,no,18,no,white,no,yes,768,legacy,54,79,C:/Users/Sarah Linan/Desktop/SL-subject-2.csv,legacy,Kafkaesque Koffka,3.2.8,0,s,NA,s,s,NA,s,584,NA,42624,12430,NA,584,2,legacy,1024,2,48000,-16,experiment,HHSHH,2,even,316496,45297,216819,NA,243281,2664,310594,NA,317597,2672,204388,NA,317701,318287,317594,317701,Flanker task SL,130,82196,135,yes,1024
96.32352941,96.32352941,607.6764706,607.6764706,black,legacy,legacy,legacy,0,congruent,uniform,1,undefined,1,s,135,0,0,0,135,0,135,0,135,0,0,0,135,135,135,135,9/26/19 17:29,600,The main experiment item,yes,FlankertaskSL.osexp,C:/Users/Sarah Linan/Desktop,no,mono,no,18,no,white,no,yes,768,legacy,55,79,C:/Users/Sarah Linan/Desktop/SL-subject-2.csv,legacy,Kafkaesque Koffka,3.2.8,0,s,NA,s,s,NA,s,448,NA,42624,12430,NA,448,2,legacy,1024,2,48000,-16,experiment,SSSSS,2,even,318371,45297,216819,NA,243281,2664,310594,NA,319470,2672,204388,NA,319572,320022,319467,319572,Flanker task SL,131,82644,136,yes,1024
96.35036496,96.35036496,606.1824818,606.1824818,black,legacy,legacy,legacy,0,congruent,uniform,1,undefined,1,s,136,0,0,0,136,0,136,0,136,0,0,0,136,136,136,136,9/26/19 17:29,600,The main experiment item,yes,FlankertaskSL.osexp,C:/Users/Sarah Linan/Desktop,no,mono,no,18,no,white,no,yes,768,legacy,56,79,C:/Users/Sarah Linan/Desktop/SL-subject-2.csv,legacy,Kafkaesque Koffka,3.2.8,0,s,NA,s,s,NA,s,403,NA,42624,12430,NA,403,2,legacy,1024,2,48000,-16,experiment,SSSSS,2,even,320102,45297,216819,NA,243281,2664,310594,NA,321202,2672,204388,NA,321304,321709,321199,321304,Flanker task SL,132,83047,137,yes,1024
96.37681159,96.37681159,605.0507246,605.0507246,black,legacy,legacy,legacy,0,congruent,uniform,1,undefined,1,s,137,0,0,0,137,0,137,0,137,0,0,0,137,137,137,137,9/26/19 17:29,600,The main experiment item,yes,FlankertaskSL.osexp,C:/Users/Sarah Linan/Desktop,no,mono,no,18,no,white,no,yes,768,legacy,57,79,C:/Users/Sarah Linan/Desktop/SL-subject-2.csv,legacy,Kafkaesque Koffka,3.2.8,0,s,NA,s,s,NA,s,450,NA,42624,12430,NA,450,2,legacy,1024,2,48000,-16,experiment,SSSSS,2,even,321790,45297,216819,NA,243281,2664,310594,NA,322891,2672,204388,NA,322994,323446,322888,322994,Flanker task SL,133,83497,138,yes,1024
96.4028777,96.4028777,604.057554,604.057554,black,legacy,legacy,legacy,0,incongruent ,uniform,1,undefined,1,s,138,0,0,0,138,0,138,0,138,0,0,0,138,138,138,138,9/26/19 17:29,600,The main experiment item,yes,FlankertaskSL.osexp,C:/Users/Sarah Linan/Desktop,no,mono,no,18,no,white,no,yes,768,legacy,58,79,C:/Users/Sarah Linan/Desktop/SL-subject-2.csv,legacy,Kafkaesque Koffka,3.2.8,0,s,NA,s,s,NA,s,467,NA,42624,12430,NA,467,2,legacy,1024,2,48000,-16,experiment,HHSHH,2,even,323531,45297,216819,NA,243281,2664,310594,NA,324629,2672,204388,NA,324732,325201,324627,324732,Flanker task SL,134,83964,139,yes,1024
96.42857143,96.42857143,603.1571429,603.1571429,black,legacy,legacy,legacy,0,congruent,uniform,1,undefined,1,s,139,0,0,0,139,0,139,0,139,0,0,0,139,139,139,139,9/26/19 17:29,600,The main experiment item,yes,FlankertaskSL.osexp,C:/Users/Sarah Linan/Desktop,no,mono,no,18,no,white,no,yes,768,legacy,59,79,C:/Users/Sarah Linan/Desktop/SL-subject-2.csv,legacy,Kafkaesque Koffka,3.2.8,0,s,NA,s,s,NA,s,478,NA,42624,12430,NA,478,2,legacy,1024,2,48000,-16,experiment,SSSSS,2,even,325284,45297,216819,NA,243281,2664,310594,NA,326378,2672,204388,NA,326481,326961,326375,326481,Flanker task SL,135,84442,140,yes,1024
96.45390071,96.45390071,603.1914894,603.1914894,black,legacy,legacy,legacy,0,incongruent ,uniform,1,undefined,1,s,140,0,0,0,140,0,140,0,140,0,0,0,140,140,140,140,9/26/19 17:29,600,The main experiment item,yes,FlankertaskSL.osexp,C:/Users/Sarah Linan/Desktop,no,mono,no,18,no,white,no,yes,768,legacy,60,79,C:/Users/Sarah Linan/Desktop/SL-subject-2.csv,legacy,Kafkaesque Koffka,3.2.8,0,s,NA,s,s,NA,s,608,NA,42624,12430,NA,608,2,legacy,1024,2,48000,-16,experiment,HHSHH,2,even,327046,45297,216819,NA,243281,2664,310594,NA,328144,2672,204388,NA,328246,328857,328141,328246,Flanker task SL,136,85050,141,yes,1024
96.47887324,96.47887324,602.2887324,602.2887324,black,legacy,legacy,legacy,0,congruent,uniform,1,undefined,1,h,141,0,0,0,141,0,141,0,141,0,0,0,141,141,141,141,9/26/19 17:29,600,The main experiment item,yes,FlankertaskSL.osexp,C:/Users/Sarah Linan/Desktop,no,mono,no,18,no,white,no,yes,768,legacy,61,79,C:/Users/Sarah Linan/Desktop/SL-subject-2.csv,legacy,Kafkaesque Koffka,3.2.8,0,h,NA,s,s,NA,h,475,NA,42624,12430,NA,475,2,legacy,1024,2,48000,-16,experiment,HHHHH,2,even,329449,45297,216819,NA,243281,2664,328945,NA,330541,2672,204388,NA,330645,331123,330539,330645,Flanker task SL,137,85525,142,yes,1024
95.8041958,95.8041958,601.2727273,601.2727273,black,legacy,legacy,legacy,0,incongruent,uniform,0,undefined,0,h,142,0,0,0,142,0,142,0,142,0,0,0,142,142,142,142,9/26/19 17:29,600,The main experiment item,yes,FlankertaskSL.osexp,C:/Users/Sarah Linan/Desktop,no,mono,no,18,no,white,no,yes,768,legacy,62,79,C:/Users/Sarah Linan/Desktop/SL-subject-2.csv,legacy,Kafkaesque Koffka,3.2.8,0,s,NA,s,s,NA,s,457,NA,42624,12430,NA,457,2,legacy,1024,2,48000,-16,experiment,SSHSS,2,even,331209,45297,216819,NA,243281,2664,328945,NA,332306,2672,204388,NA,332408,332867,332303,332408,Flanker task SL,137,85982,143,yes,1024
95.83333333,95.83333333,601.4722222,601.4722222,black,legacy,legacy,legacy,0,congruent,uniform,1,undefined,1,h,143,0,0,0,143,0,143,0,143,0,0,0,143,143,143,143,9/26/19 17:29,600,The main experiment item,yes,FlankertaskSL.osexp,C:/Users/Sarah Linan/Desktop,no,mono,no,18,no,white,no,yes,768,legacy,63,79,C:/Users/Sarah Linan/Desktop/SL-subject-2.csv,legacy,Kafkaesque Koffka,3.2.8,0,h,NA,s,s,NA,h,630,NA,42624,12430,NA,630,2,legacy,1024,2,48000,-16,experiment,HHHHH,2,even,333454,45297,216819,NA,332950,2664,328945,NA,334553,2672,204388,NA,334656,335288,334551,334656,Flanker task SL,138,86612,144,yes,1024
95.86206897,95.86206897,600.5172414,600.5172414,black,legacy,legacy,legacy,0,incongruent,uniform,1,undefined,1,h,144,0,0,0,144,0,144,0,144,0,0,0,144,144,144,144,9/26/19 17:29,600,The main experiment item,yes,FlankertaskSL.osexp,C:/Users/Sarah Linan/Desktop,no,mono,no,18,no,white,no,yes,768,legacy,64,79,C:/Users/Sarah Linan/Desktop/SL-subject-2.csv,legacy,Kafkaesque Koffka,3.2.8,0,h,NA,s,s,NA,h,463,NA,42624,12430,NA,463,2,legacy,1024,2,48000,-16,experiment,SSHSS,2,even,335873,45297,216819,NA,332950,2664,335368,NA,336973,2672,204388,NA,337076,337541,336970,337076,Flanker task SL,139,87075,145,yes,1024
95.20547945,95.20547945,599.5410959,599.5410959,black,legacy,legacy,legacy,0,incongruent ,uniform,0,undefined,0,s,145,0,0,0,145,0,145,0,145,0,0,0,145,145,145,145,9/26/19 17:29,600,The main experiment item,yes,FlankertaskSL.osexp,C:/Users/Sarah Linan/Desktop,no,mono,no,18,no,white,no,yes,768,legacy,65,79,C:/Users/Sarah Linan/Desktop/SL-subject-2.csv,legacy,Kafkaesque Koffka,3.2.8,0,h,NA,s,s,NA,h,458,NA,42624,12430,NA,458,2,legacy,1024,2,48000,-16,experiment,HHSHH,2,even,337621,45297,216819,NA,332950,2664,335368,NA,338715,2672,204388,NA,338817,339278,338712,338817,Flanker task SL,139,87533,146,yes,1024
95.23809524,95.23809524,601.3469388,601.3469388,black,legacy,legacy,legacy,0,incongruent ,uniform,1,undefined,1,s,146,0,0,0,146,0,146,0,146,0,0,0,146,146,146,146,9/26/19 17:29,600,The main experiment item,yes,FlankertaskSL.osexp,C:/Users/Sarah Linan/Desktop,no,mono,no,18,no,white,no,yes,768,legacy,66,79,C:/Users/Sarah Linan/Desktop/SL-subject-2.csv,legacy,Kafkaesque Koffka,3.2.8,0,s,NA,s,s,NA,s,865,NA,42624,12430,NA,865,2,legacy,1024,2,48000,-16,experiment,HHSHH,2,even,339867,45297,216819,NA,339363,2664,335368,NA,340975,2672,204388,NA,341079,341946,340973,341078,Flanker task SL,140,88398,147,yes,1024
95.27027027,95.27027027,600.2905405,600.2905405,black,legacy,legacy,legacy,0,congruent,uniform,1,undefined,1,s,147,0,0,0,147,0,147,0,147,0,0,0,147,147,147,147,9/26/19 17:29,600,The main experiment item,yes,FlankertaskSL.osexp,C:/Users/Sarah Linan/Desktop,no,mono,no,18,no,white,no,yes,768,legacy,67,79,C:/Users/Sarah Linan/Desktop/SL-subject-2.csv,legacy,Kafkaesque Koffka,3.2.8,0,s,NA,s,s,NA,s,445,NA,42624,12430,NA,445,2,legacy,1024,2,48000,-16,experiment,SSSSS,2,even,342483,45297,216819,NA,339363,2664,341980,NA,343574,2672,204388,NA,343678,344124,343571,343678,Flanker task SL,141,88843,148,yes,1024
95.30201342,95.30201342,599.557047,599.557047,black,legacy,legacy,legacy,0,congruent,uniform,1,undefined,1,s,148,0,0,0,148,0,148,0,148,0,0,0,148,148,148,148,9/26/19 17:29,600,The main experiment item,yes,FlankertaskSL.osexp,C:/Users/Sarah Linan/Desktop,no,mono,no,18,no,white,no,yes,768,legacy,68,79,C:/Users/Sarah Linan/Desktop/SL-subject-2.csv,legacy,Kafkaesque Koffka,3.2.8,0,s,NA,s,s,NA,s,491,NA,42624,12430,NA,491,2,legacy,1024,2,48000,-16,experiment,SSSSS,2,even,344212,45297,216819,NA,339363,2664,341980,NA,345317,2672,204388,NA,345420,345913,345313,345419,Flanker task SL,142,89334,149,yes,1024
95.33333333,95.33333333,598.42,598.42,black,legacy,legacy,legacy,0,congruent,uniform,1,undefined,1,s,149,0,0,0,149,0,149,0,149,0,0,0,149,149,149,149,9/26/19 17:29,600,The main experiment item,yes,FlankertaskSL.osexp,C:/Users/Sarah Linan/Desktop,no,mono,no,18,no,white,no,yes,768,legacy,69,79,C:/Users/Sarah Linan/Desktop/SL-subject-2.csv,legacy,Kafkaesque Koffka,3.2.8,0,s,NA,s,s,NA,s,429,NA,42624,12430,NA,429,2,legacy,1024,2,48000,-16,experiment,SSSSS,2,even,345998,45297,216819,NA,339363,2664,341980,NA,347096,2672,204388,NA,347198,347628,347092,347198,Flanker task SL,143,89763,150,yes,1024
95.36423841,95.36423841,598.615894,598.615894,black,legacy,legacy,legacy,0,incongruent,uniform,1,undefined,1,h,150,0,0,0,150,0,150,0,150,0,0,0,150,150,150,150,9/26/19 17:29,600,The main experiment item,yes,FlankertaskSL.osexp,C:/Users/Sarah Linan/Desktop,no,mono,no,18,no,white,no,yes,768,legacy,70,79,C:/Users/Sarah Linan/Desktop/SL-subject-2.csv,legacy,Kafkaesque Koffka,3.2.8,0,h,NA,s,s,NA,h,628,NA,42624,12430,NA,628,2,legacy,1024,2,48000,-16,experiment,SSHSS,2,even,347707,45297,216819,NA,339363,2664,341980,NA,348806,2672,204388,NA,348909,349539,348803,348909,Flanker task SL,144,90391,151,yes,1024
95.39473684,95.39473684,598.4078947,598.4078947,black,legacy,legacy,legacy,0,congruent,uniform,1,undefined,1,s,151,0,0,0,151,0,151,0,151,0,0,0,151,151,151,151,9/26/19 17:29,600,The main experiment item,yes,FlankertaskSL.osexp,C:/Users/Sarah Linan/Desktop,no,mono,no,18,no,white,no,yes,768,legacy,71,79,C:/Users/Sarah Linan/Desktop/SL-subject-2.csv,legacy,Kafkaesque Koffka,3.2.8,0,s,NA,s,s,NA,s,567,NA,42624,12430,NA,567,2,legacy,1024,2,48000,-16,experiment,SSSSS,2,even,350131,45297,216819,NA,339363,2664,349626,NA,351228,2672,204388,NA,351333,351902,351225,351333,Flanker task SL,145,90958,152,yes,1024
95.4248366,95.4248366,597.9477124,597.9477124,black,legacy,legacy,legacy,0,incongruent,uniform,1,undefined,1,h,152,0,0,0,152,0,152,0,152,0,0,0,152,152,152,152,9/26/19 17:29,600,The main experiment item,yes,FlankertaskSL.osexp,C:/Users/Sarah Linan/Desktop,no,mono,no,18,no,white,no,yes,768,legacy,72,79,C:/Users/Sarah Linan/Desktop/SL-subject-2.csv,legacy,Kafkaesque Koffka,3.2.8,0,h,NA,s,s,NA,h,528,NA,42624,12430,NA,528,2,legacy,1024,2,48000,-16,experiment,SSHSS,2,even,351990,45297,216819,NA,339363,2664,349626,NA,353085,2672,204388,NA,353188,353718,353082,353187,Flanker task SL,146,91486,153,yes,1024
95.45454545,95.45454545,598.5,598.5,black,legacy,legacy,legacy,0,incongruent,uniform,1,undefined,1,h,153,0,0,0,153,0,153,0,153,0,0,0,153,153,153,153,9/26/19 17:29,600,The main experiment item,yes,FlankertaskSL.osexp,C:/Users/Sarah Linan/Desktop,no,mono,no,18,no,white,no,yes,768,legacy,73,79,C:/Users/Sarah Linan/Desktop/SL-subject-2.csv,legacy,Kafkaesque Koffka,3.2.8,0,h,NA,s,s,NA,h,683,NA,42624,12430,NA,683,2,legacy,1024,2,48000,-16,experiment,SSHSS,2,even,353798,45297,216819,NA,339363,2664,349626,NA,354894,2672,204388,NA,354996,355681,354890,354996,Flanker task SL,147,92169,154,yes,1024
95.48387097,95.48387097,599.3483871,599.3483871,black,legacy,legacy,legacy,0,incongruent ,uniform,1,undefined,1,s,154,0,0,0,154,0,154,0,154,0,0,0,154,154,154,154,9/26/19 17:29,600,The main experiment item,yes,FlankertaskSL.osexp,C:/Users/Sarah Linan/Desktop,no,mono,no,18,no,white,no,yes,768,legacy,74,79,C:/Users/Sarah Linan/Desktop/SL-subject-2.csv,legacy,Kafkaesque Koffka,3.2.8,0,s,NA,s,s,NA,s,730,NA,42624,12430,NA,730,2,legacy,1024,2,48000,-16,experiment,HHSHH,2,even,356267,45297,216819,NA,339363,2664,355762,NA,357360,2672,204388,NA,357464,358196,357358,357464,Flanker task SL,148,92899,155,yes,1024
95.51282051,95.51282051,599.1923077,599.1923077,black,legacy,legacy,legacy,0,incongruent,uniform,1,undefined,1,h,155,0,0,0,155,0,155,0,155,0,0,0,155,155,155,155,9/26/19 17:29,600,The main experiment item,yes,FlankertaskSL.osexp,C:/Users/Sarah Linan/Desktop,no,mono,no,18,no,white,no,yes,768,legacy,75,79,C:/Users/Sarah Linan/Desktop/SL-subject-2.csv,legacy,Kafkaesque Koffka,3.2.8,0,h,NA,s,s,NA,h,575,NA,42624,12430,NA,575,2,legacy,1024,2,48000,-16,experiment,SSHSS,2,even,358786,45297,216819,NA,339363,2664,358282,NA,359883,2672,204388,NA,359987,360564,359881,359987,Flanker task SL,149,93474,156,yes,1024
95.54140127,95.54140127,599.1592357,599.1592357,black,legacy,legacy,legacy,0,incongruent,uniform,1,undefined,1,h,156,0,0,0,156,0,156,0,156,0,0,0,156,156,156,156,9/26/19 17:29,600,The main experiment item,yes,FlankertaskSL.osexp,C:/Users/Sarah Linan/Desktop,no,mono,no,18,no,white,no,yes,768,legacy,76,79,C:/Users/Sarah Linan/Desktop/SL-subject-2.csv,legacy,Kafkaesque Koffka,3.2.8,0,h,NA,s,s,NA,h,594,NA,42624,12430,NA,594,2,legacy,1024,2,48000,-16,experiment,SSHSS,2,even,360644,45297,216819,NA,339363,2664,358282,NA,361746,2672,204388,NA,361848,362445,361744,361848,Flanker task SL,150,94068,157,yes,1024
95.56962025,95.56962025,598.8037975,598.8037975,black,legacy,legacy,legacy,0,incongruent,uniform,1,undefined,1,h,157,0,0,0,157,0,157,0,157,0,0,0,157,157,157,157,9/26/19 17:29,600,The main experiment item,yes,FlankertaskSL.osexp,C:/Users/Sarah Linan/Desktop,no,mono,no,18,no,white,no,yes,768,legacy,77,79,C:/Users/Sarah Linan/Desktop/SL-subject-2.csv,legacy,Kafkaesque Koffka,3.2.8,0,h,NA,s,s,NA,h,543,NA,42624,12430,NA,543,2,legacy,1024,2,48000,-16,experiment,SSHSS,2,even,362542,45297,216819,NA,339363,2664,358282,NA,363639,2672,204388,NA,363741,364286,363636,363741,Flanker task SL,151,94611,158,yes,1024
95.59748428,95.59748428,598.3144654,598.3144654,black,legacy,legacy,legacy,0,congruent,uniform,1,undefined,1,s,158,0,0,0,158,0,158,0,158,0,0,0,158,158,158,158,9/26/19 17:29,600,The main experiment item,yes,FlankertaskSL.osexp,C:/Users/Sarah Linan/Desktop,no,mono,no,18,no,white,no,yes,768,legacy,78,79,C:/Users/Sarah Linan/Desktop/SL-subject-2.csv,legacy,Kafkaesque Koffka,3.2.8,0,s,NA,s,s,NA,s,521,NA,42624,12430,NA,521,2,legacy,1024,2,48000,-16,experiment,SSSSS,2,even,364372,45297,216819,NA,339363,2664,358282,NA,365473,2672,204388,NA,365575,366098,365471,365575,Flanker task SL,152,95132,159,yes,1024
95.625,95.625,597.83125,597.83125,black,legacy,legacy,legacy,0,incongruent,uniform,1,undefined,1,h,159,0,0,0,159,0,159,0,159,0,0,0,159,159,159,159,9/26/19 17:29,600,The main experiment item,yes,FlankertaskSL.osexp,C:/Users/Sarah Linan/Desktop,no,mono,no,18,no,white,no,yes,768,legacy,79,79,C:/Users/Sarah Linan/Desktop/SL-subject-2.csv,legacy,Kafkaesque Koffka,3.2.8,0,h,NA,s,s,NA,h,521,NA,42624,12430,NA,521,2,legacy,1024,2,48000,-16,experiment,SSHSS,2,even,366137,45297,216819,NA,339363,2664,358282,NA,367240,2672,204388,NA,367342,367865,367236,367342,Flanker task SL,153,95653,160,yes,1024
95.65217391,95.65217391,597.2608696,597.2608696,black,legacy,legacy,legacy,0,incongruent,uniform,1,undefined,1,h,160,0,0,0,160,0,160,0,160,0,0,0,160,160,160,160,9/26/19 17:29,300,The main experiment item,yes,FlankertaskSL.osexp,C:/Users/Sarah Linan/Desktop,no,mono,no,18,no,white,no,yes,768,legacy,0,79,C:/Users/Sarah Linan/Desktop/SL-subject-2.csv,legacy,Kafkaesque Koffka,3.2.8,0,h,NA,s,s,s,h,506,NA,42624,12430,4271,506,2,legacy,1024,2,48000,-16,experiment,SSHSS,2,even,367944,45297,216819,373239,339363,2664,358282,NA,373320,2672,204388,368966,373422,373930,373317,373422,Flanker task SL,154,96159,161,yes,1024
95.67901235,95.67901235,596.345679,596.345679,black,legacy,legacy,legacy,0,congruent,uniform,1,undefined,1,h,161,0,0,0,161,0,161,0,161,0,0,0,161,161,161,161,9/26/19 17:29,300,The main experiment item,yes,FlankertaskSL.osexp,C:/Users/Sarah Linan/Desktop,no,mono,no,18,no,white,no,yes,768,legacy,1,79,C:/Users/Sarah Linan/Desktop/SL-subject-2.csv,legacy,Kafkaesque Koffka,3.2.8,0,h,NA,s,s,s,h,449,NA,42624,12430,4271,449,2,legacy,1024,2,48000,-16,experiment,HHHHH,2,even,374516,45297,216819,373239,339363,2664,374013,NA,375611,2672,204388,368966,375714,376165,375608,375714,Flanker task SL,155,96608,162,yes,1024
95.70552147,95.70552147,595.601227,595.601227,black,legacy,legacy,legacy,0,congruent,uniform,1,undefined,1,h,162,0,0,0,162,0,162,0,162,0,0,0,162,162,162,162,9/26/19 17:29,300,The main experiment item,yes,FlankertaskSL.osexp,C:/Users/Sarah Linan/Desktop,no,mono,no,18,no,white,no,yes,768,legacy,2,79,C:/Users/Sarah Linan/Desktop/SL-subject-2.csv,legacy,Kafkaesque Koffka,3.2.8,0,h,NA,s,s,s,h,475,NA,42624,12430,4271,475,2,legacy,1024,2,48000,-16,experiment,HHHHH,2,even,376747,45297,216819,373239,339363,2664,376244,NA,377851,2672,204388,368966,377955,378432,377848,377955,Flanker task SL,156,97083,163,yes,1024
95.73170732,95.73170732,594.9695122,594.9695122,black,legacy,legacy,legacy,0,incongruent ,uniform,1,undefined,1,s,163,0,0,0,163,0,163,0,163,0,0,0,163,163,163,163,9/26/19 17:29,300,The main experiment item,yes,FlankertaskSL.osexp,C:/Users/Sarah Linan/Desktop,no,mono,no,18,no,white,no,yes,768,legacy,3,79,C:/Users/Sarah Linan/Desktop/SL-subject-2.csv,legacy,Kafkaesque Koffka,3.2.8,0,s,NA,s,s,s,s,492,NA,42624,12430,4271,492,2,legacy,1024,2,48000,-16,experiment,HHSHH,2,even,379023,45297,216819,373239,339363,2664,378519,NA,380122,2672,204388,368966,380227,380721,380119,380227,Flanker task SL,157,97575,164,yes,1024
95.75757576,95.75757576,594.1030303,594.1030303,black,legacy,legacy,legacy,0,congruent,uniform,1,undefined,1,s,164,0,0,0,164,0,164,0,164,0,0,0,164,164,164,164,9/26/19 17:29,300,The main experiment item,yes,FlankertaskSL.osexp,C:/Users/Sarah Linan/Desktop,no,mono,no,18,no,white,no,yes,768,legacy,4,79,C:/Users/Sarah Linan/Desktop/SL-subject-2.csv,legacy,Kafkaesque Koffka,3.2.8,0,s,NA,s,s,s,s,452,NA,42624,12430,4271,452,2,legacy,1024,2,48000,-16,experiment,SSSSS,2,even,381309,45297,216819,373239,339363,2664,380805,NA,382404,2672,204388,368966,382509,382964,382401,382508,Flanker task SL,158,98027,165,yes,1024
95.78313253,95.78313253,593.4578313,593.4578313,black,legacy,legacy,legacy,0,congruent,uniform,1,undefined,1,h,165,0,0,0,165,0,165,0,165,0,0,0,165,165,165,165,9/26/19 17:29,300,The main experiment item,yes,FlankertaskSL.osexp,C:/Users/Sarah Linan/Desktop,no,mono,no,18,no,white,no,yes,768,legacy,5,79,C:/Users/Sarah Linan/Desktop/SL-subject-2.csv,legacy,Kafkaesque Koffka,3.2.8,0,h,NA,s,s,s,h,487,NA,42624,12430,4271,487,2,legacy,1024,2,48000,-16,experiment,HHHHH,2,even,383550,45297,216819,373239,339363,2664,383046,NA,384646,2672,204388,368966,384750,385239,384644,384750,Flanker task SL,159,98514,166,yes,1024
95.80838323,95.80838323,592.5868263,592.5868263,black,legacy,legacy,legacy,0,congruent,uniform,1,undefined,1,s,166,0,0,0,166,0,166,0,166,0,0,0,166,166,166,166,9/26/19 17:29,300,The main experiment item,yes,FlankertaskSL.osexp,C:/Users/Sarah Linan/Desktop,no,mono,no,18,no,white,no,yes,768,legacy,6,79,C:/Users/Sarah Linan/Desktop/SL-subject-2.csv,legacy,Kafkaesque Koffka,3.2.8,0,s,NA,s,s,s,s,448,NA,42624,12430,4271,448,2,legacy,1024,2,48000,-16,experiment,SSSSS,2,even,385824,45297,216819,373239,339363,2664,385320,NA,386929,2672,204388,368966,387034,387484,386926,387034,Flanker task SL,160,98962,167,yes,1024
