acc,accuracy,average_response_time,avg_rt,background,canvas_backend,clock_backend,color_backend,condition,correct,correct_instructions1,correct_keyboard_response,correct_response,count_ISI,count_block1,count_block2,count_block3,count_errorFeedback,count_experiment,count_faster,count_finish,count_fixation,count_instructions1,count_instructions2,count_instructions3,count_keyboard_response,count_logger,count_new_sketchpad,count_sequence,count_stimulus,datetime,deadline,description,disable_garbage_collection,experiment_file,experiment_path,font_bold,font_family,font_italic,font_size,font_underline,foreground,form_clicks,fullscreen,height,keyboard_backend,live_row,live_row_block1,logfile,mouse_backend,opensesame_codename,opensesame_version,repeat_cycle,response,response_finish,response_instructions1,response_instructions2,response_instructions3,response_keyboard_response,response_new_sketchpad,response_time,response_time_finish,response_time_instructions1,response_time_instructions2,response_time_instructions3,response_time_keyboard_response,response_time_new_sketchpad,round_decimals,sampler_backend,sound_buf_size,sound_channels,sound_freq,sound_sample_size,start,stimulus,subject_nr,subject_parity,time_ISI,time_block1,time_block2,time_block3,time_errorFeedback,time_experiment,time_faster,time_finish,time_fixation,time_instructions1,time_instructions2,time_instructions3,time_keyboard_response,time_logger,time_new_sketchpad,time_sequence,time_stimulus,title,total_correct,total_response_time,total_responses,width
100,100,1351,1351,black,legacy,legacy,legacy,congruent ,1,undefined,1,s,0,0,0,0,0,0,0,0,0,0,0,0,0,0,NA,0,0,Fri Sep 15 10:55:48 2023,1500,The main experiment item,TRUE,FlankerTask.osexp,C:\Users\Simone\Desktop,FALSE,mono,FALSE,18,no,white,no,no,768,legacy,0,0,C:/Users/Simone/Desktop/SD-subject-1.csv,legacy,Melodramatic Milgram,4.0.5,0,s,NA,s,NA,NA,s,NA,1351,NA,34597,NA,NA,1351,NA,2,legacy,1024,2,48000,-16,experiment,SSSSS,1,odd,NA,35764,NA,NA,NA,1163,NA,NA,35806,1166,NA,NA,35907,37258,NA,35805,35907,Flanker Task,1,1351,1,1024
100,100,990,990,black,legacy,legacy,legacy,congruent ,1,undefined,1,s,1,0,0,0,1,0,1,0,1,0,0,0,1,1,NA,1,1,Fri Sep 15 10:55:48 2023,1500,The main experiment item,TRUE,FlankerTask.osexp,C:\Users\Simone\Desktop,FALSE,mono,FALSE,18,no,white,no,no,768,legacy,1,1,C:/Users/Simone/Desktop/SD-subject-1.csv,legacy,Melodramatic Milgram,4.0.5,0,s,NA,s,NA,NA,s,NA,629,NA,34597,NA,NA,629,NA,2,legacy,1024,2,48000,-16,experiment,SSSSS,1,odd,37265,35764,NA,NA,NA,1163,NA,NA,38306,1166,NA,NA,38407,39036,NA,38303,38407,Flanker Task,2,1980,2,1024
100,100,816,816,black,legacy,legacy,legacy,congruent ,1,undefined,1,h,2,0,0,0,2,0,2,0,2,0,0,0,2,2,NA,2,2,Fri Sep 15 10:55:48 2023,1500,The main experiment item,TRUE,FlankerTask.osexp,C:\Users\Simone\Desktop,FALSE,mono,FALSE,18,no,white,no,no,768,legacy,2,2,C:/Users/Simone/Desktop/SD-subject-1.csv,legacy,Melodramatic Milgram,4.0.5,0,h,NA,s,NA,NA,h,NA,469,NA,34597,NA,NA,469,NA,2,legacy,1024,2,48000,-16,experiment,HHHHH,1,odd,39040,35764,NA,NA,NA,1163,NA,NA,40074,1166,NA,NA,40175,40644,NA,40072,40175,Flanker Task,3,2449,3,1024
100,100,744,744,black,legacy,legacy,legacy,incongruent,1,undefined,1,s,3,0,0,0,3,0,3,0,3,0,0,0,3,3,NA,3,3,Fri Sep 15 10:55:48 2023,1500,The main experiment item,TRUE,FlankerTask.osexp,C:\Users\Simone\Desktop,FALSE,mono,FALSE,18,no,white,no,no,768,legacy,3,3,C:/Users/Simone/Desktop/SD-subject-1.csv,legacy,Melodramatic Milgram,4.0.5,0,s,NA,s,NA,NA,s,NA,530,NA,34597,NA,NA,530,NA,2,legacy,1024,2,48000,-16,experiment,HHSHH,1,odd,40648,35764,NA,NA,NA,1163,NA,NA,41686,1166,NA,NA,41787,42317,NA,41684,41787,Flanker Task,4,2979,4,1024
100,100,704,704,black,legacy,legacy,legacy,incongruent,1,undefined,1,s,4,0,0,0,4,0,4,0,4,0,0,0,4,4,NA,4,4,Fri Sep 15 10:55:48 2023,1500,The main experiment item,TRUE,FlankerTask.osexp,C:\Users\Simone\Desktop,FALSE,mono,FALSE,18,no,white,no,no,768,legacy,4,4,C:/Users/Simone/Desktop/SD-subject-1.csv,legacy,Melodramatic Milgram,4.0.5,0,s,NA,s,NA,NA,s,NA,544,NA,34597,NA,NA,544,NA,2,legacy,1024,2,48000,-16,experiment,HHSHH,1,odd,42321,35764,NA,NA,NA,1163,NA,NA,43353,1166,NA,NA,43454,43999,NA,43351,43454,Flanker Task,5,3523,5,1024
100,100,675,675,black,legacy,legacy,legacy,incongruent,1,undefined,1,s,5,0,0,0,5,0,5,0,5,0,0,0,5,5,NA,5,5,Fri Sep 15 10:55:48 2023,1500,The main experiment item,TRUE,FlankerTask.osexp,C:\Users\Simone\Desktop,FALSE,mono,FALSE,18,no,white,no,no,768,legacy,5,5,C:/Users/Simone/Desktop/SD-subject-1.csv,legacy,Melodramatic Milgram,4.0.5,0,s,NA,s,NA,NA,s,NA,527,NA,34597,NA,NA,527,NA,2,legacy,1024,2,48000,-16,experiment,HHSHH,1,odd,44002,35764,NA,NA,NA,1163,NA,NA,45034,1166,NA,NA,45135,45662,NA,45032,45135,Flanker Task,6,4050,6,1024
100,100,674,674,black,legacy,legacy,legacy,incongruent,1,undefined,1,h,6,0,0,0,6,0,6,0,6,0,0,0,6,6,NA,6,6,Fri Sep 15 10:55:48 2023,1500,The main experiment item,TRUE,FlankerTask.osexp,C:\Users\Simone\Desktop,FALSE,mono,FALSE,18,no,white,no,no,768,legacy,6,6,C:/Users/Simone/Desktop/SD-subject-1.csv,legacy,Melodramatic Milgram,4.0.5,0,h,NA,s,NA,NA,h,NA,672,NA,34597,NA,NA,672,NA,2,legacy,1024,2,48000,-16,experiment,SSHSS,1,odd,45666,35764,NA,NA,NA,1163,NA,NA,46693,1166,NA,NA,46795,47467,NA,46691,46795,Flanker Task,7,4722,7,1024
100,100,641,641,black,legacy,legacy,legacy,incongruent,1,undefined,1,h,7,0,0,0,7,0,7,0,7,0,0,0,7,7,NA,7,7,Fri Sep 15 10:55:48 2023,1500,The main experiment item,TRUE,FlankerTask.osexp,C:\Users\Simone\Desktop,FALSE,mono,FALSE,18,no,white,no,no,768,legacy,7,7,C:/Users/Simone/Desktop/SD-subject-1.csv,legacy,Melodramatic Milgram,4.0.5,0,h,NA,s,NA,NA,h,NA,407,NA,34597,NA,NA,407,NA,2,legacy,1024,2,48000,-16,experiment,SSHSS,1,odd,47472,35764,NA,NA,NA,1163,NA,NA,48500,1166,NA,NA,48601,49008,NA,48498,48601,Flanker Task,8,5129,8,1024
100,100,630,630,black,legacy,legacy,legacy,incongruent,1,undefined,1,s,8,0,0,0,8,0,8,0,8,0,0,0,8,8,NA,8,8,Fri Sep 15 10:55:48 2023,1500,The main experiment item,TRUE,FlankerTask.osexp,C:\Users\Simone\Desktop,FALSE,mono,FALSE,18,no,white,no,no,768,legacy,8,8,C:/Users/Simone/Desktop/SD-subject-1.csv,legacy,Melodramatic Milgram,4.0.5,0,s,NA,s,NA,NA,s,NA,547,NA,34597,NA,NA,547,NA,2,legacy,1024,2,48000,-16,experiment,HHSHH,1,odd,49012,35764,NA,NA,NA,1163,NA,NA,50044,1166,NA,NA,50145,50692,NA,50042,50145,Flanker Task,9,5676,9,1024
100,100,626,626,black,legacy,legacy,legacy,incongruent,1,undefined,1,s,9,0,0,0,9,0,9,0,9,0,0,0,9,9,NA,9,9,Fri Sep 15 10:55:48 2023,1500,The main experiment item,TRUE,FlankerTask.osexp,C:\Users\Simone\Desktop,FALSE,mono,FALSE,18,no,white,no,no,768,legacy,9,9,C:/Users/Simone/Desktop/SD-subject-1.csv,legacy,Melodramatic Milgram,4.0.5,0,s,NA,s,NA,NA,s,NA,584,NA,34597,NA,NA,584,NA,2,legacy,1024,2,48000,-16,experiment,HHSHH,1,odd,50696,35764,NA,NA,NA,1163,NA,NA,51726,1166,NA,NA,51827,52411,NA,51724,51827,Flanker Task,10,6260,10,1024
100,100,623,623,black,legacy,legacy,legacy,congruent ,1,undefined,1,s,10,0,0,0,10,0,10,0,10,0,0,0,10,10,NA,10,10,Fri Sep 15 10:55:48 2023,1500,The main experiment item,TRUE,FlankerTask.osexp,C:\Users\Simone\Desktop,FALSE,mono,FALSE,18,no,white,no,no,768,legacy,10,10,C:/Users/Simone/Desktop/SD-subject-1.csv,legacy,Melodramatic Milgram,4.0.5,0,s,NA,s,NA,NA,s,NA,594,NA,34597,NA,NA,594,NA,2,legacy,1024,2,48000,-16,experiment,SSSSS,1,odd,52415,35764,NA,NA,NA,1163,NA,NA,53458,1166,NA,NA,53559,54153,NA,53456,53559,Flanker Task,11,6854,11,1024
100,100,614,614,black,legacy,legacy,legacy,congruent ,1,undefined,1,h,11,0,0,0,11,0,11,0,11,0,0,0,11,11,NA,11,11,Fri Sep 15 10:55:48 2023,1500,The main experiment item,TRUE,FlankerTask.osexp,C:\Users\Simone\Desktop,FALSE,mono,FALSE,18,no,white,no,no,768,legacy,11,11,C:/Users/Simone/Desktop/SD-subject-1.csv,legacy,Melodramatic Milgram,4.0.5,0,h,NA,s,NA,NA,h,NA,518,NA,34597,NA,NA,518,NA,2,legacy,1024,2,48000,-16,experiment,HHHHH,1,odd,54158,35764,NA,NA,NA,1163,NA,NA,55187,1166,NA,NA,55288,55807,NA,55185,55288,Flanker Task,12,7372,12,1024
100,100,599,599,black,legacy,legacy,legacy,incongruent,1,undefined,1,h,12,0,0,0,12,0,12,0,12,0,0,0,12,12,NA,12,12,Fri Sep 15 10:55:48 2023,1500,The main experiment item,TRUE,FlankerTask.osexp,C:\Users\Simone\Desktop,FALSE,mono,FALSE,18,no,white,no,no,768,legacy,12,12,C:/Users/Simone/Desktop/SD-subject-1.csv,legacy,Melodramatic Milgram,4.0.5,0,h,NA,s,NA,NA,h,NA,425,NA,34597,NA,NA,425,NA,2,legacy,1024,2,48000,-16,experiment,SSHSS,1,odd,55811,35764,NA,NA,NA,1163,NA,NA,56843,1166,NA,NA,56944,57369,NA,56841,56944,Flanker Task,13,7797,13,1024
100,100,590,590,black,legacy,legacy,legacy,congruent ,1,undefined,1,s,13,0,0,0,13,0,13,0,13,0,0,0,13,13,NA,13,13,Fri Sep 15 10:55:48 2023,1500,The main experiment item,TRUE,FlankerTask.osexp,C:\Users\Simone\Desktop,FALSE,mono,FALSE,18,no,white,no,no,768,legacy,13,13,C:/Users/Simone/Desktop/SD-subject-1.csv,legacy,Melodramatic Milgram,4.0.5,0,s,NA,s,NA,NA,s,NA,467,NA,34597,NA,NA,467,NA,2,legacy,1024,2,48000,-16,experiment,SSSSS,1,odd,57371,35764,NA,NA,NA,1163,NA,NA,58401,1166,NA,NA,58502,58969,NA,58398,58502,Flanker Task,14,8264,14,1024
100,100,587,587,black,legacy,legacy,legacy,incongruent,1,undefined,1,h,14,0,0,0,14,0,14,0,14,0,0,0,14,14,NA,14,14,Fri Sep 15 10:55:48 2023,1500,The main experiment item,TRUE,FlankerTask.osexp,C:\Users\Simone\Desktop,FALSE,mono,FALSE,18,no,white,no,no,768,legacy,14,14,C:/Users/Simone/Desktop/SD-subject-1.csv,legacy,Melodramatic Milgram,4.0.5,0,h,NA,s,NA,NA,h,NA,555,NA,34597,NA,NA,555,NA,2,legacy,1024,2,48000,-16,experiment,SSHSS,1,odd,58973,35764,NA,NA,NA,1163,NA,NA,60007,1166,NA,NA,60108,60664,NA,60004,60108,Flanker Task,15,8819,15,1024
100,100,575,575,black,legacy,legacy,legacy,congruent ,1,undefined,1,s,15,0,0,0,15,0,15,0,15,0,0,0,15,15,NA,15,15,Fri Sep 15 10:55:48 2023,1500,The main experiment item,TRUE,FlankerTask.osexp,C:\Users\Simone\Desktop,FALSE,mono,FALSE,18,no,white,no,no,768,legacy,15,15,C:/Users/Simone/Desktop/SD-subject-1.csv,legacy,Melodramatic Milgram,4.0.5,0,s,NA,s,NA,NA,s,NA,384,NA,34597,NA,NA,384,NA,2,legacy,1024,2,48000,-16,experiment,SSSSS,1,odd,60668,35764,NA,NA,NA,1163,NA,NA,61697,1166,NA,NA,61798,62182,NA,61695,61798,Flanker Task,16,9203,16,1024
100,100,575,575,black,legacy,legacy,legacy,incongruent,1,undefined,1,s,16,0,0,0,16,0,16,0,16,0,0,0,16,16,NA,16,16,Fri Sep 15 10:55:48 2023,1500,The main experiment item,TRUE,FlankerTask.osexp,C:\Users\Simone\Desktop,FALSE,mono,FALSE,18,no,white,no,no,768,legacy,16,16,C:/Users/Simone/Desktop/SD-subject-1.csv,legacy,Melodramatic Milgram,4.0.5,0,s,NA,s,NA,NA,s,NA,581,NA,34597,NA,NA,581,NA,2,legacy,1024,2,48000,-16,experiment,HHSHH,1,odd,62186,35764,NA,NA,NA,1163,NA,NA,63215,1166,NA,NA,63316,63898,NA,63214,63316,Flanker Task,17,9784,17,1024
100,100,569,569,black,legacy,legacy,legacy,congruent ,1,undefined,1,s,17,0,0,0,17,0,17,0,17,0,0,0,17,17,NA,17,17,Fri Sep 15 10:55:48 2023,1500,The main experiment item,TRUE,FlankerTask.osexp,C:\Users\Simone\Desktop,FALSE,mono,FALSE,18,no,white,no,no,768,legacy,17,17,C:/Users/Simone/Desktop/SD-subject-1.csv,legacy,Melodramatic Milgram,4.0.5,0,s,NA,s,NA,NA,s,NA,472,NA,34597,NA,NA,472,NA,2,legacy,1024,2,48000,-16,experiment,SSSSS,1,odd,63902,35764,NA,NA,NA,1163,NA,NA,64930,1166,NA,NA,65031,65504,NA,64928,65031,Flanker Task,18,10256,18,1024
100,100,564,564,black,legacy,legacy,legacy,incongruent,1,undefined,1,s,18,0,0,0,18,0,18,0,18,0,0,0,18,18,NA,18,18,Fri Sep 15 10:55:48 2023,1500,The main experiment item,TRUE,FlankerTask.osexp,C:\Users\Simone\Desktop,FALSE,mono,FALSE,18,no,white,no,no,768,legacy,18,18,C:/Users/Simone/Desktop/SD-subject-1.csv,legacy,Melodramatic Milgram,4.0.5,0,s,NA,s,NA,NA,s,NA,461,NA,34597,NA,NA,461,NA,2,legacy,1024,2,48000,-16,experiment,HHSHH,1,odd,65507,35764,NA,NA,NA,1163,NA,NA,66536,1166,NA,NA,66637,67098,NA,66534,66637,Flanker Task,19,10717,19,1024
100,100,558,558,black,legacy,legacy,legacy,incongruent,1,undefined,1,s,19,0,0,0,19,0,19,0,19,0,0,0,19,19,NA,19,19,Fri Sep 15 10:55:48 2023,1500,The main experiment item,TRUE,FlankerTask.osexp,C:\Users\Simone\Desktop,FALSE,mono,FALSE,18,no,white,no,no,768,legacy,19,19,C:/Users/Simone/Desktop/SD-subject-1.csv,legacy,Melodramatic Milgram,4.0.5,0,s,NA,s,NA,NA,s,NA,443,NA,34597,NA,NA,443,NA,2,legacy,1024,2,48000,-16,experiment,HHSHH,1,odd,67103,35764,NA,NA,NA,1163,NA,NA,68131,1166,NA,NA,68232,68676,NA,68128,68232,Flanker Task,20,11160,20,1024
100,100,549,549,black,legacy,legacy,legacy,incongruent,1,undefined,1,s,20,0,0,0,20,0,20,0,20,0,0,0,20,20,NA,20,20,Fri Sep 15 10:55:48 2023,1500,The main experiment item,TRUE,FlankerTask.osexp,C:\Users\Simone\Desktop,FALSE,mono,FALSE,18,no,white,no,no,768,legacy,20,20,C:/Users/Simone/Desktop/SD-subject-1.csv,legacy,Melodramatic Milgram,4.0.5,0,s,NA,s,NA,NA,s,NA,385,NA,34597,NA,NA,385,NA,2,legacy,1024,2,48000,-16,experiment,HHSHH,1,odd,68680,35764,NA,NA,NA,1163,NA,NA,69713,1166,NA,NA,69814,70199,NA,69711,69814,Flanker Task,21,11545,21,1024
100,100,542,542,black,legacy,legacy,legacy,incongruent,1,undefined,1,s,21,0,0,0,21,0,21,0,21,0,0,0,21,21,NA,21,21,Fri Sep 15 10:55:48 2023,1500,The main experiment item,TRUE,FlankerTask.osexp,C:\Users\Simone\Desktop,FALSE,mono,FALSE,18,no,white,no,no,768,legacy,21,21,C:/Users/Simone/Desktop/SD-subject-1.csv,legacy,Melodramatic Milgram,4.0.5,0,s,NA,s,NA,NA,s,NA,382,NA,34597,NA,NA,382,NA,2,legacy,1024,2,48000,-16,experiment,HHSHH,1,odd,70203,35764,NA,NA,NA,1163,NA,NA,71232,1166,NA,NA,71333,71716,NA,71230,71333,Flanker Task,22,11927,22,1024
100,100,536,536,black,legacy,legacy,legacy,incongruent,1,undefined,1,h,22,0,0,0,22,0,22,0,22,0,0,0,22,22,NA,22,22,Fri Sep 15 10:55:48 2023,1500,The main experiment item,TRUE,FlankerTask.osexp,C:\Users\Simone\Desktop,FALSE,mono,FALSE,18,no,white,no,no,768,legacy,22,22,C:/Users/Simone/Desktop/SD-subject-1.csv,legacy,Melodramatic Milgram,4.0.5,0,h,NA,s,NA,NA,h,NA,422,NA,34597,NA,NA,422,NA,2,legacy,1024,2,48000,-16,experiment,SSHSS,1,odd,71720,35764,NA,NA,NA,1163,NA,NA,72746,1166,NA,NA,72847,73270,NA,72744,72847,Flanker Task,23,12349,23,1024
95,95,528,528,black,legacy,legacy,legacy,congruent ,0,undefined,0,s,23,0,0,0,23,0,23,0,23,0,0,0,23,23,NA,23,23,Fri Sep 15 10:55:48 2023,1500,The main experiment item,TRUE,FlankerTask.osexp,C:\Users\Simone\Desktop,FALSE,mono,FALSE,18,no,white,no,no,768,legacy,23,23,C:/Users/Simone/Desktop/SD-subject-1.csv,legacy,Melodramatic Milgram,4.0.5,0,h,NA,s,NA,NA,h,NA,329,NA,34597,NA,NA,329,NA,2,legacy,1024,2,48000,-16,experiment,SSSSS,1,odd,73272,35764,NA,NA,NA,1163,NA,NA,74300,1166,NA,NA,74401,74730,NA,74297,74401,Flanker Task,23,12678,24,1024
92,92,526,526,black,legacy,legacy,legacy,congruent ,0,undefined,0,h,24,0,0,0,24,0,24,0,24,0,0,0,24,24,NA,24,24,Fri Sep 15 10:55:48 2023,1500,The main experiment item,TRUE,FlankerTask.osexp,C:\Users\Simone\Desktop,FALSE,mono,FALSE,18,no,white,no,no,768,legacy,24,24,C:/Users/Simone/Desktop/SD-subject-1.csv,legacy,Melodramatic Milgram,4.0.5,0,s,NA,s,NA,NA,s,NA,494,NA,34597,NA,NA,494,NA,2,legacy,1024,2,48000,-16,experiment,HHHHH,1,odd,75238,35764,NA,NA,74735,1163,NA,NA,76264,1166,NA,NA,76365,76860,NA,76262,76365,Flanker Task,23,13172,25,1024
92,92,530,530,black,legacy,legacy,legacy,congruent ,1,undefined,1,h,25,0,0,0,25,0,25,0,25,0,0,0,25,25,NA,25,25,Fri Sep 15 10:55:48 2023,1500,The main experiment item,TRUE,FlankerTask.osexp,C:\Users\Simone\Desktop,FALSE,mono,FALSE,18,no,white,no,no,768,legacy,25,25,C:/Users/Simone/Desktop/SD-subject-1.csv,legacy,Melodramatic Milgram,4.0.5,0,h,NA,s,NA,NA,h,NA,631,NA,34597,NA,NA,631,NA,2,legacy,1024,2,48000,-16,experiment,HHHHH,1,odd,77364,35764,NA,NA,76863,1163,NA,NA,78394,1166,NA,NA,78495,79127,NA,78392,78495,Flanker Task,24,13803,26,1024
92,92,529,529,black,legacy,legacy,legacy,congruent ,1,undefined,1,h,26,0,0,0,26,0,26,0,26,0,0,0,26,26,NA,26,26,Fri Sep 15 10:55:48 2023,1500,The main experiment item,TRUE,FlankerTask.osexp,C:\Users\Simone\Desktop,FALSE,mono,FALSE,18,no,white,no,no,768,legacy,26,26,C:/Users/Simone/Desktop/SD-subject-1.csv,legacy,Melodramatic Milgram,4.0.5,0,h,NA,s,NA,NA,h,NA,494,NA,34597,NA,NA,494,NA,2,legacy,1024,2,48000,-16,experiment,HHHHH,1,odd,79131,35764,NA,NA,76863,1163,NA,NA,80159,1166,NA,NA,80260,80755,NA,80157,80260,Flanker Task,25,14297,27,1024
92,92,530,530,black,legacy,legacy,legacy,incongruent,1,undefined,1,h,27,0,0,0,27,0,27,0,27,0,0,0,27,27,NA,27,27,Fri Sep 15 10:55:48 2023,1500,The main experiment item,TRUE,FlankerTask.osexp,C:\Users\Simone\Desktop,FALSE,mono,FALSE,18,no,white,no,no,768,legacy,27,27,C:/Users/Simone/Desktop/SD-subject-1.csv,legacy,Melodramatic Milgram,4.0.5,0,h,NA,s,NA,NA,h,NA,553,NA,34597,NA,NA,553,NA,2,legacy,1024,2,48000,-16,experiment,SSHSS,1,odd,80759,35764,NA,NA,76863,1163,NA,NA,81796,1166,NA,NA,81897,82450,NA,81794,81897,Flanker Task,26,14850,28,1024
93,93,527,527,black,legacy,legacy,legacy,congruent ,1,undefined,1,s,28,0,0,0,28,0,28,0,28,0,0,0,28,28,NA,28,28,Fri Sep 15 10:55:48 2023,1500,The main experiment item,TRUE,FlankerTask.osexp,C:\Users\Simone\Desktop,FALSE,mono,FALSE,18,no,white,no,no,768,legacy,28,28,C:/Users/Simone/Desktop/SD-subject-1.csv,legacy,Melodramatic Milgram,4.0.5,0,s,NA,s,NA,NA,s,NA,436,NA,34597,NA,NA,436,NA,2,legacy,1024,2,48000,-16,experiment,SSSSS,1,odd,82454,35764,NA,NA,76863,1163,NA,NA,83484,1166,NA,NA,83585,84022,NA,83483,83585,Flanker Task,27,15286,29,1024
93,93,526,526,black,legacy,legacy,legacy,incongruent,1,undefined,1,s,29,0,0,0,29,0,29,0,29,0,0,0,29,29,NA,29,29,Fri Sep 15 10:55:48 2023,1500,The main experiment item,TRUE,FlankerTask.osexp,C:\Users\Simone\Desktop,FALSE,mono,FALSE,18,no,white,no,no,768,legacy,29,29,C:/Users/Simone/Desktop/SD-subject-1.csv,legacy,Melodramatic Milgram,4.0.5,0,s,NA,s,NA,NA,s,NA,496,NA,34597,NA,NA,496,NA,2,legacy,1024,2,48000,-16,experiment,HHSHH,1,odd,84026,35764,NA,NA,76863,1163,NA,NA,85059,1166,NA,NA,85160,85657,NA,85056,85160,Flanker Task,28,15782,30,1024
93,93,521,521,black,legacy,legacy,legacy,congruent ,1,undefined,1,s,30,0,0,0,30,0,30,0,30,0,0,0,30,30,NA,30,30,Fri Sep 15 10:55:48 2023,1500,The main experiment item,TRUE,FlankerTask.osexp,C:\Users\Simone\Desktop,FALSE,mono,FALSE,18,no,white,no,no,768,legacy,30,30,C:/Users/Simone/Desktop/SD-subject-1.csv,legacy,Melodramatic Milgram,4.0.5,0,s,NA,s,NA,NA,s,NA,393,NA,34597,NA,NA,393,NA,2,legacy,1024,2,48000,-16,experiment,SSSSS,1,odd,85661,35764,NA,NA,76863,1163,NA,NA,86688,1166,NA,NA,86796,87189,NA,86687,86795,Flanker Task,29,16175,31,1024
93,93,518,518,black,legacy,legacy,legacy,congruent ,1,undefined,1,s,31,0,0,0,31,0,31,0,31,0,0,0,31,31,NA,31,31,Fri Sep 15 10:55:48 2023,1500,The main experiment item,TRUE,FlankerTask.osexp,C:\Users\Simone\Desktop,FALSE,mono,FALSE,18,no,white,no,no,768,legacy,31,31,C:/Users/Simone/Desktop/SD-subject-1.csv,legacy,Melodramatic Milgram,4.0.5,0,s,NA,s,NA,NA,s,NA,410,NA,34597,NA,NA,410,NA,2,legacy,1024,2,48000,-16,experiment,SSSSS,1,odd,87194,35764,NA,NA,76863,1163,NA,NA,88222,1166,NA,NA,88323,88733,NA,88221,88323,Flanker Task,30,16585,32,1024
93,93,516,516,black,legacy,legacy,legacy,incongruent,1,undefined,1,s,32,0,0,0,32,0,32,0,32,0,0,0,32,32,NA,32,32,Fri Sep 15 10:55:48 2023,1500,The main experiment item,TRUE,FlankerTask.osexp,C:\Users\Simone\Desktop,FALSE,mono,FALSE,18,no,white,no,no,768,legacy,32,32,C:/Users/Simone/Desktop/SD-subject-1.csv,legacy,Melodramatic Milgram,4.0.5,0,s,NA,s,NA,NA,s,NA,470,NA,34597,NA,NA,470,NA,2,legacy,1024,2,48000,-16,experiment,HHSHH,1,odd,88735,35764,NA,NA,76863,1163,NA,NA,89765,1166,NA,NA,89866,90336,NA,89763,89866,Flanker Task,31,17055,33,1024
94,94,514,514,black,legacy,legacy,legacy,congruent ,1,undefined,1,s,33,0,0,0,33,0,33,0,33,0,0,0,33,33,NA,33,33,Fri Sep 15 10:55:48 2023,1500,The main experiment item,TRUE,FlankerTask.osexp,C:\Users\Simone\Desktop,FALSE,mono,FALSE,18,no,white,no,no,768,legacy,33,33,C:/Users/Simone/Desktop/SD-subject-1.csv,legacy,Melodramatic Milgram,4.0.5,0,s,NA,s,NA,NA,s,NA,444,NA,34597,NA,NA,444,NA,2,legacy,1024,2,48000,-16,experiment,SSSSS,1,odd,90344,35764,NA,NA,76863,1163,NA,NA,91376,1166,NA,NA,91477,91921,NA,91374,91477,Flanker Task,32,17499,34,1024
94,94,512,512,black,legacy,legacy,legacy,incongruent,1,undefined,1,s,34,0,0,0,34,0,34,0,34,0,0,0,34,34,NA,34,34,Fri Sep 15 10:55:48 2023,1500,The main experiment item,TRUE,FlankerTask.osexp,C:\Users\Simone\Desktop,FALSE,mono,FALSE,18,no,white,no,no,768,legacy,34,34,C:/Users/Simone/Desktop/SD-subject-1.csv,legacy,Melodramatic Milgram,4.0.5,0,s,NA,s,NA,NA,s,NA,435,NA,34597,NA,NA,435,NA,2,legacy,1024,2,48000,-16,experiment,HHSHH,1,odd,91935,35764,NA,NA,76863,1163,NA,NA,92964,1166,NA,NA,93065,93501,NA,92962,93065,Flanker Task,33,17934,35,1024
94,94,514,514,black,legacy,legacy,legacy,incongruent,1,undefined,1,h,35,0,0,0,35,0,35,0,35,0,0,0,35,35,NA,35,35,Fri Sep 15 10:55:48 2023,1500,The main experiment item,TRUE,FlankerTask.osexp,C:\Users\Simone\Desktop,FALSE,mono,FALSE,18,no,white,no,no,768,legacy,35,35,C:/Users/Simone/Desktop/SD-subject-1.csv,legacy,Melodramatic Milgram,4.0.5,0,h,NA,s,NA,NA,h,NA,570,NA,34597,NA,NA,570,NA,2,legacy,1024,2,48000,-16,experiment,SSHSS,1,odd,93520,35764,NA,NA,76863,1163,NA,NA,94553,1166,NA,NA,94654,95225,NA,94551,94654,Flanker Task,34,18504,36,1024
94,94,511,511,black,legacy,legacy,legacy,congruent ,1,undefined,1,h,36,0,0,0,36,0,36,0,36,0,0,0,36,36,NA,36,36,Fri Sep 15 10:55:48 2023,1500,The main experiment item,TRUE,FlankerTask.osexp,C:\Users\Simone\Desktop,FALSE,mono,FALSE,18,no,white,no,no,768,legacy,36,36,C:/Users/Simone/Desktop/SD-subject-1.csv,legacy,Melodramatic Milgram,4.0.5,0,h,NA,s,NA,NA,h,NA,425,NA,34597,NA,NA,425,NA,2,legacy,1024,2,48000,-16,experiment,HHHHH,1,odd,95228,35764,NA,NA,76863,1163,NA,NA,96255,1166,NA,NA,96357,96782,NA,96254,96357,Flanker Task,35,18929,37,1024
94,94,510,510,black,legacy,legacy,legacy,incongruent,1,undefined,1,h,37,0,0,0,37,0,37,0,37,0,0,0,37,37,NA,37,37,Fri Sep 15 10:55:48 2023,1500,The main experiment item,TRUE,FlankerTask.osexp,C:\Users\Simone\Desktop,FALSE,mono,FALSE,18,no,white,no,no,768,legacy,37,37,C:/Users/Simone/Desktop/SD-subject-1.csv,legacy,Melodramatic Milgram,4.0.5,0,h,NA,s,NA,NA,h,NA,479,NA,34597,NA,NA,479,NA,2,legacy,1024,2,48000,-16,experiment,SSHSS,1,odd,96786,35764,NA,NA,76863,1163,NA,NA,97817,1166,NA,NA,97920,98399,NA,97815,97920,Flanker Task,36,19408,38,1024
94,94,511,511,black,legacy,legacy,legacy,congruent ,1,undefined,1,s,38,0,0,0,38,0,38,0,38,0,0,0,38,38,NA,38,38,Fri Sep 15 10:55:48 2023,1500,The main experiment item,TRUE,FlankerTask.osexp,C:\Users\Simone\Desktop,FALSE,mono,FALSE,18,no,white,no,no,768,legacy,38,38,C:/Users/Simone/Desktop/SD-subject-1.csv,legacy,Melodramatic Milgram,4.0.5,0,s,NA,s,NA,NA,s,NA,545,NA,34597,NA,NA,545,NA,2,legacy,1024,2,48000,-16,experiment,SSSSS,1,odd,98404,35764,NA,NA,76863,1163,NA,NA,99435,1166,NA,NA,99536,100082,NA,99433,99536,Flanker Task,37,19953,39,1024
95,95,510,510,black,legacy,legacy,legacy,incongruent,1,undefined,1,h,39,0,0,0,39,0,39,0,39,0,0,0,39,39,NA,39,39,Fri Sep 15 10:55:48 2023,1500,The main experiment item,TRUE,FlankerTask.osexp,C:\Users\Simone\Desktop,FALSE,mono,FALSE,18,no,white,no,no,768,legacy,39,39,C:/Users/Simone/Desktop/SD-subject-1.csv,legacy,Melodramatic Milgram,4.0.5,0,h,NA,s,NA,NA,h,NA,470,NA,34597,NA,NA,470,NA,2,legacy,1024,2,48000,-16,experiment,SSHSS,1,odd,100086,35764,NA,NA,76863,1163,NA,NA,101117,1166,NA,NA,101218,101689,NA,101116,101218,Flanker Task,38,20423,40,1024
95,95,509,509,black,legacy,legacy,legacy,congruent ,1,undefined,1,h,40,0,0,0,40,0,40,0,40,0,0,0,40,40,NA,40,40,Fri Sep 15 10:55:48 2023,1500,The main experiment item,TRUE,FlankerTask.osexp,C:\Users\Simone\Desktop,FALSE,mono,FALSE,18,no,white,no,no,768,legacy,40,40,C:/Users/Simone/Desktop/SD-subject-1.csv,legacy,Melodramatic Milgram,4.0.5,0,h,NA,s,NA,NA,h,NA,464,NA,34597,NA,NA,464,NA,2,legacy,1024,2,48000,-16,experiment,HHHHH,1,odd,101693,35764,NA,NA,76863,1163,NA,NA,102722,1166,NA,NA,102823,103287,NA,102720,102823,Flanker Task,39,20887,41,1024
95,95,507,507,black,legacy,legacy,legacy,congruent ,1,undefined,1,h,41,0,0,0,41,0,41,0,41,0,0,0,41,41,NA,41,41,Fri Sep 15 10:55:48 2023,1500,The main experiment item,TRUE,FlankerTask.osexp,C:\Users\Simone\Desktop,FALSE,mono,FALSE,18,no,white,no,no,768,legacy,41,41,C:/Users/Simone/Desktop/SD-subject-1.csv,legacy,Melodramatic Milgram,4.0.5,0,h,NA,s,NA,NA,h,NA,427,NA,34597,NA,NA,427,NA,2,legacy,1024,2,48000,-16,experiment,HHHHH,1,odd,103291,35764,NA,NA,76863,1163,NA,NA,104321,1166,NA,NA,104423,104850,NA,104320,104423,Flanker Task,40,21314,42,1024
95,95,506,506,black,legacy,legacy,legacy,incongruent,1,undefined,1,s,42,0,0,0,42,0,42,0,42,0,0,0,42,42,NA,42,42,Fri Sep 15 10:55:48 2023,1500,The main experiment item,TRUE,FlankerTask.osexp,C:\Users\Simone\Desktop,FALSE,mono,FALSE,18,no,white,no,no,768,legacy,42,42,C:/Users/Simone/Desktop/SD-subject-1.csv,legacy,Melodramatic Milgram,4.0.5,0,s,NA,s,NA,NA,s,NA,452,NA,34597,NA,NA,452,NA,2,legacy,1024,2,48000,-16,experiment,HHSHH,1,odd,104854,35764,NA,NA,76863,1163,NA,NA,105885,1166,NA,NA,105986,106439,NA,105883,105986,Flanker Task,41,21766,43,1024
95,95,506,506,black,legacy,legacy,legacy,congruent ,1,undefined,1,h,43,0,0,0,43,0,43,0,43,0,0,0,43,43,NA,43,43,Fri Sep 15 10:55:48 2023,1500,The main experiment item,TRUE,FlankerTask.osexp,C:\Users\Simone\Desktop,FALSE,mono,FALSE,18,no,white,no,no,768,legacy,43,43,C:/Users/Simone/Desktop/SD-subject-1.csv,legacy,Melodramatic Milgram,4.0.5,0,h,NA,s,NA,NA,h,NA,530,NA,34597,NA,NA,530,NA,2,legacy,1024,2,48000,-16,experiment,HHHHH,1,odd,106443,35764,NA,NA,76863,1163,NA,NA,107470,1166,NA,NA,107571,108101,NA,107468,107571,Flanker Task,42,22296,44,1024
95,95,506,506,black,legacy,legacy,legacy,congruent ,1,undefined,1,h,44,0,0,0,44,0,44,0,44,0,0,0,44,44,NA,44,44,Fri Sep 15 10:55:48 2023,1500,The main experiment item,TRUE,FlankerTask.osexp,C:\Users\Simone\Desktop,FALSE,mono,FALSE,18,no,white,no,no,768,legacy,44,44,C:/Users/Simone/Desktop/SD-subject-1.csv,legacy,Melodramatic Milgram,4.0.5,0,h,NA,s,NA,NA,h,NA,496,NA,34597,NA,NA,496,NA,2,legacy,1024,2,48000,-16,experiment,HHHHH,1,odd,108105,35764,NA,NA,76863,1163,NA,NA,109133,1166,NA,NA,109234,109731,NA,109132,109234,Flanker Task,43,22792,45,1024
95,95,508,508,black,legacy,legacy,legacy,incongruent,1,undefined,1,s,45,0,0,0,45,0,45,0,45,0,0,0,45,45,NA,45,45,Fri Sep 15 10:55:48 2023,1500,The main experiment item,TRUE,FlankerTask.osexp,C:\Users\Simone\Desktop,FALSE,mono,FALSE,18,no,white,no,no,768,legacy,45,45,C:/Users/Simone/Desktop/SD-subject-1.csv,legacy,Melodramatic Milgram,4.0.5,0,s,NA,s,NA,NA,s,NA,585,NA,34597,NA,NA,585,NA,2,legacy,1024,2,48000,-16,experiment,HHSHH,1,odd,109734,35764,NA,NA,76863,1163,NA,NA,110761,1166,NA,NA,110862,111448,NA,110759,110862,Flanker Task,44,23377,46,1024
95,95,507,507,black,legacy,legacy,legacy,incongruent,1,undefined,1,s,46,0,0,0,46,0,46,0,46,0,0,0,46,46,NA,46,46,Fri Sep 15 10:55:48 2023,1500,The main experiment item,TRUE,FlankerTask.osexp,C:\Users\Simone\Desktop,FALSE,mono,FALSE,18,no,white,no,no,768,legacy,46,46,C:/Users/Simone/Desktop/SD-subject-1.csv,legacy,Melodramatic Milgram,4.0.5,0,s,NA,s,NA,NA,s,NA,468,NA,34597,NA,NA,468,NA,2,legacy,1024,2,48000,-16,experiment,HHSHH,1,odd,111452,35764,NA,NA,76863,1163,NA,NA,112481,1166,NA,NA,112582,113050,NA,112479,112582,Flanker Task,45,23845,47,1024
95,95,508,508,black,legacy,legacy,legacy,incongruent,1,undefined,1,h,47,0,0,0,47,0,47,0,47,0,0,0,47,47,NA,47,47,Fri Sep 15 10:55:48 2023,1500,The main experiment item,TRUE,FlankerTask.osexp,C:\Users\Simone\Desktop,FALSE,mono,FALSE,18,no,white,no,no,768,legacy,47,47,C:/Users/Simone/Desktop/SD-subject-1.csv,legacy,Melodramatic Milgram,4.0.5,0,h,NA,s,NA,NA,h,NA,574,NA,34597,NA,NA,574,NA,2,legacy,1024,2,48000,-16,experiment,SSHSS,1,odd,113056,35764,NA,NA,76863,1163,NA,NA,114089,1166,NA,NA,114190,114765,NA,114087,114190,Flanker Task,46,24419,48,1024
95,95,508,508,black,legacy,legacy,legacy,congruent ,1,undefined,1,s,48,0,0,0,48,0,48,0,48,0,0,0,48,48,NA,48,48,Fri Sep 15 10:55:48 2023,1500,The main experiment item,TRUE,FlankerTask.osexp,C:\Users\Simone\Desktop,FALSE,mono,FALSE,18,no,white,no,no,768,legacy,48,48,C:/Users/Simone/Desktop/SD-subject-1.csv,legacy,Melodramatic Milgram,4.0.5,0,s,NA,s,NA,NA,s,NA,495,NA,34597,NA,NA,495,NA,2,legacy,1024,2,48000,-16,experiment,SSSSS,1,odd,114769,35764,NA,NA,76863,1163,NA,NA,115800,1166,NA,NA,115901,116397,NA,115798,115901,Flanker Task,47,24914,49,1024
96,96,507,507,black,legacy,legacy,legacy,congruent ,1,undefined,1,h,49,0,0,0,49,0,49,0,49,0,0,0,49,49,NA,49,49,Fri Sep 15 10:55:48 2023,1500,The main experiment item,TRUE,FlankerTask.osexp,C:\Users\Simone\Desktop,FALSE,mono,FALSE,18,no,white,no,no,768,legacy,49,49,C:/Users/Simone/Desktop/SD-subject-1.csv,legacy,Melodramatic Milgram,4.0.5,0,h,NA,s,NA,NA,h,NA,460,NA,34597,NA,NA,460,NA,2,legacy,1024,2,48000,-16,experiment,HHHHH,1,odd,116401,35764,NA,NA,76863,1163,NA,NA,117433,1166,NA,NA,117534,117994,NA,117431,117534,Flanker Task,48,25374,50,1024
96,96,507,507,black,legacy,legacy,legacy,congruent ,1,undefined,1,h,50,0,0,0,50,0,50,0,50,0,0,0,50,50,NA,50,50,Fri Sep 15 10:55:48 2023,1500,The main experiment item,TRUE,FlankerTask.osexp,C:\Users\Simone\Desktop,FALSE,mono,FALSE,18,no,white,no,no,768,legacy,50,50,C:/Users/Simone/Desktop/SD-subject-1.csv,legacy,Melodramatic Milgram,4.0.5,0,h,NA,s,NA,NA,h,NA,503,NA,34597,NA,NA,503,NA,2,legacy,1024,2,48000,-16,experiment,HHHHH,1,odd,117998,35764,NA,NA,76863,1163,NA,NA,119029,1166,NA,NA,119130,119634,NA,119027,119130,Flanker Task,49,25877,51,1024
96,96,511,511,black,legacy,legacy,legacy,incongruent,1,undefined,1,h,51,0,0,0,51,0,51,0,51,0,0,0,51,51,NA,51,51,Fri Sep 15 10:55:48 2023,1500,The main experiment item,TRUE,FlankerTask.osexp,C:\Users\Simone\Desktop,FALSE,mono,FALSE,18,no,white,no,no,768,legacy,51,51,C:/Users/Simone/Desktop/SD-subject-1.csv,legacy,Melodramatic Milgram,4.0.5,0,h,NA,s,NA,NA,h,NA,736,NA,34597,NA,NA,736,NA,2,legacy,1024,2,48000,-16,experiment,SSHSS,1,odd,119638,35764,NA,NA,76863,1163,NA,NA,120667,1166,NA,NA,120768,121505,NA,120665,120768,Flanker Task,50,26613,52,1024
96,96,512,512,black,legacy,legacy,legacy,incongruent,1,undefined,1,h,52,0,0,0,52,0,52,0,52,0,0,0,52,52,NA,52,52,Fri Sep 15 10:55:48 2023,1500,The main experiment item,TRUE,FlankerTask.osexp,C:\Users\Simone\Desktop,FALSE,mono,FALSE,18,no,white,no,no,768,legacy,52,52,C:/Users/Simone/Desktop/SD-subject-1.csv,legacy,Melodramatic Milgram,4.0.5,0,h,NA,s,NA,NA,h,NA,551,NA,34597,NA,NA,551,NA,2,legacy,1024,2,48000,-16,experiment,SSHSS,1,odd,121509,35764,NA,NA,76863,1163,NA,NA,122537,1166,NA,NA,122638,123189,NA,122536,122638,Flanker Task,51,27164,53,1024
96,96,512,512,black,legacy,legacy,legacy,congruent ,1,undefined,1,s,53,0,0,0,53,0,53,0,53,0,0,0,53,53,NA,53,53,Fri Sep 15 10:55:48 2023,1500,The main experiment item,TRUE,FlankerTask.osexp,C:\Users\Simone\Desktop,FALSE,mono,FALSE,18,no,white,no,no,768,legacy,53,53,C:/Users/Simone/Desktop/SD-subject-1.csv,legacy,Melodramatic Milgram,4.0.5,0,s,NA,s,NA,NA,s,NA,496,NA,34597,NA,NA,496,NA,2,legacy,1024,2,48000,-16,experiment,SSSSS,1,odd,123193,35764,NA,NA,76863,1163,NA,NA,124238,1166,NA,NA,124339,124836,NA,124236,124339,Flanker Task,52,27660,54,1024
96,96,512,512,black,legacy,legacy,legacy,incongruent,1,undefined,1,h,54,0,0,0,54,0,54,0,54,0,0,0,54,54,NA,54,54,Fri Sep 15 10:55:48 2023,1500,The main experiment item,TRUE,FlankerTask.osexp,C:\Users\Simone\Desktop,FALSE,mono,FALSE,18,no,white,no,no,768,legacy,54,54,C:/Users/Simone/Desktop/SD-subject-1.csv,legacy,Melodramatic Milgram,4.0.5,0,h,NA,s,NA,NA,h,NA,543,NA,34597,NA,NA,543,NA,2,legacy,1024,2,48000,-16,experiment,SSHSS,1,odd,124840,35764,NA,NA,76863,1163,NA,NA,125870,1166,NA,NA,125971,126514,NA,125867,125971,Flanker Task,53,28203,55,1024
96,96,512,512,black,legacy,legacy,legacy,congruent ,1,undefined,1,s,55,0,0,0,55,0,55,0,55,0,0,0,55,55,NA,55,55,Fri Sep 15 10:55:48 2023,1500,The main experiment item,TRUE,FlankerTask.osexp,C:\Users\Simone\Desktop,FALSE,mono,FALSE,18,no,white,no,no,768,legacy,55,55,C:/Users/Simone/Desktop/SD-subject-1.csv,legacy,Melodramatic Milgram,4.0.5,0,s,NA,s,NA,NA,s,NA,482,NA,34597,NA,NA,482,NA,2,legacy,1024,2,48000,-16,experiment,SSSSS,1,odd,126518,35764,NA,NA,76863,1163,NA,NA,127548,1166,NA,NA,127649,128132,NA,127546,127649,Flanker Task,54,28685,56,1024
96,96,512,512,black,legacy,legacy,legacy,congruent ,1,undefined,1,s,56,0,0,0,56,0,56,0,56,0,0,0,56,56,NA,56,56,Fri Sep 15 10:55:48 2023,1500,The main experiment item,TRUE,FlankerTask.osexp,C:\Users\Simone\Desktop,FALSE,mono,FALSE,18,no,white,no,no,768,legacy,56,56,C:/Users/Simone/Desktop/SD-subject-1.csv,legacy,Melodramatic Milgram,4.0.5,0,s,NA,s,NA,NA,s,NA,552,NA,34597,NA,NA,552,NA,2,legacy,1024,2,48000,-16,experiment,SSSSS,1,odd,128136,35764,NA,NA,76863,1163,NA,NA,129167,1166,NA,NA,129270,129822,NA,129165,129269,Flanker Task,55,29237,57,1024
96,96,512,512,black,legacy,legacy,legacy,congruent ,1,undefined,1,h,57,0,0,0,57,0,57,0,57,0,0,0,57,57,NA,57,57,Fri Sep 15 10:55:48 2023,1500,The main experiment item,TRUE,FlankerTask.osexp,C:\Users\Simone\Desktop,FALSE,mono,FALSE,18,no,white,no,no,768,legacy,57,57,C:/Users/Simone/Desktop/SD-subject-1.csv,legacy,Melodramatic Milgram,4.0.5,0,h,NA,s,NA,NA,h,NA,469,NA,34597,NA,NA,469,NA,2,legacy,1024,2,48000,-16,experiment,HHHHH,1,odd,129826,35764,NA,NA,76863,1163,NA,NA,130856,1166,NA,NA,130957,131427,NA,130854,130957,Flanker Task,56,29706,58,1024
96,96,511,511,black,legacy,legacy,legacy,congruent ,1,undefined,1,h,58,0,0,0,58,0,58,0,58,0,0,0,58,58,NA,58,58,Fri Sep 15 10:55:48 2023,1500,The main experiment item,TRUE,FlankerTask.osexp,C:\Users\Simone\Desktop,FALSE,mono,FALSE,18,no,white,no,no,768,legacy,58,58,C:/Users/Simone/Desktop/SD-subject-1.csv,legacy,Melodramatic Milgram,4.0.5,0,h,NA,s,NA,NA,h,NA,497,NA,34597,NA,NA,497,NA,2,legacy,1024,2,48000,-16,experiment,HHHHH,1,odd,131431,35764,NA,NA,76863,1163,NA,NA,132461,1166,NA,NA,132563,133060,NA,132459,132563,Flanker Task,57,30203,59,1024
96,96,511,511,black,legacy,legacy,legacy,congruent ,1,undefined,1,h,59,0,0,0,59,0,59,0,59,0,0,0,59,59,NA,59,59,Fri Sep 15 10:55:48 2023,1500,The main experiment item,TRUE,FlankerTask.osexp,C:\Users\Simone\Desktop,FALSE,mono,FALSE,18,no,white,no,no,768,legacy,59,59,C:/Users/Simone/Desktop/SD-subject-1.csv,legacy,Melodramatic Milgram,4.0.5,0,h,NA,s,NA,NA,h,NA,459,NA,34597,NA,NA,459,NA,2,legacy,1024,2,48000,-16,experiment,HHHHH,1,odd,133065,35764,NA,NA,76863,1163,NA,NA,134091,1166,NA,NA,134192,134651,NA,134090,134192,Flanker Task,58,30662,60,1024
96,96,510,510,black,legacy,legacy,legacy,congruent ,1,undefined,1,h,60,0,0,0,60,0,60,0,60,0,0,0,60,60,NA,60,60,Fri Sep 15 10:55:48 2023,1500,The main experiment item,TRUE,FlankerTask.osexp,C:\Users\Simone\Desktop,FALSE,mono,FALSE,18,no,white,no,no,768,legacy,60,60,C:/Users/Simone/Desktop/SD-subject-1.csv,legacy,Melodramatic Milgram,4.0.5,0,h,NA,s,NA,NA,h,NA,450,NA,34597,NA,NA,450,NA,2,legacy,1024,2,48000,-16,experiment,HHHHH,1,odd,134655,35764,NA,NA,76863,1163,NA,NA,135691,1166,NA,NA,135792,136243,NA,135689,135792,Flanker Task,59,31112,61,1024
96,96,510,510,black,legacy,legacy,legacy,congruent ,1,undefined,1,s,61,0,0,0,61,0,61,0,61,0,0,0,61,61,NA,61,61,Fri Sep 15 10:55:48 2023,1500,The main experiment item,TRUE,FlankerTask.osexp,C:\Users\Simone\Desktop,FALSE,mono,FALSE,18,no,white,no,no,768,legacy,61,61,C:/Users/Simone/Desktop/SD-subject-1.csv,legacy,Melodramatic Milgram,4.0.5,0,s,NA,s,NA,NA,s,NA,509,NA,34597,NA,NA,509,NA,2,legacy,1024,2,48000,-16,experiment,SSSSS,1,odd,136247,35764,NA,NA,76863,1163,NA,NA,137280,1166,NA,NA,137381,137890,NA,137278,137381,Flanker Task,60,31621,62,1024
96,96,509,509,black,legacy,legacy,legacy,incongruent,1,undefined,1,h,62,0,0,0,62,0,62,0,62,0,0,0,62,62,NA,62,62,Fri Sep 15 10:55:48 2023,1500,The main experiment item,TRUE,FlankerTask.osexp,C:\Users\Simone\Desktop,FALSE,mono,FALSE,18,no,white,no,no,768,legacy,62,62,C:/Users/Simone/Desktop/SD-subject-1.csv,legacy,Melodramatic Milgram,4.0.5,0,h,NA,s,NA,NA,h,NA,490,NA,34597,NA,NA,490,NA,2,legacy,1024,2,48000,-16,experiment,SSHSS,1,odd,137894,35764,NA,NA,76863,1163,NA,NA,138924,1166,NA,NA,139025,139515,NA,138922,139025,Flanker Task,61,32111,63,1024
96,96,510,510,black,legacy,legacy,legacy,incongruent,1,undefined,1,h,63,0,0,0,63,0,63,0,63,0,0,0,63,63,NA,63,63,Fri Sep 15 10:55:48 2023,1500,The main experiment item,TRUE,FlankerTask.osexp,C:\Users\Simone\Desktop,FALSE,mono,FALSE,18,no,white,no,no,768,legacy,63,63,C:/Users/Simone/Desktop/SD-subject-1.csv,legacy,Melodramatic Milgram,4.0.5,0,h,NA,s,NA,NA,h,NA,591,NA,34597,NA,NA,591,NA,2,legacy,1024,2,48000,-16,experiment,SSHSS,1,odd,139520,35764,NA,NA,76863,1163,NA,NA,140549,1166,NA,NA,140650,141242,NA,140548,140650,Flanker Task,62,32702,64,1024
96,96,512,512,black,legacy,legacy,legacy,incongruent,1,undefined,1,s,64,0,0,0,64,0,64,0,64,0,0,0,64,64,NA,64,64,Fri Sep 15 10:55:48 2023,1500,The main experiment item,TRUE,FlankerTask.osexp,C:\Users\Simone\Desktop,FALSE,mono,FALSE,18,no,white,no,no,768,legacy,64,64,C:/Users/Simone/Desktop/SD-subject-1.csv,legacy,Melodramatic Milgram,4.0.5,0,s,NA,s,NA,NA,s,NA,580,NA,34597,NA,NA,580,NA,2,legacy,1024,2,48000,-16,experiment,HHSHH,1,odd,141246,35764,NA,NA,76863,1163,NA,NA,142279,1166,NA,NA,142380,142961,NA,142277,142380,Flanker Task,63,33282,65,1024
96,96,512,512,black,legacy,legacy,legacy,incongruent,1,undefined,1,h,65,0,0,0,65,0,65,0,65,0,0,0,65,65,NA,65,65,Fri Sep 15 10:55:48 2023,1500,The main experiment item,TRUE,FlankerTask.osexp,C:\Users\Simone\Desktop,FALSE,mono,FALSE,18,no,white,no,no,768,legacy,65,65,C:/Users/Simone/Desktop/SD-subject-1.csv,legacy,Melodramatic Milgram,4.0.5,0,h,NA,s,NA,NA,h,NA,543,NA,34597,NA,NA,543,NA,2,legacy,1024,2,48000,-16,experiment,SSHSS,1,odd,142965,35764,NA,NA,76863,1163,NA,NA,143992,1166,NA,NA,144093,144637,NA,143990,144093,Flanker Task,64,33825,66,1024
97,97,513,513,black,legacy,legacy,legacy,congruent ,1,undefined,1,s,66,0,0,0,66,0,66,0,66,0,0,0,66,66,NA,66,66,Fri Sep 15 10:55:48 2023,1500,The main experiment item,TRUE,FlankerTask.osexp,C:\Users\Simone\Desktop,FALSE,mono,FALSE,18,no,white,no,no,768,legacy,66,66,C:/Users/Simone/Desktop/SD-subject-1.csv,legacy,Melodramatic Milgram,4.0.5,0,s,NA,s,NA,NA,s,NA,554,NA,34597,NA,NA,554,NA,2,legacy,1024,2,48000,-16,experiment,SSSSS,1,odd,144639,35764,NA,NA,76863,1163,NA,NA,145670,1166,NA,NA,145771,146326,NA,145668,145771,Flanker Task,65,34379,67,1024
97,97,515,515,black,legacy,legacy,legacy,congruent ,1,undefined,1,h,67,0,0,0,67,0,67,0,67,0,0,0,67,67,NA,67,67,Fri Sep 15 10:55:48 2023,1500,The main experiment item,TRUE,FlankerTask.osexp,C:\Users\Simone\Desktop,FALSE,mono,FALSE,18,no,white,no,no,768,legacy,67,67,C:/Users/Simone/Desktop/SD-subject-1.csv,legacy,Melodramatic Milgram,4.0.5,0,h,NA,s,NA,NA,h,NA,701,NA,34597,NA,NA,701,NA,2,legacy,1024,2,48000,-16,experiment,HHHHH,1,odd,146330,35764,NA,NA,76863,1163,NA,NA,147363,1166,NA,NA,147464,148166,NA,147361,147464,Flanker Task,66,35080,68,1024
97,97,518,518,black,legacy,legacy,legacy,incongruent,1,undefined,1,s,68,0,0,0,68,0,68,0,68,0,0,0,68,68,NA,68,68,Fri Sep 15 10:55:48 2023,1500,The main experiment item,TRUE,FlankerTask.osexp,C:\Users\Simone\Desktop,FALSE,mono,FALSE,18,no,white,no,no,768,legacy,68,68,C:/Users/Simone/Desktop/SD-subject-1.csv,legacy,Melodramatic Milgram,4.0.5,0,s,NA,s,NA,NA,s,NA,695,NA,34597,NA,NA,695,NA,2,legacy,1024,2,48000,-16,experiment,HHSHH,1,odd,148170,35764,NA,NA,76863,1163,NA,NA,149201,1166,NA,NA,149302,149998,NA,149199,149302,Flanker Task,67,35775,69,1024
97,97,519,519,black,legacy,legacy,legacy,incongruent,1,undefined,1,s,69,0,0,0,69,0,69,0,69,0,0,0,69,69,NA,69,69,Fri Sep 15 10:55:48 2023,1500,The main experiment item,TRUE,FlankerTask.osexp,C:\Users\Simone\Desktop,FALSE,mono,FALSE,18,no,white,no,no,768,legacy,69,69,C:/Users/Simone/Desktop/SD-subject-1.csv,legacy,Melodramatic Milgram,4.0.5,0,s,NA,s,NA,NA,s,NA,566,NA,34597,NA,NA,566,NA,2,legacy,1024,2,48000,-16,experiment,HHSHH,1,odd,150002,35764,NA,NA,76863,1163,NA,NA,151031,1166,NA,NA,151132,151699,NA,151029,151132,Flanker Task,68,36341,70,1024
97,97,518,518,black,legacy,legacy,legacy,congruent ,1,undefined,1,h,70,0,0,0,70,0,70,0,70,0,0,0,70,70,NA,70,70,Fri Sep 15 10:55:48 2023,1500,The main experiment item,TRUE,FlankerTask.osexp,C:\Users\Simone\Desktop,FALSE,mono,FALSE,18,no,white,no,no,768,legacy,70,70,C:/Users/Simone/Desktop/SD-subject-1.csv,legacy,Melodramatic Milgram,4.0.5,0,h,NA,s,NA,NA,h,NA,445,NA,34597,NA,NA,445,NA,2,legacy,1024,2,48000,-16,experiment,HHHHH,1,odd,151703,35764,NA,NA,76863,1163,NA,NA,152731,1166,NA,NA,152832,153277,NA,152729,152832,Flanker Task,69,36786,71,1024
97,97,517,517,black,legacy,legacy,legacy,incongruent,1,undefined,1,h,71,0,0,0,71,0,71,0,71,0,0,0,71,71,NA,71,71,Fri Sep 15 10:55:48 2023,1500,The main experiment item,TRUE,FlankerTask.osexp,C:\Users\Simone\Desktop,FALSE,mono,FALSE,18,no,white,no,no,768,legacy,71,71,C:/Users/Simone/Desktop/SD-subject-1.csv,legacy,Melodramatic Milgram,4.0.5,0,h,NA,s,NA,NA,h,NA,455,NA,34597,NA,NA,455,NA,2,legacy,1024,2,48000,-16,experiment,SSHSS,1,odd,153281,35764,NA,NA,76863,1163,NA,NA,154310,1166,NA,NA,154411,154867,NA,154309,154411,Flanker Task,70,37241,72,1024
97,97,517,517,black,legacy,legacy,legacy,incongruent,1,undefined,1,s,72,0,0,0,72,0,72,0,72,0,0,0,72,72,NA,72,72,Fri Sep 15 10:55:48 2023,1500,The main experiment item,TRUE,FlankerTask.osexp,C:\Users\Simone\Desktop,FALSE,mono,FALSE,18,no,white,no,no,768,legacy,72,72,C:/Users/Simone/Desktop/SD-subject-1.csv,legacy,Melodramatic Milgram,4.0.5,0,s,NA,s,NA,NA,s,NA,532,NA,34597,NA,NA,532,NA,2,legacy,1024,2,48000,-16,experiment,HHSHH,1,odd,154871,35764,NA,NA,76863,1163,NA,NA,155898,1166,NA,NA,155999,156532,NA,155895,155999,Flanker Task,71,37773,73,1024
97,97,515,515,black,legacy,legacy,legacy,congruent ,1,undefined,1,h,73,0,0,0,73,0,73,0,73,0,0,0,73,73,NA,73,73,Fri Sep 15 10:55:48 2023,1500,The main experiment item,TRUE,FlankerTask.osexp,C:\Users\Simone\Desktop,FALSE,mono,FALSE,18,no,white,no,no,768,legacy,73,73,C:/Users/Simone/Desktop/SD-subject-1.csv,legacy,Melodramatic Milgram,4.0.5,0,h,NA,s,NA,NA,h,NA,372,NA,34597,NA,NA,372,NA,2,legacy,1024,2,48000,-16,experiment,HHHHH,1,odd,156536,35764,NA,NA,76863,1163,NA,NA,157567,1166,NA,NA,157668,158041,NA,157565,157668,Flanker Task,72,38145,74,1024
97,97,515,515,black,legacy,legacy,legacy,congruent ,1,undefined,1,h,74,0,0,0,74,0,74,0,74,0,0,0,74,74,NA,74,74,Fri Sep 15 10:55:48 2023,1500,The main experiment item,TRUE,FlankerTask.osexp,C:\Users\Simone\Desktop,FALSE,mono,FALSE,18,no,white,no,no,768,legacy,74,74,C:/Users/Simone/Desktop/SD-subject-1.csv,legacy,Melodramatic Milgram,4.0.5,0,h,NA,s,NA,NA,h,NA,489,NA,34597,NA,NA,489,NA,2,legacy,1024,2,48000,-16,experiment,HHHHH,1,odd,158045,35764,NA,NA,76863,1163,NA,NA,159072,1166,NA,NA,159173,159663,NA,159070,159173,Flanker Task,73,38634,75,1024
97,97,513,513,black,legacy,legacy,legacy,congruent ,1,undefined,1,s,75,0,0,0,75,0,75,0,75,0,0,0,75,75,NA,75,75,Fri Sep 15 10:55:48 2023,1500,The main experiment item,TRUE,FlankerTask.osexp,C:\Users\Simone\Desktop,FALSE,mono,FALSE,18,no,white,no,no,768,legacy,75,75,C:/Users/Simone/Desktop/SD-subject-1.csv,legacy,Melodramatic Milgram,4.0.5,0,s,NA,s,NA,NA,s,NA,388,NA,34597,NA,NA,388,NA,2,legacy,1024,2,48000,-16,experiment,SSSSS,1,odd,159667,35764,NA,NA,76863,1163,NA,NA,160694,1166,NA,NA,160795,161184,NA,160692,160795,Flanker Task,74,39022,76,1024
97,97,513,513,black,legacy,legacy,legacy,incongruent,1,undefined,1,h,76,0,0,0,76,0,76,0,76,0,0,0,76,76,NA,76,76,Fri Sep 15 10:55:48 2023,1500,The main experiment item,TRUE,FlankerTask.osexp,C:\Users\Simone\Desktop,FALSE,mono,FALSE,18,no,white,no,no,768,legacy,76,76,C:/Users/Simone/Desktop/SD-subject-1.csv,legacy,Melodramatic Milgram,4.0.5,0,h,NA,s,NA,NA,h,NA,498,NA,34597,NA,NA,498,NA,2,legacy,1024,2,48000,-16,experiment,SSHSS,1,odd,161188,35764,NA,NA,76863,1163,NA,NA,162221,1166,NA,NA,162322,162821,NA,162219,162322,Flanker Task,75,39520,77,1024
97,97,513,513,black,legacy,legacy,legacy,incongruent,1,undefined,1,h,77,0,0,0,77,0,77,0,77,0,0,0,77,77,NA,77,77,Fri Sep 15 10:55:48 2023,1500,The main experiment item,TRUE,FlankerTask.osexp,C:\Users\Simone\Desktop,FALSE,mono,FALSE,18,no,white,no,no,768,legacy,77,77,C:/Users/Simone/Desktop/SD-subject-1.csv,legacy,Melodramatic Milgram,4.0.5,0,h,NA,s,NA,NA,h,NA,534,NA,34597,NA,NA,534,NA,2,legacy,1024,2,48000,-16,experiment,SSHSS,1,odd,162824,35764,NA,NA,76863,1163,NA,NA,163853,1166,NA,NA,163954,164488,NA,163851,163954,Flanker Task,76,40054,78,1024
97,97,512,512,black,legacy,legacy,legacy,congruent ,1,undefined,1,s,78,0,0,0,78,0,78,0,78,0,0,0,78,78,NA,78,78,Fri Sep 15 10:55:48 2023,1500,The main experiment item,TRUE,FlankerTask.osexp,C:\Users\Simone\Desktop,FALSE,mono,FALSE,18,no,white,no,no,768,legacy,78,78,C:/Users/Simone/Desktop/SD-subject-1.csv,legacy,Melodramatic Milgram,4.0.5,0,s,NA,s,NA,NA,s,NA,445,NA,34597,NA,NA,445,NA,2,legacy,1024,2,48000,-16,experiment,SSSSS,1,odd,164493,35764,NA,NA,76863,1163,NA,NA,165523,1166,NA,NA,165624,166070,NA,165521,165624,Flanker Task,77,40499,79,1024
97,97,512,512,black,legacy,legacy,legacy,incongruent,1,undefined,1,h,79,0,0,0,79,0,79,0,79,0,0,0,79,79,NA,79,79,Fri Sep 15 10:55:48 2023,1500,The main experiment item,TRUE,FlankerTask.osexp,C:\Users\Simone\Desktop,FALSE,mono,FALSE,18,no,white,no,no,768,legacy,79,79,C:/Users/Simone/Desktop/SD-subject-1.csv,legacy,Melodramatic Milgram,4.0.5,0,h,NA,s,NA,NA,h,NA,533,NA,34597,NA,NA,533,NA,2,legacy,1024,2,48000,-16,experiment,SSHSS,1,odd,166074,35764,NA,NA,76863,1163,NA,NA,167103,1166,NA,NA,167204,167738,NA,167100,167204,Flanker Task,78,41032,80,1024
97,97,516,516,black,legacy,legacy,legacy,incongruent,1,undefined,1,h,80,0,0,0,80,0,80,0,80,0,0,0,80,80,NA,80,80,Fri Sep 15 10:55:48 2023,600,The main experiment item,TRUE,FlankerTask.osexp,C:\Users\Simone\Desktop,FALSE,mono,FALSE,18,no,white,no,no,768,legacy,0,79,C:/Users/Simone/Desktop/SD-subject-1.csv,legacy,Melodramatic Milgram,4.0.5,0,h,NA,s,s,NA,h,NA,789,NA,34597,42697,NA,789,NA,2,legacy,1024,2,48000,-16,experiment,SSHSS,1,odd,167742,35764,211441,NA,76863,1163,NA,NA,211483,1166,168743,NA,211585,212375,NA,211482,211585,Flanker Task,79,41821,81,1024
97,97,515,515,black,legacy,legacy,legacy,congruent ,1,undefined,1,s,81,0,0,0,81,0,81,0,81,0,0,0,81,81,NA,81,81,Fri Sep 15 10:55:48 2023,600,The main experiment item,TRUE,FlankerTask.osexp,C:\Users\Simone\Desktop,FALSE,mono,FALSE,18,no,white,no,no,768,legacy,1,79,C:/Users/Simone/Desktop/SD-subject-1.csv,legacy,Melodramatic Milgram,4.0.5,0,s,NA,s,s,NA,s,NA,471,NA,34597,42697,NA,471,NA,2,legacy,1024,2,48000,-16,experiment,SSSSS,1,odd,212880,35764,211441,NA,76863,1163,212379,NA,213904,1166,168743,NA,214005,214477,NA,213903,214005,Flanker Task,80,42292,82,1024
97,97,516,516,black,legacy,legacy,legacy,congruent ,1,undefined,1,s,82,0,0,0,82,0,82,0,82,0,0,0,82,82,NA,82,82,Fri Sep 15 10:55:48 2023,600,The main experiment item,TRUE,FlankerTask.osexp,C:\Users\Simone\Desktop,FALSE,mono,FALSE,18,no,white,no,no,768,legacy,2,79,C:/Users/Simone/Desktop/SD-subject-1.csv,legacy,Melodramatic Milgram,4.0.5,0,s,NA,s,s,NA,s,NA,544,NA,34597,42697,NA,544,NA,2,legacy,1024,2,48000,-16,experiment,SSSSS,1,odd,214482,35764,211441,NA,76863,1163,212379,NA,215528,1166,168743,NA,215629,216174,NA,215526,215629,Flanker Task,81,42836,83,1024
97,97,514,514,black,legacy,legacy,legacy,congruent ,1,undefined,1,h,83,0,0,0,83,0,83,0,83,0,0,0,83,83,NA,83,83,Fri Sep 15 10:55:48 2023,600,The main experiment item,TRUE,FlankerTask.osexp,C:\Users\Simone\Desktop,FALSE,mono,FALSE,18,no,white,no,no,768,legacy,3,79,C:/Users/Simone/Desktop/SD-subject-1.csv,legacy,Melodramatic Milgram,4.0.5,0,h,NA,s,s,NA,h,NA,372,NA,34597,42697,NA,372,NA,2,legacy,1024,2,48000,-16,experiment,HHHHH,1,odd,216178,35764,211441,NA,76863,1163,212379,NA,217209,1166,168743,NA,217310,217683,NA,217208,217310,Flanker Task,82,43208,84,1024
97,97,513,513,black,legacy,legacy,legacy,incongruent,1,undefined,1,h,84,0,0,0,84,0,84,0,84,0,0,0,84,84,NA,84,84,Fri Sep 15 10:55:48 2023,600,The main experiment item,TRUE,FlankerTask.osexp,C:\Users\Simone\Desktop,FALSE,mono,FALSE,18,no,white,no,no,768,legacy,4,79,C:/Users/Simone/Desktop/SD-subject-1.csv,legacy,Melodramatic Milgram,4.0.5,0,h,NA,s,s,NA,h,NA,404,NA,34597,42697,NA,404,NA,2,legacy,1024,2,48000,-16,experiment,SSHSS,1,odd,217687,35764,211441,NA,76863,1163,212379,NA,218715,1166,168743,NA,218816,219221,NA,218713,218816,Flanker Task,83,43612,85,1024
96,96,512,512,black,legacy,legacy,legacy,incongruent,0,undefined,0,s,85,0,0,0,85,0,85,0,85,0,0,0,85,85,NA,85,85,Fri Sep 15 10:55:48 2023,600,The main experiment item,TRUE,FlankerTask.osexp,C:\Users\Simone\Desktop,FALSE,mono,FALSE,18,no,white,no,no,768,legacy,5,79,C:/Users/Simone/Desktop/SD-subject-1.csv,legacy,Melodramatic Milgram,4.0.5,0,h,NA,s,s,NA,h,NA,464,NA,34597,42697,NA,464,NA,2,legacy,1024,2,48000,-16,experiment,HHSHH,1,odd,219224,35764,211441,NA,76863,1163,212379,NA,220251,1166,168743,NA,220352,220817,NA,220249,220352,Flanker Task,83,44076,86,1024
96,96,513,513,black,legacy,legacy,legacy,incongruent,1,undefined,1,h,86,0,0,0,86,0,86,0,86,0,0,0,86,86,NA,86,86,Fri Sep 15 10:55:48 2023,600,The main experiment item,TRUE,FlankerTask.osexp,C:\Users\Simone\Desktop,FALSE,mono,FALSE,18,no,white,no,no,768,legacy,6,79,C:/Users/Simone/Desktop/SD-subject-1.csv,legacy,Melodramatic Milgram,4.0.5,0,h,NA,s,s,NA,h,NA,563,NA,34597,42697,NA,563,NA,2,legacy,1024,2,48000,-16,experiment,SSHSS,1,odd,221329,35764,211441,NA,220828,1163,212379,NA,222365,1166,168743,NA,222466,223030,NA,222362,222466,Flanker Task,84,44639,87,1024
96,96,514,514,black,legacy,legacy,legacy,incongruent,1,undefined,1,h,87,0,0,0,87,0,87,0,87,0,0,0,87,87,NA,87,87,Fri Sep 15 10:55:48 2023,600,The main experiment item,TRUE,FlankerTask.osexp,C:\Users\Simone\Desktop,FALSE,mono,FALSE,18,no,white,no,no,768,legacy,7,79,C:/Users/Simone/Desktop/SD-subject-1.csv,legacy,Melodramatic Milgram,4.0.5,0,h,NA,s,s,NA,h,NA,610,NA,34597,42697,NA,610,NA,2,legacy,1024,2,48000,-16,experiment,SSHSS,1,odd,223034,35764,211441,NA,220828,1163,212379,NA,224063,1166,168743,NA,224164,224774,NA,224061,224164,Flanker Task,85,45249,88,1024
96,96,512,512,black,legacy,legacy,legacy,congruent ,1,undefined,1,s,88,0,0,0,88,0,88,0,88,0,0,0,88,88,NA,88,88,Fri Sep 15 10:55:48 2023,600,The main experiment item,TRUE,FlankerTask.osexp,C:\Users\Simone\Desktop,FALSE,mono,FALSE,18,no,white,no,no,768,legacy,8,79,C:/Users/Simone/Desktop/SD-subject-1.csv,legacy,Melodramatic Milgram,4.0.5,0,s,NA,s,s,NA,s,NA,398,NA,34597,42697,NA,398,NA,2,legacy,1024,2,48000,-16,experiment,SSSSS,1,odd,225279,35764,211441,NA,220828,1163,224778,NA,226307,1166,168743,NA,226408,226806,NA,226306,226408,Flanker Task,86,45647,89,1024
96,96,514,514,black,legacy,legacy,legacy,incongruent,1,undefined,1,s,89,0,0,0,89,0,89,0,89,0,0,0,89,89,NA,89,89,Fri Sep 15 10:55:48 2023,600,The main experiment item,TRUE,FlankerTask.osexp,C:\Users\Simone\Desktop,FALSE,mono,FALSE,18,no,white,no,no,768,legacy,9,79,C:/Users/Simone/Desktop/SD-subject-1.csv,legacy,Melodramatic Milgram,4.0.5,0,s,NA,s,s,NA,s,NA,647,NA,34597,42697,NA,647,NA,2,legacy,1024,2,48000,-16,experiment,HHSHH,1,odd,226810,35764,211441,NA,220828,1163,224778,NA,227840,1166,168743,NA,227941,228588,NA,227838,227941,Flanker Task,87,46294,90,1024
96,96,513,513,black,legacy,legacy,legacy,incongruent,1,undefined,1,h,90,0,0,0,90,0,90,0,90,0,0,0,90,90,NA,90,90,Fri Sep 15 10:55:48 2023,600,The main experiment item,TRUE,FlankerTask.osexp,C:\Users\Simone\Desktop,FALSE,mono,FALSE,18,no,white,no,no,768,legacy,10,79,C:/Users/Simone/Desktop/SD-subject-1.csv,legacy,Melodramatic Milgram,4.0.5,0,h,NA,s,s,NA,h,NA,414,NA,34597,42697,NA,414,NA,2,legacy,1024,2,48000,-16,experiment,SSHSS,1,odd,229093,35764,211441,NA,220828,1163,228592,NA,230118,1166,168743,NA,230219,230634,NA,230116,230219,Flanker Task,88,46708,91,1024
95,95,511,511,black,legacy,legacy,legacy,incongruent,0,undefined,0,h,91,0,0,0,91,0,91,0,91,0,0,0,91,91,NA,91,91,Fri Sep 15 10:55:48 2023,600,The main experiment item,TRUE,FlankerTask.osexp,C:\Users\Simone\Desktop,FALSE,mono,FALSE,18,no,white,no,no,768,legacy,11,79,C:/Users/Simone/Desktop/SD-subject-1.csv,legacy,Melodramatic Milgram,4.0.5,0,s,NA,s,s,NA,s,NA,315,NA,34597,42697,NA,315,NA,2,legacy,1024,2,48000,-16,experiment,SSHSS,1,odd,230638,35764,211441,NA,220828,1163,228592,NA,231675,1166,168743,NA,231776,232091,NA,231667,231776,Flanker Task,88,47023,92,1024
95,95,511,511,black,legacy,legacy,legacy,incongruent,1,undefined,1,s,92,0,0,0,92,0,92,0,92,0,0,0,92,92,NA,92,92,Fri Sep 15 10:55:48 2023,600,The main experiment item,TRUE,FlankerTask.osexp,C:\Users\Simone\Desktop,FALSE,mono,FALSE,18,no,white,no,no,768,legacy,12,79,C:/Users/Simone/Desktop/SD-subject-1.csv,legacy,Melodramatic Milgram,4.0.5,0,s,NA,s,s,NA,s,NA,531,NA,34597,42697,NA,531,NA,2,legacy,1024,2,48000,-16,experiment,HHSHH,1,odd,232596,35764,211441,NA,232095,1163,228592,NA,233623,1166,168743,NA,233724,234256,NA,233621,233724,Flanker Task,89,47554,93,1024
95,95,510,510,black,legacy,legacy,legacy,incongruent,1,undefined,1,h,93,0,0,0,93,0,93,0,93,0,0,0,93,93,NA,93,93,Fri Sep 15 10:55:48 2023,600,The main experiment item,TRUE,FlankerTask.osexp,C:\Users\Simone\Desktop,FALSE,mono,FALSE,18,no,white,no,no,768,legacy,13,79,C:/Users/Simone/Desktop/SD-subject-1.csv,legacy,Melodramatic Milgram,4.0.5,0,h,NA,s,s,NA,h,NA,443,NA,34597,42697,NA,443,NA,2,legacy,1024,2,48000,-16,experiment,SSHSS,1,odd,234260,35764,211441,NA,232095,1163,228592,NA,235290,1166,168743,NA,235391,235835,NA,235288,235391,Flanker Task,90,47997,94,1024
95,95,509,509,black,legacy,legacy,legacy,incongruent,1,undefined,1,s,94,0,0,0,94,0,94,0,94,0,0,0,94,94,NA,94,94,Fri Sep 15 10:55:48 2023,600,The main experiment item,TRUE,FlankerTask.osexp,C:\Users\Simone\Desktop,FALSE,mono,FALSE,18,no,white,no,no,768,legacy,14,79,C:/Users/Simone/Desktop/SD-subject-1.csv,legacy,Melodramatic Milgram,4.0.5,0,s,NA,s,s,NA,s,NA,443,NA,34597,42697,NA,443,NA,2,legacy,1024,2,48000,-16,experiment,HHSHH,1,odd,235837,35764,211441,NA,232095,1163,228592,NA,236872,1166,168743,NA,236973,237416,NA,236870,236973,Flanker Task,91,48440,95,1024
95,95,509,509,black,legacy,legacy,legacy,incongruent,1,undefined,1,h,95,0,0,0,95,0,95,0,95,0,0,0,95,95,NA,95,95,Fri Sep 15 10:55:48 2023,600,The main experiment item,TRUE,FlankerTask.osexp,C:\Users\Simone\Desktop,FALSE,mono,FALSE,18,no,white,no,no,768,legacy,15,79,C:/Users/Simone/Desktop/SD-subject-1.csv,legacy,Melodramatic Milgram,4.0.5,0,h,NA,s,s,NA,h,NA,433,NA,34597,42697,NA,433,NA,2,legacy,1024,2,48000,-16,experiment,SSHSS,1,odd,237421,35764,211441,NA,232095,1163,228592,NA,238453,1166,168743,NA,238554,238988,NA,238452,238554,Flanker Task,92,48873,96,1024
95,95,509,509,black,legacy,legacy,legacy,congruent ,1,undefined,1,s,96,0,0,0,96,0,96,0,96,0,0,0,96,96,NA,96,96,Fri Sep 15 10:55:48 2023,600,The main experiment item,TRUE,FlankerTask.osexp,C:\Users\Simone\Desktop,FALSE,mono,FALSE,18,no,white,no,no,768,legacy,16,79,C:/Users/Simone/Desktop/SD-subject-1.csv,legacy,Melodramatic Milgram,4.0.5,0,s,NA,s,s,NA,s,NA,526,NA,34597,42697,NA,526,NA,2,legacy,1024,2,48000,-16,experiment,SSSSS,1,odd,238992,35764,211441,NA,232095,1163,228592,NA,240021,1166,168743,NA,240122,240649,NA,240019,240122,Flanker Task,93,49399,97,1024
95,95,509,509,black,legacy,legacy,legacy,congruent ,1,undefined,1,s,97,0,0,0,97,0,97,0,97,0,0,0,97,97,NA,97,97,Fri Sep 15 10:55:48 2023,600,The main experiment item,TRUE,FlankerTask.osexp,C:\Users\Simone\Desktop,FALSE,mono,FALSE,18,no,white,no,no,768,legacy,17,79,C:/Users/Simone/Desktop/SD-subject-1.csv,legacy,Melodramatic Milgram,4.0.5,0,s,NA,s,s,NA,s,NA,484,NA,34597,42697,NA,484,NA,2,legacy,1024,2,48000,-16,experiment,SSSSS,1,odd,240653,35764,211441,NA,232095,1163,228592,NA,241682,1166,168743,NA,241783,242268,NA,241680,241783,Flanker Task,94,49883,98,1024
95,95,508,508,black,legacy,legacy,legacy,incongruent,1,undefined,1,s,98,0,0,0,98,0,98,0,98,0,0,0,98,98,NA,98,98,Fri Sep 15 10:55:48 2023,600,The main experiment item,TRUE,FlankerTask.osexp,C:\Users\Simone\Desktop,FALSE,mono,FALSE,18,no,white,no,no,768,legacy,18,79,C:/Users/Simone/Desktop/SD-subject-1.csv,legacy,Melodramatic Milgram,4.0.5,0,s,NA,s,s,NA,s,NA,469,NA,34597,42697,NA,469,NA,2,legacy,1024,2,48000,-16,experiment,HHSHH,1,odd,242272,35764,211441,NA,232095,1163,228592,NA,243301,1166,168743,NA,243403,243873,NA,243300,243403,Flanker Task,95,50352,99,1024
96,96,507,507,black,legacy,legacy,legacy,congruent ,1,undefined,1,s,99,0,0,0,99,0,99,0,99,0,0,0,99,99,NA,99,99,Fri Sep 15 10:55:48 2023,600,The main experiment item,TRUE,FlankerTask.osexp,C:\Users\Simone\Desktop,FALSE,mono,FALSE,18,no,white,no,no,768,legacy,19,79,C:/Users/Simone/Desktop/SD-subject-1.csv,legacy,Melodramatic Milgram,4.0.5,0,s,NA,s,s,NA,s,NA,415,NA,34597,42697,NA,415,NA,2,legacy,1024,2,48000,-16,experiment,SSSSS,1,odd,243877,35764,211441,NA,232095,1163,228592,NA,244907,1166,168743,NA,245008,245424,NA,244905,245008,Flanker Task,96,50767,100,1024
96,96,506,506,black,legacy,legacy,legacy,incongruent,1,undefined,1,h,100,0,0,0,100,0,100,0,100,0,0,0,100,100,NA,100,100,Fri Sep 15 10:55:48 2023,600,The main experiment item,TRUE,FlankerTask.osexp,C:\Users\Simone\Desktop,FALSE,mono,FALSE,18,no,white,no,no,768,legacy,20,79,C:/Users/Simone/Desktop/SD-subject-1.csv,legacy,Melodramatic Milgram,4.0.5,0,h,NA,s,s,NA,h,NA,385,NA,34597,42697,NA,385,NA,2,legacy,1024,2,48000,-16,experiment,SSHSS,1,odd,245428,35764,211441,NA,232095,1163,228592,NA,246459,1166,168743,NA,246560,246945,NA,246457,246560,Flanker Task,97,51152,101,1024
96,96,505,505,black,legacy,legacy,legacy,congruent ,1,undefined,1,s,101,0,0,0,101,0,101,0,101,0,0,0,101,101,NA,101,101,Fri Sep 15 10:55:48 2023,600,The main experiment item,TRUE,FlankerTask.osexp,C:\Users\Simone\Desktop,FALSE,mono,FALSE,18,no,white,no,no,768,legacy,21,79,C:/Users/Simone/Desktop/SD-subject-1.csv,legacy,Melodramatic Milgram,4.0.5,0,s,NA,s,s,NA,s,NA,410,NA,34597,42697,NA,410,NA,2,legacy,1024,2,48000,-16,experiment,SSSSS,1,odd,246949,35764,211441,NA,232095,1163,228592,NA,247980,1166,168743,NA,248081,248492,NA,247978,248081,Flanker Task,98,51562,102,1024
96,96,505,505,black,legacy,legacy,legacy,congruent ,1,undefined,1,h,102,0,0,0,102,0,102,0,102,0,0,0,102,102,NA,102,102,Fri Sep 15 10:55:48 2023,600,The main experiment item,TRUE,FlankerTask.osexp,C:\Users\Simone\Desktop,FALSE,mono,FALSE,18,no,white,no,no,768,legacy,22,79,C:/Users/Simone/Desktop/SD-subject-1.csv,legacy,Melodramatic Milgram,4.0.5,0,h,NA,s,s,NA,h,NA,511,NA,34597,42697,NA,511,NA,2,legacy,1024,2,48000,-16,experiment,HHHHH,1,odd,248494,35764,211441,NA,232095,1163,228592,NA,249532,1166,168743,NA,249633,250145,NA,249531,249633,Flanker Task,99,52073,103,1024
96,96,504,504,black,legacy,legacy,legacy,incongruent,1,undefined,1,s,103,0,0,0,103,0,103,0,103,0,0,0,103,103,NA,103,103,Fri Sep 15 10:55:48 2023,600,The main experiment item,TRUE,FlankerTask.osexp,C:\Users\Simone\Desktop,FALSE,mono,FALSE,18,no,white,no,no,768,legacy,23,79,C:/Users/Simone/Desktop/SD-subject-1.csv,legacy,Melodramatic Milgram,4.0.5,0,s,NA,s,s,NA,s,NA,393,NA,34597,42697,NA,393,NA,2,legacy,1024,2,48000,-16,experiment,HHSHH,1,odd,250149,35764,211441,NA,232095,1163,228592,NA,251180,1166,168743,NA,251281,251674,NA,251179,251281,Flanker Task,100,52466,104,1024
96,96,503,503,black,legacy,legacy,legacy,congruent ,1,undefined,1,h,104,0,0,0,104,0,104,0,104,0,0,0,104,104,NA,104,104,Fri Sep 15 10:55:48 2023,600,The main experiment item,TRUE,FlankerTask.osexp,C:\Users\Simone\Desktop,FALSE,mono,FALSE,18,no,white,no,no,768,legacy,24,79,C:/Users/Simone/Desktop/SD-subject-1.csv,legacy,Melodramatic Milgram,4.0.5,0,h,NA,s,s,NA,h,NA,387,NA,34597,42697,NA,387,NA,2,legacy,1024,2,48000,-16,experiment,HHHHH,1,odd,251678,35764,211441,NA,232095,1163,228592,NA,252708,1166,168743,NA,252809,253197,NA,252706,252809,Flanker Task,101,52853,105,1024
96,96,502,502,black,legacy,legacy,legacy,congruent ,1,undefined,1,s,105,0,0,0,105,0,105,0,105,0,0,0,105,105,NA,105,105,Fri Sep 15 10:55:48 2023,600,The main experiment item,TRUE,FlankerTask.osexp,C:\Users\Simone\Desktop,FALSE,mono,FALSE,18,no,white,no,no,768,legacy,25,79,C:/Users/Simone/Desktop/SD-subject-1.csv,legacy,Melodramatic Milgram,4.0.5,0,s,NA,s,s,NA,s,NA,372,NA,34597,42697,NA,372,NA,2,legacy,1024,2,48000,-16,experiment,SSSSS,1,odd,253201,35764,211441,NA,232095,1163,228592,NA,254232,1166,168743,NA,254333,254706,NA,254230,254333,Flanker Task,102,53225,106,1024
96,96,502,502,black,legacy,legacy,legacy,incongruent,1,undefined,1,h,106,0,0,0,106,0,106,0,106,0,0,0,106,106,NA,106,106,Fri Sep 15 10:55:48 2023,600,The main experiment item,TRUE,FlankerTask.osexp,C:\Users\Simone\Desktop,FALSE,mono,FALSE,18,no,white,no,no,768,legacy,26,79,C:/Users/Simone/Desktop/SD-subject-1.csv,legacy,Melodramatic Milgram,4.0.5,0,h,NA,s,s,NA,h,NA,504,NA,34597,42697,NA,504,NA,2,legacy,1024,2,48000,-16,experiment,SSHSS,1,odd,254709,35764,211441,NA,232095,1163,228592,NA,255741,1166,168743,NA,255842,256347,NA,255738,255842,Flanker Task,103,53729,107,1024
96,96,501,501,black,legacy,legacy,legacy,congruent ,1,undefined,1,s,107,0,0,0,107,0,107,0,107,0,0,0,107,107,NA,107,107,Fri Sep 15 10:55:48 2023,600,The main experiment item,TRUE,FlankerTask.osexp,C:\Users\Simone\Desktop,FALSE,mono,FALSE,18,no,white,no,no,768,legacy,27,79,C:/Users/Simone/Desktop/SD-subject-1.csv,legacy,Melodramatic Milgram,4.0.5,0,s,NA,s,s,NA,s,NA,412,NA,34597,42697,NA,412,NA,2,legacy,1024,2,48000,-16,experiment,SSSSS,1,odd,256351,35764,211441,NA,232095,1163,228592,NA,257383,1166,168743,NA,257484,257896,NA,257381,257484,Flanker Task,104,54141,108,1024
96,96,500,500,black,legacy,legacy,legacy,congruent ,1,undefined,1,h,108,0,0,0,108,0,108,0,108,0,0,0,108,108,NA,108,108,Fri Sep 15 10:55:48 2023,600,The main experiment item,TRUE,FlankerTask.osexp,C:\Users\Simone\Desktop,FALSE,mono,FALSE,18,no,white,no,no,768,legacy,28,79,C:/Users/Simone/Desktop/SD-subject-1.csv,legacy,Melodramatic Milgram,4.0.5,0,h,NA,s,s,NA,h,NA,419,NA,34597,42697,NA,419,NA,2,legacy,1024,2,48000,-16,experiment,HHHHH,1,odd,257901,35764,211441,NA,232095,1163,228592,NA,258930,1166,168743,NA,259031,259451,NA,258928,259031,Flanker Task,105,54560,109,1024
96,96,500,500,black,legacy,legacy,legacy,incongruent,1,undefined,1,s,109,0,0,0,109,0,109,0,109,0,0,0,109,109,NA,109,109,Fri Sep 15 10:55:48 2023,600,The main experiment item,TRUE,FlankerTask.osexp,C:\Users\Simone\Desktop,FALSE,mono,FALSE,18,no,white,no,no,768,legacy,29,79,C:/Users/Simone/Desktop/SD-subject-1.csv,legacy,Melodramatic Milgram,4.0.5,0,s,NA,s,s,NA,s,NA,455,NA,34597,42697,NA,455,NA,2,legacy,1024,2,48000,-16,experiment,HHSHH,1,odd,259455,35764,211441,NA,232095,1163,228592,NA,260484,1166,168743,NA,260585,261040,NA,260483,260585,Flanker Task,106,55015,110,1024
96,96,499,499,black,legacy,legacy,legacy,incongruent,1,undefined,1,h,110,0,0,0,110,0,110,0,110,0,0,0,110,110,NA,110,110,Fri Sep 15 10:55:48 2023,600,The main experiment item,TRUE,FlankerTask.osexp,C:\Users\Simone\Desktop,FALSE,mono,FALSE,18,no,white,no,no,768,legacy,30,79,C:/Users/Simone/Desktop/SD-subject-1.csv,legacy,Melodramatic Milgram,4.0.5,0,h,NA,s,s,NA,h,NA,455,NA,34597,42697,NA,455,NA,2,legacy,1024,2,48000,-16,experiment,SSHSS,1,odd,261044,35764,211441,NA,232095,1163,228592,NA,262082,1166,168743,NA,262183,262639,NA,262079,262183,Flanker Task,107,55470,111,1024
96,96,500,500,black,legacy,legacy,legacy,congruent ,1,undefined,1,h,111,0,0,0,111,0,111,0,111,0,0,0,111,111,NA,111,111,Fri Sep 15 10:55:48 2023,600,The main experiment item,TRUE,FlankerTask.osexp,C:\Users\Simone\Desktop,FALSE,mono,FALSE,18,no,white,no,no,768,legacy,31,79,C:/Users/Simone/Desktop/SD-subject-1.csv,legacy,Melodramatic Milgram,4.0.5,0,h,NA,s,s,NA,h,NA,548,NA,34597,42697,NA,548,NA,2,legacy,1024,2,48000,-16,experiment,HHHHH,1,odd,262643,35764,211441,NA,232095,1163,228592,NA,263673,1166,168743,NA,263774,264323,NA,263671,263774,Flanker Task,108,56018,112,1024
96,96,500,500,black,legacy,legacy,legacy,congruent ,1,undefined,1,h,112,0,0,0,112,0,112,0,112,0,0,0,112,112,NA,112,112,Fri Sep 15 10:55:48 2023,600,The main experiment item,TRUE,FlankerTask.osexp,C:\Users\Simone\Desktop,FALSE,mono,FALSE,18,no,white,no,no,768,legacy,32,79,C:/Users/Simone/Desktop/SD-subject-1.csv,legacy,Melodramatic Milgram,4.0.5,0,h,NA,s,s,NA,h,NA,509,NA,34597,42697,NA,509,NA,2,legacy,1024,2,48000,-16,experiment,HHHHH,1,odd,264327,35764,211441,NA,232095,1163,228592,NA,265356,1166,168743,NA,265457,265967,NA,265354,265457,Flanker Task,109,56527,113,1024
96,96,499,499,black,legacy,legacy,legacy,congruent ,1,undefined,1,s,113,0,0,0,113,0,113,0,113,0,0,0,113,113,NA,113,113,Fri Sep 15 10:55:48 2023,600,The main experiment item,TRUE,FlankerTask.osexp,C:\Users\Simone\Desktop,FALSE,mono,FALSE,18,no,white,no,no,768,legacy,33,79,C:/Users/Simone/Desktop/SD-subject-1.csv,legacy,Melodramatic Milgram,4.0.5,0,s,NA,s,s,NA,s,NA,458,NA,34597,42697,NA,458,NA,2,legacy,1024,2,48000,-16,experiment,SSSSS,1,odd,265970,35764,211441,NA,232095,1163,228592,NA,266999,1166,168743,NA,267100,267559,NA,266997,267100,Flanker Task,110,56985,114,1024
96,96,498,498,black,legacy,legacy,legacy,congruent ,1,undefined,1,h,114,0,0,0,114,0,114,0,114,0,0,0,114,114,NA,114,114,Fri Sep 15 10:55:48 2023,600,The main experiment item,TRUE,FlankerTask.osexp,C:\Users\Simone\Desktop,FALSE,mono,FALSE,18,no,white,no,no,768,legacy,34,79,C:/Users/Simone/Desktop/SD-subject-1.csv,legacy,Melodramatic Milgram,4.0.5,0,h,NA,s,s,NA,h,NA,382,NA,34597,42697,NA,382,NA,2,legacy,1024,2,48000,-16,experiment,HHHHH,1,odd,267562,35764,211441,NA,232095,1163,228592,NA,268592,1166,168743,NA,268693,269076,NA,268590,268693,Flanker Task,111,57367,115,1024
96,96,498,498,black,legacy,legacy,legacy,congruent ,1,undefined,1,s,115,0,0,0,115,0,115,0,115,0,0,0,115,115,NA,115,115,Fri Sep 15 10:55:48 2023,600,The main experiment item,TRUE,FlankerTask.osexp,C:\Users\Simone\Desktop,FALSE,mono,FALSE,18,no,white,no,no,768,legacy,35,79,C:/Users/Simone/Desktop/SD-subject-1.csv,legacy,Melodramatic Milgram,4.0.5,0,s,NA,s,s,NA,s,NA,476,NA,34597,42697,NA,476,NA,2,legacy,1024,2,48000,-16,experiment,SSSSS,1,odd,269080,35764,211441,NA,232095,1163,228592,NA,270118,1166,168743,NA,270219,270695,NA,270116,270219,Flanker Task,112,57843,116,1024
96,96,497,497,black,legacy,legacy,legacy,incongruent,1,undefined,1,h,116,0,0,0,116,0,116,0,116,0,0,0,116,116,NA,116,116,Fri Sep 15 10:55:48 2023,600,The main experiment item,TRUE,FlankerTask.osexp,C:\Users\Simone\Desktop,FALSE,mono,FALSE,18,no,white,no,no,768,legacy,36,79,C:/Users/Simone/Desktop/SD-subject-1.csv,legacy,Melodramatic Milgram,4.0.5,0,h,NA,s,s,NA,h,NA,420,NA,34597,42697,NA,420,NA,2,legacy,1024,2,48000,-16,experiment,SSHSS,1,odd,270699,35764,211441,NA,232095,1163,228592,NA,271728,1166,168743,NA,271829,272250,NA,271727,271829,Flanker Task,113,58263,117,1024
96,96,496,496,black,legacy,legacy,legacy,congruent ,1,undefined,1,h,117,0,0,0,117,0,117,0,117,0,0,0,117,117,NA,117,117,Fri Sep 15 10:55:48 2023,600,The main experiment item,TRUE,FlankerTask.osexp,C:\Users\Simone\Desktop,FALSE,mono,FALSE,18,no,white,no,no,768,legacy,37,79,C:/Users/Simone/Desktop/SD-subject-1.csv,legacy,Melodramatic Milgram,4.0.5,0,h,NA,s,s,NA,h,NA,379,NA,34597,42697,NA,379,NA,2,legacy,1024,2,48000,-16,experiment,HHHHH,1,odd,272254,35764,211441,NA,232095,1163,228592,NA,273281,1166,168743,NA,273382,273762,NA,273280,273382,Flanker Task,114,58642,118,1024
96,96,496,496,black,legacy,legacy,legacy,incongruent,1,undefined,1,s,118,0,0,0,118,0,118,0,118,0,0,0,118,118,NA,118,118,Fri Sep 15 10:55:48 2023,600,The main experiment item,TRUE,FlankerTask.osexp,C:\Users\Simone\Desktop,FALSE,mono,FALSE,18,no,white,no,no,768,legacy,38,79,C:/Users/Simone/Desktop/SD-subject-1.csv,legacy,Melodramatic Milgram,4.0.5,0,s,NA,s,s,NA,s,NA,407,NA,34597,42697,NA,407,NA,2,legacy,1024,2,48000,-16,experiment,HHSHH,1,odd,273767,35764,211441,NA,232095,1163,228592,NA,274804,1166,168743,NA,274905,275313,NA,274803,274905,Flanker Task,115,59049,119,1024
96,96,496,496,black,legacy,legacy,legacy,incongruent,1,undefined,1,s,119,0,0,0,119,0,119,0,119,0,0,0,119,119,NA,119,119,Fri Sep 15 10:55:48 2023,600,The main experiment item,TRUE,FlankerTask.osexp,C:\Users\Simone\Desktop,FALSE,mono,FALSE,18,no,white,no,no,768,legacy,39,79,C:/Users/Simone/Desktop/SD-subject-1.csv,legacy,Melodramatic Milgram,4.0.5,0,s,NA,s,s,NA,s,NA,493,NA,34597,42697,NA,493,NA,2,legacy,1024,2,48000,-16,experiment,HHSHH,1,odd,275317,35764,211441,NA,232095,1163,228592,NA,276344,1166,168743,NA,276445,276938,NA,276342,276445,Flanker Task,116,59542,120,1024
96,96,496,496,black,legacy,legacy,legacy,congruent ,1,undefined,1,s,120,0,0,0,120,0,120,0,120,0,0,0,120,120,NA,120,120,Fri Sep 15 10:55:48 2023,600,The main experiment item,TRUE,FlankerTask.osexp,C:\Users\Simone\Desktop,FALSE,mono,FALSE,18,no,white,no,no,768,legacy,40,79,C:/Users/Simone/Desktop/SD-subject-1.csv,legacy,Melodramatic Milgram,4.0.5,0,s,NA,s,s,NA,s,NA,497,NA,34597,42697,NA,497,NA,2,legacy,1024,2,48000,-16,experiment,SSSSS,1,odd,276942,35764,211441,NA,232095,1163,228592,NA,277973,1166,168743,NA,278074,278571,NA,277970,278074,Flanker Task,117,60039,121,1024
96,96,496,496,black,legacy,legacy,legacy,incongruent,1,undefined,1,s,121,0,0,0,121,0,121,0,121,0,0,0,121,121,NA,121,121,Fri Sep 15 10:55:48 2023,600,The main experiment item,TRUE,FlankerTask.osexp,C:\Users\Simone\Desktop,FALSE,mono,FALSE,18,no,white,no,no,768,legacy,41,79,C:/Users/Simone/Desktop/SD-subject-1.csv,legacy,Melodramatic Milgram,4.0.5,0,s,NA,s,s,NA,s,NA,511,NA,34597,42697,NA,511,NA,2,legacy,1024,2,48000,-16,experiment,HHSHH,1,odd,278575,35764,211441,NA,232095,1163,228592,NA,279603,1166,168743,NA,279704,280216,NA,279601,279704,Flanker Task,118,60550,122,1024
96,96,495,495,black,legacy,legacy,legacy,incongruent,1,undefined,1,s,122,0,0,0,122,0,122,0,122,0,0,0,122,122,NA,122,122,Fri Sep 15 10:55:48 2023,600,The main experiment item,TRUE,FlankerTask.osexp,C:\Users\Simone\Desktop,FALSE,mono,FALSE,18,no,white,no,no,768,legacy,42,79,C:/Users/Simone/Desktop/SD-subject-1.csv,legacy,Melodramatic Milgram,4.0.5,0,s,NA,s,s,NA,s,NA,398,NA,34597,42697,NA,398,NA,2,legacy,1024,2,48000,-16,experiment,HHSHH,1,odd,280219,35764,211441,NA,232095,1163,228592,NA,281257,1166,168743,NA,281358,281757,NA,281255,281358,Flanker Task,119,60948,123,1024
96,96,495,495,black,legacy,legacy,legacy,incongruent,1,undefined,1,h,123,0,0,0,123,0,123,0,123,0,0,0,123,123,NA,123,123,Fri Sep 15 10:55:48 2023,600,The main experiment item,TRUE,FlankerTask.osexp,C:\Users\Simone\Desktop,FALSE,mono,FALSE,18,no,white,no,no,768,legacy,43,79,C:/Users/Simone/Desktop/SD-subject-1.csv,legacy,Melodramatic Milgram,4.0.5,0,h,NA,s,s,NA,h,NA,494,NA,34597,42697,NA,494,NA,2,legacy,1024,2,48000,-16,experiment,SSHSS,1,odd,281761,35764,211441,NA,232095,1163,228592,NA,282790,1166,168743,NA,282891,283386,NA,282788,282891,Flanker Task,120,61442,124,1024
96,96,495,495,black,legacy,legacy,legacy,incongruent,1,undefined,1,s,124,0,0,0,124,0,124,0,124,0,0,0,124,124,NA,124,124,Fri Sep 15 10:55:48 2023,600,The main experiment item,TRUE,FlankerTask.osexp,C:\Users\Simone\Desktop,FALSE,mono,FALSE,18,no,white,no,no,768,legacy,44,79,C:/Users/Simone/Desktop/SD-subject-1.csv,legacy,Melodramatic Milgram,4.0.5,0,s,NA,s,s,NA,s,NA,443,NA,34597,42697,NA,443,NA,2,legacy,1024,2,48000,-16,experiment,HHSHH,1,odd,283389,35764,211441,NA,232095,1163,228592,NA,284418,1166,168743,NA,284519,284963,NA,284416,284519,Flanker Task,121,61885,125,1024
96,96,495,495,black,legacy,legacy,legacy,incongruent,1,undefined,1,s,125,0,0,0,125,0,125,0,125,0,0,0,125,125,NA,125,125,Fri Sep 15 10:55:48 2023,600,The main experiment item,TRUE,FlankerTask.osexp,C:\Users\Simone\Desktop,FALSE,mono,FALSE,18,no,white,no,no,768,legacy,45,79,C:/Users/Simone/Desktop/SD-subject-1.csv,legacy,Melodramatic Milgram,4.0.5,0,s,NA,s,s,NA,s,NA,534,NA,34597,42697,NA,534,NA,2,legacy,1024,2,48000,-16,experiment,HHSHH,1,odd,284967,35764,211441,NA,232095,1163,228592,NA,285997,1166,168743,NA,286098,286632,NA,285995,286098,Flanker Task,122,62419,126,1024
96,96,494,494,black,legacy,legacy,legacy,congruent ,1,undefined,1,h,126,0,0,0,126,0,126,0,126,0,0,0,126,126,NA,126,126,Fri Sep 15 10:55:48 2023,600,The main experiment item,TRUE,FlankerTask.osexp,C:\Users\Simone\Desktop,FALSE,mono,FALSE,18,no,white,no,no,768,legacy,46,79,C:/Users/Simone/Desktop/SD-subject-1.csv,legacy,Melodramatic Milgram,4.0.5,0,h,NA,s,s,NA,h,NA,393,NA,34597,42697,NA,393,NA,2,legacy,1024,2,48000,-16,experiment,HHHHH,1,odd,286636,35764,211441,NA,232095,1163,228592,NA,287671,1166,168743,NA,287772,288166,NA,287670,287772,Flanker Task,123,62812,127,1024
96,96,494,494,black,legacy,legacy,legacy,congruent ,1,undefined,1,s,127,0,0,0,127,0,127,0,127,0,0,0,127,127,NA,127,127,Fri Sep 15 10:55:48 2023,600,The main experiment item,TRUE,FlankerTask.osexp,C:\Users\Simone\Desktop,FALSE,mono,FALSE,18,no,white,no,no,768,legacy,47,79,C:/Users/Simone/Desktop/SD-subject-1.csv,legacy,Melodramatic Milgram,4.0.5,0,s,NA,s,s,NA,s,NA,461,NA,34597,42697,NA,461,NA,2,legacy,1024,2,48000,-16,experiment,SSSSS,1,odd,288170,35764,211441,NA,232095,1163,228592,NA,289199,1166,168743,NA,289300,289761,NA,289197,289300,Flanker Task,124,63273,128,1024
96,96,493,493,black,legacy,legacy,legacy,congruent ,1,undefined,1,h,128,0,0,0,128,0,128,0,128,0,0,0,128,128,NA,128,128,Fri Sep 15 10:55:48 2023,600,The main experiment item,TRUE,FlankerTask.osexp,C:\Users\Simone\Desktop,FALSE,mono,FALSE,18,no,white,no,no,768,legacy,48,79,C:/Users/Simone/Desktop/SD-subject-1.csv,legacy,Melodramatic Milgram,4.0.5,0,h,NA,s,s,NA,h,NA,418,NA,34597,42697,NA,418,NA,2,legacy,1024,2,48000,-16,experiment,HHHHH,1,odd,289765,35764,211441,NA,232095,1163,228592,NA,290792,1166,168743,NA,290893,291311,NA,290790,290893,Flanker Task,125,63691,129,1024
96,96,493,493,black,legacy,legacy,legacy,congruent ,1,undefined,1,h,129,0,0,0,129,0,129,0,129,0,0,0,129,129,NA,129,129,Fri Sep 15 10:55:48 2023,600,The main experiment item,TRUE,FlankerTask.osexp,C:\Users\Simone\Desktop,FALSE,mono,FALSE,18,no,white,no,no,768,legacy,49,79,C:/Users/Simone/Desktop/SD-subject-1.csv,legacy,Melodramatic Milgram,4.0.5,0,h,NA,s,s,NA,h,NA,497,NA,34597,42697,NA,497,NA,2,legacy,1024,2,48000,-16,experiment,HHHHH,1,odd,291315,35764,211441,NA,232095,1163,228592,NA,292346,1166,168743,NA,292447,292945,NA,292340,292447,Flanker Task,126,64188,130,1024
96,96,493,493,black,legacy,legacy,legacy,congruent ,1,undefined,1,s,130,0,0,0,130,0,130,0,130,0,0,0,130,130,NA,130,130,Fri Sep 15 10:55:48 2023,600,The main experiment item,TRUE,FlankerTask.osexp,C:\Users\Simone\Desktop,FALSE,mono,FALSE,18,no,white,no,no,768,legacy,50,79,C:/Users/Simone/Desktop/SD-subject-1.csv,legacy,Melodramatic Milgram,4.0.5,0,s,NA,s,s,NA,s,NA,456,NA,34597,42697,NA,456,NA,2,legacy,1024,2,48000,-16,experiment,SSSSS,1,odd,292948,35764,211441,NA,232095,1163,228592,NA,293978,1166,168743,NA,294079,294536,NA,293976,294079,Flanker Task,127,64644,131,1024
96,96,492,492,black,legacy,legacy,legacy,congruent ,1,undefined,1,s,131,0,0,0,131,0,131,0,131,0,0,0,131,131,NA,131,131,Fri Sep 15 10:55:48 2023,600,The main experiment item,TRUE,FlankerTask.osexp,C:\Users\Simone\Desktop,FALSE,mono,FALSE,18,no,white,no,no,768,legacy,51,79,C:/Users/Simone/Desktop/SD-subject-1.csv,legacy,Melodramatic Milgram,4.0.5,0,s,NA,s,s,NA,s,NA,423,NA,34597,42697,NA,423,NA,2,legacy,1024,2,48000,-16,experiment,SSSSS,1,odd,294541,35764,211441,NA,232095,1163,228592,NA,295568,1166,168743,NA,295669,296093,NA,295566,295669,Flanker Task,128,65067,132,1024
96,96,492,492,black,legacy,legacy,legacy,congruent ,1,undefined,1,h,132,0,0,0,132,0,132,0,132,0,0,0,132,132,NA,132,132,Fri Sep 15 10:55:48 2023,600,The main experiment item,TRUE,FlankerTask.osexp,C:\Users\Simone\Desktop,FALSE,mono,FALSE,18,no,white,no,no,768,legacy,52,79,C:/Users/Simone/Desktop/SD-subject-1.csv,legacy,Melodramatic Milgram,4.0.5,0,h,NA,s,s,NA,h,NA,425,NA,34597,42697,NA,425,NA,2,legacy,1024,2,48000,-16,experiment,HHHHH,1,odd,296097,35764,211441,NA,232095,1163,228592,NA,297127,1166,168743,NA,297228,297654,NA,297125,297228,Flanker Task,129,65492,133,1024
97,97,492,492,black,legacy,legacy,legacy,congruent ,1,undefined,1,h,133,0,0,0,133,0,133,0,133,0,0,0,133,133,NA,133,133,Fri Sep 15 10:55:48 2023,600,The main experiment item,TRUE,FlankerTask.osexp,C:\Users\Simone\Desktop,FALSE,mono,FALSE,18,no,white,no,no,768,legacy,53,79,C:/Users/Simone/Desktop/SD-subject-1.csv,legacy,Melodramatic Milgram,4.0.5,0,h,NA,s,s,NA,h,NA,485,NA,34597,42697,NA,485,NA,2,legacy,1024,2,48000,-16,experiment,HHHHH,1,odd,297658,35764,211441,NA,232095,1163,228592,NA,298686,1166,168743,NA,298787,299273,NA,298684,298787,Flanker Task,130,65977,134,1024
97,97,492,492,black,legacy,legacy,legacy,congruent ,1,undefined,1,s,134,0,0,0,134,0,134,0,134,0,0,0,134,134,NA,134,134,Fri Sep 15 10:55:48 2023,600,The main experiment item,TRUE,FlankerTask.osexp,C:\Users\Simone\Desktop,FALSE,mono,FALSE,18,no,white,no,no,768,legacy,54,79,C:/Users/Simone/Desktop/SD-subject-1.csv,legacy,Melodramatic Milgram,4.0.5,0,s,NA,s,s,NA,s,NA,453,NA,34597,42697,NA,453,NA,2,legacy,1024,2,48000,-16,experiment,SSSSS,1,odd,299275,35764,211441,NA,232095,1163,228592,NA,300311,1166,168743,NA,300412,300866,NA,300310,300412,Flanker Task,131,66430,135,1024
97,97,491,491,black,legacy,legacy,legacy,congruent ,1,undefined,1,h,135,0,0,0,135,0,135,0,135,0,0,0,135,135,NA,135,135,Fri Sep 15 10:55:48 2023,600,The main experiment item,TRUE,FlankerTask.osexp,C:\Users\Simone\Desktop,FALSE,mono,FALSE,18,no,white,no,no,768,legacy,55,79,C:/Users/Simone/Desktop/SD-subject-1.csv,legacy,Melodramatic Milgram,4.0.5,0,h,NA,s,s,NA,h,NA,388,NA,34597,42697,NA,388,NA,2,legacy,1024,2,48000,-16,experiment,HHHHH,1,odd,300869,35764,211441,NA,232095,1163,228592,NA,301900,1166,168743,NA,302001,302390,NA,301898,302001,Flanker Task,132,66818,136,1024
97,97,490,490,black,legacy,legacy,legacy,incongruent,1,undefined,1,s,136,0,0,0,136,0,136,0,136,0,0,0,136,136,NA,136,136,Fri Sep 15 10:55:48 2023,600,The main experiment item,TRUE,FlankerTask.osexp,C:\Users\Simone\Desktop,FALSE,mono,FALSE,18,no,white,no,no,768,legacy,56,79,C:/Users/Simone/Desktop/SD-subject-1.csv,legacy,Melodramatic Milgram,4.0.5,0,s,NA,s,s,NA,s,NA,407,NA,34597,42697,NA,407,NA,2,legacy,1024,2,48000,-16,experiment,HHSHH,1,odd,302394,35764,211441,NA,232095,1163,228592,NA,303421,1166,168743,NA,303522,303930,NA,303419,303522,Flanker Task,133,67225,137,1024
97,97,489,489,black,legacy,legacy,legacy,congruent ,1,undefined,1,h,137,0,0,0,137,0,137,0,137,0,0,0,137,137,NA,137,137,Fri Sep 15 10:55:48 2023,600,The main experiment item,TRUE,FlankerTask.osexp,C:\Users\Simone\Desktop,FALSE,mono,FALSE,18,no,white,no,no,768,legacy,57,79,C:/Users/Simone/Desktop/SD-subject-1.csv,legacy,Melodramatic Milgram,4.0.5,0,h,NA,s,s,NA,h,NA,394,NA,34597,42697,NA,394,NA,2,legacy,1024,2,48000,-16,experiment,HHHHH,1,odd,303934,35764,211441,NA,232095,1163,228592,NA,304967,1166,168743,NA,305068,305463,NA,304965,305068,Flanker Task,134,67619,138,1024
97,97,490,490,black,legacy,legacy,legacy,congruent ,1,undefined,1,h,138,0,0,0,138,0,138,0,138,0,0,0,138,138,NA,138,138,Fri Sep 15 10:55:48 2023,600,The main experiment item,TRUE,FlankerTask.osexp,C:\Users\Simone\Desktop,FALSE,mono,FALSE,18,no,white,no,no,768,legacy,58,79,C:/Users/Simone/Desktop/SD-subject-1.csv,legacy,Melodramatic Milgram,4.0.5,0,h,NA,s,s,NA,h,NA,547,NA,34597,42697,NA,547,NA,2,legacy,1024,2,48000,-16,experiment,HHHHH,1,odd,305467,35764,211441,NA,232095,1163,228592,NA,306506,1166,168743,NA,306607,307154,NA,306504,306607,Flanker Task,135,68166,139,1024
97,97,490,490,black,legacy,legacy,legacy,incongruent,1,undefined,1,h,139,0,0,0,139,0,139,0,139,0,0,0,139,139,NA,139,139,Fri Sep 15 10:55:48 2023,600,The main experiment item,TRUE,FlankerTask.osexp,C:\Users\Simone\Desktop,FALSE,mono,FALSE,18,no,white,no,no,768,legacy,59,79,C:/Users/Simone/Desktop/SD-subject-1.csv,legacy,Melodramatic Milgram,4.0.5,0,h,NA,s,s,NA,h,NA,458,NA,34597,42697,NA,458,NA,2,legacy,1024,2,48000,-16,experiment,SSHSS,1,odd,307158,35764,211441,NA,232095,1163,228592,NA,308189,1166,168743,NA,308291,308750,NA,308187,308291,Flanker Task,136,68624,140,1024
96,96,489,489,black,legacy,legacy,legacy,congruent ,0,undefined,0,h,140,0,0,0,140,0,140,0,140,0,0,0,140,140,NA,140,140,Fri Sep 15 10:55:48 2023,600,The main experiment item,TRUE,FlankerTask.osexp,C:\Users\Simone\Desktop,FALSE,mono,FALSE,18,no,white,no,no,768,legacy,60,79,C:/Users/Simone/Desktop/SD-subject-1.csv,legacy,Melodramatic Milgram,4.0.5,0,s,NA,s,s,NA,s,NA,434,NA,34597,42697,NA,434,NA,2,legacy,1024,2,48000,-16,experiment,HHHHH,1,odd,308754,35764,211441,NA,232095,1163,228592,NA,309784,1166,168743,NA,309885,310319,NA,309782,309885,Flanker Task,136,69058,141,1024
96,96,489,489,black,legacy,legacy,legacy,incongruent,1,undefined,1,s,141,0,0,0,141,0,141,0,141,0,0,0,141,141,NA,141,141,Fri Sep 15 10:55:48 2023,600,The main experiment item,TRUE,FlankerTask.osexp,C:\Users\Simone\Desktop,FALSE,mono,FALSE,18,no,white,no,no,768,legacy,61,79,C:/Users/Simone/Desktop/SD-subject-1.csv,legacy,Melodramatic Milgram,4.0.5,0,s,NA,s,s,NA,s,NA,412,NA,34597,42697,NA,412,NA,2,legacy,1024,2,48000,-16,experiment,HHSHH,1,odd,310825,35764,211441,NA,310323,1163,228592,NA,311851,1166,168743,NA,311952,312365,NA,311849,311952,Flanker Task,137,69470,142,1024
96,96,489,489,black,legacy,legacy,legacy,incongruent,1,undefined,1,s,142,0,0,0,142,0,142,0,142,0,0,0,142,142,NA,142,142,Fri Sep 15 10:55:48 2023,600,The main experiment item,TRUE,FlankerTask.osexp,C:\Users\Simone\Desktop,FALSE,mono,FALSE,18,no,white,no,no,768,legacy,62,79,C:/Users/Simone/Desktop/SD-subject-1.csv,legacy,Melodramatic Milgram,4.0.5,0,s,NA,s,s,NA,s,NA,514,NA,34597,42697,NA,514,NA,2,legacy,1024,2,48000,-16,experiment,HHSHH,1,odd,312370,35764,211441,NA,310323,1163,228592,NA,313415,1166,168743,NA,313517,314032,NA,313414,313517,Flanker Task,138,69984,143,1024
96,96,489,489,black,legacy,legacy,legacy,incongruent,1,undefined,1,h,143,0,0,0,143,0,143,0,143,0,0,0,143,143,NA,143,143,Fri Sep 15 10:55:48 2023,600,The main experiment item,TRUE,FlankerTask.osexp,C:\Users\Simone\Desktop,FALSE,mono,FALSE,18,no,white,no,no,768,legacy,63,79,C:/Users/Simone/Desktop/SD-subject-1.csv,legacy,Melodramatic Milgram,4.0.5,0,h,NA,s,s,NA,h,NA,438,NA,34597,42697,NA,438,NA,2,legacy,1024,2,48000,-16,experiment,SSHSS,1,odd,314037,35764,211441,NA,310323,1163,228592,NA,315063,1166,168743,NA,315164,315603,NA,315061,315164,Flanker Task,139,70422,144,1024
96,96,488,488,black,legacy,legacy,legacy,congruent ,1,undefined,1,h,144,0,0,0,144,0,144,0,144,0,0,0,144,144,NA,144,144,Fri Sep 15 10:55:48 2023,600,The main experiment item,TRUE,FlankerTask.osexp,C:\Users\Simone\Desktop,FALSE,mono,FALSE,18,no,white,no,no,768,legacy,64,79,C:/Users/Simone/Desktop/SD-subject-1.csv,legacy,Melodramatic Milgram,4.0.5,0,h,NA,s,s,NA,h,NA,402,NA,34597,42697,NA,402,NA,2,legacy,1024,2,48000,-16,experiment,HHHHH,1,odd,315607,35764,211441,NA,310323,1163,228592,NA,316647,1166,168743,NA,316748,317151,NA,316646,316748,Flanker Task,140,70824,145,1024
96,96,488,488,black,legacy,legacy,legacy,incongruent,1,undefined,1,h,145,0,0,0,145,0,145,0,145,0,0,0,145,145,NA,145,145,Fri Sep 15 10:55:48 2023,600,The main experiment item,TRUE,FlankerTask.osexp,C:\Users\Simone\Desktop,FALSE,mono,FALSE,18,no,white,no,no,768,legacy,65,79,C:/Users/Simone/Desktop/SD-subject-1.csv,legacy,Melodramatic Milgram,4.0.5,0,h,NA,s,s,NA,h,NA,468,NA,34597,42697,NA,468,NA,2,legacy,1024,2,48000,-16,experiment,SSHSS,1,odd,317155,35764,211441,NA,310323,1163,228592,NA,318185,1166,168743,NA,318286,318755,NA,318183,318286,Flanker Task,141,71292,146,1024
96,96,488,488,black,legacy,legacy,legacy,incongruent,1,undefined,1,s,146,0,0,0,146,0,146,0,146,0,0,0,146,146,NA,146,146,Fri Sep 15 10:55:48 2023,600,The main experiment item,TRUE,FlankerTask.osexp,C:\Users\Simone\Desktop,FALSE,mono,FALSE,18,no,white,no,no,768,legacy,66,79,C:/Users/Simone/Desktop/SD-subject-1.csv,legacy,Melodramatic Milgram,4.0.5,0,s,NA,s,s,NA,s,NA,575,NA,34597,42697,NA,575,NA,2,legacy,1024,2,48000,-16,experiment,HHSHH,1,odd,318759,35764,211441,NA,310323,1163,228592,NA,319789,1166,168743,NA,319890,320466,NA,319786,319890,Flanker Task,142,71867,147,1024
96,96,489,489,black,legacy,legacy,legacy,incongruent,1,undefined,1,h,147,0,0,0,147,0,147,0,147,0,0,0,147,147,NA,147,147,Fri Sep 15 10:55:48 2023,600,The main experiment item,TRUE,FlankerTask.osexp,C:\Users\Simone\Desktop,FALSE,mono,FALSE,18,no,white,no,no,768,legacy,67,79,C:/Users/Simone/Desktop/SD-subject-1.csv,legacy,Melodramatic Milgram,4.0.5,0,h,NA,s,s,NA,h,NA,573,NA,34597,42697,NA,573,NA,2,legacy,1024,2,48000,-16,experiment,SSHSS,1,odd,320468,35764,211441,NA,310323,1163,228592,NA,321499,1166,168743,NA,321600,322174,NA,321496,321600,Flanker Task,143,72440,148,1024
96,96,488,488,black,legacy,legacy,legacy,congruent ,1,undefined,1,s,148,0,0,0,148,0,148,0,148,0,0,0,148,148,NA,148,148,Fri Sep 15 10:55:48 2023,600,The main experiment item,TRUE,FlankerTask.osexp,C:\Users\Simone\Desktop,FALSE,mono,FALSE,18,no,white,no,no,768,legacy,68,79,C:/Users/Simone/Desktop/SD-subject-1.csv,legacy,Melodramatic Milgram,4.0.5,0,s,NA,s,s,NA,s,NA,405,NA,34597,42697,NA,405,NA,2,legacy,1024,2,48000,-16,experiment,SSSSS,1,odd,322179,35764,211441,NA,310323,1163,228592,NA,323211,1166,168743,NA,323312,323718,NA,323209,323312,Flanker Task,144,72845,149,1024
96,96,488,488,black,legacy,legacy,legacy,congruent ,1,undefined,1,h,149,0,0,0,149,0,149,0,149,0,0,0,149,149,NA,149,149,Fri Sep 15 10:55:48 2023,600,The main experiment item,TRUE,FlankerTask.osexp,C:\Users\Simone\Desktop,FALSE,mono,FALSE,18,no,white,no,no,768,legacy,69,79,C:/Users/Simone/Desktop/SD-subject-1.csv,legacy,Melodramatic Milgram,4.0.5,0,h,NA,s,s,NA,h,NA,384,NA,34597,42697,NA,384,NA,2,legacy,1024,2,48000,-16,experiment,HHHHH,1,odd,323721,35764,211441,NA,310323,1163,228592,NA,324756,1166,168743,NA,324857,325242,NA,324754,324857,Flanker Task,145,73229,150,1024
96,96,487,487,black,legacy,legacy,legacy,incongruent,1,undefined,1,s,150,0,0,0,150,0,150,0,150,0,0,0,150,150,NA,150,150,Fri Sep 15 10:55:48 2023,600,The main experiment item,TRUE,FlankerTask.osexp,C:\Users\Simone\Desktop,FALSE,mono,FALSE,18,no,white,no,no,768,legacy,70,79,C:/Users/Simone/Desktop/SD-subject-1.csv,legacy,Melodramatic Milgram,4.0.5,0,s,NA,s,s,NA,s,NA,388,NA,34597,42697,NA,388,NA,2,legacy,1024,2,48000,-16,experiment,HHSHH,1,odd,325246,35764,211441,NA,310323,1163,228592,NA,326284,1166,168743,NA,326385,326774,NA,326282,326385,Flanker Task,146,73617,151,1024
96,96,486,486,black,legacy,legacy,legacy,incongruent,1,undefined,1,h,151,0,0,0,151,0,151,0,151,0,0,0,151,151,NA,151,151,Fri Sep 15 10:55:48 2023,600,The main experiment item,TRUE,FlankerTask.osexp,C:\Users\Simone\Desktop,FALSE,mono,FALSE,18,no,white,no,no,768,legacy,71,79,C:/Users/Simone/Desktop/SD-subject-1.csv,legacy,Melodramatic Milgram,4.0.5,0,h,NA,s,s,NA,h,NA,394,NA,34597,42697,NA,394,NA,2,legacy,1024,2,48000,-16,experiment,SSHSS,1,odd,326778,35764,211441,NA,310323,1163,228592,NA,327808,1166,168743,NA,327909,328304,NA,327806,327909,Flanker Task,147,74011,152,1024
96,96,486,486,black,legacy,legacy,legacy,incongruent,0,undefined,0,h,152,0,0,0,152,0,152,0,152,0,0,0,152,152,NA,152,152,Fri Sep 15 10:55:48 2023,600,The main experiment item,TRUE,FlankerTask.osexp,C:\Users\Simone\Desktop,FALSE,mono,FALSE,18,no,white,no,no,768,legacy,72,79,C:/Users/Simone/Desktop/SD-subject-1.csv,legacy,Melodramatic Milgram,4.0.5,0,s,NA,s,s,NA,s,NA,405,NA,34597,42697,NA,405,NA,2,legacy,1024,2,48000,-16,experiment,SSHSS,1,odd,328310,35764,211441,NA,310323,1163,228592,NA,329341,1166,168743,NA,329442,329849,NA,329339,329442,Flanker Task,147,74416,153,1024
96,96,486,486,black,legacy,legacy,legacy,congruent ,1,undefined,1,s,153,0,0,0,153,0,153,0,153,0,0,0,153,153,NA,153,153,Fri Sep 15 10:55:48 2023,600,The main experiment item,TRUE,FlankerTask.osexp,C:\Users\Simone\Desktop,FALSE,mono,FALSE,18,no,white,no,no,768,legacy,73,79,C:/Users/Simone/Desktop/SD-subject-1.csv,legacy,Melodramatic Milgram,4.0.5,0,s,NA,s,s,NA,s,NA,449,NA,34597,42697,NA,449,NA,2,legacy,1024,2,48000,-16,experiment,SSSSS,1,odd,330354,35764,211441,NA,329853,1163,228592,NA,331397,1166,168743,NA,331498,331948,NA,331394,331498,Flanker Task,148,74865,154,1024
96,96,485,485,black,legacy,legacy,legacy,congruent ,1,undefined,1,h,154,0,0,0,154,0,154,0,154,0,0,0,154,154,NA,154,154,Fri Sep 15 10:55:48 2023,600,The main experiment item,TRUE,FlankerTask.osexp,C:\Users\Simone\Desktop,FALSE,mono,FALSE,18,no,white,no,no,768,legacy,74,79,C:/Users/Simone/Desktop/SD-subject-1.csv,legacy,Melodramatic Milgram,4.0.5,0,h,NA,s,s,NA,h,NA,435,NA,34597,42697,NA,435,NA,2,legacy,1024,2,48000,-16,experiment,HHHHH,1,odd,331950,35764,211441,NA,329853,1163,228592,NA,332980,1166,168743,NA,333081,333517,NA,332978,333081,Flanker Task,149,75300,155,1024
96,96,486,486,black,legacy,legacy,legacy,incongruent,1,undefined,1,s,155,0,0,0,155,0,155,0,155,0,0,0,155,155,NA,155,155,Fri Sep 15 10:55:48 2023,600,The main experiment item,TRUE,FlankerTask.osexp,C:\Users\Simone\Desktop,FALSE,mono,FALSE,18,no,white,no,no,768,legacy,75,79,C:/Users/Simone/Desktop/SD-subject-1.csv,legacy,Melodramatic Milgram,4.0.5,0,s,NA,s,s,NA,s,NA,527,NA,34597,42697,NA,527,NA,2,legacy,1024,2,48000,-16,experiment,HHSHH,1,odd,333519,35764,211441,NA,329853,1163,228592,NA,334551,1166,168743,NA,334652,335180,NA,334550,334652,Flanker Task,150,75827,156,1024
96,96,485,485,black,legacy,legacy,legacy,congruent ,1,undefined,1,s,156,0,0,0,156,0,156,0,156,0,0,0,156,156,NA,156,156,Fri Sep 15 10:55:48 2023,600,The main experiment item,TRUE,FlankerTask.osexp,C:\Users\Simone\Desktop,FALSE,mono,FALSE,18,no,white,no,no,768,legacy,76,79,C:/Users/Simone/Desktop/SD-subject-1.csv,legacy,Melodramatic Milgram,4.0.5,0,s,NA,s,s,NA,s,NA,473,NA,34597,42697,NA,473,NA,2,legacy,1024,2,48000,-16,experiment,SSSSS,1,odd,335184,35764,211441,NA,329853,1163,228592,NA,336215,1166,168743,NA,336316,336790,NA,336213,336316,Flanker Task,151,76300,157,1024
96,96,486,486,black,legacy,legacy,legacy,incongruent,1,undefined,1,h,157,0,0,0,157,0,157,0,157,0,0,0,157,157,NA,157,157,Fri Sep 15 10:55:48 2023,600,The main experiment item,TRUE,FlankerTask.osexp,C:\Users\Simone\Desktop,FALSE,mono,FALSE,18,no,white,no,no,768,legacy,77,79,C:/Users/Simone/Desktop/SD-subject-1.csv,legacy,Melodramatic Milgram,4.0.5,0,h,NA,s,s,NA,h,NA,566,NA,34597,42697,NA,566,NA,2,legacy,1024,2,48000,-16,experiment,SSHSS,1,odd,336794,35764,211441,NA,329853,1163,228592,NA,337821,1166,168743,NA,337922,338489,NA,337819,337922,Flanker Task,152,76866,158,1024
96,96,486,486,black,legacy,legacy,legacy,congruent ,1,undefined,1,s,158,0,0,0,158,0,158,0,158,0,0,0,158,158,NA,158,158,Fri Sep 15 10:55:48 2023,600,The main experiment item,TRUE,FlankerTask.osexp,C:\Users\Simone\Desktop,FALSE,mono,FALSE,18,no,white,no,no,768,legacy,78,79,C:/Users/Simone/Desktop/SD-subject-1.csv,legacy,Melodramatic Milgram,4.0.5,0,s,NA,s,s,NA,s,NA,422,NA,34597,42697,NA,422,NA,2,legacy,1024,2,48000,-16,experiment,SSSSS,1,odd,338493,35764,211441,NA,329853,1163,228592,NA,339530,1166,168743,NA,339631,340054,NA,339528,339631,Flanker Task,153,77288,159,1024
96,96,486,486,black,legacy,legacy,legacy,incongruent,1,undefined,1,s,159,0,0,0,159,0,159,0,159,0,0,0,159,159,NA,159,159,Fri Sep 15 10:55:48 2023,600,The main experiment item,TRUE,FlankerTask.osexp,C:\Users\Simone\Desktop,FALSE,mono,FALSE,18,no,white,no,no,768,legacy,79,79,C:/Users/Simone/Desktop/SD-subject-1.csv,legacy,Melodramatic Milgram,4.0.5,0,s,NA,s,s,NA,s,NA,517,NA,34597,42697,NA,517,NA,2,legacy,1024,2,48000,-16,experiment,HHSHH,1,odd,340057,35764,211441,NA,329853,1163,228592,NA,341087,1166,168743,NA,341188,341706,NA,341086,341188,Flanker Task,154,77805,160,1024
96,96,487,487,black,legacy,legacy,legacy,incongruent,1,undefined,1,s,160,0,0,0,160,0,160,0,160,0,0,0,160,160,NA,160,160,Fri Sep 15 10:55:48 2023,300,The main experiment item,TRUE,FlankerTask.osexp,C:\Users\Simone\Desktop,FALSE,mono,FALSE,18,no,white,no,no,768,legacy,0,79,C:/Users/Simone/Desktop/SD-subject-1.csv,legacy,Melodramatic Milgram,4.0.5,0,s,NA,s,s,s,s,NA,646,NA,34597,42697,12961,646,NA,2,legacy,1024,2,48000,-16,experiment,HHSHH,1,odd,341710,35764,211441,355673,329853,1163,228592,NA,355701,1166,168743,342711,355802,356450,NA,355700,355802,Flanker Task,155,78451,161,1024
96,96,486,486,black,legacy,legacy,legacy,congruent ,1,undefined,1,h,161,0,0,0,161,0,161,0,161,0,0,0,161,161,NA,161,161,Fri Sep 15 10:55:48 2023,300,The main experiment item,TRUE,FlankerTask.osexp,C:\Users\Simone\Desktop,FALSE,mono,FALSE,18,no,white,no,no,768,legacy,1,79,C:/Users/Simone/Desktop/SD-subject-1.csv,legacy,Melodramatic Milgram,4.0.5,0,h,NA,s,s,s,h,NA,384,NA,34597,42697,12961,384,NA,2,legacy,1024,2,48000,-16,experiment,HHHHH,1,odd,356955,35764,211441,355673,329853,1163,356454,NA,357980,1166,168743,342711,358081,358467,NA,357978,358081,Flanker Task,156,78835,162,1024
96,96,486,486,black,legacy,legacy,legacy,incongruent,1,undefined,1,s,162,0,0,0,162,0,162,0,162,0,0,0,162,162,NA,162,162,Fri Sep 15 10:55:48 2023,300,The main experiment item,TRUE,FlankerTask.osexp,C:\Users\Simone\Desktop,FALSE,mono,FALSE,18,no,white,no,no,768,legacy,2,79,C:/Users/Simone/Desktop/SD-subject-1.csv,legacy,Melodramatic Milgram,4.0.5,0,s,NA,s,s,s,s,NA,403,NA,34597,42697,12961,403,NA,2,legacy,1024,2,48000,-16,experiment,HHSHH,1,odd,358974,35764,211441,355673,329853,1163,358473,NA,360001,1166,168743,342711,360102,360506,NA,359999,360102,Flanker Task,157,79238,163,1024
96,96,486,486,black,legacy,legacy,legacy,incongruent,1,undefined,1,h,163,0,0,0,163,0,163,0,163,0,0,0,163,163,NA,163,163,Fri Sep 15 10:55:48 2023,300,The main experiment item,TRUE,FlankerTask.osexp,C:\Users\Simone\Desktop,FALSE,mono,FALSE,18,no,white,no,no,768,legacy,3,79,C:/Users/Simone/Desktop/SD-subject-1.csv,legacy,Melodramatic Milgram,4.0.5,0,h,NA,s,s,s,h,NA,470,NA,34597,42697,12961,470,NA,2,legacy,1024,2,48000,-16,experiment,SSHSS,1,odd,361011,35764,211441,355673,329853,1163,360510,NA,362037,1166,168743,342711,362138,362609,NA,362035,362138,Flanker Task,158,79708,164,1024
96,96,485,485,black,legacy,legacy,legacy,incongruent,1,undefined,1,h,164,0,0,0,164,0,164,0,164,0,0,0,164,164,NA,164,164,Fri Sep 15 10:55:48 2023,300,The main experiment item,TRUE,FlankerTask.osexp,C:\Users\Simone\Desktop,FALSE,mono,FALSE,18,no,white,no,no,768,legacy,4,79,C:/Users/Simone/Desktop/SD-subject-1.csv,legacy,Melodramatic Milgram,4.0.5,0,h,NA,s,s,s,h,NA,458,NA,34597,42697,12961,458,NA,2,legacy,1024,2,48000,-16,experiment,SSHSS,1,odd,363114,35764,211441,355673,329853,1163,362613,NA,364138,1166,168743,342711,364239,364697,NA,364136,364239,Flanker Task,159,80166,165,1024
95,95,485,485,black,legacy,legacy,legacy,incongruent,0,undefined,0,h,165,0,0,0,165,0,165,0,165,0,0,0,165,165,NA,165,165,Fri Sep 15 10:55:48 2023,300,The main experiment item,TRUE,FlankerTask.osexp,C:\Users\Simone\Desktop,FALSE,mono,FALSE,18,no,white,no,no,768,legacy,5,79,C:/Users/Simone/Desktop/SD-subject-1.csv,legacy,Melodramatic Milgram,4.0.5,0,s,NA,s,s,s,s,NA,402,NA,34597,42697,12961,402,NA,2,legacy,1024,2,48000,-16,experiment,SSHSS,1,odd,365203,35764,211441,355673,329853,1163,364701,NA,366228,1166,168743,342711,366330,366734,NA,366227,366330,Flanker Task,159,80568,166,1024
95,95,485,485,black,legacy,legacy,legacy,congruent ,1,undefined,1,s,166,0,0,0,166,0,166,0,166,0,0,0,166,166,NA,166,166,Fri Sep 15 10:55:48 2023,300,The main experiment item,TRUE,FlankerTask.osexp,C:\Users\Simone\Desktop,FALSE,mono,FALSE,18,no,white,no,no,768,legacy,6,79,C:/Users/Simone/Desktop/SD-subject-1.csv,legacy,Melodramatic Milgram,4.0.5,0,s,NA,s,s,s,s,NA,444,NA,34597,42697,12961,444,NA,2,legacy,1024,2,48000,-16,experiment,SSSSS,1,odd,367740,35764,211441,355673,366738,1163,367239,NA,368766,1166,168743,342711,368867,369312,NA,368764,368867,Flanker Task,160,81012,167,1024
95,95,483,483,black,legacy,legacy,legacy,incongruent,1,undefined,1,h,167,0,0,0,167,0,167,0,167,0,0,0,167,167,NA,167,167,Fri Sep 15 10:55:48 2023,300,The main experiment item,TRUE,FlankerTask.osexp,C:\Users\Simone\Desktop,FALSE,mono,FALSE,18,no,white,no,no,768,legacy,7,79,C:/Users/Simone/Desktop/SD-subject-1.csv,legacy,Melodramatic Milgram,4.0.5,0,h,NA,s,s,s,h,NA,266,NA,34597,42697,12961,266,NA,2,legacy,1024,2,48000,-16,experiment,SSHSS,1,odd,369822,35764,211441,355673,366738,1163,369321,NA,370847,1166,168743,342711,370948,371215,NA,370845,370948,Flanker Task,161,81278,168,1024
95,95,482,482,black,legacy,legacy,legacy,congruent ,1,undefined,1,s,168,0,0,0,168,0,168,0,168,0,0,0,168,168,NA,168,168,Fri Sep 15 10:55:48 2023,300,The main experiment item,TRUE,FlankerTask.osexp,C:\Users\Simone\Desktop,FALSE,mono,FALSE,18,no,white,no,no,768,legacy,8,79,C:/Users/Simone/Desktop/SD-subject-1.csv,legacy,Melodramatic Milgram,4.0.5,0,s,NA,s,s,s,s,NA,327,NA,34597,42697,12961,327,NA,2,legacy,1024,2,48000,-16,experiment,SSSSS,1,odd,371219,35764,211441,355673,366738,1163,369321,NA,372252,1166,168743,342711,372358,372686,NA,372250,372358,Flanker Task,162,81605,169,1024
95,95,481,481,black,legacy,legacy,legacy,incongruent,1,undefined,1,h,169,0,0,0,169,0,169,0,169,0,0,0,169,169,NA,169,169,Fri Sep 15 10:55:48 2023,300,The main experiment item,TRUE,FlankerTask.osexp,C:\Users\Simone\Desktop,FALSE,mono,FALSE,18,no,white,no,no,768,legacy,9,79,C:/Users/Simone/Desktop/SD-subject-1.csv,legacy,Melodramatic Milgram,4.0.5,0,h,NA,s,s,s,h,NA,320,NA,34597,42697,12961,320,NA,2,legacy,1024,2,48000,-16,experiment,SSHSS,1,odd,373191,35764,211441,355673,366738,1163,372690,NA,374217,1166,168743,342711,374318,374639,NA,374215,374318,Flanker Task,163,81925,170,1024
95,95,481,481,black,legacy,legacy,legacy,incongruent,1,undefined,1,s,170,0,0,0,170,0,170,0,170,0,0,0,170,170,NA,170,170,Fri Sep 15 10:55:48 2023,300,The main experiment item,TRUE,FlankerTask.osexp,C:\Users\Simone\Desktop,FALSE,mono,FALSE,18,no,white,no,no,768,legacy,10,79,C:/Users/Simone/Desktop/SD-subject-1.csv,legacy,Melodramatic Milgram,4.0.5,0,s,NA,s,s,s,s,NA,358,NA,34597,42697,12961,358,NA,2,legacy,1024,2,48000,-16,experiment,HHSHH,1,odd,375144,35764,211441,355673,366738,1163,374643,NA,376168,1166,168743,342711,376269,376628,NA,376167,376269,Flanker Task,164,82283,171,1024
95,95,480,480,black,legacy,legacy,legacy,congruent ,1,undefined,1,h,171,0,0,0,171,0,171,0,171,0,0,0,171,171,NA,171,171,Fri Sep 15 10:55:48 2023,300,The main experiment item,TRUE,FlankerTask.osexp,C:\Users\Simone\Desktop,FALSE,mono,FALSE,18,no,white,no,no,768,legacy,11,79,C:/Users/Simone/Desktop/SD-subject-1.csv,legacy,Melodramatic Milgram,4.0.5,0,h,NA,s,s,s,h,NA,364,NA,34597,42697,12961,364,NA,2,legacy,1024,2,48000,-16,experiment,HHHHH,1,odd,377134,35764,211441,355673,366738,1163,376633,NA,378158,1166,168743,342711,378259,378624,NA,378156,378259,Flanker Task,165,82647,172,1024
95,95,478,478,black,legacy,legacy,legacy,incongruent,1,undefined,1,s,172,0,0,0,172,0,172,0,172,0,0,0,172,172,NA,172,172,Fri Sep 15 10:55:48 2023,300,The main experiment item,TRUE,FlankerTask.osexp,C:\Users\Simone\Desktop,FALSE,mono,FALSE,18,no,white,no,no,768,legacy,12,79,C:/Users/Simone/Desktop/SD-subject-1.csv,legacy,Melodramatic Milgram,4.0.5,0,s,NA,s,s,s,s,NA,101,NA,34597,42697,12961,101,NA,2,legacy,1024,2,48000,-16,experiment,HHSHH,1,odd,379129,35764,211441,355673,366738,1163,378628,NA,380155,1166,168743,342711,380256,380358,NA,380153,380256,Flanker Task,166,82748,173,1024
95,95,477,477,black,legacy,legacy,legacy,congruent ,1,undefined,1,s,173,0,0,0,173,0,173,0,173,0,0,0,173,173,NA,173,173,Fri Sep 15 10:55:48 2023,300,The main experiment item,TRUE,FlankerTask.osexp,C:\Users\Simone\Desktop,FALSE,mono,FALSE,18,no,white,no,no,768,legacy,13,79,C:/Users/Simone/Desktop/SD-subject-1.csv,legacy,Melodramatic Milgram,4.0.5,0,s,NA,s,s,s,s,NA,421,NA,34597,42697,12961,421,NA,2,legacy,1024,2,48000,-16,experiment,SSSSS,1,odd,380362,35764,211441,355673,366738,1163,378628,NA,381390,1166,168743,342711,381495,381917,NA,381389,381495,Flanker Task,167,83169,174,1024
96,96,475,475,black,legacy,legacy,legacy,congruent ,1,undefined,1,h,174,0,0,0,174,0,174,0,174,0,0,0,174,174,NA,174,174,Fri Sep 15 10:55:48 2023,300,The main experiment item,TRUE,FlankerTask.osexp,C:\Users\Simone\Desktop,FALSE,mono,FALSE,18,no,white,no,no,768,legacy,14,79,C:/Users/Simone/Desktop/SD-subject-1.csv,legacy,Melodramatic Milgram,4.0.5,0,h,NA,s,s,s,h,NA,126,NA,34597,42697,12961,126,NA,2,legacy,1024,2,48000,-16,experiment,HHHHH,1,odd,382423,35764,211441,355673,366738,1163,381922,NA,383450,1166,168743,342711,383551,383678,NA,383448,383551,Flanker Task,168,83295,175,1024
