"acc","accuracy","average_response_time","avg_rt","background","canvas_backend","clock_backend","color_backend","compensation","condition","coordinates","correct","correct_Intructions1","correct_KeyboardResponse","correct_response","count_Block1","count_Block2","count_Block3","count_ErrorFeedback","count_Faster","count_Finish","count_Fixation","count_ISI","count_Instruction3","count_Instructions2","count_Intructions1","count_KeyboardResponse","count_Logger","count_Sequence","count_Stimulus","count_experiment","datetime","deadline","description","disable_garbage_collection","experiment_file","experiment_path","font_bold","font_family","font_italic","font_size","font_underline","foreground","form_clicks","fullscreen","height","keyboard_backend","live_row","live_row_Block1","logfile","mouse_backend","opensesame_codename","opensesame_version","repeat_cycle","response","response_Finish","response_Instruction3","response_Instructions2","response_Intructions1","response_KeyboardResponse","response_time","response_time_Finish","response_time_Instruction3","response_time_Instructions2","response_time_Intructions1","response_time_KeyboardResponse","round_decimals","sampler_backend","sound_buf_size","sound_channels","sound_freq","sound_sample_size","start","stimulus","subject_nr","subject_parity","time_Block1","time_Block2","time_Block3","time_ErrorFeedback","time_Faster","time_Finish","time_Fixation","time_ISI","time_Instruction3","time_Instructions2","time_Intructions1","time_KeyboardResponse","time_Logger","time_Sequence","time_Stimulus","time_experiment","title","total_correct","total_response_time","total_responses","uniform_coordinates","width"
"100","100","727","727","black","legacy","legacy","legacy","0","Incongruent","uniform","1","undefined","1","h","0","0","0","0","0","0","0","0","0","0","0","0","0","0","0","0","Fri Sep 16 15:59:59 2022","1500","The main experiment item","yes","Lab21FlankerTask.osexp","/Users/alexisparrish/Desktop","no","mono","no","18","no","white","no","yes","768","legacy","0","0","/Users/alexisparrish/Desktop/ap-subject-1.csv","legacy","Lentiform Loewenfeld","3.3.12","0","h","NA","NA","NA","s","h","727","NA","NA","NA","1769","727","2","legacy","1024","2","48000","-16","experiment","SSHSS","1","odd","5713","NA","NA","NA","NA","NA","5764","NA","NA","NA","3938","5869","6597","5759","5869","3927","Lab 2.1: Flanker Task","1","727","1","yes","1024"
"100","100","677","677","black","legacy","legacy","legacy","0","Incongruent","uniform","1","undefined","1","h","0","0","0","1","1","0","1","1","0","0","0","1","1","1","1","0","Fri Sep 16 15:59:59 2022","1500","The main experiment item","yes","Lab21FlankerTask.osexp","/Users/alexisparrish/Desktop","no","mono","no","18","no","white","no","yes","768","legacy","1","1","/Users/alexisparrish/Desktop/ap-subject-1.csv","legacy","Lentiform Loewenfeld","3.3.12","0","h","NA","NA","NA","s","h","627","NA","NA","NA","1769","627","2","legacy","1024","2","48000","-16","experiment","SSHSS","1","odd","5713","NA","NA","NA","NA","NA","7674","6610","NA","NA","3938","7778","8409","7669","7778","3927","Lab 2.1: Flanker Task","2","1354","2","yes","1024"
"100","100","619.3333333333334","619.3333333333334","black","legacy","legacy","legacy","0","Incongruent","uniform","1","undefined","1","h","0","0","0","2","2","0","2","2","0","0","0","2","2","2","2","0","Fri Sep 16 15:59:59 2022","1500","The main experiment item","yes","Lab21FlankerTask.osexp","/Users/alexisparrish/Desktop","no","mono","no","18","no","white","no","yes","768","legacy","2","2","/Users/alexisparrish/Desktop/ap-subject-1.csv","legacy","Lentiform Loewenfeld","3.3.12","0","h","NA","NA","NA","s","h","504","NA","NA","NA","1769","504","2","legacy","1024","2","48000","-16","experiment","SSHSS","1","odd","5713","NA","NA","NA","NA","NA","9478","8420","NA","NA","3938","9582","10087","9473","9582","3927","Lab 2.1: Flanker Task","3","1858","3","yes","1024"
"100","100","603","603","black","legacy","legacy","legacy","0","Congruent","uniform","1","undefined","1","s","0","0","0","3","3","0","3","3","0","0","0","3","3","3","3","0","Fri Sep 16 15:59:59 2022","1500","The main experiment item","yes","Lab21FlankerTask.osexp","/Users/alexisparrish/Desktop","no","mono","no","18","no","white","no","yes","768","legacy","3","3","/Users/alexisparrish/Desktop/ap-subject-1.csv","legacy","Lentiform Loewenfeld","3.3.12","0","s","NA","NA","NA","s","s","554","NA","NA","NA","1769","554","2","legacy","1024","2","48000","-16","experiment","SSSSS","1","odd","5713","NA","NA","NA","NA","NA","11153","10097","NA","NA","3938","11258","11813","11149","11258","3927","Lab 2.1: Flanker Task","4","2412","4","yes","1024"
"100","100","555.6","555.6","black","legacy","legacy","legacy","0","Congruent","uniform","1","undefined","1","s","0","0","0","4","4","0","4","4","0","0","0","4","4","4","4","0","Fri Sep 16 15:59:59 2022","1500","The main experiment item","yes","Lab21FlankerTask.osexp","/Users/alexisparrish/Desktop","no","mono","no","18","no","white","no","yes","768","legacy","4","4","/Users/alexisparrish/Desktop/ap-subject-1.csv","legacy","Lentiform Loewenfeld","3.3.12","0","s","NA","NA","NA","s","s","366","NA","NA","NA","1769","366","2","legacy","1024","2","48000","-16","experiment","SSSSS","1","odd","5713","NA","NA","NA","NA","NA","12879","11823","NA","NA","3938","12983","13350","12874","12983","3927","Lab 2.1: Flanker Task","5","2778","5","yes","1024"
"100","100","535.6666666666666","535.6666666666666","black","legacy","legacy","legacy","0","Congruent","uniform","1","undefined","1","h","0","0","0","5","5","0","5","5","0","0","0","5","5","5","5","0","Fri Sep 16 15:59:59 2022","1500","The main experiment item","yes","Lab21FlankerTask.osexp","/Users/alexisparrish/Desktop","no","mono","no","18","no","white","no","yes","768","legacy","5","5","/Users/alexisparrish/Desktop/ap-subject-1.csv","legacy","Lentiform Loewenfeld","3.3.12","0","h","NA","NA","NA","s","h","436","NA","NA","NA","1769","436","2","legacy","1024","2","48000","-16","experiment","HHHHH","1","odd","5713","NA","NA","NA","NA","NA","14417","13361","NA","NA","3938","14521","14957","14412","14521","3927","Lab 2.1: Flanker Task","6","3214","6","yes","1024"
"100","100","521.2857142857143","521.2857142857143","black","legacy","legacy","legacy","0","Congruent","uniform","1","undefined","1","h","0","0","0","6","6","0","6","6","0","0","0","6","6","6","6","0","Fri Sep 16 15:59:59 2022","1500","The main experiment item","yes","Lab21FlankerTask.osexp","/Users/alexisparrish/Desktop","no","mono","no","18","no","white","no","yes","768","legacy","6","6","/Users/alexisparrish/Desktop/ap-subject-1.csv","legacy","Lentiform Loewenfeld","3.3.12","0","h","NA","NA","NA","s","h","435","NA","NA","NA","1769","435","2","legacy","1024","2","48000","-16","experiment","HHHHH","1","odd","5713","NA","NA","NA","NA","NA","16025","14969","NA","NA","3938","16130","16565","16021","16130","3927","Lab 2.1: Flanker Task","7","3649","7","yes","1024"
"100","100","528.625","528.625","black","legacy","legacy","legacy","0","Congruent","uniform","1","undefined","1","s","0","0","0","7","7","0","7","7","0","0","0","7","7","7","7","0","Fri Sep 16 15:59:59 2022","1500","The main experiment item","yes","Lab21FlankerTask.osexp","/Users/alexisparrish/Desktop","no","mono","no","18","no","white","no","yes","768","legacy","7","7","/Users/alexisparrish/Desktop/ap-subject-1.csv","legacy","Lentiform Loewenfeld","3.3.12","0","s","NA","NA","NA","s","s","580","NA","NA","NA","1769","580","2","legacy","1024","2","48000","-16","experiment","SSSSS","1","odd","5713","NA","NA","NA","NA","NA","17631","16576","NA","NA","3938","17736","18316","17627","17736","3927","Lab 2.1: Flanker Task","8","4229","8","yes","1024"
"100","100","522.3333333333334","522.3333333333334","black","legacy","legacy","legacy","0","Incongruent","uniform","1","undefined","1","h","0","0","0","8","8","0","8","8","0","0","0","8","8","8","8","0","Fri Sep 16 15:59:59 2022","1500","The main experiment item","yes","Lab21FlankerTask.osexp","/Users/alexisparrish/Desktop","no","mono","no","18","no","white","no","yes","768","legacy","8","8","/Users/alexisparrish/Desktop/ap-subject-1.csv","legacy","Lentiform Loewenfeld","3.3.12","0","h","NA","NA","NA","s","h","472","NA","NA","NA","1769","472","2","legacy","1024","2","48000","-16","experiment","SSHSS","1","odd","5713","NA","NA","NA","NA","NA","19384","18328","NA","NA","3938","19488","19960","19380","19488","3927","Lab 2.1: Flanker Task","9","4701","9","yes","1024"
"100","100","535.4","535.4","black","legacy","legacy","legacy","0","Incongruent","uniform","1","undefined","1","s","0","0","0","9","9","0","9","9","0","0","0","9","9","9","9","0","Fri Sep 16 15:59:59 2022","1500","The main experiment item","yes","Lab21FlankerTask.osexp","/Users/alexisparrish/Desktop","no","mono","no","18","no","white","no","yes","768","legacy","9","9","/Users/alexisparrish/Desktop/ap-subject-1.csv","legacy","Lentiform Loewenfeld","3.3.12","0","s","NA","NA","NA","s","s","653","NA","NA","NA","1769","653","2","legacy","1024","2","48000","-16","experiment","HHSHH","1","odd","5713","NA","NA","NA","NA","NA","21030","19971","NA","NA","3938","21134","21787","21025","21134","3927","Lab 2.1: Flanker Task","10","5354","10","yes","1024"
"100","100","532.7272727272727","532.7272727272727","black","legacy","legacy","legacy","0","Incongruent","uniform","1","undefined","1","h","0","0","0","10","10","0","10","10","0","0","0","10","10","10","10","0","Fri Sep 16 15:59:59 2022","1500","The main experiment item","yes","Lab21FlankerTask.osexp","/Users/alexisparrish/Desktop","no","mono","no","18","no","white","no","yes","768","legacy","10","10","/Users/alexisparrish/Desktop/ap-subject-1.csv","legacy","Lentiform Loewenfeld","3.3.12","0","h","NA","NA","NA","s","h","506","NA","NA","NA","1769","506","2","legacy","1024","2","48000","-16","experiment","SSHSS","1","odd","5713","NA","NA","NA","NA","NA","22854","21797","NA","NA","3938","22958","23464","22850","22958","3927","Lab 2.1: Flanker Task","11","5860","11","yes","1024"
"100","100","526.5833333333334","526.5833333333334","black","legacy","legacy","legacy","0","Congruent","uniform","1","undefined","1","s","0","0","0","11","11","0","11","11","0","0","0","11","11","11","11","0","Fri Sep 16 15:59:59 2022","1500","The main experiment item","yes","Lab21FlankerTask.osexp","/Users/alexisparrish/Desktop","no","mono","no","18","no","white","no","yes","768","legacy","11","11","/Users/alexisparrish/Desktop/ap-subject-1.csv","legacy","Lentiform Loewenfeld","3.3.12","0","s","NA","NA","NA","s","s","459","NA","NA","NA","1769","459","2","legacy","1024","2","48000","-16","experiment","SSSSS","1","odd","5713","NA","NA","NA","NA","NA","24531","23476","NA","NA","3938","24636","25096","24527","24636","3927","Lab 2.1: Flanker Task","12","6319","12","yes","1024"
"100","100","523.5384615384615","523.5384615384615","black","legacy","legacy","legacy","0","Incongruent","uniform","1","undefined","1","h","0","0","0","12","12","0","12","12","0","0","0","12","12","12","12","0","Fri Sep 16 15:59:59 2022","1500","The main experiment item","yes","Lab21FlankerTask.osexp","/Users/alexisparrish/Desktop","no","mono","no","18","no","white","no","yes","768","legacy","12","12","/Users/alexisparrish/Desktop/ap-subject-1.csv","legacy","Lentiform Loewenfeld","3.3.12","0","h","NA","NA","NA","s","h","487","NA","NA","NA","1769","487","2","legacy","1024","2","48000","-16","experiment","SSHSS","1","odd","5713","NA","NA","NA","NA","NA","26164","25108","NA","NA","3938","26268","26756","26159","26268","3927","Lab 2.1: Flanker Task","13","6806","13","yes","1024"
"100","100","515.5714285714286","515.5714285714286","black","legacy","legacy","legacy","0","Incongruent","uniform","1","undefined","1","s","0","0","0","13","13","0","13","13","0","0","0","13","13","13","13","0","Fri Sep 16 15:59:59 2022","1500","The main experiment item","yes","Lab21FlankerTask.osexp","/Users/alexisparrish/Desktop","no","mono","no","18","no","white","no","yes","768","legacy","13","13","/Users/alexisparrish/Desktop/ap-subject-1.csv","legacy","Lentiform Loewenfeld","3.3.12","0","s","NA","NA","NA","s","s","412","NA","NA","NA","1769","412","2","legacy","1024","2","48000","-16","experiment","HHSHH","1","odd","5713","NA","NA","NA","NA","NA","27825","26767","NA","NA","3938","27929","28342","27820","27929","3927","Lab 2.1: Flanker Task","14","7218","14","yes","1024"
"100","100","530.3333333333334","530.3333333333334","black","legacy","legacy","legacy","0","Congruent","uniform","1","undefined","1","s","0","0","0","14","14","0","14","14","0","0","0","14","14","14","14","0","Fri Sep 16 15:59:59 2022","1500","The main experiment item","yes","Lab21FlankerTask.osexp","/Users/alexisparrish/Desktop","no","mono","no","18","no","white","no","yes","768","legacy","14","14","/Users/alexisparrish/Desktop/ap-subject-1.csv","legacy","Lentiform Loewenfeld","3.3.12","0","s","NA","NA","NA","s","s","737","NA","NA","NA","1769","737","2","legacy","1024","2","48000","-16","experiment","SSSSS","1","odd","5713","NA","NA","NA","NA","NA","29410","28353","NA","NA","3938","29514","30252","29406","29514","3927","Lab 2.1: Flanker Task","15","7955","15","yes","1024"
"100","100","523.3125","523.3125","black","legacy","legacy","legacy","0","Congruent","uniform","1","undefined","1","h","0","0","0","15","15","0","15","15","0","0","0","15","15","15","15","0","Fri Sep 16 15:59:59 2022","1500","The main experiment item","yes","Lab21FlankerTask.osexp","/Users/alexisparrish/Desktop","no","mono","no","18","no","white","no","yes","768","legacy","15","15","/Users/alexisparrish/Desktop/ap-subject-1.csv","legacy","Lentiform Loewenfeld","3.3.12","0","h","NA","NA","NA","s","h","418","NA","NA","NA","1769","418","2","legacy","1024","2","48000","-16","experiment","HHHHH","1","odd","5713","NA","NA","NA","NA","NA","31317","30262","NA","NA","3938","31422","31841","31313","31422","3927","Lab 2.1: Flanker Task","16","8373","16","yes","1024"
"100","100","517.7058823529412","517.7058823529412","black","legacy","legacy","legacy","0","Congruent","uniform","1","undefined","1","s","0","0","0","16","16","0","16","16","0","0","0","16","16","16","16","0","Fri Sep 16 15:59:59 2022","1500","The main experiment item","yes","Lab21FlankerTask.osexp","/Users/alexisparrish/Desktop","no","mono","no","18","no","white","no","yes","768","legacy","16","16","/Users/alexisparrish/Desktop/ap-subject-1.csv","legacy","Lentiform Loewenfeld","3.3.12","0","s","NA","NA","NA","s","s","428","NA","NA","NA","1769","428","2","legacy","1024","2","48000","-16","experiment","SSSSS","1","odd","5713","NA","NA","NA","NA","NA","32908","31851","NA","NA","3938","33012","33441","32903","33012","3927","Lab 2.1: Flanker Task","17","8801","17","yes","1024"
"100","100","516.8333333333334","516.8333333333334","black","legacy","legacy","legacy","0","Incongruent","uniform","1","undefined","1","s","0","0","0","17","17","0","17","17","0","0","0","17","17","17","17","0","Fri Sep 16 15:59:59 2022","1500","The main experiment item","yes","Lab21FlankerTask.osexp","/Users/alexisparrish/Desktop","no","mono","no","18","no","white","no","yes","768","legacy","17","17","/Users/alexisparrish/Desktop/ap-subject-1.csv","legacy","Lentiform Loewenfeld","3.3.12","0","s","NA","NA","NA","s","s","502","NA","NA","NA","1769","502","2","legacy","1024","2","48000","-16","experiment","HHSHH","1","odd","5713","NA","NA","NA","NA","NA","34509","33451","NA","NA","3938","34613","35116","34505","34613","3927","Lab 2.1: Flanker Task","18","9303","18","yes","1024"
"100","100","512.2631578947369","512.2631578947369","black","legacy","legacy","legacy","0","Congruent","uniform","1","undefined","1","s","0","0","0","18","18","0","18","18","0","0","0","18","18","18","18","0","Fri Sep 16 15:59:59 2022","1500","The main experiment item","yes","Lab21FlankerTask.osexp","/Users/alexisparrish/Desktop","no","mono","no","18","no","white","no","yes","768","legacy","18","18","/Users/alexisparrish/Desktop/ap-subject-1.csv","legacy","Lentiform Loewenfeld","3.3.12","0","s","NA","NA","NA","s","s","430","NA","NA","NA","1769","430","2","legacy","1024","2","48000","-16","experiment","SSSSS","1","odd","5713","NA","NA","NA","NA","NA","36181","35123","NA","NA","3938","36285","36716","36176","36285","3927","Lab 2.1: Flanker Task","19","9733","19","yes","1024"
"100","100","506.65","506.65","black","legacy","legacy","legacy","0","Congruent","uniform","1","undefined","1","h","0","0","0","19","19","0","19","19","0","0","0","19","19","19","19","0","Fri Sep 16 15:59:59 2022","1500","The main experiment item","yes","Lab21FlankerTask.osexp","/Users/alexisparrish/Desktop","no","mono","no","18","no","white","no","yes","768","legacy","19","19","/Users/alexisparrish/Desktop/ap-subject-1.csv","legacy","Lentiform Loewenfeld","3.3.12","0","h","NA","NA","NA","s","h","400","NA","NA","NA","1769","400","2","legacy","1024","2","48000","-16","experiment","HHHHH","1","odd","5713","NA","NA","NA","NA","NA","37782","36726","NA","NA","3938","37886","38287","37777","37886","3927","Lab 2.1: Flanker Task","20","10133","20","yes","1024"
"100","100","504.04761904761904","504.04761904761904","black","legacy","legacy","legacy","0","Congruent","uniform","1","undefined","1","h","0","0","0","20","20","0","20","20","0","0","0","20","20","20","20","0","Fri Sep 16 15:59:59 2022","1500","The main experiment item","yes","Lab21FlankerTask.osexp","/Users/alexisparrish/Desktop","no","mono","no","18","no","white","no","yes","768","legacy","20","20","/Users/alexisparrish/Desktop/ap-subject-1.csv","legacy","Lentiform Loewenfeld","3.3.12","0","h","NA","NA","NA","s","h","452","NA","NA","NA","1769","452","2","legacy","1024","2","48000","-16","experiment","HHHHH","1","odd","5713","NA","NA","NA","NA","NA","39355","38299","NA","NA","3938","39459","39912","39350","39459","3927","Lab 2.1: Flanker Task","21","10585","21","yes","1024"
"95.45454545454545","95.45454545454545","500.95454545454544","500.95454545454544","black","legacy","legacy","legacy","0","Incongruent","uniform","0","undefined","0","h","0","0","0","21","21","0","21","21","0","0","0","21","21","21","21","0","Fri Sep 16 15:59:59 2022","1500","The main experiment item","yes","Lab21FlankerTask.osexp","/Users/alexisparrish/Desktop","no","mono","no","18","no","white","no","yes","768","legacy","21","21","/Users/alexisparrish/Desktop/ap-subject-1.csv","legacy","Lentiform Loewenfeld","3.3.12","0","s","NA","NA","NA","s","s","436","NA","NA","NA","1769","436","2","legacy","1024","2","48000","-16","experiment","SSHSS","1","odd","5713","NA","NA","NA","NA","NA","40979","39924","NA","NA","3938","41083","41520","40975","41083","3927","Lab 2.1: Flanker Task","21","11021","22","yes","1024"
"95.65217391304348","95.65217391304348","502.6521739130435","502.6521739130435","black","legacy","legacy","legacy","0","Incongruent","uniform","1","undefined","1","s","0","0","0","22","22","0","22","22","0","0","0","22","22","22","22","0","Fri Sep 16 15:59:59 2022","1500","The main experiment item","yes","Lab21FlankerTask.osexp","/Users/alexisparrish/Desktop","no","mono","no","18","no","white","no","yes","768","legacy","22","22","/Users/alexisparrish/Desktop/ap-subject-1.csv","legacy","Lentiform Loewenfeld","3.3.12","0","s","NA","NA","NA","s","s","540","NA","NA","NA","1769","540","2","legacy","1024","2","48000","-16","experiment","HHSHH","1","odd","5713","NA","NA","41531","NA","NA","43091","42035","NA","NA","3938","43195","43736","43087","43195","3927","Lab 2.1: Flanker Task","22","11561","23","yes","1024"
"91.66666666666667","91.66666666666667","501.2916666666667","501.2916666666667","black","legacy","legacy","legacy","0","Incongruent","uniform","0","undefined","0","s","0","0","0","23","23","0","23","23","0","0","0","23","23","23","23","0","Fri Sep 16 15:59:59 2022","1500","The main experiment item","yes","Lab21FlankerTask.osexp","/Users/alexisparrish/Desktop","no","mono","no","18","no","white","no","yes","768","legacy","23","23","/Users/alexisparrish/Desktop/ap-subject-1.csv","legacy","Lentiform Loewenfeld","3.3.12","0","h","NA","NA","NA","s","h","470","NA","NA","NA","1769","470","2","legacy","1024","2","48000","-16","experiment","HHSHH","1","odd","5713","NA","NA","41531","NA","NA","44803","43746","NA","NA","3938","44907","45378","44798","44907","3927","Lab 2.1: Flanker Task","22","12031","24","yes","1024"
"92","92","500.48","500.48","black","legacy","legacy","legacy","0","Congruent","uniform","1","undefined","1","s","0","0","0","24","24","0","24","24","0","0","0","24","24","24","24","0","Fri Sep 16 15:59:59 2022","1500","The main experiment item","yes","Lab21FlankerTask.osexp","/Users/alexisparrish/Desktop","no","mono","no","18","no","white","no","yes","768","legacy","24","24","/Users/alexisparrish/Desktop/ap-subject-1.csv","legacy","Lentiform Loewenfeld","3.3.12","0","s","NA","NA","NA","s","s","481","NA","NA","NA","1769","481","2","legacy","1024","2","48000","-16","experiment","SSSSS","1","odd","5713","NA","NA","45388","NA","NA","46949","45892","NA","NA","3938","47053","47535","46944","47053","3927","Lab 2.1: Flanker Task","23","12512","25","yes","1024"
"92.3076923076923","92.3076923076923","498.88461538461536","498.88461538461536","black","legacy","legacy","legacy","0","Incongruent","uniform","1","undefined","1","s","0","0","0","25","25","0","25","25","0","0","0","25","25","25","25","0","Fri Sep 16 15:59:59 2022","1500","The main experiment item","yes","Lab21FlankerTask.osexp","/Users/alexisparrish/Desktop","no","mono","no","18","no","white","no","yes","768","legacy","25","25","/Users/alexisparrish/Desktop/ap-subject-1.csv","legacy","Lentiform Loewenfeld","3.3.12","0","s","NA","NA","NA","s","s","459","NA","NA","NA","1769","459","2","legacy","1024","2","48000","-16","experiment","HHSHH","1","odd","5713","NA","NA","45388","NA","NA","48601","47545","NA","NA","3938","48705","49165","48597","48705","3927","Lab 2.1: Flanker Task","24","12971","26","yes","1024"
"92.5925925925926","92.5925925925926","499.14814814814815","499.14814814814815","black","legacy","legacy","legacy","0","Incongruent","uniform","1","undefined","1","s","0","0","0","26","26","0","26","26","0","0","0","26","26","26","26","0","Fri Sep 16 15:59:59 2022","1500","The main experiment item","yes","Lab21FlankerTask.osexp","/Users/alexisparrish/Desktop","no","mono","no","18","no","white","no","yes","768","legacy","26","26","/Users/alexisparrish/Desktop/ap-subject-1.csv","legacy","Lentiform Loewenfeld","3.3.12","0","s","NA","NA","NA","s","s","506","NA","NA","NA","1769","506","2","legacy","1024","2","48000","-16","experiment","HHSHH","1","odd","5713","NA","NA","45388","NA","NA","50232","49175","NA","NA","3938","50336","50843","50227","50336","3927","Lab 2.1: Flanker Task","25","13477","27","yes","1024"
"92.85714285714286","92.85714285714286","494.92857142857144","494.92857142857144","black","legacy","legacy","legacy","0","Congruent","uniform","1","undefined","1","s","0","0","0","27","27","0","27","27","0","0","0","27","27","27","27","0","Fri Sep 16 15:59:59 2022","1500","The main experiment item","yes","Lab21FlankerTask.osexp","/Users/alexisparrish/Desktop","no","mono","no","18","no","white","no","yes","768","legacy","27","27","/Users/alexisparrish/Desktop/ap-subject-1.csv","legacy","Lentiform Loewenfeld","3.3.12","0","s","NA","NA","NA","s","s","381","NA","NA","NA","1769","381","2","legacy","1024","2","48000","-16","experiment","SSSSS","1","odd","5713","NA","NA","45388","NA","NA","51904","50848","NA","NA","3938","52008","52390","51899","52008","3927","Lab 2.1: Flanker Task","26","13858","28","yes","1024"
"93.10344827586206","93.10344827586206","495.8965517241379","495.8965517241379","black","legacy","legacy","legacy","0","Incongruent","uniform","1","undefined","1","s","0","0","0","28","28","0","28","28","0","0","0","28","28","28","28","0","Fri Sep 16 15:59:59 2022","1500","The main experiment item","yes","Lab21FlankerTask.osexp","/Users/alexisparrish/Desktop","no","mono","no","18","no","white","no","yes","768","legacy","28","28","/Users/alexisparrish/Desktop/ap-subject-1.csv","legacy","Lentiform Loewenfeld","3.3.12","0","s","NA","NA","NA","s","s","523","NA","NA","NA","1769","523","2","legacy","1024","2","48000","-16","experiment","HHSHH","1","odd","5713","NA","NA","45388","NA","NA","53456","52400","NA","NA","3938","53560","54083","53451","53560","3927","Lab 2.1: Flanker Task","27","14381","29","yes","1024"
"93.33333333333333","93.33333333333333","496.03333333333336","496.03333333333336","black","legacy","legacy","legacy","0","Congruent","uniform","1","undefined","1","h","0","0","0","29","29","0","29","29","0","0","0","29","29","29","29","0","Fri Sep 16 15:59:59 2022","1500","The main experiment item","yes","Lab21FlankerTask.osexp","/Users/alexisparrish/Desktop","no","mono","no","18","no","white","no","yes","768","legacy","29","29","/Users/alexisparrish/Desktop/ap-subject-1.csv","legacy","Lentiform Loewenfeld","3.3.12","0","h","NA","NA","NA","s","h","500","NA","NA","NA","1769","500","2","legacy","1024","2","48000","-16","experiment","HHHHH","1","odd","5713","NA","NA","45388","NA","NA","55150","54094","NA","NA","3938","55254","55754","55145","55254","3927","Lab 2.1: Flanker Task","28","14881","30","yes","1024"
"93.54838709677419","93.54838709677419","494.9032258064516","494.9032258064516","black","legacy","legacy","legacy","0","Congruent","uniform","1","undefined","1","s","0","0","0","30","30","0","30","30","0","0","0","30","30","30","30","0","Fri Sep 16 15:59:59 2022","1500","The main experiment item","yes","Lab21FlankerTask.osexp","/Users/alexisparrish/Desktop","no","mono","no","18","no","white","no","yes","768","legacy","30","30","/Users/alexisparrish/Desktop/ap-subject-1.csv","legacy","Lentiform Loewenfeld","3.3.12","0","s","NA","NA","NA","s","s","461","NA","NA","NA","1769","461","2","legacy","1024","2","48000","-16","experiment","SSSSS","1","odd","5713","NA","NA","45388","NA","NA","56822","55766","NA","NA","3938","56926","57388","56817","56926","3927","Lab 2.1: Flanker Task","29","15342","31","yes","1024"
"93.75","93.75","496.125","496.125","black","legacy","legacy","legacy","0","Congruent","uniform","1","undefined","1","h","0","0","0","31","31","0","31","31","0","0","0","31","31","31","31","0","Fri Sep 16 15:59:59 2022","1500","The main experiment item","yes","Lab21FlankerTask.osexp","/Users/alexisparrish/Desktop","no","mono","no","18","no","white","no","yes","768","legacy","31","31","/Users/alexisparrish/Desktop/ap-subject-1.csv","legacy","Lentiform Loewenfeld","3.3.12","0","h","NA","NA","NA","s","h","534","NA","NA","NA","1769","534","2","legacy","1024","2","48000","-16","experiment","HHHHH","1","odd","5713","NA","NA","45388","NA","NA","58457","57399","NA","NA","3938","58561","59095","58453","58561","3927","Lab 2.1: Flanker Task","30","15876","32","yes","1024"
"93.93939393939394","93.93939393939394","497.27272727272725","497.27272727272725","black","legacy","legacy","legacy","0","Incongruent","uniform","1","undefined","1","s","0","0","0","32","32","0","32","32","0","0","0","32","32","32","32","0","Fri Sep 16 15:59:59 2022","1500","The main experiment item","yes","Lab21FlankerTask.osexp","/Users/alexisparrish/Desktop","no","mono","no","18","no","white","no","yes","768","legacy","32","32","/Users/alexisparrish/Desktop/ap-subject-1.csv","legacy","Lentiform Loewenfeld","3.3.12","0","s","NA","NA","NA","s","s","534","NA","NA","NA","1769","534","2","legacy","1024","2","48000","-16","experiment","HHSHH","1","odd","5713","NA","NA","45388","NA","NA","60163","59106","NA","NA","3938","60267","60802","60158","60267","3927","Lab 2.1: Flanker Task","31","16410","33","yes","1024"
"94.11764705882354","94.11764705882354","497.9117647058824","497.9117647058824","black","legacy","legacy","legacy","0","Congruent","uniform","1","undefined","1","h","0","0","0","33","33","0","33","33","0","0","0","33","33","33","33","0","Fri Sep 16 15:59:59 2022","1500","The main experiment item","yes","Lab21FlankerTask.osexp","/Users/alexisparrish/Desktop","no","mono","no","18","no","white","no","yes","768","legacy","33","33","/Users/alexisparrish/Desktop/ap-subject-1.csv","legacy","Lentiform Loewenfeld","3.3.12","0","h","NA","NA","NA","s","h","519","NA","NA","NA","1769","519","2","legacy","1024","2","48000","-16","experiment","HHHHH","1","odd","5713","NA","NA","45388","NA","NA","61870","60814","NA","NA","3938","61974","62494","61866","61974","3927","Lab 2.1: Flanker Task","32","16929","34","yes","1024"
"94.28571428571429","94.28571428571429","499.74285714285713","499.74285714285713","black","legacy","legacy","legacy","0","Congruent","uniform","1","undefined","1","h","0","0","0","34","34","0","34","34","0","0","0","34","34","34","34","0","Fri Sep 16 15:59:59 2022","1500","The main experiment item","yes","Lab21FlankerTask.osexp","/Users/alexisparrish/Desktop","no","mono","no","18","no","white","no","yes","768","legacy","34","34","/Users/alexisparrish/Desktop/ap-subject-1.csv","legacy","Lentiform Loewenfeld","3.3.12","0","h","NA","NA","NA","s","h","562","NA","NA","NA","1769","562","2","legacy","1024","2","48000","-16","experiment","HHHHH","1","odd","5713","NA","NA","45388","NA","NA","63563","62506","NA","NA","3938","63667","64229","63558","63667","3927","Lab 2.1: Flanker Task","33","17491","35","yes","1024"
"94.44444444444444","94.44444444444444","498.8611111111111","498.8611111111111","black","legacy","legacy","legacy","0","Congruent","uniform","1","undefined","1","s","0","0","0","35","35","0","35","35","0","0","0","35","35","35","35","0","Fri Sep 16 15:59:59 2022","1500","The main experiment item","yes","Lab21FlankerTask.osexp","/Users/alexisparrish/Desktop","no","mono","no","18","no","white","no","yes","768","legacy","35","35","/Users/alexisparrish/Desktop/ap-subject-1.csv","legacy","Lentiform Loewenfeld","3.3.12","0","s","NA","NA","NA","s","s","468","NA","NA","NA","1769","468","2","legacy","1024","2","48000","-16","experiment","SSSSS","1","odd","5713","NA","NA","45388","NA","NA","65297","64241","NA","NA","3938","65401","65870","65293","65401","3927","Lab 2.1: Flanker Task","34","17959","36","yes","1024"
"94.5945945945946","94.5945945945946","498.0810810810811","498.0810810810811","black","legacy","legacy","legacy","0","Incongruent","uniform","1","undefined","1","s","0","0","0","36","36","0","36","36","0","0","0","36","36","36","36","0","Fri Sep 16 15:59:59 2022","1500","The main experiment item","yes","Lab21FlankerTask.osexp","/Users/alexisparrish/Desktop","no","mono","no","18","no","white","no","yes","768","legacy","36","36","/Users/alexisparrish/Desktop/ap-subject-1.csv","legacy","Lentiform Loewenfeld","3.3.12","0","s","NA","NA","NA","s","s","470","NA","NA","NA","1769","470","2","legacy","1024","2","48000","-16","experiment","HHSHH","1","odd","5713","NA","NA","45388","NA","NA","66937","65881","NA","NA","3938","67041","67512","66932","67041","3927","Lab 2.1: Flanker Task","35","18429","37","yes","1024"
"94.73684210526316","94.73684210526316","499.5","499.5","black","legacy","legacy","legacy","0","Incongruent","uniform","1","undefined","1","h","0","0","0","37","37","0","37","37","0","0","0","37","37","37","37","0","Fri Sep 16 15:59:59 2022","1500","The main experiment item","yes","Lab21FlankerTask.osexp","/Users/alexisparrish/Desktop","no","mono","no","18","no","white","no","yes","768","legacy","37","37","/Users/alexisparrish/Desktop/ap-subject-1.csv","legacy","Lentiform Loewenfeld","3.3.12","0","h","NA","NA","NA","s","h","552","NA","NA","NA","1769","552","2","legacy","1024","2","48000","-16","experiment","SSHSS","1","odd","5713","NA","NA","45388","NA","NA","68580","67524","NA","NA","3938","68684","69237","68575","68684","3927","Lab 2.1: Flanker Task","36","18981","38","yes","1024"
"94.87179487179488","94.87179487179488","501.02564102564105","501.02564102564105","black","legacy","legacy","legacy","0","Incongruent","uniform","1","undefined","1","h","0","0","0","38","38","0","38","38","0","0","0","38","38","38","38","0","Fri Sep 16 15:59:59 2022","1500","The main experiment item","yes","Lab21FlankerTask.osexp","/Users/alexisparrish/Desktop","no","mono","no","18","no","white","no","yes","768","legacy","38","38","/Users/alexisparrish/Desktop/ap-subject-1.csv","legacy","Lentiform Loewenfeld","3.3.12","0","h","NA","NA","NA","s","h","559","NA","NA","NA","1769","559","2","legacy","1024","2","48000","-16","experiment","SSHSS","1","odd","5713","NA","NA","45388","NA","NA","70305","69249","NA","NA","3938","70409","70969","70300","70409","3927","Lab 2.1: Flanker Task","37","19540","39","yes","1024"
"95","95","501.375","501.375","black","legacy","legacy","legacy","0","Incongruent","uniform","1","undefined","1","s","0","0","0","39","39","0","39","39","0","0","0","39","39","39","39","0","Fri Sep 16 15:59:59 2022","1500","The main experiment item","yes","Lab21FlankerTask.osexp","/Users/alexisparrish/Desktop","no","mono","no","18","no","white","no","yes","768","legacy","39","39","/Users/alexisparrish/Desktop/ap-subject-1.csv","legacy","Lentiform Loewenfeld","3.3.12","0","s","NA","NA","NA","s","s","515","NA","NA","NA","1769","515","2","legacy","1024","2","48000","-16","experiment","HHSHH","1","odd","5713","NA","NA","45388","NA","NA","72036","70980","NA","NA","3938","72140","72656","72031","72140","3927","Lab 2.1: Flanker Task","38","20055","40","yes","1024"
"95.1219512195122","95.1219512195122","500.5121951219512","500.5121951219512","black","legacy","legacy","legacy","0","Congruent","uniform","1","undefined","1","h","0","0","0","40","40","0","40","40","0","0","0","40","40","40","40","0","Fri Sep 16 15:59:59 2022","1500","The main experiment item","yes","Lab21FlankerTask.osexp","/Users/alexisparrish/Desktop","no","mono","no","18","no","white","no","yes","768","legacy","40","40","/Users/alexisparrish/Desktop/ap-subject-1.csv","legacy","Lentiform Loewenfeld","3.3.12","0","h","NA","NA","NA","s","h","466","NA","NA","NA","1769","466","2","legacy","1024","2","48000","-16","experiment","HHHHH","1","odd","5713","NA","NA","45388","NA","NA","73724","72667","NA","NA","3938","73828","74295","73720","73828","3927","Lab 2.1: Flanker Task","39","20521","41","yes","1024"
"95.23809523809524","95.23809523809524","501.8809523809524","501.8809523809524","black","legacy","legacy","legacy","0","Incongruent","uniform","1","undefined","1","h","0","0","0","41","41","0","41","41","0","0","0","41","41","41","41","0","Fri Sep 16 15:59:59 2022","1500","The main experiment item","yes","Lab21FlankerTask.osexp","/Users/alexisparrish/Desktop","no","mono","no","18","no","white","no","yes","768","legacy","41","41","/Users/alexisparrish/Desktop/ap-subject-1.csv","legacy","Lentiform Loewenfeld","3.3.12","0","h","NA","NA","NA","s","h","558","NA","NA","NA","1769","558","2","legacy","1024","2","48000","-16","experiment","SSHSS","1","odd","5713","NA","NA","45388","NA","NA","75364","74306","NA","NA","3938","75468","76027","75359","75468","3927","Lab 2.1: Flanker Task","40","21079","42","yes","1024"
"95.34883720930233","95.34883720930233","501.04651162790697","501.04651162790697","black","legacy","legacy","legacy","0","Incongruent","uniform","1","undefined","1","s","0","0","0","42","42","0","42","42","0","0","0","42","42","42","42","0","Fri Sep 16 15:59:59 2022","1500","The main experiment item","yes","Lab21FlankerTask.osexp","/Users/alexisparrish/Desktop","no","mono","no","18","no","white","no","yes","768","legacy","42","42","/Users/alexisparrish/Desktop/ap-subject-1.csv","legacy","Lentiform Loewenfeld","3.3.12","0","s","NA","NA","NA","s","s","466","NA","NA","NA","1769","466","2","legacy","1024","2","48000","-16","experiment","HHSHH","1","odd","5713","NA","NA","45388","NA","NA","77095","76038","NA","NA","3938","77199","77666","77091","77199","3927","Lab 2.1: Flanker Task","41","21545","43","yes","1024"
"95.45454545454545","95.45454545454545","498.9318181818182","498.9318181818182","black","legacy","legacy","legacy","0","Incongruent","uniform","1","undefined","1","h","0","0","0","43","43","0","43","43","0","0","0","43","43","43","43","0","Fri Sep 16 15:59:59 2022","1500","The main experiment item","yes","Lab21FlankerTask.osexp","/Users/alexisparrish/Desktop","no","mono","no","18","no","white","no","yes","768","legacy","43","43","/Users/alexisparrish/Desktop/ap-subject-1.csv","legacy","Lentiform Loewenfeld","3.3.12","0","h","NA","NA","NA","s","h","408","NA","NA","NA","1769","408","2","legacy","1024","2","48000","-16","experiment","SSHSS","1","odd","5713","NA","NA","45388","NA","NA","78732","77676","NA","NA","3938","78836","79245","78727","78836","3927","Lab 2.1: Flanker Task","42","21953","44","yes","1024"
"95.55555555555556","95.55555555555556","498.8666666666667","498.8666666666667","black","legacy","legacy","legacy","0","Incongruent","uniform","1","undefined","1","h","0","0","0","44","44","0","44","44","0","0","0","44","44","44","44","0","Fri Sep 16 15:59:59 2022","1500","The main experiment item","yes","Lab21FlankerTask.osexp","/Users/alexisparrish/Desktop","no","mono","no","18","no","white","no","yes","768","legacy","44","44","/Users/alexisparrish/Desktop/ap-subject-1.csv","legacy","Lentiform Loewenfeld","3.3.12","0","h","NA","NA","NA","s","h","496","NA","NA","NA","1769","496","2","legacy","1024","2","48000","-16","experiment","SSHSS","1","odd","5713","NA","NA","45388","NA","NA","80312","79256","NA","NA","3938","80416","80913","80307","80416","3927","Lab 2.1: Flanker Task","43","22449","45","yes","1024"
"95.65217391304348","95.65217391304348","497.95652173913044","497.95652173913044","black","legacy","legacy","legacy","0","Incongruent","uniform","1","undefined","1","s","0","0","0","45","45","0","45","45","0","0","0","45","45","45","45","0","Fri Sep 16 15:59:59 2022","1500","The main experiment item","yes","Lab21FlankerTask.osexp","/Users/alexisparrish/Desktop","no","mono","no","18","no","white","no","yes","768","legacy","45","45","/Users/alexisparrish/Desktop/ap-subject-1.csv","legacy","Lentiform Loewenfeld","3.3.12","0","s","NA","NA","NA","s","s","457","NA","NA","NA","1769","457","2","legacy","1024","2","48000","-16","experiment","HHSHH","1","odd","5713","NA","NA","45388","NA","NA","81980","80924","NA","NA","3938","82084","82542","81976","82084","3927","Lab 2.1: Flanker Task","44","22906","46","yes","1024"
"95.74468085106383","95.74468085106383","496.8936170212766","496.8936170212766","black","legacy","legacy","legacy","0","Congruent","uniform","1","undefined","1","s","0","0","0","46","46","0","46","46","0","0","0","46","46","46","46","0","Fri Sep 16 15:59:59 2022","1500","The main experiment item","yes","Lab21FlankerTask.osexp","/Users/alexisparrish/Desktop","no","mono","no","18","no","white","no","yes","768","legacy","46","46","/Users/alexisparrish/Desktop/ap-subject-1.csv","legacy","Lentiform Loewenfeld","3.3.12","0","s","NA","NA","NA","s","s","448","NA","NA","NA","1769","448","2","legacy","1024","2","48000","-16","experiment","SSSSS","1","odd","5713","NA","NA","45388","NA","NA","83609","82553","NA","NA","3938","83714","84163","83605","83714","3927","Lab 2.1: Flanker Task","45","23354","47","yes","1024"
"95.83333333333333","95.83333333333333","494.25","494.25","black","legacy","legacy","legacy","0","Congruent","uniform","1","undefined","1","s","0","0","0","47","47","0","47","47","0","0","0","47","47","47","47","0","Fri Sep 16 15:59:59 2022","1500","The main experiment item","yes","Lab21FlankerTask.osexp","/Users/alexisparrish/Desktop","no","mono","no","18","no","white","no","yes","768","legacy","47","47","/Users/alexisparrish/Desktop/ap-subject-1.csv","legacy","Lentiform Loewenfeld","3.3.12","0","s","NA","NA","NA","s","s","370","NA","NA","NA","1769","370","2","legacy","1024","2","48000","-16","experiment","SSSSS","1","odd","5713","NA","NA","45388","NA","NA","85228","84173","NA","NA","3938","85333","85704","85224","85333","3927","Lab 2.1: Flanker Task","46","23724","48","yes","1024"
"95.91836734693878","95.91836734693878","494.53061224489795","494.53061224489795","black","legacy","legacy","legacy","0","Incongruent","uniform","1","undefined","1","s","0","0","0","48","48","0","48","48","0","0","0","48","48","48","48","0","Fri Sep 16 15:59:59 2022","1500","The main experiment item","yes","Lab21FlankerTask.osexp","/Users/alexisparrish/Desktop","no","mono","no","18","no","white","no","yes","768","legacy","48","48","/Users/alexisparrish/Desktop/ap-subject-1.csv","legacy","Lentiform Loewenfeld","3.3.12","0","s","NA","NA","NA","s","s","508","NA","NA","NA","1769","508","2","legacy","1024","2","48000","-16","experiment","HHSHH","1","odd","5713","NA","NA","45388","NA","NA","86771","85715","NA","NA","3938","86875","87384","86766","86875","3927","Lab 2.1: Flanker Task","47","24232","49","yes","1024"
"96","96","492.72","492.72","black","legacy","legacy","legacy","0","Congruent","uniform","1","undefined","1","h","0","0","0","49","49","0","49","49","0","0","0","49","49","49","49","0","Fri Sep 16 15:59:59 2022","1500","The main experiment item","yes","Lab21FlankerTask.osexp","/Users/alexisparrish/Desktop","no","mono","no","18","no","white","no","yes","768","legacy","49","49","/Users/alexisparrish/Desktop/ap-subject-1.csv","legacy","Lentiform Loewenfeld","3.3.12","0","h","NA","NA","NA","s","h","404","NA","NA","NA","1769","404","2","legacy","1024","2","48000","-16","experiment","HHHHH","1","odd","5713","NA","NA","45388","NA","NA","88445","87389","NA","NA","3938","88549","88954","88440","88549","3927","Lab 2.1: Flanker Task","48","24636","50","yes","1024"
"96.07843137254902","96.07843137254902","489.921568627451","489.921568627451","black","legacy","legacy","legacy","0","Incongruent","uniform","1","undefined","1","s","0","0","0","50","50","0","50","50","0","0","0","50","50","50","50","0","Fri Sep 16 15:59:59 2022","1500","The main experiment item","yes","Lab21FlankerTask.osexp","/Users/alexisparrish/Desktop","no","mono","no","18","no","white","no","yes","768","legacy","50","50","/Users/alexisparrish/Desktop/ap-subject-1.csv","legacy","Lentiform Loewenfeld","3.3.12","0","s","NA","NA","NA","s","s","350","NA","NA","NA","1769","350","2","legacy","1024","2","48000","-16","experiment","HHSHH","1","odd","5713","NA","NA","45388","NA","NA","90023","88965","NA","NA","3938","90127","90478","90018","90127","3927","Lab 2.1: Flanker Task","49","24986","51","yes","1024"
"96.15384615384616","96.15384615384616","489.13461538461536","489.13461538461536","black","legacy","legacy","legacy","0","Congruent","uniform","1","undefined","1","h","0","0","0","51","51","0","51","51","0","0","0","51","51","51","51","0","Fri Sep 16 15:59:59 2022","1500","The main experiment item","yes","Lab21FlankerTask.osexp","/Users/alexisparrish/Desktop","no","mono","no","18","no","white","no","yes","768","legacy","51","51","/Users/alexisparrish/Desktop/ap-subject-1.csv","legacy","Lentiform Loewenfeld","3.3.12","0","h","NA","NA","NA","s","h","449","NA","NA","NA","1769","449","2","legacy","1024","2","48000","-16","experiment","HHHHH","1","odd","5713","NA","NA","45388","NA","NA","91545","90489","NA","NA","3938","91649","92098","91540","91649","3927","Lab 2.1: Flanker Task","50","25435","52","yes","1024"
"96.22641509433963","96.22641509433963","491","491","black","legacy","legacy","legacy","0","Incongruent","uniform","1","undefined","1","h","0","0","0","52","52","0","52","52","0","0","0","52","52","52","52","0","Fri Sep 16 15:59:59 2022","1500","The main experiment item","yes","Lab21FlankerTask.osexp","/Users/alexisparrish/Desktop","no","mono","no","18","no","white","no","yes","768","legacy","52","52","/Users/alexisparrish/Desktop/ap-subject-1.csv","legacy","Lentiform Loewenfeld","3.3.12","0","h","NA","NA","NA","s","h","588","NA","NA","NA","1769","588","2","legacy","1024","2","48000","-16","experiment","SSHSS","1","odd","5713","NA","NA","45388","NA","NA","93166","92109","NA","NA","3938","93270","93858","93161","93270","3927","Lab 2.1: Flanker Task","51","26023","53","yes","1024"
"96.29629629629629","96.29629629629629","489","489","black","legacy","legacy","legacy","0","Incongruent","uniform","1","undefined","1","s","0","0","0","53","53","0","53","53","0","0","0","53","53","53","53","0","Fri Sep 16 15:59:59 2022","1500","The main experiment item","yes","Lab21FlankerTask.osexp","/Users/alexisparrish/Desktop","no","mono","no","18","no","white","no","yes","768","legacy","53","53","/Users/alexisparrish/Desktop/ap-subject-1.csv","legacy","Lentiform Loewenfeld","3.3.12","0","s","NA","NA","NA","s","s","383","NA","NA","NA","1769","383","2","legacy","1024","2","48000","-16","experiment","HHSHH","1","odd","5713","NA","NA","45388","NA","NA","94926","93870","NA","NA","3938","95030","95413","94922","95030","3927","Lab 2.1: Flanker Task","52","26406","54","yes","1024"
"96.36363636363636","96.36363636363636","486.3818181818182","486.3818181818182","black","legacy","legacy","legacy","0","Incongruent","uniform","1","undefined","1","s","0","0","0","54","54","0","54","54","0","0","0","54","54","54","54","0","Fri Sep 16 15:59:59 2022","1500","The main experiment item","yes","Lab21FlankerTask.osexp","/Users/alexisparrish/Desktop","no","mono","no","18","no","white","no","yes","768","legacy","54","54","/Users/alexisparrish/Desktop/ap-subject-1.csv","legacy","Lentiform Loewenfeld","3.3.12","0","s","NA","NA","NA","s","s","345","NA","NA","NA","1769","345","2","legacy","1024","2","48000","-16","experiment","HHSHH","1","odd","5713","NA","NA","45388","NA","NA","96482","95425","NA","NA","3938","96586","96931","96477","96586","3927","Lab 2.1: Flanker Task","53","26751","55","yes","1024"
"96.42857142857143","96.42857142857143","485.69642857142856","485.69642857142856","black","legacy","legacy","legacy","0","Congruent","uniform","1","undefined","1","s","0","0","0","55","55","0","55","55","0","0","0","55","55","55","55","0","Fri Sep 16 15:59:59 2022","1500","The main experiment item","yes","Lab21FlankerTask.osexp","/Users/alexisparrish/Desktop","no","mono","no","18","no","white","no","yes","768","legacy","55","55","/Users/alexisparrish/Desktop/ap-subject-1.csv","legacy","Lentiform Loewenfeld","3.3.12","0","s","NA","NA","NA","s","s","448","NA","NA","NA","1769","448","2","legacy","1024","2","48000","-16","experiment","SSSSS","1","odd","5713","NA","NA","45388","NA","NA","97998","96943","NA","NA","3938","98102","98550","97994","98102","3927","Lab 2.1: Flanker Task","54","27199","56","yes","1024"
"96.49122807017544","96.49122807017544","484.719298245614","484.719298245614","black","legacy","legacy","legacy","0","Congruent","uniform","1","undefined","1","h","0","0","0","56","56","0","56","56","0","0","0","56","56","56","56","0","Fri Sep 16 15:59:59 2022","1500","The main experiment item","yes","Lab21FlankerTask.osexp","/Users/alexisparrish/Desktop","no","mono","no","18","no","white","no","yes","768","legacy","56","56","/Users/alexisparrish/Desktop/ap-subject-1.csv","legacy","Lentiform Loewenfeld","3.3.12","0","h","NA","NA","NA","s","h","430","NA","NA","NA","1769","430","2","legacy","1024","2","48000","-16","experiment","HHHHH","1","odd","5713","NA","NA","45388","NA","NA","99618","98562","NA","NA","3938","99722","100153","99614","99722","3927","Lab 2.1: Flanker Task","55","27629","57","yes","1024"
"94.82758620689656","94.82758620689656","484.6034482758621","484.6034482758621","black","legacy","legacy","legacy","0","Incongruent","uniform","0","undefined","0","h","0","0","0","57","57","0","57","57","0","0","0","57","57","57","57","0","Fri Sep 16 15:59:59 2022","1500","The main experiment item","yes","Lab21FlankerTask.osexp","/Users/alexisparrish/Desktop","no","mono","no","18","no","white","no","yes","768","legacy","57","57","/Users/alexisparrish/Desktop/ap-subject-1.csv","legacy","Lentiform Loewenfeld","3.3.12","0","s","NA","NA","NA","s","s","478","NA","NA","NA","1769","478","2","legacy","1024","2","48000","-16","experiment","SSHSS","1","odd","5713","NA","NA","45388","NA","NA","101222","100164","NA","NA","3938","101326","101805","101217","101326","3927","Lab 2.1: Flanker Task","55","28107","58","yes","1024"
"94.91525423728814","94.91525423728814","485.728813559322","485.728813559322","black","legacy","legacy","legacy","0","Incongruent","uniform","1","undefined","1","h","0","0","0","58","58","0","58","58","0","0","0","58","58","58","58","0","Fri Sep 16 15:59:59 2022","1500","The main experiment item","yes","Lab21FlankerTask.osexp","/Users/alexisparrish/Desktop","no","mono","no","18","no","white","no","yes","768","legacy","58","58","/Users/alexisparrish/Desktop/ap-subject-1.csv","legacy","Lentiform Loewenfeld","3.3.12","0","h","NA","NA","NA","s","h","551","NA","NA","NA","1769","551","2","legacy","1024","2","48000","-16","experiment","SSHSS","1","odd","5713","NA","NA","101817","NA","NA","103377","102321","NA","NA","3938","103481","104033","103373","103481","3927","Lab 2.1: Flanker Task","56","28658","59","yes","1024"
"95","95","486.15","486.15","black","legacy","legacy","legacy","0","Congruent","uniform","1","undefined","1","h","0","0","0","59","59","0","59","59","0","0","0","59","59","59","59","0","Fri Sep 16 15:59:59 2022","1500","The main experiment item","yes","Lab21FlankerTask.osexp","/Users/alexisparrish/Desktop","no","mono","no","18","no","white","no","yes","768","legacy","59","59","/Users/alexisparrish/Desktop/ap-subject-1.csv","legacy","Lentiform Loewenfeld","3.3.12","0","h","NA","NA","NA","s","h","511","NA","NA","NA","1769","511","2","legacy","1024","2","48000","-16","experiment","HHHHH","1","odd","5713","NA","NA","101817","NA","NA","105100","104044","NA","NA","3938","105204","105716","105095","105204","3927","Lab 2.1: Flanker Task","57","29169","60","yes","1024"
"95.08196721311475","95.08196721311475","486.39344262295083","486.39344262295083","black","legacy","legacy","legacy","0","Incongruent","uniform","1","undefined","1","h","0","0","0","60","60","0","60","60","0","0","0","60","60","60","60","0","Fri Sep 16 15:59:59 2022","1500","The main experiment item","yes","Lab21FlankerTask.osexp","/Users/alexisparrish/Desktop","no","mono","no","18","no","white","no","yes","768","legacy","60","60","/Users/alexisparrish/Desktop/ap-subject-1.csv","legacy","Lentiform Loewenfeld","3.3.12","0","h","NA","NA","NA","s","h","501","NA","NA","NA","1769","501","2","legacy","1024","2","48000","-16","experiment","SSHSS","1","odd","5713","NA","NA","101817","NA","NA","106782","105727","NA","NA","3938","106886","107388","106778","106886","3927","Lab 2.1: Flanker Task","58","29670","61","yes","1024"
"95.16129032258064","95.16129032258064","485.258064516129","485.258064516129","black","legacy","legacy","legacy","0","Congruent","uniform","1","undefined","1","s","0","0","0","61","61","0","61","61","0","0","0","61","61","61","61","0","Fri Sep 16 15:59:59 2022","1500","The main experiment item","yes","Lab21FlankerTask.osexp","/Users/alexisparrish/Desktop","no","mono","no","18","no","white","no","yes","768","legacy","61","61","/Users/alexisparrish/Desktop/ap-subject-1.csv","legacy","Lentiform Loewenfeld","3.3.12","0","s","NA","NA","NA","s","s","416","NA","NA","NA","1769","416","2","legacy","1024","2","48000","-16","experiment","SSSSS","1","odd","5713","NA","NA","101817","NA","NA","108456","107400","NA","NA","3938","108560","108977","108452","108560","3927","Lab 2.1: Flanker Task","59","30086","62","yes","1024"
"95.23809523809524","95.23809523809524","485.44444444444446","485.44444444444446","black","legacy","legacy","legacy","0","Incongruent","uniform","1","undefined","1","h","0","0","0","62","62","0","62","62","0","0","0","62","62","62","62","0","Fri Sep 16 15:59:59 2022","1500","The main experiment item","yes","Lab21FlankerTask.osexp","/Users/alexisparrish/Desktop","no","mono","no","18","no","white","no","yes","768","legacy","62","62","/Users/alexisparrish/Desktop/ap-subject-1.csv","legacy","Lentiform Loewenfeld","3.3.12","0","h","NA","NA","NA","s","h","497","NA","NA","NA","1769","497","2","legacy","1024","2","48000","-16","experiment","SSHSS","1","odd","5713","NA","NA","101817","NA","NA","110043","108988","NA","NA","3938","110147","110645","110039","110147","3927","Lab 2.1: Flanker Task","60","30583","63","yes","1024"
"95.3125","95.3125","484.578125","484.578125","black","legacy","legacy","legacy","0","Congruent","uniform","1","undefined","1","h","0","0","0","63","63","0","63","63","0","0","0","63","63","63","63","0","Fri Sep 16 15:59:59 2022","1500","The main experiment item","yes","Lab21FlankerTask.osexp","/Users/alexisparrish/Desktop","no","mono","no","18","no","white","no","yes","768","legacy","63","63","/Users/alexisparrish/Desktop/ap-subject-1.csv","legacy","Lentiform Loewenfeld","3.3.12","0","h","NA","NA","NA","s","h","430","NA","NA","NA","1769","430","2","legacy","1024","2","48000","-16","experiment","HHHHH","1","odd","5713","NA","NA","101817","NA","NA","111713","110656","NA","NA","3938","111817","112248","111708","111817","3927","Lab 2.1: Flanker Task","61","31013","64","yes","1024"
"95.38461538461539","95.38461538461539","485.66153846153844","485.66153846153844","black","legacy","legacy","legacy","0","Incongruent","uniform","1","undefined","1","s","0","0","0","64","64","0","64","64","0","0","0","64","64","64","64","0","Fri Sep 16 15:59:59 2022","1500","The main experiment item","yes","Lab21FlankerTask.osexp","/Users/alexisparrish/Desktop","no","mono","no","18","no","white","no","yes","768","legacy","64","64","/Users/alexisparrish/Desktop/ap-subject-1.csv","legacy","Lentiform Loewenfeld","3.3.12","0","s","NA","NA","NA","s","s","555","NA","NA","NA","1769","555","2","legacy","1024","2","48000","-16","experiment","HHSHH","1","odd","5713","NA","NA","101817","NA","NA","113316","112260","NA","NA","3938","113420","113976","113311","113420","3927","Lab 2.1: Flanker Task","62","31568","65","yes","1024"
"95.45454545454545","95.45454545454545","486.92424242424244","486.92424242424244","black","legacy","legacy","legacy","0","Incongruent","uniform","1","undefined","1","h","0","0","0","65","65","0","65","65","0","0","0","65","65","65","65","0","Fri Sep 16 15:59:59 2022","1500","The main experiment item","yes","Lab21FlankerTask.osexp","/Users/alexisparrish/Desktop","no","mono","no","18","no","white","no","yes","768","legacy","65","65","/Users/alexisparrish/Desktop/ap-subject-1.csv","legacy","Lentiform Loewenfeld","3.3.12","0","h","NA","NA","NA","s","h","569","NA","NA","NA","1769","569","2","legacy","1024","2","48000","-16","experiment","SSHSS","1","odd","5713","NA","NA","101817","NA","NA","115045","113987","NA","NA","3938","115149","115719","115041","115149","3927","Lab 2.1: Flanker Task","63","32137","66","yes","1024"
"95.5223880597015","95.5223880597015","486.53731343283584","486.53731343283584","black","legacy","legacy","legacy","0","Congruent","uniform","1","undefined","1","s","0","0","0","66","66","0","66","66","0","0","0","66","66","66","66","0","Fri Sep 16 15:59:59 2022","1500","The main experiment item","yes","Lab21FlankerTask.osexp","/Users/alexisparrish/Desktop","no","mono","no","18","no","white","no","yes","768","legacy","66","66","/Users/alexisparrish/Desktop/ap-subject-1.csv","legacy","Lentiform Loewenfeld","3.3.12","0","s","NA","NA","NA","s","s","461","NA","NA","NA","1769","461","2","legacy","1024","2","48000","-16","experiment","SSSSS","1","odd","5713","NA","NA","101817","NA","NA","116786","115729","NA","NA","3938","116890","117352","116781","116890","3927","Lab 2.1: Flanker Task","64","32598","67","yes","1024"
"95.58823529411765","95.58823529411765","485.8970588235294","485.8970588235294","black","legacy","legacy","legacy","0","Congruent","uniform","1","undefined","1","h","0","0","0","67","67","0","67","67","0","0","0","67","67","67","67","0","Fri Sep 16 15:59:59 2022","1500","The main experiment item","yes","Lab21FlankerTask.osexp","/Users/alexisparrish/Desktop","no","mono","no","18","no","white","no","yes","768","legacy","67","67","/Users/alexisparrish/Desktop/ap-subject-1.csv","legacy","Lentiform Loewenfeld","3.3.12","0","h","NA","NA","NA","s","h","443","NA","NA","NA","1769","443","2","legacy","1024","2","48000","-16","experiment","HHHHH","1","odd","5713","NA","NA","101817","NA","NA","118419","117363","NA","NA","3938","118523","118967","118414","118523","3927","Lab 2.1: Flanker Task","65","33041","68","yes","1024"
"95.65217391304348","95.65217391304348","485.39130434782606","485.39130434782606","black","legacy","legacy","legacy","0","Congruent","uniform","1","undefined","1","h","0","0","0","68","68","0","68","68","0","0","0","68","68","68","68","0","Fri Sep 16 15:59:59 2022","1500","The main experiment item","yes","Lab21FlankerTask.osexp","/Users/alexisparrish/Desktop","no","mono","no","18","no","white","no","yes","768","legacy","68","68","/Users/alexisparrish/Desktop/ap-subject-1.csv","legacy","Lentiform Loewenfeld","3.3.12","0","h","NA","NA","NA","s","h","451","NA","NA","NA","1769","451","2","legacy","1024","2","48000","-16","experiment","HHHHH","1","odd","5713","NA","NA","101817","NA","NA","120035","118978","NA","NA","3938","120139","120591","120030","120139","3927","Lab 2.1: Flanker Task","66","33492","69","yes","1024"
"95.71428571428571","95.71428571428571","484.6","484.6","black","legacy","legacy","legacy","0","Congruent","uniform","1","undefined","1","h","0","0","0","69","69","0","69","69","0","0","0","69","69","69","69","0","Fri Sep 16 15:59:59 2022","1500","The main experiment item","yes","Lab21FlankerTask.osexp","/Users/alexisparrish/Desktop","no","mono","no","18","no","white","no","yes","768","legacy","69","69","/Users/alexisparrish/Desktop/ap-subject-1.csv","legacy","Lentiform Loewenfeld","3.3.12","0","h","NA","NA","NA","s","h","430","NA","NA","NA","1769","430","2","legacy","1024","2","48000","-16","experiment","HHHHH","1","odd","5713","NA","NA","101817","NA","NA","121659","120603","NA","NA","3938","121763","122194","121655","121763","3927","Lab 2.1: Flanker Task","67","33922","70","yes","1024"
"95.77464788732394","95.77464788732394","484.46478873239437","484.46478873239437","black","legacy","legacy","legacy","0","Incongruent","uniform","1","undefined","1","h","0","0","0","70","70","0","70","70","0","0","0","70","70","70","70","0","Fri Sep 16 15:59:59 2022","1500","The main experiment item","yes","Lab21FlankerTask.osexp","/Users/alexisparrish/Desktop","no","mono","no","18","no","white","no","yes","768","legacy","70","70","/Users/alexisparrish/Desktop/ap-subject-1.csv","legacy","Lentiform Loewenfeld","3.3.12","0","h","NA","NA","NA","s","h","475","NA","NA","NA","1769","475","2","legacy","1024","2","48000","-16","experiment","SSHSS","1","odd","5713","NA","NA","101817","NA","NA","123262","122205","NA","NA","3938","123366","123842","123257","123366","3927","Lab 2.1: Flanker Task","68","34397","71","yes","1024"
"95.83333333333333","95.83333333333333","484.4166666666667","484.4166666666667","black","legacy","legacy","legacy","0","Congruent","uniform","1","undefined","1","s","0","0","0","71","71","0","71","71","0","0","0","71","71","71","71","0","Fri Sep 16 15:59:59 2022","1500","The main experiment item","yes","Lab21FlankerTask.osexp","/Users/alexisparrish/Desktop","no","mono","no","18","no","white","no","yes","768","legacy","71","71","/Users/alexisparrish/Desktop/ap-subject-1.csv","legacy","Lentiform Loewenfeld","3.3.12","0","s","NA","NA","NA","s","s","481","NA","NA","NA","1769","481","2","legacy","1024","2","48000","-16","experiment","SSSSS","1","odd","5713","NA","NA","101817","NA","NA","124907","123851","NA","NA","3938","125012","125494","124903","125012","3927","Lab 2.1: Flanker Task","69","34878","72","yes","1024"
"95.89041095890411","95.89041095890411","484.5753424657534","484.5753424657534","black","legacy","legacy","legacy","0","Incongruent","uniform","1","undefined","1","s","0","0","0","72","72","0","72","72","0","0","0","72","72","72","72","0","Fri Sep 16 15:59:59 2022","1500","The main experiment item","yes","Lab21FlankerTask.osexp","/Users/alexisparrish/Desktop","no","mono","no","18","no","white","no","yes","768","legacy","72","72","/Users/alexisparrish/Desktop/ap-subject-1.csv","legacy","Lentiform Loewenfeld","3.3.12","0","s","NA","NA","NA","s","s","496","NA","NA","NA","1769","496","2","legacy","1024","2","48000","-16","experiment","HHSHH","1","odd","5713","NA","NA","101817","NA","NA","126562","125506","NA","NA","3938","126666","127163","126558","126666","3927","Lab 2.1: Flanker Task","70","35374","73","yes","1024"
"95.94594594594595","95.94594594594595","484.8918918918919","484.8918918918919","black","legacy","legacy","legacy","0","Congruent","uniform","1","undefined","1","s","0","0","0","73","73","0","73","73","0","0","0","73","73","73","73","0","Fri Sep 16 15:59:59 2022","1500","The main experiment item","yes","Lab21FlankerTask.osexp","/Users/alexisparrish/Desktop","no","mono","no","18","no","white","no","yes","768","legacy","73","73","/Users/alexisparrish/Desktop/ap-subject-1.csv","legacy","Lentiform Loewenfeld","3.3.12","0","s","NA","NA","NA","s","s","508","NA","NA","NA","1769","508","2","legacy","1024","2","48000","-16","experiment","SSSSS","1","odd","5713","NA","NA","101817","NA","NA","128228","127173","NA","NA","3938","128333","128842","128224","128333","3927","Lab 2.1: Flanker Task","71","35882","74","yes","1024"
"96","96","483.7866666666667","483.7866666666667","black","legacy","legacy","legacy","0","Congruent","uniform","1","undefined","1","s","0","0","0","74","74","0","74","74","0","0","0","74","74","74","74","0","Fri Sep 16 15:59:59 2022","1500","The main experiment item","yes","Lab21FlankerTask.osexp","/Users/alexisparrish/Desktop","no","mono","no","18","no","white","no","yes","768","legacy","74","74","/Users/alexisparrish/Desktop/ap-subject-1.csv","legacy","Lentiform Loewenfeld","3.3.12","0","s","NA","NA","NA","s","s","402","NA","NA","NA","1769","402","2","legacy","1024","2","48000","-16","experiment","SSSSS","1","odd","5713","NA","NA","101817","NA","NA","129908","128853","NA","NA","3938","130012","130415","129904","130012","3927","Lab 2.1: Flanker Task","72","36284","75","yes","1024"
"96.05263157894737","96.05263157894737","483.86842105263156","483.86842105263156","black","legacy","legacy","legacy","0","Incongruent","uniform","1","undefined","1","h","0","0","0","75","75","0","75","75","0","0","0","75","75","75","75","0","Fri Sep 16 15:59:59 2022","1500","The main experiment item","yes","Lab21FlankerTask.osexp","/Users/alexisparrish/Desktop","no","mono","no","18","no","white","no","yes","768","legacy","75","75","/Users/alexisparrish/Desktop/ap-subject-1.csv","legacy","Lentiform Loewenfeld","3.3.12","0","h","NA","NA","NA","s","h","490","NA","NA","NA","1769","490","2","legacy","1024","2","48000","-16","experiment","SSHSS","1","odd","5713","NA","NA","101817","NA","NA","131481","130425","NA","NA","3938","131585","132076","131476","131585","3927","Lab 2.1: Flanker Task","73","36774","76","yes","1024"
"96.1038961038961","96.1038961038961","486.7792207792208","486.7792207792208","black","legacy","legacy","legacy","0","Incongruent","uniform","1","undefined","1","s","0","0","0","76","76","0","76","76","0","0","0","76","76","76","76","0","Fri Sep 16 15:59:59 2022","1500","The main experiment item","yes","Lab21FlankerTask.osexp","/Users/alexisparrish/Desktop","no","mono","no","18","no","white","no","yes","768","legacy","76","76","/Users/alexisparrish/Desktop/ap-subject-1.csv","legacy","Lentiform Loewenfeld","3.3.12","0","s","NA","NA","NA","s","s","708","NA","NA","NA","1769","708","2","legacy","1024","2","48000","-16","experiment","HHSHH","1","odd","5713","NA","NA","101817","NA","NA","133142","132086","NA","NA","3938","133246","133955","133138","133246","3927","Lab 2.1: Flanker Task","74","37482","77","yes","1024"
"96.15384615384616","96.15384615384616","486.70512820512823","486.70512820512823","black","legacy","legacy","legacy","0","Congruent","uniform","1","undefined","1","h","0","0","0","77","77","0","77","77","0","0","0","77","77","77","77","0","Fri Sep 16 15:59:59 2022","1500","The main experiment item","yes","Lab21FlankerTask.osexp","/Users/alexisparrish/Desktop","no","mono","no","18","no","white","no","yes","768","legacy","77","77","/Users/alexisparrish/Desktop/ap-subject-1.csv","legacy","Lentiform Loewenfeld","3.3.12","0","h","NA","NA","NA","s","h","481","NA","NA","NA","1769","481","2","legacy","1024","2","48000","-16","experiment","HHHHH","1","odd","5713","NA","NA","101817","NA","NA","135022","133966","NA","NA","3938","135126","135608","135018","135126","3927","Lab 2.1: Flanker Task","75","37963","78","yes","1024"
"96.20253164556962","96.20253164556962","485.27848101265823","485.27848101265823","black","legacy","legacy","legacy","0","Congruent","uniform","1","undefined","1","h","0","0","0","78","78","0","78","78","0","0","0","78","78","78","78","0","Fri Sep 16 15:59:59 2022","1500","The main experiment item","yes","Lab21FlankerTask.osexp","/Users/alexisparrish/Desktop","no","mono","no","18","no","white","no","yes","768","legacy","78","78","/Users/alexisparrish/Desktop/ap-subject-1.csv","legacy","Lentiform Loewenfeld","3.3.12","0","h","NA","NA","NA","s","h","374","NA","NA","NA","1769","374","2","legacy","1024","2","48000","-16","experiment","HHHHH","1","odd","5713","NA","NA","101817","NA","NA","136675","135619","NA","NA","3938","136779","137155","136671","136779","3927","Lab 2.1: Flanker Task","76","38337","79","yes","1024"
"96.25","96.25","485.75","485.75","black","legacy","legacy","legacy","0","Congruent","uniform","1","undefined","1","s","0","0","0","79","79","0","79","79","0","0","0","79","79","79","79","0","Fri Sep 16 15:59:59 2022","1500","The main experiment item","yes","Lab21FlankerTask.osexp","/Users/alexisparrish/Desktop","no","mono","no","18","no","white","no","yes","768","legacy","79","79","/Users/alexisparrish/Desktop/ap-subject-1.csv","legacy","Lentiform Loewenfeld","3.3.12","0","s","NA","NA","NA","s","s","523","NA","NA","NA","1769","523","2","legacy","1024","2","48000","-16","experiment","SSSSS","1","odd","5713","NA","NA","101817","NA","NA","138222","137165","NA","NA","3938","138326","138850","138217","138326","3927","Lab 2.1: Flanker Task","77","38860","80","yes","1024"
"96.29629629629629","96.29629629629629","485.679012345679","485.679012345679","black","legacy","legacy","legacy","0","Incongruent","uniform","1","undefined","1","h","0","0","0","80","80","0","80","80","0","0","0","80","80","80","80","0","Fri Sep 16 15:59:59 2022","600","The main experiment item","yes","Lab21FlankerTask.osexp","/Users/alexisparrish/Desktop","no","mono","no","18","no","white","no","yes","768","legacy","0","79","/Users/alexisparrish/Desktop/ap-subject-1.csv","legacy","Lentiform Loewenfeld","3.3.12","0","h","NA","NA","s","s","h","480","NA","NA","18067","1769","480","2","legacy","1024","2","48000","-16","experiment","SSHSS","1","odd","5713","157956","NA","101817","NA","NA","157996","138862","NA","139888","3938","158100","158581","157991","158100","3927","Lab 2.1: Flanker Task","78","39340","81","yes","1024"
"96.34146341463415","96.34146341463415","485.0243902439024","485.0243902439024","black","legacy","legacy","legacy","0","Incongruent","uniform","1","undefined","1","s","0","0","0","81","81","0","81","81","0","0","0","81","81","81","81","0","Fri Sep 16 15:59:59 2022","600","The main experiment item","yes","Lab21FlankerTask.osexp","/Users/alexisparrish/Desktop","no","mono","no","18","no","white","no","yes","768","legacy","1","79","/Users/alexisparrish/Desktop/ap-subject-1.csv","legacy","Lentiform Loewenfeld","3.3.12","0","s","NA","NA","s","s","s","432","NA","NA","18067","1769","432","2","legacy","1024","2","48000","-16","experiment","HHSHH","1","odd","5713","157956","NA","101817","NA","NA","159648","158592","NA","139888","3938","159752","160185","159644","159752","3927","Lab 2.1: Flanker Task","79","39772","82","yes","1024"
"96.3855421686747","96.3855421686747","483.8313253012048","483.8313253012048","black","legacy","legacy","legacy","0","Incongruent","uniform","1","undefined","1","h","0","0","0","82","82","0","82","82","0","0","0","82","82","82","82","0","Fri Sep 16 15:59:59 2022","600","The main experiment item","yes","Lab21FlankerTask.osexp","/Users/alexisparrish/Desktop","no","mono","no","18","no","white","no","yes","768","legacy","2","79","/Users/alexisparrish/Desktop/ap-subject-1.csv","legacy","Lentiform Loewenfeld","3.3.12","0","h","NA","NA","s","s","h","386","NA","NA","18067","1769","386","2","legacy","1024","2","48000","-16","experiment","SSHSS","1","odd","5713","157956","NA","101817","NA","NA","161253","160196","NA","139888","3938","161357","161744","161248","161357","3927","Lab 2.1: Flanker Task","80","40158","83","yes","1024"
"96.42857142857143","96.42857142857143","483.85714285714283","483.85714285714283","black","legacy","legacy","legacy","0","Incongruent","uniform","1","undefined","1","s","0","0","0","83","83","0","83","83","0","0","0","83","83","83","83","0","Fri Sep 16 15:59:59 2022","600","The main experiment item","yes","Lab21FlankerTask.osexp","/Users/alexisparrish/Desktop","no","mono","no","18","no","white","no","yes","768","legacy","3","79","/Users/alexisparrish/Desktop/ap-subject-1.csv","legacy","Lentiform Loewenfeld","3.3.12","0","s","NA","NA","s","s","s","486","NA","NA","18067","1769","486","2","legacy","1024","2","48000","-16","experiment","HHSHH","1","odd","5713","157956","NA","101817","NA","NA","162812","161754","NA","139888","3938","162916","163403","162807","162916","3927","Lab 2.1: Flanker Task","81","40644","84","yes","1024"
"96.47058823529412","96.47058823529412","482.91764705882355","482.91764705882355","black","legacy","legacy","legacy","0","Congruent","uniform","1","undefined","1","s","0","0","0","84","84","0","84","84","0","0","0","84","84","84","84","0","Fri Sep 16 15:59:59 2022","600","The main experiment item","yes","Lab21FlankerTask.osexp","/Users/alexisparrish/Desktop","no","mono","no","18","no","white","no","yes","768","legacy","4","79","/Users/alexisparrish/Desktop/ap-subject-1.csv","legacy","Lentiform Loewenfeld","3.3.12","0","s","NA","NA","s","s","s","404","NA","NA","18067","1769","404","2","legacy","1024","2","48000","-16","experiment","SSSSS","1","odd","5713","157956","NA","101817","NA","NA","164469","163413","NA","139888","3938","164573","164978","164464","164573","3927","Lab 2.1: Flanker Task","82","41048","85","yes","1024"
"96.51162790697674","96.51162790697674","482.1860465116279","482.1860465116279","black","legacy","legacy","legacy","0","Incongruent","uniform","1","undefined","1","h","0","0","0","85","85","0","85","85","0","0","0","85","85","85","85","0","Fri Sep 16 15:59:59 2022","600","The main experiment item","yes","Lab21FlankerTask.osexp","/Users/alexisparrish/Desktop","no","mono","no","18","no","white","no","yes","768","legacy","5","79","/Users/alexisparrish/Desktop/ap-subject-1.csv","legacy","Lentiform Loewenfeld","3.3.12","0","h","NA","NA","s","s","h","420","NA","NA","18067","1769","420","2","legacy","1024","2","48000","-16","experiment","SSHSS","1","odd","5713","157956","NA","101817","NA","NA","166046","164989","NA","139888","3938","166150","166571","166041","166150","3927","Lab 2.1: Flanker Task","83","41468","86","yes","1024"
"96.55172413793103","96.55172413793103","481.7471264367816","481.7471264367816","black","legacy","legacy","legacy","0","Incongruent","uniform","1","undefined","1","s","0","0","0","86","86","0","86","86","0","0","0","86","86","86","86","0","Fri Sep 16 15:59:59 2022","600","The main experiment item","yes","Lab21FlankerTask.osexp","/Users/alexisparrish/Desktop","no","mono","no","18","no","white","no","yes","768","legacy","6","79","/Users/alexisparrish/Desktop/ap-subject-1.csv","legacy","Lentiform Loewenfeld","3.3.12","0","s","NA","NA","s","s","s","444","NA","NA","18067","1769","444","2","legacy","1024","2","48000","-16","experiment","HHSHH","1","odd","5713","157956","NA","101817","NA","NA","167638","166581","NA","139888","3938","167742","168187","167634","167742","3927","Lab 2.1: Flanker Task","84","41912","87","yes","1024"
"96.5909090909091","96.5909090909091","480.3068181818182","480.3068181818182","black","legacy","legacy","legacy","0","Congruent","uniform","1","undefined","1","s","0","0","0","87","87","0","87","87","0","0","0","87","87","87","87","0","Fri Sep 16 15:59:59 2022","600","The main experiment item","yes","Lab21FlankerTask.osexp","/Users/alexisparrish/Desktop","no","mono","no","18","no","white","no","yes","768","legacy","7","79","/Users/alexisparrish/Desktop/ap-subject-1.csv","legacy","Lentiform Loewenfeld","3.3.12","0","s","NA","NA","s","s","s","355","NA","NA","18067","1769","355","2","legacy","1024","2","48000","-16","experiment","SSSSS","1","odd","5713","157956","NA","101817","NA","NA","169254","168197","NA","139888","3938","169358","169714","169249","169358","3927","Lab 2.1: Flanker Task","85","42267","88","yes","1024"
"96.62921348314607","96.62921348314607","479.34831460674155","479.34831460674155","black","legacy","legacy","legacy","0","Incongruent","uniform","1","undefined","1","h","0","0","0","88","88","0","88","88","0","0","0","88","88","88","88","0","Fri Sep 16 15:59:59 2022","600","The main experiment item","yes","Lab21FlankerTask.osexp","/Users/alexisparrish/Desktop","no","mono","no","18","no","white","no","yes","768","legacy","8","79","/Users/alexisparrish/Desktop/ap-subject-1.csv","legacy","Lentiform Loewenfeld","3.3.12","0","h","NA","NA","s","s","h","395","NA","NA","18067","1769","395","2","legacy","1024","2","48000","-16","experiment","SSHSS","1","odd","5713","157956","NA","101817","NA","NA","170783","169726","NA","139888","3938","170887","171284","170778","170887","3927","Lab 2.1: Flanker Task","86","42662","89","yes","1024"
"96.66666666666667","96.66666666666667","478.73333333333335","478.73333333333335","black","legacy","legacy","legacy","0","Incongruent","uniform","1","undefined","1","s","0","0","0","89","89","0","89","89","0","0","0","89","89","89","89","0","Fri Sep 16 15:59:59 2022","600","The main experiment item","yes","Lab21FlankerTask.osexp","/Users/alexisparrish/Desktop","no","mono","no","18","no","white","no","yes","768","legacy","9","79","/Users/alexisparrish/Desktop/ap-subject-1.csv","legacy","Lentiform Loewenfeld","3.3.12","0","s","NA","NA","s","s","s","424","NA","NA","18067","1769","424","2","legacy","1024","2","48000","-16","experiment","HHSHH","1","odd","5713","157956","NA","101817","NA","NA","172345","171290","NA","139888","3938","172450","172876","172341","172450","3927","Lab 2.1: Flanker Task","87","43086","90","yes","1024"
"96.7032967032967","96.7032967032967","478.4065934065934","478.4065934065934","black","legacy","legacy","legacy","0","Congruent","uniform","1","undefined","1","s","0","0","0","90","90","0","90","90","0","0","0","90","90","90","90","0","Fri Sep 16 15:59:59 2022","600","The main experiment item","yes","Lab21FlankerTask.osexp","/Users/alexisparrish/Desktop","no","mono","no","18","no","white","no","yes","768","legacy","10","79","/Users/alexisparrish/Desktop/ap-subject-1.csv","legacy","Lentiform Loewenfeld","3.3.12","0","s","NA","NA","s","s","s","449","NA","NA","18067","1769","449","2","legacy","1024","2","48000","-16","experiment","SSSSS","1","odd","5713","157956","NA","101817","NA","NA","173942","172886","NA","139888","3938","174046","174497","173938","174046","3927","Lab 2.1: Flanker Task","88","43535","91","yes","1024"
"96.73913043478261","96.73913043478261","478.67391304347825","478.67391304347825","black","legacy","legacy","legacy","0","Incongruent","uniform","1","undefined","1","h","0","0","0","91","91","0","91","91","0","0","0","91","91","91","91","0","Fri Sep 16 15:59:59 2022","600","The main experiment item","yes","Lab21FlankerTask.osexp","/Users/alexisparrish/Desktop","no","mono","no","18","no","white","no","yes","768","legacy","11","79","/Users/alexisparrish/Desktop/ap-subject-1.csv","legacy","Lentiform Loewenfeld","3.3.12","0","h","NA","NA","s","s","h","503","NA","NA","18067","1769","503","2","legacy","1024","2","48000","-16","experiment","SSHSS","1","odd","5713","157956","NA","101817","NA","NA","175562","174507","NA","139888","3938","175666","176170","175558","175666","3927","Lab 2.1: Flanker Task","89","44038","92","yes","1024"
"96.7741935483871","96.7741935483871","478.5698924731183","478.5698924731183","black","legacy","legacy","legacy","0","Incongruent","uniform","1","undefined","1","h","0","0","0","92","92","0","92","92","0","0","0","92","92","92","92","0","Fri Sep 16 15:59:59 2022","600","The main experiment item","yes","Lab21FlankerTask.osexp","/Users/alexisparrish/Desktop","no","mono","no","18","no","white","no","yes","768","legacy","12","79","/Users/alexisparrish/Desktop/ap-subject-1.csv","legacy","Lentiform Loewenfeld","3.3.12","0","h","NA","NA","s","s","h","469","NA","NA","18067","1769","469","2","legacy","1024","2","48000","-16","experiment","SSHSS","1","odd","5713","157956","NA","101817","NA","NA","177238","176182","NA","139888","3938","177342","177813","177233","177342","3927","Lab 2.1: Flanker Task","90","44507","93","yes","1024"
"96.80851063829788","96.80851063829788","478.28723404255317","478.28723404255317","black","legacy","legacy","legacy","0","Congruent","uniform","1","undefined","1","h","0","0","0","93","93","0","93","93","0","0","0","93","93","93","93","0","Fri Sep 16 15:59:59 2022","600","The main experiment item","yes","Lab21FlankerTask.osexp","/Users/alexisparrish/Desktop","no","mono","no","18","no","white","no","yes","768","legacy","13","79","/Users/alexisparrish/Desktop/ap-subject-1.csv","legacy","Lentiform Loewenfeld","3.3.12","0","h","NA","NA","s","s","h","452","NA","NA","18067","1769","452","2","legacy","1024","2","48000","-16","experiment","HHHHH","1","odd","5713","157956","NA","101817","NA","NA","178887","177823","NA","139888","3938","178991","179445","178882","178991","3927","Lab 2.1: Flanker Task","91","44959","94","yes","1024"
"96.84210526315789","96.84210526315789","478.13684210526316","478.13684210526316","black","legacy","legacy","legacy","0","Incongruent","uniform","1","undefined","1","s","0","0","0","94","94","0","94","94","0","0","0","94","94","94","94","0","Fri Sep 16 15:59:59 2022","600","The main experiment item","yes","Lab21FlankerTask.osexp","/Users/alexisparrish/Desktop","no","mono","no","18","no","white","no","yes","768","legacy","14","79","/Users/alexisparrish/Desktop/ap-subject-1.csv","legacy","Lentiform Loewenfeld","3.3.12","0","s","NA","NA","s","s","s","464","NA","NA","18067","1769","464","2","legacy","1024","2","48000","-16","experiment","HHSHH","1","odd","5713","157956","NA","101817","NA","NA","180508","179452","NA","139888","3938","180612","181077","180503","180612","3927","Lab 2.1: Flanker Task","92","45423","95","yes","1024"
"96.875","96.875","477.5208333333333","477.5208333333333","black","legacy","legacy","legacy","0","Incongruent","uniform","1","undefined","1","s","0","0","0","95","95","0","95","95","0","0","0","95","95","95","95","0","Fri Sep 16 15:59:59 2022","600","The main experiment item","yes","Lab21FlankerTask.osexp","/Users/alexisparrish/Desktop","no","mono","no","18","no","white","no","yes","768","legacy","15","79","/Users/alexisparrish/Desktop/ap-subject-1.csv","legacy","Lentiform Loewenfeld","3.3.12","0","s","NA","NA","s","s","s","419","NA","NA","18067","1769","419","2","legacy","1024","2","48000","-16","experiment","HHSHH","1","odd","5713","157956","NA","101817","NA","NA","182144","181088","NA","139888","3938","182248","182668","182140","182248","3927","Lab 2.1: Flanker Task","93","45842","96","yes","1024"
"96.90721649484536","96.90721649484536","476.8659793814433","476.8659793814433","black","legacy","legacy","legacy","0","Congruent","uniform","1","undefined","1","s","0","0","0","96","96","0","96","96","0","0","0","96","96","96","96","0","Fri Sep 16 15:59:59 2022","600","The main experiment item","yes","Lab21FlankerTask.osexp","/Users/alexisparrish/Desktop","no","mono","no","18","no","white","no","yes","768","legacy","16","79","/Users/alexisparrish/Desktop/ap-subject-1.csv","legacy","Lentiform Loewenfeld","3.3.12","0","s","NA","NA","s","s","s","414","NA","NA","18067","1769","414","2","legacy","1024","2","48000","-16","experiment","SSSSS","1","odd","5713","157956","NA","101817","NA","NA","183737","182681","NA","139888","3938","183841","184256","183732","183841","3927","Lab 2.1: Flanker Task","94","46256","97","yes","1024"
"96.93877551020408","96.93877551020408","476.2857142857143","476.2857142857143","black","legacy","legacy","legacy","0","Incongruent","uniform","1","undefined","1","s","0","0","0","97","97","0","97","97","0","0","0","97","97","97","97","0","Fri Sep 16 15:59:59 2022","600","The main experiment item","yes","Lab21FlankerTask.osexp","/Users/alexisparrish/Desktop","no","mono","no","18","no","white","no","yes","768","legacy","17","79","/Users/alexisparrish/Desktop/ap-subject-1.csv","legacy","Lentiform Loewenfeld","3.3.12","0","s","NA","NA","s","s","s","420","NA","NA","18067","1769","420","2","legacy","1024","2","48000","-16","experiment","HHSHH","1","odd","5713","157956","NA","101817","NA","NA","185323","184267","NA","139888","3938","185427","185848","185319","185427","3927","Lab 2.1: Flanker Task","95","46676","98","yes","1024"
"96.96969696969697","96.96969696969697","475.19191919191917","475.19191919191917","black","legacy","legacy","legacy","0","Congruent","uniform","1","undefined","1","s","0","0","0","98","98","0","98","98","0","0","0","98","98","98","98","0","Fri Sep 16 15:59:59 2022","600","The main experiment item","yes","Lab21FlankerTask.osexp","/Users/alexisparrish/Desktop","no","mono","no","18","no","white","no","yes","768","legacy","18","79","/Users/alexisparrish/Desktop/ap-subject-1.csv","legacy","Lentiform Loewenfeld","3.3.12","0","s","NA","NA","s","s","s","368","NA","NA","18067","1769","368","2","legacy","1024","2","48000","-16","experiment","SSSSS","1","odd","5713","157956","NA","101817","NA","NA","186915","185860","NA","139888","3938","187019","187388","186911","187019","3927","Lab 2.1: Flanker Task","96","47044","99","yes","1024"
"97","97","475.07","475.07","black","legacy","legacy","legacy","0","Incongruent","uniform","1","undefined","1","s","0","0","0","99","99","0","99","99","0","0","0","99","99","99","99","0","Fri Sep 16 15:59:59 2022","600","The main experiment item","yes","Lab21FlankerTask.osexp","/Users/alexisparrish/Desktop","no","mono","no","18","no","white","no","yes","768","legacy","19","79","/Users/alexisparrish/Desktop/ap-subject-1.csv","legacy","Lentiform Loewenfeld","3.3.12","0","s","NA","NA","s","s","s","463","NA","NA","18067","1769","463","2","legacy","1024","2","48000","-16","experiment","HHSHH","1","odd","5713","157956","NA","101817","NA","NA","188457","187400","NA","139888","3938","188561","189025","188452","188561","3927","Lab 2.1: Flanker Task","97","47507","100","yes","1024"
"97.02970297029702","97.02970297029702","473.7227722772277","473.7227722772277","black","legacy","legacy","legacy","0","Congruent","uniform","1","undefined","1","h","0","0","0","100","100","0","100","100","0","0","0","100","100","100","100","0","Fri Sep 16 15:59:59 2022","600","The main experiment item","yes","Lab21FlankerTask.osexp","/Users/alexisparrish/Desktop","no","mono","no","18","no","white","no","yes","768","legacy","20","79","/Users/alexisparrish/Desktop/ap-subject-1.csv","legacy","Lentiform Loewenfeld","3.3.12","0","h","NA","NA","s","s","h","339","NA","NA","18067","1769","339","2","legacy","1024","2","48000","-16","experiment","HHHHH","1","odd","5713","157956","NA","101817","NA","NA","190093","189037","NA","139888","3938","190197","190537","190089","190197","3927","Lab 2.1: Flanker Task","98","47846","101","yes","1024"
"97.05882352941177","97.05882352941177","473.69607843137254","473.69607843137254","black","legacy","legacy","legacy","0","Incongruent","uniform","1","undefined","1","s","0","0","0","101","101","0","101","101","0","0","0","101","101","101","101","0","Fri Sep 16 15:59:59 2022","600","The main experiment item","yes","Lab21FlankerTask.osexp","/Users/alexisparrish/Desktop","no","mono","no","18","no","white","no","yes","768","legacy","21","79","/Users/alexisparrish/Desktop/ap-subject-1.csv","legacy","Lentiform Loewenfeld","3.3.12","0","s","NA","NA","s","s","s","471","NA","NA","18067","1769","471","2","legacy","1024","2","48000","-16","experiment","HHSHH","1","odd","5713","157956","NA","101817","NA","NA","191604","190548","NA","139888","3938","191708","192180","191600","191708","3927","Lab 2.1: Flanker Task","99","48317","102","yes","1024"
"97.0873786407767","97.0873786407767","473.11650485436894","473.11650485436894","black","legacy","legacy","legacy","0","Congruent","uniform","1","undefined","1","h","0","0","0","102","102","0","102","102","0","0","0","102","102","102","102","0","Fri Sep 16 15:59:59 2022","600","The main experiment item","yes","Lab21FlankerTask.osexp","/Users/alexisparrish/Desktop","no","mono","no","18","no","white","no","yes","768","legacy","22","79","/Users/alexisparrish/Desktop/ap-subject-1.csv","legacy","Lentiform Loewenfeld","3.3.12","0","h","NA","NA","s","s","h","414","NA","NA","18067","1769","414","2","legacy","1024","2","48000","-16","experiment","HHHHH","1","odd","5713","157956","NA","101817","NA","NA","193248","192192","NA","139888","3938","193352","193767","193243","193352","3927","Lab 2.1: Flanker Task","100","48731","103","yes","1024"
"97.11538461538461","97.11538461538461","472.0192307692308","472.0192307692308","black","legacy","legacy","legacy","0","Congruent","uniform","1","undefined","1","h","0","0","0","103","103","0","103","103","0","0","0","103","103","103","103","0","Fri Sep 16 15:59:59 2022","600","The main experiment item","yes","Lab21FlankerTask.osexp","/Users/alexisparrish/Desktop","no","mono","no","18","no","white","no","yes","768","legacy","23","79","/Users/alexisparrish/Desktop/ap-subject-1.csv","legacy","Lentiform Loewenfeld","3.3.12","0","h","NA","NA","s","s","h","359","NA","NA","18067","1769","359","2","legacy","1024","2","48000","-16","experiment","HHHHH","1","odd","5713","157956","NA","101817","NA","NA","194836","193778","NA","139888","3938","194940","195300","194831","194940","3927","Lab 2.1: Flanker Task","101","49090","104","yes","1024"
"97.14285714285714","97.14285714285714","471.79047619047617","471.79047619047617","black","legacy","legacy","legacy","0","Incongruent","uniform","1","undefined","1","h","0","0","0","104","104","0","104","104","0","0","0","104","104","104","104","0","Fri Sep 16 15:59:59 2022","600","The main experiment item","yes","Lab21FlankerTask.osexp","/Users/alexisparrish/Desktop","no","mono","no","18","no","white","no","yes","768","legacy","24","79","/Users/alexisparrish/Desktop/ap-subject-1.csv","legacy","Lentiform Loewenfeld","3.3.12","0","h","NA","NA","s","s","h","448","NA","NA","18067","1769","448","2","legacy","1024","2","48000","-16","experiment","SSHSS","1","odd","5713","157956","NA","101817","NA","NA","196371","195312","NA","139888","3938","196475","196924","196363","196475","3927","Lab 2.1: Flanker Task","102","49538","105","yes","1024"
"97.16981132075472","97.16981132075472","470.42452830188677","470.42452830188677","black","legacy","legacy","legacy","0","Congruent","uniform","1","undefined","1","s","0","0","0","105","105","0","105","105","0","0","0","105","105","105","105","0","Fri Sep 16 15:59:59 2022","600","The main experiment item","yes","Lab21FlankerTask.osexp","/Users/alexisparrish/Desktop","no","mono","no","18","no","white","no","yes","768","legacy","25","79","/Users/alexisparrish/Desktop/ap-subject-1.csv","legacy","Lentiform Loewenfeld","3.3.12","0","s","NA","NA","s","s","s","327","NA","NA","18067","1769","327","2","legacy","1024","2","48000","-16","experiment","SSSSS","1","odd","5713","157956","NA","101817","NA","NA","197990","196935","NA","139888","3938","198094","198422","197986","198094","3927","Lab 2.1: Flanker Task","103","49865","106","yes","1024"
"97.19626168224299","97.19626168224299","469.2710280373832","469.2710280373832","black","legacy","legacy","legacy","0","Congruent","uniform","1","undefined","1","s","0","0","0","106","106","0","106","106","0","0","0","106","106","106","106","0","Fri Sep 16 15:59:59 2022","600","The main experiment item","yes","Lab21FlankerTask.osexp","/Users/alexisparrish/Desktop","no","mono","no","18","no","white","no","yes","768","legacy","26","79","/Users/alexisparrish/Desktop/ap-subject-1.csv","legacy","Lentiform Loewenfeld","3.3.12","0","s","NA","NA","s","s","s","347","NA","NA","18067","1769","347","2","legacy","1024","2","48000","-16","experiment","SSSSS","1","odd","5713","157956","NA","101817","NA","NA","199488","198432","NA","139888","3938","199592","199940","199483","199592","3927","Lab 2.1: Flanker Task","104","50212","107","yes","1024"
"97.22222222222223","97.22222222222223","468.3333333333333","468.3333333333333","black","legacy","legacy","legacy","0","Congruent","uniform","1","undefined","1","h","0","0","0","107","107","0","107","107","0","0","0","107","107","107","107","0","Fri Sep 16 15:59:59 2022","600","The main experiment item","yes","Lab21FlankerTask.osexp","/Users/alexisparrish/Desktop","no","mono","no","18","no","white","no","yes","768","legacy","27","79","/Users/alexisparrish/Desktop/ap-subject-1.csv","legacy","Lentiform Loewenfeld","3.3.12","0","h","NA","NA","s","s","h","368","NA","NA","18067","1769","368","2","legacy","1024","2","48000","-16","experiment","HHHHH","1","odd","5713","157956","NA","101817","NA","NA","201008","199951","NA","139888","3938","201112","201481","201004","201112","3927","Lab 2.1: Flanker Task","105","50580","108","yes","1024"
"96.3302752293578","96.3302752293578","467.651376146789","467.651376146789","black","legacy","legacy","legacy","0","Incongruent","uniform","0","undefined","0","h","0","0","0","108","108","0","108","108","0","0","0","108","108","108","108","0","Fri Sep 16 15:59:59 2022","600","The main experiment item","yes","Lab21FlankerTask.osexp","/Users/alexisparrish/Desktop","no","mono","no","18","no","white","no","yes","768","legacy","28","79","/Users/alexisparrish/Desktop/ap-subject-1.csv","legacy","Lentiform Loewenfeld","3.3.12","0","s","NA","NA","s","s","s","394","NA","NA","18067","1769","394","2","legacy","1024","2","48000","-16","experiment","SSHSS","1","odd","5713","157956","NA","101817","NA","NA","202548","201492","NA","139888","3938","202653","203048","202544","202653","3927","Lab 2.1: Flanker Task","105","50974","109","yes","1024"
"96.36363636363636","96.36363636363636","467.8272727272727","467.8272727272727","black","legacy","legacy","legacy","0","Congruent","uniform","1","undefined","1","s","0","0","0","109","109","0","109","109","0","0","0","109","109","109","109","0","Fri Sep 16 15:59:59 2022","600","The main experiment item","yes","Lab21FlankerTask.osexp","/Users/alexisparrish/Desktop","no","mono","no","18","no","white","no","yes","768","legacy","29","79","/Users/alexisparrish/Desktop/ap-subject-1.csv","legacy","Lentiform Loewenfeld","3.3.12","0","s","NA","NA","s","s","s","487","NA","NA","18067","1769","487","2","legacy","1024","2","48000","-16","experiment","SSSSS","1","odd","5713","157956","NA","203059","NA","NA","204619","203563","NA","139888","3938","204723","205211","204614","204723","3927","Lab 2.1: Flanker Task","106","51461","110","yes","1024"
"96.3963963963964","96.3963963963964","467.4054054054054","467.4054054054054","black","legacy","legacy","legacy","0","Incongruent","uniform","1","undefined","1","h","0","0","0","110","110","0","110","110","0","0","0","110","110","110","110","0","Fri Sep 16 15:59:59 2022","600","The main experiment item","yes","Lab21FlankerTask.osexp","/Users/alexisparrish/Desktop","no","mono","no","18","no","white","no","yes","768","legacy","30","79","/Users/alexisparrish/Desktop/ap-subject-1.csv","legacy","Lentiform Loewenfeld","3.3.12","0","h","NA","NA","s","s","h","421","NA","NA","18067","1769","421","2","legacy","1024","2","48000","-16","experiment","SSHSS","1","odd","5713","157956","NA","203059","NA","NA","206277","205221","NA","139888","3938","206381","206803","206273","206381","3927","Lab 2.1: Flanker Task","107","51882","111","yes","1024"
"96.42857142857143","96.42857142857143","467.94642857142856","467.94642857142856","black","legacy","legacy","legacy","0","Incongruent","uniform","1","undefined","1","s","0","0","0","111","111","0","111","111","0","0","0","111","111","111","111","0","Fri Sep 16 15:59:59 2022","600","The main experiment item","yes","Lab21FlankerTask.osexp","/Users/alexisparrish/Desktop","no","mono","no","18","no","white","no","yes","768","legacy","31","79","/Users/alexisparrish/Desktop/ap-subject-1.csv","legacy","Lentiform Loewenfeld","3.3.12","0","s","NA","NA","s","s","s","528","NA","NA","18067","1769","528","2","legacy","1024","2","48000","-16","experiment","HHSHH","1","odd","5713","157956","NA","203059","NA","NA","207870","206813","NA","139888","3938","207974","208504","207865","207974","3927","Lab 2.1: Flanker Task","108","52410","112","yes","1024"
"96.46017699115045","96.46017699115045","467.0619469026549","467.0619469026549","black","legacy","legacy","legacy","0","Congruent","uniform","1","undefined","1","h","0","0","0","112","112","0","112","112","0","0","0","112","112","112","112","0","Fri Sep 16 15:59:59 2022","600","The main experiment item","yes","Lab21FlankerTask.osexp","/Users/alexisparrish/Desktop","no","mono","no","18","no","white","no","yes","768","legacy","32","79","/Users/alexisparrish/Desktop/ap-subject-1.csv","legacy","Lentiform Loewenfeld","3.3.12","0","h","NA","NA","s","s","h","368","NA","NA","18067","1769","368","2","legacy","1024","2","48000","-16","experiment","HHHHH","1","odd","5713","157956","NA","203059","NA","NA","209573","208515","NA","139888","3938","209677","210047","209567","209677","3927","Lab 2.1: Flanker Task","109","52778","113","yes","1024"
"96.49122807017544","96.49122807017544","467.6842105263158","467.6842105263158","black","legacy","legacy","legacy","0","Incongruent","uniform","1","undefined","1","h","0","0","0","113","113","0","113","113","0","0","0","113","113","113","113","0","Fri Sep 16 15:59:59 2022","600","The main experiment item","yes","Lab21FlankerTask.osexp","/Users/alexisparrish/Desktop","no","mono","no","18","no","white","no","yes","768","legacy","33","79","/Users/alexisparrish/Desktop/ap-subject-1.csv","legacy","Lentiform Loewenfeld","3.3.12","0","h","NA","NA","s","s","h","538","NA","NA","18067","1769","538","2","legacy","1024","2","48000","-16","experiment","SSHSS","1","odd","5713","157956","NA","203059","NA","NA","211114","210058","NA","139888","3938","211218","211758","211109","211218","3927","Lab 2.1: Flanker Task","110","53316","114","yes","1024"
"96.52173913043478","96.52173913043478","466.5826086956522","466.5826086956522","black","legacy","legacy","legacy","0","Congruent","uniform","1","undefined","1","s","0","0","0","114","114","0","114","114","0","0","0","114","114","114","114","0","Fri Sep 16 15:59:59 2022","600","The main experiment item","yes","Lab21FlankerTask.osexp","/Users/alexisparrish/Desktop","no","mono","no","18","no","white","no","yes","768","legacy","34","79","/Users/alexisparrish/Desktop/ap-subject-1.csv","legacy","Lentiform Loewenfeld","3.3.12","0","s","NA","NA","s","s","s","341","NA","NA","18067","1769","341","2","legacy","1024","2","48000","-16","experiment","SSSSS","1","odd","5713","157956","NA","203059","NA","NA","212826","211769","NA","139888","3938","212930","213273","212822","212930","3927","Lab 2.1: Flanker Task","111","53657","115","yes","1024"
"96.55172413793103","96.55172413793103","466.2413793103448","466.2413793103448","black","legacy","legacy","legacy","0","Congruent","uniform","1","undefined","1","s","0","0","0","115","115","0","115","115","0","0","0","115","115","115","115","0","Fri Sep 16 15:59:59 2022","600","The main experiment item","yes","Lab21FlankerTask.osexp","/Users/alexisparrish/Desktop","no","mono","no","18","no","white","no","yes","768","legacy","35","79","/Users/alexisparrish/Desktop/ap-subject-1.csv","legacy","Lentiform Loewenfeld","3.3.12","0","s","NA","NA","s","s","s","427","NA","NA","18067","1769","427","2","legacy","1024","2","48000","-16","experiment","SSSSS","1","odd","5713","157956","NA","203059","NA","NA","214340","213284","NA","139888","3938","214444","214873","214335","214444","3927","Lab 2.1: Flanker Task","112","54084","116","yes","1024"
"96.58119658119658","96.58119658119658","466.36752136752136","466.36752136752136","black","legacy","legacy","legacy","0","Congruent","uniform","1","undefined","1","h","0","0","0","116","116","0","116","116","0","0","0","116","116","116","116","0","Fri Sep 16 15:59:59 2022","600","The main experiment item","yes","Lab21FlankerTask.osexp","/Users/alexisparrish/Desktop","no","mono","no","18","no","white","no","yes","768","legacy","36","79","/Users/alexisparrish/Desktop/ap-subject-1.csv","legacy","Lentiform Loewenfeld","3.3.12","0","h","NA","NA","s","s","h","481","NA","NA","18067","1769","481","2","legacy","1024","2","48000","-16","experiment","HHHHH","1","odd","5713","157956","NA","203059","NA","NA","215940","214884","NA","139888","3938","216044","216527","215935","216044","3927","Lab 2.1: Flanker Task","113","54565","117","yes","1024"
"96.61016949152543","96.61016949152543","466.27966101694915","466.27966101694915","black","legacy","legacy","legacy","0","Incongruent","uniform","1","undefined","1","h","0","0","0","117","117","0","117","117","0","0","0","117","117","117","117","0","Fri Sep 16 15:59:59 2022","600","The main experiment item","yes","Lab21FlankerTask.osexp","/Users/alexisparrish/Desktop","no","mono","no","18","no","white","no","yes","768","legacy","37","79","/Users/alexisparrish/Desktop/ap-subject-1.csv","legacy","Lentiform Loewenfeld","3.3.12","0","h","NA","NA","s","s","h","456","NA","NA","18067","1769","456","2","legacy","1024","2","48000","-16","experiment","SSHSS","1","odd","5713","157956","NA","203059","NA","NA","217593","216537","NA","139888","3938","217697","218154","217588","217697","3927","Lab 2.1: Flanker Task","114","55021","118","yes","1024"
"96.63865546218487","96.63865546218487","465.7142857142857","465.7142857142857","black","legacy","legacy","legacy","0","Congruent","uniform","1","undefined","1","s","0","0","0","118","118","0","118","118","0","0","0","118","118","118","118","0","Fri Sep 16 15:59:59 2022","600","The main experiment item","yes","Lab21FlankerTask.osexp","/Users/alexisparrish/Desktop","no","mono","no","18","no","white","no","yes","768","legacy","38","79","/Users/alexisparrish/Desktop/ap-subject-1.csv","legacy","Lentiform Loewenfeld","3.3.12","0","s","NA","NA","s","s","s","399","NA","NA","18067","1769","399","2","legacy","1024","2","48000","-16","experiment","SSSSS","1","odd","5713","157956","NA","203059","NA","NA","219221","218165","NA","139888","3938","219325","219725","219216","219325","3927","Lab 2.1: Flanker Task","115","55420","119","yes","1024"
"96.66666666666667","96.66666666666667","465.23333333333335","465.23333333333335","black","legacy","legacy","legacy","0","Congruent","uniform","1","undefined","1","h","0","0","0","119","119","0","119","119","0","0","0","119","119","119","119","0","Fri Sep 16 15:59:59 2022","600","The main experiment item","yes","Lab21FlankerTask.osexp","/Users/alexisparrish/Desktop","no","mono","no","18","no","white","no","yes","768","legacy","39","79","/Users/alexisparrish/Desktop/ap-subject-1.csv","legacy","Lentiform Loewenfeld","3.3.12","0","h","NA","NA","s","s","h","408","NA","NA","18067","1769","408","2","legacy","1024","2","48000","-16","experiment","HHHHH","1","odd","5713","157956","NA","203059","NA","NA","220793","219737","NA","139888","3938","220897","221306","220788","220897","3927","Lab 2.1: Flanker Task","116","55828","120","yes","1024"
