acc,accuracy,average_response_time,avg_rt,background,canvas_backend,clock_backend,color_backend,compensation,condition,coordinates,correct,correct_instructions1,correct_keyboard_response,correct_response,count_ISI,count_block1,count_block2,count_block3,count_errorFeedback,count_experiment,count_faster,count_finish,count_fixation,count_instruction3,count_instructions1,count_instructions2,count_keyboard_response,count_logger,count_sequence,count_stimulus,datetime,deadline,description,disable_garbage_collection,experiment_file,experiment_path,font_bold,font_family,font_italic,font_size,font_underline,foreground,form_clicks,fullscreen,height,keyboard_backend,live_row,live_row_block1,logfile,mouse_backend,opensesame_codename,opensesame_version,repeat_cycle,response,response_finish,response_instruction3,response_instructions1,response_instructions2,response_keyboard_response,response_time,response_time_finish,response_time_instruction3,response_time_instructions1,response_time_instructions2,response_time_keyboard_response,round_decimals,sampler_backend,sound_buf_size,sound_channels,sound_freq,sound_sample_size,start,stimulus,subject_nr,subject_parity,time_ISI,time_block1,time_block2,time_block3,time_errorFeedback,time_experiment,time_faster,time_finish,time_fixation,time_instruction3,time_instructions1,time_instructions2,time_keyboard_response,time_logger,time_sequence,time_stimulus,title,total_correct,total_response_time,total_responses,uniform_coordinates,width
100,100,1473,1473,black,legacy,legacy,legacy,0,congruent,uniform,1,undefined,1,s,0,0,0,0,0,0,0,0,0,0,0,0,0,0,0,0,9/28/19 17:57,1500,The main experiment item,yes,Flankertask.osexp,C:\Users\Edgar\Documents\Edgar School\Fall 2019\Lab 2-1,no,mono,no,18,no,white,no,yes,768,legacy,0,0,C:/Users/Edgar/Documents/Edgar School/Fall 2019/Lab 2-2/KR-subject-4.csv,legacy,Kafkaesque Koffka,3.2.8,0,s,NA,NA,h,NA,s,1473,NA,NA,95168,NA,1473,2,legacy,1024,2,48000,-16,experiment,SSSSS,4,even,NA,100514,NA,NA,NA,5323,NA,NA,100990,NA,5342,NA,101097,102571,100983,101096,Flanker task,1,1473,1,yes,1024
100,100,1436.5,1436.5,black,legacy,legacy,legacy,0,incongruent,uniform,1,undefined,1,s,1,0,0,0,1,0,1,0,1,0,0,0,1,1,1,1,9/28/19 17:57,1500,The main experiment item,yes,Flankertask.osexp,C:\Users\Edgar\Documents\Edgar School\Fall 2019\Lab 2-1,no,mono,no,18,no,white,no,yes,768,legacy,1,1,C:/Users/Edgar/Documents/Edgar School/Fall 2019/Lab 2-2/KR-subject-4.csv,legacy,Kafkaesque Koffka,3.2.8,0,s,NA,NA,h,NA,s,1400,NA,NA,95168,NA,1400,2,legacy,1024,2,48000,-16,experiment,HHSHH,4,even,102658,100514,NA,NA,NA,5323,NA,NA,103906,NA,5342,NA,104012,105415,103898,104011,Flanker task,2,2873,2,yes,1024
66.66666667,66.66666667,1457.666667,1457.666667,black,legacy,legacy,legacy,0,incongruent,uniform,0,undefined,0,s,2,0,0,0,2,0,2,0,2,0,0,0,2,2,2,2,9/28/19 17:57,1500,The main experiment item,yes,Flankertask.osexp,C:\Users\Edgar\Documents\Edgar School\Fall 2019\Lab 2-1,no,mono,no,18,no,white,no,yes,768,legacy,2,2,C:/Users/Edgar/Documents/Edgar School/Fall 2019/Lab 2-2/KR-subject-4.csv,legacy,Kafkaesque Koffka,3.2.8,0,None,NA,NA,h,NA,None,1500,NA,NA,95168,NA,1500,2,legacy,1024,2,48000,-16,experiment,HHSHH,4,even,105465,100514,NA,NA,NA,5323,NA,NA,106727,NA,5342,NA,106834,108334,106720,106834,Flanker task,2,4373,3,yes,1024
75,75,1421,1421,black,legacy,legacy,legacy,0,congruent,uniform,1,undefined,1,h,3,0,0,0,3,0,3,0,3,0,0,0,3,3,3,3,9/28/19 17:57,1500,The main experiment item,yes,Flankertask.osexp,C:\Users\Edgar\Documents\Edgar School\Fall 2019\Lab 2-1,no,mono,no,18,no,white,no,yes,768,legacy,3,3,C:/Users/Edgar/Documents/Edgar School/Fall 2019/Lab 2-2/KR-subject-4.csv,legacy,Kafkaesque Koffka,3.2.8,0,h,NA,NA,h,NA,h,1311,NA,NA,95168,NA,1311,2,legacy,1024,2,48000,-16,experiment,HHHHH,4,even,108898,100514,NA,NA,108393,5323,NA,NA,110173,NA,5342,NA,110279,111592,110164,110278,Flanker task,3,5684,4,yes,1024
60,60,1436.8,1436.8,black,legacy,legacy,legacy,0,incongruent,uniform,0,undefined,0,h,4,0,0,0,4,0,4,0,4,0,0,0,4,4,4,4,9/28/19 17:57,1500,The main experiment item,yes,Flankertask.osexp,C:\Users\Edgar\Documents\Edgar School\Fall 2019\Lab 2-1,no,mono,no,18,no,white,no,yes,768,legacy,4,4,C:/Users/Edgar/Documents/Edgar School/Fall 2019/Lab 2-2/KR-subject-4.csv,legacy,Kafkaesque Koffka,3.2.8,0,None,NA,NA,h,NA,None,1500,NA,NA,95168,NA,1500,2,legacy,1024,2,48000,-16,experiment,SSHSS,4,even,111670,100514,NA,NA,108393,5323,NA,NA,112915,NA,5342,NA,113022,114522,112908,113021,Flanker task,3,7184,5,yes,1024
50,50,1447.5,1447.5,black,legacy,legacy,legacy,0,congruent,uniform,0,undefined,0,s,5,0,0,0,5,0,5,0,5,0,0,0,5,5,5,5,9/28/19 17:57,1500,The main experiment item,yes,Flankertask.osexp,C:\Users\Edgar\Documents\Edgar School\Fall 2019\Lab 2-1,no,mono,no,18,no,white,no,yes,768,legacy,5,5,C:/Users/Edgar/Documents/Edgar School/Fall 2019/Lab 2-2/KR-subject-4.csv,legacy,Kafkaesque Koffka,3.2.8,0,None,NA,NA,h,NA,None,1501,NA,NA,95168,NA,1501,2,legacy,1024,2,48000,-16,experiment,SSSSS,4,even,115171,100514,NA,NA,114666,5323,NA,NA,116406,NA,5342,NA,116512,118013,116397,116512,Flanker task,3,8685,6,yes,1024
57.14285714,57.14285714,1360.285714,1360.285714,black,legacy,legacy,legacy,0,incongruent,uniform,1,undefined,1,h,6,0,0,0,6,0,6,0,6,0,0,0,6,6,6,6,9/28/19 17:57,1500,The main experiment item,yes,Flankertask.osexp,C:\Users\Edgar\Documents\Edgar School\Fall 2019\Lab 2-1,no,mono,no,18,no,white,no,yes,768,legacy,6,6,C:/Users/Edgar/Documents/Edgar School/Fall 2019/Lab 2-2/KR-subject-4.csv,legacy,Kafkaesque Koffka,3.2.8,0,h,NA,NA,h,NA,h,837,NA,NA,95168,NA,837,2,legacy,1024,2,48000,-16,experiment,SSHSS,4,even,119072,100514,NA,NA,118060,5323,118567,NA,120307,NA,5342,NA,120413,121252,120297,120413,Flanker task,4,9522,7,yes,1024
62.5,62.5,1269.5,1269.5,black,legacy,legacy,legacy,0,congruent,uniform,1,undefined,1,h,7,0,0,0,7,0,7,0,7,0,0,0,7,7,7,7,9/28/19 17:57,1500,The main experiment item,yes,Flankertask.osexp,C:\Users\Edgar\Documents\Edgar School\Fall 2019\Lab 2-1,no,mono,no,18,no,white,no,yes,768,legacy,7,7,C:/Users/Edgar/Documents/Edgar School/Fall 2019/Lab 2-2/KR-subject-4.csv,legacy,Kafkaesque Koffka,3.2.8,0,h,NA,NA,h,NA,h,634,NA,NA,95168,NA,634,2,legacy,1024,2,48000,-16,experiment,HHHHH,4,even,121311,100514,NA,NA,118060,5323,118567,NA,122547,NA,5342,NA,122652,123287,122539,122652,Flanker task,5,10156,8,yes,1024
66.66666667,66.66666667,1204.222222,1204.222222,black,legacy,legacy,legacy,0,incongruent,uniform,1,undefined,1,s,8,0,0,0,8,0,8,0,8,0,0,0,8,8,8,8,9/28/19 17:57,1500,The main experiment item,yes,Flankertask.osexp,C:\Users\Edgar\Documents\Edgar School\Fall 2019\Lab 2-1,no,mono,no,18,no,white,no,yes,768,legacy,8,8,C:/Users/Edgar/Documents/Edgar School/Fall 2019/Lab 2-2/KR-subject-4.csv,legacy,Kafkaesque Koffka,3.2.8,0,s,NA,NA,h,NA,s,682,NA,NA,95168,NA,682,2,legacy,1024,2,48000,-16,experiment,HHSHH,4,even,123353,100514,NA,NA,118060,5323,118567,NA,124589,NA,5342,NA,124695,125379,124580,124694,Flanker task,6,10838,9,yes,1024
70,70,1147.2,1147.2,black,legacy,legacy,legacy,0,congruent,uniform,1,undefined,1,h,9,0,0,0,9,0,9,0,9,0,0,0,9,9,9,9,9/28/19 17:57,1500,The main experiment item,yes,Flankertask.osexp,C:\Users\Edgar\Documents\Edgar School\Fall 2019\Lab 2-1,no,mono,no,18,no,white,no,yes,768,legacy,9,9,C:/Users/Edgar/Documents/Edgar School/Fall 2019/Lab 2-2/KR-subject-4.csv,legacy,Kafkaesque Koffka,3.2.8,0,h,NA,NA,h,NA,h,634,NA,NA,95168,NA,634,2,legacy,1024,2,48000,-16,experiment,HHHHH,4,even,125446,100514,NA,NA,118060,5323,118567,NA,126692,NA,5342,NA,126797,127432,126685,126797,Flanker task,7,11472,10,yes,1024
72.72727273,72.72727273,1103.272727,1103.272727,black,legacy,legacy,legacy,0,incongruent,uniform,1,undefined,1,h,10,0,0,0,10,0,10,0,10,0,0,0,10,10,10,10,9/28/19 17:57,1500,The main experiment item,yes,Flankertask.osexp,C:\Users\Edgar\Documents\Edgar School\Fall 2019\Lab 2-1,no,mono,no,18,no,white,no,yes,768,legacy,10,10,C:/Users/Edgar/Documents/Edgar School/Fall 2019/Lab 2-2/KR-subject-4.csv,legacy,Kafkaesque Koffka,3.2.8,0,h,NA,NA,h,NA,h,664,NA,NA,95168,NA,664,2,legacy,1024,2,48000,-16,experiment,SSHSS,4,even,127476,100514,NA,NA,118060,5323,118567,NA,128754,NA,5342,NA,128860,129526,128745,128859,Flanker task,8,12136,11,yes,1024
75,75,1062.583333,1062.583333,black,legacy,legacy,legacy,0,congruent,uniform,1,undefined,1,h,11,0,0,0,11,0,11,0,11,0,0,0,11,11,11,11,9/28/19 17:57,1500,The main experiment item,yes,Flankertask.osexp,C:\Users\Edgar\Documents\Edgar School\Fall 2019\Lab 2-1,no,mono,no,18,no,white,no,yes,768,legacy,11,11,C:/Users/Edgar/Documents/Edgar School/Fall 2019/Lab 2-2/KR-subject-4.csv,legacy,Kafkaesque Koffka,3.2.8,0,h,NA,NA,h,NA,h,615,NA,NA,95168,NA,615,2,legacy,1024,2,48000,-16,experiment,HHHHH,4,even,129588,100514,NA,NA,118060,5323,118567,NA,130853,NA,5342,NA,130959,131575,130844,130958,Flanker task,9,12751,12,yes,1024
76.92307692,76.92307692,1038,1038,black,legacy,legacy,legacy,0,congruent,uniform,1,undefined,1,s,12,0,0,0,12,0,12,0,12,0,0,0,12,12,12,12,9/28/19 17:57,1500,The main experiment item,yes,Flankertask.osexp,C:\Users\Edgar\Documents\Edgar School\Fall 2019\Lab 2-1,no,mono,no,18,no,white,no,yes,768,legacy,12,12,C:/Users/Edgar/Documents/Edgar School/Fall 2019/Lab 2-2/KR-subject-4.csv,legacy,Kafkaesque Koffka,3.2.8,0,s,NA,NA,h,NA,s,743,NA,NA,95168,NA,743,2,legacy,1024,2,48000,-16,experiment,SSSSS,4,even,131625,100514,NA,NA,118060,5323,118567,NA,132879,NA,5342,NA,132986,133730,132871,132985,Flanker task,10,13494,13,yes,1024
71.42857143,71.42857143,1071,1071,black,legacy,legacy,legacy,0,congruent,uniform,0,undefined,0,s,13,0,0,0,13,0,13,0,13,0,0,0,13,13,13,13,9/28/19 17:57,1500,The main experiment item,yes,Flankertask.osexp,C:\Users\Edgar\Documents\Edgar School\Fall 2019\Lab 2-1,no,mono,no,18,no,white,no,yes,768,legacy,13,13,C:/Users/Edgar/Documents/Edgar School/Fall 2019/Lab 2-2/KR-subject-4.csv,legacy,Kafkaesque Koffka,3.2.8,0,None,NA,NA,h,NA,None,1500,NA,NA,95168,NA,1500,2,legacy,1024,2,48000,-16,experiment,SSSSS,4,even,133793,100514,NA,NA,118060,5323,118567,NA,135037,NA,5342,NA,135143,136644,135030,135142,Flanker task,10,14994,14,yes,1024
73.33333333,73.33333333,1052.4,1052.4,black,legacy,legacy,legacy,0,incongruent,uniform,1,undefined,1,s,14,0,0,0,14,0,14,0,14,0,0,0,14,14,14,14,9/28/19 17:57,1500,The main experiment item,yes,Flankertask.osexp,C:\Users\Edgar\Documents\Edgar School\Fall 2019\Lab 2-1,no,mono,no,18,no,white,no,yes,768,legacy,14,14,C:/Users/Edgar/Documents/Edgar School/Fall 2019/Lab 2-2/KR-subject-4.csv,legacy,Kafkaesque Koffka,3.2.8,0,s,NA,NA,h,NA,s,792,NA,NA,95168,NA,792,2,legacy,1024,2,48000,-16,experiment,HHSHH,4,even,137184,100514,NA,NA,136678,5323,118567,NA,138457,NA,5342,NA,138563,139356,138449,138562,Flanker task,11,15786,15,yes,1024
75,75,1021.375,1021.375,black,legacy,legacy,legacy,0,incongruent,uniform,1,undefined,1,s,15,0,0,0,15,0,15,0,15,0,0,0,15,15,15,15,9/28/19 17:57,1500,The main experiment item,yes,Flankertask.osexp,C:\Users\Edgar\Documents\Edgar School\Fall 2019\Lab 2-1,no,mono,no,18,no,white,no,yes,768,legacy,15,15,C:/Users/Edgar/Documents/Edgar School/Fall 2019/Lab 2-2/KR-subject-4.csv,legacy,Kafkaesque Koffka,3.2.8,0,s,NA,NA,h,NA,s,556,NA,NA,95168,NA,556,2,legacy,1024,2,48000,-16,experiment,HHSHH,4,even,139403,100514,NA,NA,136678,5323,118567,NA,140677,NA,5342,NA,140783,141341,140669,140782,Flanker task,12,16342,16,yes,1024
76.47058824,76.47058824,994.6470588,994.6470588,black,legacy,legacy,legacy,0,incongruent,uniform,1,undefined,1,h,16,0,0,0,16,0,16,0,16,0,0,0,16,16,16,16,9/28/19 17:57,1500,The main experiment item,yes,Flankertask.osexp,C:\Users\Edgar\Documents\Edgar School\Fall 2019\Lab 2-1,no,mono,no,18,no,white,no,yes,768,legacy,16,16,C:/Users/Edgar/Documents/Edgar School/Fall 2019/Lab 2-2/KR-subject-4.csv,legacy,Kafkaesque Koffka,3.2.8,0,h,NA,NA,h,NA,h,567,NA,NA,95168,NA,567,2,legacy,1024,2,48000,-16,experiment,SSHSS,4,even,141403,100514,NA,NA,136678,5323,118567,NA,142731,NA,5342,NA,142838,143408,142723,142837,Flanker task,13,16909,17,yes,1024
77.77777778,77.77777778,970,970,black,legacy,legacy,legacy,0,congruent,uniform,1,undefined,1,s,17,0,0,0,17,0,17,0,17,0,0,0,17,17,17,17,9/28/19 17:57,1500,The main experiment item,yes,Flankertask.osexp,C:\Users\Edgar\Documents\Edgar School\Fall 2019\Lab 2-1,no,mono,no,18,no,white,no,yes,768,legacy,17,17,C:/Users/Edgar/Documents/Edgar School/Fall 2019/Lab 2-2/KR-subject-4.csv,legacy,Kafkaesque Koffka,3.2.8,0,s,NA,NA,h,NA,s,551,NA,NA,95168,NA,551,2,legacy,1024,2,48000,-16,experiment,SSSSS,4,even,143454,100514,NA,NA,136678,5323,118567,NA,144754,NA,5342,NA,144860,145413,144744,144859,Flanker task,14,17460,18,yes,1024
78.94736842,78.94736842,949.0526316,949.0526316,black,legacy,legacy,legacy,0,incongruent,uniform,1,undefined,1,s,18,0,0,0,18,0,18,0,18,0,0,0,18,18,18,18,9/28/19 17:57,1500,The main experiment item,yes,Flankertask.osexp,C:\Users\Edgar\Documents\Edgar School\Fall 2019\Lab 2-1,no,mono,no,18,no,white,no,yes,768,legacy,18,18,C:/Users/Edgar/Documents/Edgar School/Fall 2019/Lab 2-2/KR-subject-4.csv,legacy,Kafkaesque Koffka,3.2.8,0,s,NA,NA,h,NA,s,572,NA,NA,95168,NA,572,2,legacy,1024,2,48000,-16,experiment,HHSHH,4,even,145464,100514,NA,NA,136678,5323,118567,NA,146781,NA,5342,NA,146889,147469,146773,146888,Flanker task,15,18032,19,yes,1024
80,80,933.85,933.85,black,legacy,legacy,legacy,0,incongruent,uniform,1,undefined,1,h,19,0,0,0,19,0,19,0,19,0,0,0,19,19,19,19,9/28/19 17:57,1500,The main experiment item,yes,Flankertask.osexp,C:\Users\Edgar\Documents\Edgar School\Fall 2019\Lab 2-1,no,mono,no,18,no,white,no,yes,768,legacy,19,19,C:/Users/Edgar/Documents/Edgar School/Fall 2019/Lab 2-2/KR-subject-4.csv,legacy,Kafkaesque Koffka,3.2.8,0,h,NA,NA,h,NA,h,645,NA,NA,95168,NA,645,2,legacy,1024,2,48000,-16,experiment,SSHSS,4,even,147507,100514,NA,NA,136678,5323,118567,NA,148763,NA,5342,NA,148871,149519,148754,148870,Flanker task,16,18677,20,yes,1024
80.95238095,80.95238095,915,915,black,legacy,legacy,legacy,0,congruent,uniform,1,undefined,1,s,20,0,0,0,20,0,20,0,20,0,0,0,20,20,20,20,9/28/19 17:57,1500,The main experiment item,yes,Flankertask.osexp,C:\Users\Edgar\Documents\Edgar School\Fall 2019\Lab 2-1,no,mono,no,18,no,white,no,yes,768,legacy,20,20,C:/Users/Edgar/Documents/Edgar School/Fall 2019/Lab 2-2/KR-subject-4.csv,legacy,Kafkaesque Koffka,3.2.8,0,s,NA,NA,h,NA,s,538,NA,NA,95168,NA,538,2,legacy,1024,2,48000,-16,experiment,SSSSS,4,even,149586,100514,NA,NA,136678,5323,118567,NA,150880,NA,5342,NA,150987,151526,150870,150986,Flanker task,17,19215,21,yes,1024
81.81818182,81.81818182,897.0454545,897.0454545,black,legacy,legacy,legacy,0,incongruent,uniform,1,undefined,1,h,21,0,0,0,21,0,21,0,21,0,0,0,21,21,21,21,9/28/19 17:57,1500,The main experiment item,yes,Flankertask.osexp,C:\Users\Edgar\Documents\Edgar School\Fall 2019\Lab 2-1,no,mono,no,18,no,white,no,yes,768,legacy,21,21,C:/Users/Edgar/Documents/Edgar School/Fall 2019/Lab 2-2/KR-subject-4.csv,legacy,Kafkaesque Koffka,3.2.8,0,h,NA,NA,h,NA,h,520,NA,NA,95168,NA,520,2,legacy,1024,2,48000,-16,experiment,SSHSS,4,even,151568,100514,NA,NA,136678,5323,118567,NA,152909,NA,5342,NA,153016,153538,152898,153015,Flanker task,18,19735,22,yes,1024
82.60869565,82.60869565,906.173913,906.173913,black,legacy,legacy,legacy,0,congruent,uniform,1,undefined,1,h,22,0,0,0,22,0,22,0,22,0,0,0,22,22,22,22,9/28/19 17:57,1500,The main experiment item,yes,Flankertask.osexp,C:\Users\Edgar\Documents\Edgar School\Fall 2019\Lab 2-1,no,mono,no,18,no,white,no,yes,768,legacy,22,22,C:/Users/Edgar/Documents/Edgar School/Fall 2019/Lab 2-2/KR-subject-4.csv,legacy,Kafkaesque Koffka,3.2.8,0,h,NA,NA,h,NA,h,1107,NA,NA,95168,NA,1107,2,legacy,1024,2,48000,-16,experiment,HHHHH,4,even,153596,100514,NA,NA,136678,5323,118567,NA,154886,NA,5342,NA,154992,156101,154875,154991,Flanker task,19,20842,23,yes,1024
83.33333333,83.33333333,894.75,894.75,black,legacy,legacy,legacy,0,incongruent,uniform,1,undefined,1,s,23,0,0,0,23,0,23,0,23,0,0,0,23,23,23,23,9/28/19 17:57,1500,The main experiment item,yes,Flankertask.osexp,C:\Users\Edgar\Documents\Edgar School\Fall 2019\Lab 2-1,no,mono,no,18,no,white,no,yes,768,legacy,23,23,C:/Users/Edgar/Documents/Edgar School/Fall 2019/Lab 2-2/KR-subject-4.csv,legacy,Kafkaesque Koffka,3.2.8,0,s,NA,NA,h,NA,s,632,NA,NA,95168,NA,632,2,legacy,1024,2,48000,-16,experiment,HHSHH,4,even,156389,100514,NA,NA,136678,5323,118567,NA,157658,NA,5342,NA,157772,158406,157650,157772,Flanker task,20,21474,24,yes,1024
84,84,880.36,880.36,black,legacy,legacy,legacy,0,congruent,uniform,1,undefined,1,s,24,0,0,0,24,0,24,0,24,0,0,0,24,24,24,24,9/28/19 17:57,1500,The main experiment item,yes,Flankertask.osexp,C:\Users\Edgar\Documents\Edgar School\Fall 2019\Lab 2-1,no,mono,no,18,no,white,no,yes,768,legacy,24,24,C:/Users/Edgar/Documents/Edgar School/Fall 2019/Lab 2-2/KR-subject-4.csv,legacy,Kafkaesque Koffka,3.2.8,0,s,NA,NA,h,NA,s,535,NA,NA,95168,NA,535,2,legacy,1024,2,48000,-16,experiment,SSSSS,4,even,158455,100514,NA,NA,136678,5323,118567,NA,159751,NA,5342,NA,159861,160399,159743,159857,Flanker task,21,22009,25,yes,1024
84.61538462,84.61538462,868.6923077,868.6923077,black,legacy,legacy,legacy,0,congruent,uniform,1,undefined,1,h,25,0,0,0,25,0,25,0,25,0,0,0,25,25,25,25,9/28/19 17:57,1500,The main experiment item,yes,Flankertask.osexp,C:\Users\Edgar\Documents\Edgar School\Fall 2019\Lab 2-1,no,mono,no,18,no,white,no,yes,768,legacy,25,25,C:/Users/Edgar/Documents/Edgar School/Fall 2019/Lab 2-2/KR-subject-4.csv,legacy,Kafkaesque Koffka,3.2.8,0,h,NA,NA,h,NA,h,577,NA,NA,95168,NA,577,2,legacy,1024,2,48000,-16,experiment,HHHHH,4,even,160813,100514,NA,NA,136678,5323,118567,NA,162105,NA,5342,NA,162212,162796,162095,162212,Flanker task,22,22586,26,yes,1024
85.18518519,85.18518519,862.6666667,862.6666667,black,legacy,legacy,legacy,0,incongruent,uniform,1,undefined,1,s,26,0,0,0,26,0,26,0,26,0,0,0,26,26,26,26,9/28/19 17:57,1500,The main experiment item,yes,Flankertask.osexp,C:\Users\Edgar\Documents\Edgar School\Fall 2019\Lab 2-1,no,mono,no,18,no,white,no,yes,768,legacy,26,26,C:/Users/Edgar/Documents/Edgar School/Fall 2019/Lab 2-2/KR-subject-4.csv,legacy,Kafkaesque Koffka,3.2.8,0,s,NA,NA,h,NA,s,706,NA,NA,95168,NA,706,2,legacy,1024,2,48000,-16,experiment,HHSHH,4,even,162860,100514,NA,NA,136678,5323,118567,NA,164180,NA,5342,NA,164287,164995,164167,164286,Flanker task,23,23292,27,yes,1024
85.71428571,85.71428571,851.7142857,851.7142857,black,legacy,legacy,legacy,0,incongruent,uniform,1,undefined,1,s,27,0,0,0,27,0,27,0,27,0,0,0,27,27,27,27,9/28/19 17:57,1500,The main experiment item,yes,Flankertask.osexp,C:\Users\Edgar\Documents\Edgar School\Fall 2019\Lab 2-1,no,mono,no,18,no,white,no,yes,768,legacy,27,27,C:/Users/Edgar/Documents/Edgar School/Fall 2019/Lab 2-2/KR-subject-4.csv,legacy,Kafkaesque Koffka,3.2.8,0,s,NA,NA,h,NA,s,556,NA,NA,95168,NA,556,2,legacy,1024,2,48000,-16,experiment,HHSHH,4,even,165054,100514,NA,NA,136678,5323,118567,NA,166340,NA,5342,NA,166448,167009,166331,166447,Flanker task,24,23848,28,yes,1024
86.20689655,86.20689655,842.0344828,842.0344828,black,legacy,legacy,legacy,0,congruent,uniform,1,undefined,1,h,28,0,0,0,28,0,28,0,28,0,0,0,28,28,28,28,9/28/19 17:57,1500,The main experiment item,yes,Flankertask.osexp,C:\Users\Edgar\Documents\Edgar School\Fall 2019\Lab 2-1,no,mono,no,18,no,white,no,yes,768,legacy,28,28,C:/Users/Edgar/Documents/Edgar School/Fall 2019/Lab 2-2/KR-subject-4.csv,legacy,Kafkaesque Koffka,3.2.8,0,h,NA,NA,h,NA,h,571,NA,NA,95168,NA,571,2,legacy,1024,2,48000,-16,experiment,HHHHH,4,even,167077,100514,NA,NA,136678,5323,118567,NA,168357,NA,5342,NA,168463,169037,168348,168462,Flanker task,25,24419,29,yes,1024
86.66666667,86.66666667,834.3333333,834.3333333,black,legacy,legacy,legacy,0,incongruent,uniform,1,undefined,1,h,29,0,0,0,29,0,29,0,29,0,0,0,29,29,29,29,9/28/19 17:57,1500,The main experiment item,yes,Flankertask.osexp,C:\Users\Edgar\Documents\Edgar School\Fall 2019\Lab 2-1,no,mono,no,18,no,white,no,yes,768,legacy,29,29,C:/Users/Edgar/Documents/Edgar School/Fall 2019/Lab 2-2/KR-subject-4.csv,legacy,Kafkaesque Koffka,3.2.8,0,h,NA,NA,h,NA,h,611,NA,NA,95168,NA,611,2,legacy,1024,2,48000,-16,experiment,SSHSS,4,even,169096,100514,NA,NA,136678,5323,118567,NA,170369,NA,5342,NA,170476,171090,170359,170475,Flanker task,26,25030,30,yes,1024
87.09677419,87.09677419,825.6451613,825.6451613,black,legacy,legacy,legacy,0,incongruent,uniform,1,undefined,1,h,30,0,0,0,30,0,30,0,30,0,0,0,30,30,30,30,9/28/19 17:57,1500,The main experiment item,yes,Flankertask.osexp,C:\Users\Edgar\Documents\Edgar School\Fall 2019\Lab 2-1,no,mono,no,18,no,white,no,yes,768,legacy,30,30,C:/Users/Edgar/Documents/Edgar School/Fall 2019/Lab 2-2/KR-subject-4.csv,legacy,Kafkaesque Koffka,3.2.8,0,h,NA,NA,h,NA,h,565,NA,NA,95168,NA,565,2,legacy,1024,2,48000,-16,experiment,SSHSS,4,even,171149,100514,NA,NA,136678,5323,118567,NA,172456,NA,5342,NA,172562,173129,172447,172561,Flanker task,27,25595,31,yes,1024
87.5,87.5,813.9375,813.9375,black,legacy,legacy,legacy,0,congruent,uniform,1,undefined,1,s,31,0,0,0,31,0,31,0,31,0,0,0,31,31,31,31,9/28/19 17:57,1500,The main experiment item,yes,Flankertask.osexp,C:\Users\Edgar\Documents\Edgar School\Fall 2019\Lab 2-1,no,mono,no,18,no,white,no,yes,768,legacy,31,31,C:/Users/Edgar/Documents/Edgar School/Fall 2019/Lab 2-2/KR-subject-4.csv,legacy,Kafkaesque Koffka,3.2.8,0,s,NA,NA,h,NA,s,451,NA,NA,95168,NA,451,2,legacy,1024,2,48000,-16,experiment,SSSSS,4,even,173189,100514,NA,NA,136678,5323,118567,NA,174455,NA,5342,NA,174563,175018,174447,174562,Flanker task,28,26046,32,yes,1024
87.87878788,87.87878788,808.0606061,808.0606061,black,legacy,legacy,legacy,0,incongruent,uniform,1,undefined,1,s,32,0,0,0,32,0,32,0,32,0,0,0,32,32,32,32,9/28/19 17:57,1500,The main experiment item,yes,Flankertask.osexp,C:\Users\Edgar\Documents\Edgar School\Fall 2019\Lab 2-1,no,mono,no,18,no,white,no,yes,768,legacy,32,32,C:/Users/Edgar/Documents/Edgar School/Fall 2019/Lab 2-2/KR-subject-4.csv,legacy,Kafkaesque Koffka,3.2.8,0,s,NA,NA,h,NA,s,620,NA,NA,95168,NA,620,2,legacy,1024,2,48000,-16,experiment,HHSHH,4,even,175064,100514,NA,NA,136678,5323,118567,NA,176333,NA,5342,NA,176440,177063,176325,176439,Flanker task,29,26666,33,yes,1024
88.23529412,88.23529412,802.0294118,802.0294118,black,legacy,legacy,legacy,0,congruent,uniform,1,undefined,1,h,33,0,0,0,33,0,33,0,33,0,0,0,33,33,33,33,9/28/19 17:57,1500,The main experiment item,yes,Flankertask.osexp,C:\Users\Edgar\Documents\Edgar School\Fall 2019\Lab 2-1,no,mono,no,18,no,white,no,yes,768,legacy,33,33,C:/Users/Edgar/Documents/Edgar School/Fall 2019/Lab 2-2/KR-subject-4.csv,legacy,Kafkaesque Koffka,3.2.8,0,h,NA,NA,h,NA,h,603,NA,NA,95168,NA,603,2,legacy,1024,2,48000,-16,experiment,HHHHH,4,even,177124,100514,NA,NA,136678,5323,118567,NA,178429,NA,5342,NA,178536,179143,178421,178536,Flanker task,30,27269,34,yes,1024
88.57142857,88.57142857,796.2857143,796.2857143,black,legacy,legacy,legacy,0,congruent,uniform,1,undefined,1,h,34,0,0,0,34,0,34,0,34,0,0,0,34,34,34,34,9/28/19 17:57,1500,The main experiment item,yes,Flankertask.osexp,C:\Users\Edgar\Documents\Edgar School\Fall 2019\Lab 2-1,no,mono,no,18,no,white,no,yes,768,legacy,34,34,C:/Users/Edgar/Documents/Edgar School/Fall 2019/Lab 2-2/KR-subject-4.csv,legacy,Kafkaesque Koffka,3.2.8,0,h,NA,NA,h,NA,h,601,NA,NA,95168,NA,601,2,legacy,1024,2,48000,-16,experiment,HHHHH,4,even,179203,100514,NA,NA,136678,5323,118567,NA,180514,NA,5342,NA,180622,181226,180504,180621,Flanker task,31,27870,35,yes,1024
88.88888889,88.88888889,786.1111111,786.1111111,black,legacy,legacy,legacy,0,incongruent,uniform,1,undefined,1,h,35,0,0,0,35,0,35,0,35,0,0,0,35,35,35,35,9/28/19 17:57,1500,The main experiment item,yes,Flankertask.osexp,C:\Users\Edgar\Documents\Edgar School\Fall 2019\Lab 2-1,no,mono,no,18,no,white,no,yes,768,legacy,35,35,C:/Users/Edgar/Documents/Edgar School/Fall 2019/Lab 2-2/KR-subject-4.csv,legacy,Kafkaesque Koffka,3.2.8,0,h,NA,NA,h,NA,h,430,NA,NA,95168,NA,430,2,legacy,1024,2,48000,-16,experiment,SSHSS,4,even,181266,100514,NA,NA,136678,5323,118567,NA,182619,NA,5342,NA,182726,183160,182611,182726,Flanker task,32,28300,36,yes,1024
89.18918919,89.18918919,776,776,black,legacy,legacy,legacy,0,congruent,uniform,1,undefined,1,s,36,0,0,0,36,0,36,0,36,0,0,0,36,36,36,36,9/28/19 17:57,1500,The main experiment item,yes,Flankertask.osexp,C:\Users\Edgar\Documents\Edgar School\Fall 2019\Lab 2-1,no,mono,no,18,no,white,no,yes,768,legacy,36,36,C:/Users/Edgar/Documents/Edgar School/Fall 2019/Lab 2-2/KR-subject-4.csv,legacy,Kafkaesque Koffka,3.2.8,0,s,NA,NA,h,NA,s,412,NA,NA,95168,NA,412,2,legacy,1024,2,48000,-16,experiment,SSSSS,4,even,183209,100514,NA,NA,136678,5323,118567,NA,184562,NA,5342,NA,184671,185087,184553,184670,Flanker task,33,28712,37,yes,1024
89.47368421,89.47368421,785.7105263,785.7105263,black,legacy,legacy,legacy,0,incongruent,uniform,1,undefined,1,h,37,0,0,0,37,0,37,0,37,0,0,0,37,37,37,37,9/28/19 17:57,1500,The main experiment item,yes,Flankertask.osexp,C:\Users\Edgar\Documents\Edgar School\Fall 2019\Lab 2-1,no,mono,no,18,no,white,no,yes,768,legacy,37,37,C:/Users/Edgar/Documents/Edgar School/Fall 2019/Lab 2-2/KR-subject-4.csv,legacy,Kafkaesque Koffka,3.2.8,0,h,NA,NA,h,NA,h,1145,NA,NA,95168,NA,1145,2,legacy,1024,2,48000,-16,experiment,SSHSS,4,even,185148,100514,NA,NA,136678,5323,118567,NA,186410,NA,5342,NA,186517,187666,186402,186517,Flanker task,34,29857,38,yes,1024
89.74358974,89.74358974,780.5384615,780.5384615,black,legacy,legacy,legacy,0,congruent,uniform,1,undefined,1,h,38,0,0,0,38,0,38,0,38,0,0,0,38,38,38,38,9/28/19 17:57,1500,The main experiment item,yes,Flankertask.osexp,C:\Users\Edgar\Documents\Edgar School\Fall 2019\Lab 2-1,no,mono,no,18,no,white,no,yes,768,legacy,38,38,C:/Users/Edgar/Documents/Edgar School/Fall 2019/Lab 2-2/KR-subject-4.csv,legacy,Kafkaesque Koffka,3.2.8,0,h,NA,NA,h,NA,h,584,NA,NA,95168,NA,584,2,legacy,1024,2,48000,-16,experiment,HHHHH,4,even,187712,100514,NA,NA,136678,5323,118567,NA,188958,NA,5342,NA,189065,189653,188950,189064,Flanker task,35,30441,39,yes,1024
90,90,771.825,771.825,black,legacy,legacy,legacy,0,congruent,uniform,1,undefined,1,s,39,0,0,0,39,0,39,0,39,0,0,0,39,39,39,39,9/28/19 17:57,1500,The main experiment item,yes,Flankertask.osexp,C:\Users\Edgar\Documents\Edgar School\Fall 2019\Lab 2-1,no,mono,no,18,no,white,no,yes,768,legacy,39,39,C:/Users/Edgar/Documents/Edgar School/Fall 2019/Lab 2-2/KR-subject-4.csv,legacy,Kafkaesque Koffka,3.2.8,0,s,NA,NA,h,NA,s,432,NA,NA,95168,NA,432,2,legacy,1024,2,48000,-16,experiment,SSSSS,4,even,190004,100514,NA,NA,136678,5323,118567,NA,191289,NA,5342,NA,191397,191832,191281,191396,Flanker task,36,30873,40,yes,1024
90.24390244,90.24390244,766.6341463,766.6341463,black,legacy,legacy,legacy,0,incongruent,uniform,1,undefined,1,s,40,0,0,0,40,0,40,0,40,0,0,0,40,40,40,40,9/28/19 17:57,1500,The main experiment item,yes,Flankertask.osexp,C:\Users\Edgar\Documents\Edgar School\Fall 2019\Lab 2-1,no,mono,no,18,no,white,no,yes,768,legacy,40,40,C:/Users/Edgar/Documents/Edgar School/Fall 2019/Lab 2-2/KR-subject-4.csv,legacy,Kafkaesque Koffka,3.2.8,0,s,NA,NA,h,NA,s,559,NA,NA,95168,NA,559,2,legacy,1024,2,48000,-16,experiment,HHSHH,4,even,191982,100514,NA,NA,136678,5323,118567,NA,193212,NA,5342,NA,193319,193881,193205,193318,Flanker task,37,31432,41,yes,1024
90.47619048,90.47619048,761.1190476,761.1190476,black,legacy,legacy,legacy,0,incongruent,uniform,1,undefined,1,s,41,0,0,0,41,0,41,0,41,0,0,0,41,41,41,41,9/28/19 17:57,1500,The main experiment item,yes,Flankertask.osexp,C:\Users\Edgar\Documents\Edgar School\Fall 2019\Lab 2-1,no,mono,no,18,no,white,no,yes,768,legacy,41,41,C:/Users/Edgar/Documents/Edgar School/Fall 2019/Lab 2-2/KR-subject-4.csv,legacy,Kafkaesque Koffka,3.2.8,0,s,NA,NA,h,NA,s,535,NA,NA,95168,NA,535,2,legacy,1024,2,48000,-16,experiment,HHSHH,4,even,193945,100514,NA,NA,136678,5323,118567,NA,195212,NA,5342,NA,195317,195855,195203,195317,Flanker task,38,31967,42,yes,1024
90.69767442,90.69767442,754.4186047,754.4186047,black,legacy,legacy,legacy,0,congruent,uniform,1,undefined,1,s,42,0,0,0,42,0,42,0,42,0,0,0,42,42,42,42,9/28/19 17:57,1500,The main experiment item,yes,Flankertask.osexp,C:\Users\Edgar\Documents\Edgar School\Fall 2019\Lab 2-1,no,mono,no,18,no,white,no,yes,768,legacy,42,42,C:/Users/Edgar/Documents/Edgar School/Fall 2019/Lab 2-2/KR-subject-4.csv,legacy,Kafkaesque Koffka,3.2.8,0,s,NA,NA,h,NA,s,473,NA,NA,95168,NA,473,2,legacy,1024,2,48000,-16,experiment,SSSSS,4,even,195895,100514,NA,NA,136678,5323,118567,NA,197132,NA,5342,NA,197237,197713,197124,197237,Flanker task,39,32440,43,yes,1024
90.90909091,90.90909091,750.8409091,750.8409091,black,legacy,legacy,legacy,0,incongruent,uniform,1,undefined,1,h,43,0,0,0,43,0,43,0,43,0,0,0,43,43,43,43,9/28/19 17:57,1500,The main experiment item,yes,Flankertask.osexp,C:\Users\Edgar\Documents\Edgar School\Fall 2019\Lab 2-1,no,mono,no,18,no,white,no,yes,768,legacy,43,43,C:/Users/Edgar/Documents/Edgar School/Fall 2019/Lab 2-2/KR-subject-4.csv,legacy,Kafkaesque Koffka,3.2.8,0,h,NA,NA,h,NA,h,597,NA,NA,95168,NA,597,2,legacy,1024,2,48000,-16,experiment,SSHSS,4,even,197751,100514,NA,NA,136678,5323,118567,NA,199025,NA,5342,NA,199130,199731,199017,199130,Flanker task,40,33037,44,yes,1024
91.11111111,91.11111111,744.9777778,744.9777778,black,legacy,legacy,legacy,0,congruent,uniform,1,undefined,1,s,44,0,0,0,44,0,44,0,44,0,0,0,44,44,44,44,9/28/19 17:57,1500,The main experiment item,yes,Flankertask.osexp,C:\Users\Edgar\Documents\Edgar School\Fall 2019\Lab 2-1,no,mono,no,18,no,white,no,yes,768,legacy,44,44,C:/Users/Edgar/Documents/Edgar School/Fall 2019/Lab 2-2/KR-subject-4.csv,legacy,Kafkaesque Koffka,3.2.8,0,s,NA,NA,h,NA,s,487,NA,NA,95168,NA,487,2,legacy,1024,2,48000,-16,experiment,SSSSS,4,even,199860,100514,NA,NA,136678,5323,118567,NA,201109,NA,5342,NA,201215,201704,201101,201214,Flanker task,41,33524,45,yes,1024
91.30434783,91.30434783,741.6956522,741.6956522,black,legacy,legacy,legacy,0,congruent,uniform,1,undefined,1,h,45,0,0,0,45,0,45,0,45,0,0,0,45,45,45,45,9/28/19 17:57,1500,The main experiment item,yes,Flankertask.osexp,C:\Users\Edgar\Documents\Edgar School\Fall 2019\Lab 2-1,no,mono,no,18,no,white,no,yes,768,legacy,45,45,C:/Users/Edgar/Documents/Edgar School/Fall 2019/Lab 2-2/KR-subject-4.csv,legacy,Kafkaesque Koffka,3.2.8,0,h,NA,NA,h,NA,h,594,NA,NA,95168,NA,594,2,legacy,1024,2,48000,-16,experiment,HHHHH,4,even,201764,100514,NA,NA,136678,5323,118567,NA,203000,NA,5342,NA,203105,203702,202992,203105,Flanker task,42,34118,46,yes,1024
91.4893617,91.4893617,738.1489362,738.1489362,black,legacy,legacy,legacy,0,incongruent,uniform,1,undefined,1,s,46,0,0,0,46,0,46,0,46,0,0,0,46,46,46,46,9/28/19 17:57,1500,The main experiment item,yes,Flankertask.osexp,C:\Users\Edgar\Documents\Edgar School\Fall 2019\Lab 2-1,no,mono,no,18,no,white,no,yes,768,legacy,46,46,C:/Users/Edgar/Documents/Edgar School/Fall 2019/Lab 2-2/KR-subject-4.csv,legacy,Kafkaesque Koffka,3.2.8,0,s,NA,NA,h,NA,s,575,NA,NA,95168,NA,575,2,legacy,1024,2,48000,-16,experiment,HHSHH,4,even,203754,100514,NA,NA,136678,5323,118567,NA,205001,NA,5342,NA,205108,205685,204994,205107,Flanker task,43,34693,47,yes,1024
91.66666667,91.66666667,739.8541667,739.8541667,black,legacy,legacy,legacy,0,congruent,uniform,1,undefined,1,h,47,0,0,0,47,0,47,0,47,0,0,0,47,47,47,47,9/28/19 17:57,1500,The main experiment item,yes,Flankertask.osexp,C:\Users\Edgar\Documents\Edgar School\Fall 2019\Lab 2-1,no,mono,no,18,no,white,no,yes,768,legacy,47,47,C:/Users/Edgar/Documents/Edgar School/Fall 2019/Lab 2-2/KR-subject-4.csv,legacy,Kafkaesque Koffka,3.2.8,0,h,NA,NA,h,NA,h,820,NA,NA,95168,NA,820,2,legacy,1024,2,48000,-16,experiment,HHHHH,4,even,205747,100514,NA,NA,136678,5323,118567,NA,206989,NA,5342,NA,207095,207918,206982,207094,Flanker task,44,35513,48,yes,1024
91.83673469,91.83673469,736.5510204,736.5510204,black,legacy,legacy,legacy,0,congruent,uniform,1,undefined,1,h,48,0,0,0,48,0,48,0,48,0,0,0,48,48,48,48,9/28/19 17:57,1500,The main experiment item,yes,Flankertask.osexp,C:\Users\Edgar\Documents\Edgar School\Fall 2019\Lab 2-1,no,mono,no,18,no,white,no,yes,768,legacy,48,48,C:/Users/Edgar/Documents/Edgar School/Fall 2019/Lab 2-2/KR-subject-4.csv,legacy,Kafkaesque Koffka,3.2.8,0,h,NA,NA,h,NA,h,578,NA,NA,95168,NA,578,2,legacy,1024,2,48000,-16,experiment,HHHHH,4,even,207970,100514,NA,NA,136678,5323,118567,NA,209202,NA,5342,NA,209309,209890,209194,209309,Flanker task,45,36091,49,yes,1024
92,92,734.1,734.1,black,legacy,legacy,legacy,0,congruent,uniform,1,undefined,1,s,49,0,0,0,49,0,49,0,49,0,0,0,49,49,49,49,9/28/19 17:57,1500,The main experiment item,yes,Flankertask.osexp,C:\Users\Edgar\Documents\Edgar School\Fall 2019\Lab 2-1,no,mono,no,18,no,white,no,yes,768,legacy,49,49,C:/Users/Edgar/Documents/Edgar School/Fall 2019/Lab 2-2/KR-subject-4.csv,legacy,Kafkaesque Koffka,3.2.8,0,s,NA,NA,h,NA,s,614,NA,NA,95168,NA,614,2,legacy,1024,2,48000,-16,experiment,SSSSS,4,even,209952,100514,NA,NA,136678,5323,118567,NA,211198,NA,5342,NA,211305,211922,211189,211304,Flanker task,46,36705,50,yes,1024
92.15686275,92.15686275,729.8823529,729.8823529,black,legacy,legacy,legacy,0,congruent,uniform,1,undefined,1,s,50,0,0,0,50,0,50,0,50,0,0,0,50,50,50,50,9/28/19 17:57,1500,The main experiment item,yes,Flankertask.osexp,C:\Users\Edgar\Documents\Edgar School\Fall 2019\Lab 2-1,no,mono,no,18,no,white,no,yes,768,legacy,50,50,C:/Users/Edgar/Documents/Edgar School/Fall 2019/Lab 2-2/KR-subject-4.csv,legacy,Kafkaesque Koffka,3.2.8,0,s,NA,NA,h,NA,s,519,NA,NA,95168,NA,519,2,legacy,1024,2,48000,-16,experiment,SSSSS,4,even,211981,100514,NA,NA,136678,5323,118567,NA,213217,NA,5342,NA,213323,213845,213206,213322,Flanker task,47,37224,51,yes,1024
92.30769231,92.30769231,726.6538462,726.6538462,black,legacy,legacy,legacy,0,incongruent,uniform,1,undefined,1,h,51,0,0,0,51,0,51,0,51,0,0,0,51,51,51,51,9/28/19 17:57,1500,The main experiment item,yes,Flankertask.osexp,C:\Users\Edgar\Documents\Edgar School\Fall 2019\Lab 2-1,no,mono,no,18,no,white,no,yes,768,legacy,51,51,C:/Users/Edgar/Documents/Edgar School/Fall 2019/Lab 2-2/KR-subject-4.csv,legacy,Kafkaesque Koffka,3.2.8,0,h,NA,NA,h,NA,h,562,NA,NA,95168,NA,562,2,legacy,1024,2,48000,-16,experiment,SSHSS,4,even,213883,100514,NA,NA,136678,5323,118567,NA,215124,NA,5342,NA,215230,215796,215117,215229,Flanker task,48,37786,52,yes,1024
92.45283019,92.45283019,723.7169811,723.7169811,black,legacy,legacy,legacy,0,incongruent,uniform,1,undefined,1,h,52,0,0,0,52,0,52,0,52,0,0,0,52,52,52,52,9/28/19 17:57,1500,The main experiment item,yes,Flankertask.osexp,C:\Users\Edgar\Documents\Edgar School\Fall 2019\Lab 2-1,no,mono,no,18,no,white,no,yes,768,legacy,52,52,C:/Users/Edgar/Documents/Edgar School/Fall 2019/Lab 2-2/KR-subject-4.csv,legacy,Kafkaesque Koffka,3.2.8,0,h,NA,NA,h,NA,h,571,NA,NA,95168,NA,571,2,legacy,1024,2,48000,-16,experiment,SSHSS,4,even,215843,100514,NA,NA,136678,5323,118567,NA,217145,NA,5342,NA,217252,217826,217138,217251,Flanker task,49,38357,53,yes,1024
92.59259259,92.59259259,719.4444444,719.4444444,black,legacy,legacy,legacy,0,congruent,uniform,1,undefined,1,h,53,0,0,0,53,0,53,0,53,0,0,0,53,53,53,53,9/28/19 17:57,1500,The main experiment item,yes,Flankertask.osexp,C:\Users\Edgar\Documents\Edgar School\Fall 2019\Lab 2-1,no,mono,no,18,no,white,no,yes,768,legacy,53,53,C:/Users/Edgar/Documents/Edgar School/Fall 2019/Lab 2-2/KR-subject-4.csv,legacy,Kafkaesque Koffka,3.2.8,0,h,NA,NA,h,NA,h,493,NA,NA,95168,NA,493,2,legacy,1024,2,48000,-16,experiment,HHHHH,4,even,217920,100514,NA,NA,136678,5323,118567,NA,219153,NA,5342,NA,219259,219755,219144,219259,Flanker task,50,38850,54,yes,1024
92.72727273,92.72727273,716.7090909,716.7090909,black,legacy,legacy,legacy,0,congruent,uniform,1,undefined,1,s,54,0,0,0,54,0,54,0,54,0,0,0,54,54,54,54,9/28/19 17:57,1500,The main experiment item,yes,Flankertask.osexp,C:\Users\Edgar\Documents\Edgar School\Fall 2019\Lab 2-1,no,mono,no,18,no,white,no,yes,768,legacy,54,54,C:/Users/Edgar/Documents/Edgar School/Fall 2019/Lab 2-2/KR-subject-4.csv,legacy,Kafkaesque Koffka,3.2.8,0,s,NA,NA,h,NA,s,569,NA,NA,95168,NA,569,2,legacy,1024,2,48000,-16,experiment,SSSSS,4,even,219808,100514,NA,NA,136678,5323,118567,NA,221040,NA,5342,NA,221146,221718,221032,221145,Flanker task,51,39419,55,yes,1024
92.85714286,92.85714286,713.3928571,713.3928571,black,legacy,legacy,legacy,0,congruent,uniform,1,undefined,1,h,55,0,0,0,55,0,55,0,55,0,0,0,55,55,55,55,9/28/19 17:57,1500,The main experiment item,yes,Flankertask.osexp,C:\Users\Edgar\Documents\Edgar School\Fall 2019\Lab 2-1,no,mono,no,18,no,white,no,yes,768,legacy,55,55,C:/Users/Edgar/Documents/Edgar School/Fall 2019/Lab 2-2/KR-subject-4.csv,legacy,Kafkaesque Koffka,3.2.8,0,h,NA,NA,h,NA,h,531,NA,NA,95168,NA,531,2,legacy,1024,2,48000,-16,experiment,HHHHH,4,even,221772,100514,NA,NA,136678,5323,118567,NA,223022,NA,5342,NA,223127,223662,223013,223127,Flanker task,52,39950,56,yes,1024
92.98245614,92.98245614,709.1052632,709.1052632,black,legacy,legacy,legacy,0,congruent,uniform,1,undefined,1,s,56,0,0,0,56,0,56,0,56,0,0,0,56,56,56,56,9/28/19 17:57,1500,The main experiment item,yes,Flankertask.osexp,C:\Users\Edgar\Documents\Edgar School\Fall 2019\Lab 2-1,no,mono,no,18,no,white,no,yes,768,legacy,56,56,C:/Users/Edgar/Documents/Edgar School/Fall 2019/Lab 2-2/KR-subject-4.csv,legacy,Kafkaesque Koffka,3.2.8,0,s,NA,NA,h,NA,s,469,NA,NA,95168,NA,469,2,legacy,1024,2,48000,-16,experiment,SSSSS,4,even,223701,100514,NA,NA,136678,5323,118567,NA,224932,NA,5342,NA,225038,225510,224925,225037,Flanker task,53,40419,57,yes,1024
93.10344828,93.10344828,706.7931034,706.7931034,black,legacy,legacy,legacy,0,incongruent,uniform,1,undefined,1,h,57,0,0,0,57,0,57,0,57,0,0,0,57,57,57,57,9/28/19 17:57,1500,The main experiment item,yes,Flankertask.osexp,C:\Users\Edgar\Documents\Edgar School\Fall 2019\Lab 2-1,no,mono,no,18,no,white,no,yes,768,legacy,57,57,C:/Users/Edgar/Documents/Edgar School/Fall 2019/Lab 2-2/KR-subject-4.csv,legacy,Kafkaesque Koffka,3.2.8,0,h,NA,NA,h,NA,h,575,NA,NA,95168,NA,575,2,legacy,1024,2,48000,-16,experiment,SSHSS,4,even,225565,100514,NA,NA,136678,5323,118567,NA,226798,NA,5342,NA,226905,227484,226791,226904,Flanker task,54,40994,58,yes,1024
93.22033898,93.22033898,704.2542373,704.2542373,black,legacy,legacy,legacy,0,congruent,uniform,1,undefined,1,s,58,0,0,0,58,0,58,0,58,0,0,0,58,58,58,58,9/28/19 17:57,1500,The main experiment item,yes,Flankertask.osexp,C:\Users\Edgar\Documents\Edgar School\Fall 2019\Lab 2-1,no,mono,no,18,no,white,no,yes,768,legacy,58,58,C:/Users/Edgar/Documents/Edgar School/Fall 2019/Lab 2-2/KR-subject-4.csv,legacy,Kafkaesque Koffka,3.2.8,0,s,NA,NA,h,NA,s,557,NA,NA,95168,NA,557,2,legacy,1024,2,48000,-16,experiment,SSSSS,4,even,227547,100514,NA,NA,136678,5323,118567,NA,228800,NA,5342,NA,228906,229466,228792,228905,Flanker task,55,41551,59,yes,1024
93.33333333,93.33333333,705.5666667,705.5666667,black,legacy,legacy,legacy,0,incongruent,uniform,1,undefined,1,s,59,0,0,0,59,0,59,0,59,0,0,0,59,59,59,59,9/28/19 17:57,1500,The main experiment item,yes,Flankertask.osexp,C:\Users\Edgar\Documents\Edgar School\Fall 2019\Lab 2-1,no,mono,no,18,no,white,no,yes,768,legacy,59,59,C:/Users/Edgar/Documents/Edgar School/Fall 2019/Lab 2-2/KR-subject-4.csv,legacy,Kafkaesque Koffka,3.2.8,0,s,NA,NA,h,NA,s,783,NA,NA,95168,NA,783,2,legacy,1024,2,48000,-16,experiment,HHSHH,4,even,229504,100514,NA,NA,136678,5323,118567,NA,230740,NA,5342,NA,230846,231631,230732,230846,Flanker task,56,42334,60,yes,1024
93.44262295,93.44262295,703.1311475,703.1311475,black,legacy,legacy,legacy,0,congruent,uniform,1,undefined,1,h,60,0,0,0,60,0,60,0,60,0,0,0,60,60,60,60,9/28/19 17:57,1500,The main experiment item,yes,Flankertask.osexp,C:\Users\Edgar\Documents\Edgar School\Fall 2019\Lab 2-1,no,mono,no,18,no,white,no,yes,768,legacy,60,60,C:/Users/Edgar/Documents/Edgar School/Fall 2019/Lab 2-2/KR-subject-4.csv,legacy,Kafkaesque Koffka,3.2.8,0,h,NA,NA,h,NA,h,557,NA,NA,95168,NA,557,2,legacy,1024,2,48000,-16,experiment,HHHHH,4,even,231674,100514,NA,NA,136678,5323,118567,NA,232918,NA,5342,NA,233023,233583,232910,233023,Flanker task,57,42891,61,yes,1024
93.5483871,93.5483871,701.6451613,701.6451613,black,legacy,legacy,legacy,0,congruent,uniform,1,undefined,1,s,61,0,0,0,61,0,61,0,61,0,0,0,61,61,61,61,9/28/19 17:57,1500,The main experiment item,yes,Flankertask.osexp,C:\Users\Edgar\Documents\Edgar School\Fall 2019\Lab 2-1,no,mono,no,18,no,white,no,yes,768,legacy,61,61,C:/Users/Edgar/Documents/Edgar School/Fall 2019/Lab 2-2/KR-subject-4.csv,legacy,Kafkaesque Koffka,3.2.8,0,s,NA,NA,h,NA,s,611,NA,NA,95168,NA,611,2,legacy,1024,2,48000,-16,experiment,SSSSS,4,even,233642,100514,NA,NA,136678,5323,118567,NA,234894,NA,5342,NA,235001,235615,234887,235000,Flanker task,58,43502,62,yes,1024
93.65079365,93.65079365,700.0952381,700.0952381,black,legacy,legacy,legacy,0,congruent,uniform,1,undefined,1,s,62,0,0,0,62,0,62,0,62,0,0,0,62,62,62,62,9/28/19 17:57,1500,The main experiment item,yes,Flankertask.osexp,C:\Users\Edgar\Documents\Edgar School\Fall 2019\Lab 2-1,no,mono,no,18,no,white,no,yes,768,legacy,62,62,C:/Users/Edgar/Documents/Edgar School/Fall 2019/Lab 2-2/KR-subject-4.csv,legacy,Kafkaesque Koffka,3.2.8,0,s,NA,NA,h,NA,s,604,NA,NA,95168,NA,604,2,legacy,1024,2,48000,-16,experiment,SSSSS,4,even,235673,100514,NA,NA,136678,5323,118567,NA,236931,NA,5342,NA,237037,237644,236922,237037,Flanker task,59,44106,63,yes,1024
93.75,93.75,697.71875,697.71875,black,legacy,legacy,legacy,0,congruent,uniform,1,undefined,1,h,63,0,0,0,63,0,63,0,63,0,0,0,63,63,63,63,9/28/19 17:57,1500,The main experiment item,yes,Flankertask.osexp,C:\Users\Edgar\Documents\Edgar School\Fall 2019\Lab 2-1,no,mono,no,18,no,white,no,yes,768,legacy,63,63,C:/Users/Edgar/Documents/Edgar School/Fall 2019/Lab 2-2/KR-subject-4.csv,legacy,Kafkaesque Koffka,3.2.8,0,h,NA,NA,h,NA,h,548,NA,NA,95168,NA,548,2,legacy,1024,2,48000,-16,experiment,HHHHH,4,even,237699,100514,NA,NA,136678,5323,118567,NA,238953,NA,5342,NA,239058,239609,238944,239058,Flanker task,60,44654,64,yes,1024
93.84615385,93.84615385,696.6153846,696.6153846,black,legacy,legacy,legacy,0,incongruent,uniform,1,undefined,1,h,64,0,0,0,64,0,64,0,64,0,0,0,64,64,64,64,9/28/19 17:57,1500,The main experiment item,yes,Flankertask.osexp,C:\Users\Edgar\Documents\Edgar School\Fall 2019\Lab 2-1,no,mono,no,18,no,white,no,yes,768,legacy,64,64,C:/Users/Edgar/Documents/Edgar School/Fall 2019/Lab 2-2/KR-subject-4.csv,legacy,Kafkaesque Koffka,3.2.8,0,h,NA,NA,h,NA,h,626,NA,NA,95168,NA,626,2,legacy,1024,2,48000,-16,experiment,SSHSS,4,even,239645,100514,NA,NA,136678,5323,118567,NA,240884,NA,5342,NA,240991,241620,240877,240990,Flanker task,61,45280,65,yes,1024
93.93939394,93.93939394,695.1212121,695.1212121,black,legacy,legacy,legacy,0,incongruent,uniform,1,undefined,1,h,65,0,0,0,65,0,65,0,65,0,0,0,65,65,65,65,9/28/19 17:57,1500,The main experiment item,yes,Flankertask.osexp,C:\Users\Edgar\Documents\Edgar School\Fall 2019\Lab 2-1,no,mono,no,18,no,white,no,yes,768,legacy,65,65,C:/Users/Edgar/Documents/Edgar School/Fall 2019/Lab 2-2/KR-subject-4.csv,legacy,Kafkaesque Koffka,3.2.8,0,h,NA,NA,h,NA,h,598,NA,NA,95168,NA,598,2,legacy,1024,2,48000,-16,experiment,SSHSS,4,even,241674,100514,NA,NA,136678,5323,118567,NA,242916,NA,5342,NA,243022,243623,242907,243021,Flanker task,62,45878,66,yes,1024
94.02985075,94.02985075,691.4776119,691.4776119,black,legacy,legacy,legacy,0,incongruent,uniform,1,undefined,1,s,66,0,0,0,66,0,66,0,66,0,0,0,66,66,66,66,9/28/19 17:57,1500,The main experiment item,yes,Flankertask.osexp,C:\Users\Edgar\Documents\Edgar School\Fall 2019\Lab 2-1,no,mono,no,18,no,white,no,yes,768,legacy,66,66,C:/Users/Edgar/Documents/Edgar School/Fall 2019/Lab 2-2/KR-subject-4.csv,legacy,Kafkaesque Koffka,3.2.8,0,s,NA,NA,h,NA,s,451,NA,NA,95168,NA,451,2,legacy,1024,2,48000,-16,experiment,HHSHH,4,even,243689,100514,NA,NA,136678,5323,118567,NA,244941,NA,5342,NA,245050,245504,244934,245050,Flanker task,63,46329,67,yes,1024
94.11764706,94.11764706,691.4264706,691.4264706,black,legacy,legacy,legacy,0,incongruent,uniform,1,undefined,1,h,67,0,0,0,67,0,67,0,67,0,0,0,67,67,67,67,9/28/19 17:57,1500,The main experiment item,yes,Flankertask.osexp,C:\Users\Edgar\Documents\Edgar School\Fall 2019\Lab 2-1,no,mono,no,18,no,white,no,yes,768,legacy,67,67,C:/Users/Edgar/Documents/Edgar School/Fall 2019/Lab 2-2/KR-subject-4.csv,legacy,Kafkaesque Koffka,3.2.8,0,h,NA,NA,h,NA,h,688,NA,NA,95168,NA,688,2,legacy,1024,2,48000,-16,experiment,SSHSS,4,even,245536,100514,NA,NA,136678,5323,118567,NA,246767,NA,5342,NA,246873,247564,246758,246872,Flanker task,64,47017,68,yes,1024
94.20289855,94.20289855,690.7681159,690.7681159,black,legacy,legacy,legacy,0,incongruent,uniform,1,undefined,1,h,68,0,0,0,68,0,68,0,68,0,0,0,68,68,68,68,9/28/19 17:57,1500,The main experiment item,yes,Flankertask.osexp,C:\Users\Edgar\Documents\Edgar School\Fall 2019\Lab 2-1,no,mono,no,18,no,white,no,yes,768,legacy,68,68,C:/Users/Edgar/Documents/Edgar School/Fall 2019/Lab 2-2/KR-subject-4.csv,legacy,Kafkaesque Koffka,3.2.8,0,h,NA,NA,h,NA,h,646,NA,NA,95168,NA,646,2,legacy,1024,2,48000,-16,experiment,SSHSS,4,even,247599,100514,NA,NA,136678,5323,118567,NA,248831,NA,5342,NA,248938,249587,248823,248937,Flanker task,65,47663,69,yes,1024
94.28571429,94.28571429,688.8714286,688.8714286,black,legacy,legacy,legacy,0,congruent,uniform,1,undefined,1,h,69,0,0,0,69,0,69,0,69,0,0,0,69,69,69,69,9/28/19 17:57,1500,The main experiment item,yes,Flankertask.osexp,C:\Users\Edgar\Documents\Edgar School\Fall 2019\Lab 2-1,no,mono,no,18,no,white,no,yes,768,legacy,69,69,C:/Users/Edgar/Documents/Edgar School/Fall 2019/Lab 2-2/KR-subject-4.csv,legacy,Kafkaesque Koffka,3.2.8,0,h,NA,NA,h,NA,h,558,NA,NA,95168,NA,558,2,legacy,1024,2,48000,-16,experiment,HHHHH,4,even,249637,100514,NA,NA,136678,5323,118567,NA,250873,NA,5342,NA,250980,251541,250864,250980,Flanker task,66,48221,70,yes,1024
94.36619718,94.36619718,689.3521127,689.3521127,black,legacy,legacy,legacy,0,congruent,uniform,1,undefined,1,s,70,0,0,0,70,0,70,0,70,0,0,0,70,70,70,70,9/28/19 17:57,1500,The main experiment item,yes,Flankertask.osexp,C:\Users\Edgar\Documents\Edgar School\Fall 2019\Lab 2-1,no,mono,no,18,no,white,no,yes,768,legacy,70,70,C:/Users/Edgar/Documents/Edgar School/Fall 2019/Lab 2-2/KR-subject-4.csv,legacy,Kafkaesque Koffka,3.2.8,0,s,NA,NA,h,NA,s,723,NA,NA,95168,NA,723,2,legacy,1024,2,48000,-16,experiment,SSSSS,4,even,251595,100514,NA,NA,136678,5323,118567,NA,252852,NA,5342,NA,252959,253685,252843,252958,Flanker task,67,48944,71,yes,1024
94.44444444,94.44444444,689.5,689.5,black,legacy,legacy,legacy,0,incongruent,uniform,1,undefined,1,s,71,0,0,0,71,0,71,0,71,0,0,0,71,71,71,71,9/28/19 17:57,1500,The main experiment item,yes,Flankertask.osexp,C:\Users\Edgar\Documents\Edgar School\Fall 2019\Lab 2-1,no,mono,no,18,no,white,no,yes,768,legacy,71,71,C:/Users/Edgar/Documents/Edgar School/Fall 2019/Lab 2-2/KR-subject-4.csv,legacy,Kafkaesque Koffka,3.2.8,0,s,NA,NA,h,NA,s,700,NA,NA,95168,NA,700,2,legacy,1024,2,48000,-16,experiment,HHSHH,4,even,253745,100514,NA,NA,136678,5323,118567,NA,254989,NA,5342,NA,255097,255801,254979,255097,Flanker task,68,49644,72,yes,1024
94.52054795,94.52054795,687.7808219,687.7808219,black,legacy,legacy,legacy,0,incongruent,uniform,1,undefined,1,s,72,0,0,0,72,0,72,0,72,0,0,0,72,72,72,72,9/28/19 17:57,1500,The main experiment item,yes,Flankertask.osexp,C:\Users\Edgar\Documents\Edgar School\Fall 2019\Lab 2-1,no,mono,no,18,no,white,no,yes,768,legacy,72,72,C:/Users/Edgar/Documents/Edgar School/Fall 2019/Lab 2-2/KR-subject-4.csv,legacy,Kafkaesque Koffka,3.2.8,0,s,NA,NA,h,NA,s,564,NA,NA,95168,NA,564,2,legacy,1024,2,48000,-16,experiment,HHSHH,4,even,255865,100514,NA,NA,136678,5323,118567,NA,257126,NA,5342,NA,257232,257799,257118,257232,Flanker task,69,50208,73,yes,1024
94.59459459,94.59459459,686.8378378,686.8378378,black,legacy,legacy,legacy,0,incongruent,uniform,1,undefined,1,h,73,0,0,0,73,0,73,0,73,0,0,0,73,73,73,73,9/28/19 17:57,1500,The main experiment item,yes,Flankertask.osexp,C:\Users\Edgar\Documents\Edgar School\Fall 2019\Lab 2-1,no,mono,no,18,no,white,no,yes,768,legacy,73,73,C:/Users/Edgar/Documents/Edgar School/Fall 2019/Lab 2-2/KR-subject-4.csv,legacy,Kafkaesque Koffka,3.2.8,0,h,NA,NA,h,NA,h,618,NA,NA,95168,NA,618,2,legacy,1024,2,48000,-16,experiment,SSHSS,4,even,257857,100514,NA,NA,136678,5323,118567,NA,259121,NA,5342,NA,259226,259847,259114,259226,Flanker task,70,50826,74,yes,1024
94.66666667,94.66666667,689.5466667,689.5466667,black,legacy,legacy,legacy,0,incongruent,uniform,1,undefined,1,s,74,0,0,0,74,0,74,0,74,0,0,0,74,74,74,74,9/28/19 17:57,1500,The main experiment item,yes,Flankertask.osexp,C:\Users\Edgar\Documents\Edgar School\Fall 2019\Lab 2-1,no,mono,no,18,no,white,no,yes,768,legacy,74,74,C:/Users/Edgar/Documents/Edgar School/Fall 2019/Lab 2-2/KR-subject-4.csv,legacy,Kafkaesque Koffka,3.2.8,0,s,NA,NA,h,NA,s,890,NA,NA,95168,NA,890,2,legacy,1024,2,48000,-16,experiment,HHSHH,4,even,259909,100514,NA,NA,136678,5323,118567,NA,261139,NA,5342,NA,261245,262138,261131,261244,Flanker task,71,51716,75,yes,1024
94.73684211,94.73684211,688.7236842,688.7236842,black,legacy,legacy,legacy,0,incongruent,uniform,1,undefined,1,h,75,0,0,0,75,0,75,0,75,0,0,0,75,75,75,75,9/28/19 17:57,1500,The main experiment item,yes,Flankertask.osexp,C:\Users\Edgar\Documents\Edgar School\Fall 2019\Lab 2-1,no,mono,no,18,no,white,no,yes,768,legacy,75,75,C:/Users/Edgar/Documents/Edgar School/Fall 2019/Lab 2-2/KR-subject-4.csv,legacy,Kafkaesque Koffka,3.2.8,0,h,NA,NA,h,NA,h,627,NA,NA,95168,NA,627,2,legacy,1024,2,48000,-16,experiment,SSHSS,4,even,262198,100514,NA,NA,136678,5323,118567,NA,263430,NA,5342,NA,263535,264166,263423,263535,Flanker task,72,52343,76,yes,1024
94.80519481,94.80519481,687.1948052,687.1948052,black,legacy,legacy,legacy,0,congruent,uniform,1,undefined,1,h,76,0,0,0,76,0,76,0,76,0,0,0,76,76,76,76,9/28/19 17:57,1500,The main experiment item,yes,Flankertask.osexp,C:\Users\Edgar\Documents\Edgar School\Fall 2019\Lab 2-1,no,mono,no,18,no,white,no,yes,768,legacy,76,76,C:/Users/Edgar/Documents/Edgar School/Fall 2019/Lab 2-2/KR-subject-4.csv,legacy,Kafkaesque Koffka,3.2.8,0,h,NA,NA,h,NA,h,571,NA,NA,95168,NA,571,2,legacy,1024,2,48000,-16,experiment,HHHHH,4,even,264226,100514,NA,NA,136678,5323,118567,NA,265471,NA,5342,NA,265577,266152,265463,265577,Flanker task,73,52914,77,yes,1024
94.87179487,94.87179487,686.5384615,686.5384615,black,legacy,legacy,legacy,0,incongruent,uniform,1,undefined,1,s,77,0,0,0,77,0,77,0,77,0,0,0,77,77,77,77,9/28/19 17:57,1500,The main experiment item,yes,Flankertask.osexp,C:\Users\Edgar\Documents\Edgar School\Fall 2019\Lab 2-1,no,mono,no,18,no,white,no,yes,768,legacy,77,77,C:/Users/Edgar/Documents/Edgar School/Fall 2019/Lab 2-2/KR-subject-4.csv,legacy,Kafkaesque Koffka,3.2.8,0,s,NA,NA,h,NA,s,636,NA,NA,95168,NA,636,2,legacy,1024,2,48000,-16,experiment,HHSHH,4,even,266232,100514,NA,NA,136678,5323,118567,NA,267466,NA,5342,NA,267572,268212,267459,267571,Flanker task,74,53550,78,yes,1024
94.93670886,94.93670886,686.3164557,686.3164557,black,legacy,legacy,legacy,0,incongruent,uniform,1,undefined,1,s,78,0,0,0,78,0,78,0,78,0,0,0,78,78,78,78,9/28/19 17:57,1500,The main experiment item,yes,Flankertask.osexp,C:\Users\Edgar\Documents\Edgar School\Fall 2019\Lab 2-1,no,mono,no,18,no,white,no,yes,768,legacy,78,78,C:/Users/Edgar/Documents/Edgar School/Fall 2019/Lab 2-2/KR-subject-4.csv,legacy,Kafkaesque Koffka,3.2.8,0,s,NA,NA,h,NA,s,669,NA,NA,95168,NA,669,2,legacy,1024,2,48000,-16,experiment,HHSHH,4,even,268275,100514,NA,NA,136678,5323,118567,NA,269504,NA,5342,NA,269609,270281,269496,269609,Flanker task,75,54219,79,yes,1024
95,95,687.4125,687.4125,black,legacy,legacy,legacy,0,congruent,uniform,1,undefined,1,h,79,0,0,0,79,0,79,0,79,0,0,0,79,79,79,79,9/28/19 17:57,1500,The main experiment item,yes,Flankertask.osexp,C:\Users\Edgar\Documents\Edgar School\Fall 2019\Lab 2-1,no,mono,no,18,no,white,no,yes,768,legacy,79,79,C:/Users/Edgar/Documents/Edgar School/Fall 2019/Lab 2-2/KR-subject-4.csv,legacy,Kafkaesque Koffka,3.2.8,0,h,NA,NA,h,NA,h,774,NA,NA,95168,NA,774,2,legacy,1024,2,48000,-16,experiment,HHHHH,4,even,270331,100514,NA,NA,136678,5323,118567,NA,271565,NA,5342,NA,271670,272448,271558,271670,Flanker task,76,54993,80,yes,1024
93.82716049,93.82716049,686.6790123,686.6790123,black,legacy,legacy,legacy,0,incongruent,uniform,0,undefined,0,h,80,0,0,0,80,0,80,0,80,0,0,0,80,80,80,80,9/28/19 17:57,600,The main experiment item,yes,Flankertask.osexp,C:\Users\Edgar\Documents\Edgar School\Fall 2019\Lab 2-1,no,mono,no,18,no,white,no,yes,768,legacy,0,79,C:/Users/Edgar/Documents/Edgar School/Fall 2019/Lab 2-2/KR-subject-4.csv,legacy,Kafkaesque Koffka,3.2.8,0,s,NA,NA,h,h,s,628,NA,NA,95168,75810,628,2,legacy,1024,2,48000,-16,experiment,SSHSS,4,even,272506,100514,349367,NA,136678,5323,118567,NA,349655,NA,5342,273553,349761,350393,349648,349760,Flanker task,76,55621,81,yes,1024
93.90243902,93.90243902,687.695122,687.695122,black,legacy,legacy,legacy,0,incongruent,uniform,1,undefined,1,h,81,0,0,0,81,0,81,0,81,0,0,0,81,81,81,81,9/28/19 17:57,600,The main experiment item,yes,Flankertask.osexp,C:\Users\Edgar\Documents\Edgar School\Fall 2019\Lab 2-1,no,mono,no,18,no,white,no,yes,768,legacy,1,79,C:/Users/Edgar/Documents/Edgar School/Fall 2019/Lab 2-2/KR-subject-4.csv,legacy,Kafkaesque Koffka,3.2.8,0,h,NA,NA,h,h,h,770,NA,NA,95168,75810,770,2,legacy,1024,2,48000,-16,experiment,SSHSS,4,even,351466,100514,349367,NA,350455,5323,350961,NA,352721,NA,5342,273553,352827,353601,352712,352826,Flanker task,77,56391,82,yes,1024
93.97590361,93.97590361,684.1927711,684.1927711,black,legacy,legacy,legacy,0,incongruent,uniform,1,undefined,1,s,82,0,0,0,82,0,82,0,82,0,0,0,82,82,82,82,9/28/19 17:57,600,The main experiment item,yes,Flankertask.osexp,C:\Users\Edgar\Documents\Edgar School\Fall 2019\Lab 2-1,no,mono,no,18,no,white,no,yes,768,legacy,2,79,C:/Users/Edgar/Documents/Edgar School/Fall 2019/Lab 2-2/KR-subject-4.csv,legacy,Kafkaesque Koffka,3.2.8,0,s,NA,NA,h,h,s,397,NA,NA,95168,75810,397,2,legacy,1024,2,48000,-16,experiment,HHSHH,4,even,354145,100514,349367,NA,350455,5323,353640,NA,355390,NA,5342,273553,355496,355897,355380,355495,Flanker task,78,56788,83,yes,1024
94.04761905,94.04761905,681.6071429,681.6071429,black,legacy,legacy,legacy,0,congruent,uniform,1,undefined,1,h,83,0,0,0,83,0,83,0,83,0,0,0,83,83,83,83,9/28/19 17:57,600,The main experiment item,yes,Flankertask.osexp,C:\Users\Edgar\Documents\Edgar School\Fall 2019\Lab 2-1,no,mono,no,18,no,white,no,yes,768,legacy,3,79,C:/Users/Edgar/Documents/Edgar School/Fall 2019/Lab 2-2/KR-subject-4.csv,legacy,Kafkaesque Koffka,3.2.8,0,h,NA,NA,h,h,h,467,NA,NA,95168,75810,467,2,legacy,1024,2,48000,-16,experiment,HHHHH,4,even,355970,100514,349367,NA,350455,5323,353640,NA,357237,NA,5342,273553,357343,357814,357229,357342,Flanker task,79,57255,84,yes,1024
94.11764706,94.11764706,679.9176471,679.9176471,black,legacy,legacy,legacy,0,congruent,uniform,1,undefined,1,s,84,0,0,0,84,0,84,0,84,0,0,0,84,84,84,84,9/28/19 17:57,600,The main experiment item,yes,Flankertask.osexp,C:\Users\Edgar\Documents\Edgar School\Fall 2019\Lab 2-1,no,mono,no,18,no,white,no,yes,768,legacy,4,79,C:/Users/Edgar/Documents/Edgar School/Fall 2019/Lab 2-2/KR-subject-4.csv,legacy,Kafkaesque Koffka,3.2.8,0,s,NA,NA,h,h,s,538,NA,NA,95168,75810,538,2,legacy,1024,2,48000,-16,experiment,SSSSS,4,even,357873,100514,349367,NA,350455,5323,353640,NA,359110,NA,5342,273553,359216,359759,359101,359215,Flanker task,80,57793,85,yes,1024
94.18604651,94.18604651,677.1744186,677.1744186,black,legacy,legacy,legacy,0,congruent,uniform,1,undefined,1,s,85,0,0,0,85,0,85,0,85,0,0,0,85,85,85,85,9/28/19 17:57,600,The main experiment item,yes,Flankertask.osexp,C:\Users\Edgar\Documents\Edgar School\Fall 2019\Lab 2-1,no,mono,no,18,no,white,no,yes,768,legacy,5,79,C:/Users/Edgar/Documents/Edgar School/Fall 2019/Lab 2-2/KR-subject-4.csv,legacy,Kafkaesque Koffka,3.2.8,0,s,NA,NA,h,h,s,444,NA,NA,95168,75810,444,2,legacy,1024,2,48000,-16,experiment,SSSSS,4,even,359814,100514,349367,NA,350455,5323,353640,NA,361050,NA,5342,273553,361156,361604,361043,361155,Flanker task,81,58237,86,yes,1024
94.25287356,94.25287356,674.7011494,674.7011494,black,legacy,legacy,legacy,0,incongruent,uniform,1,undefined,1,s,86,0,0,0,86,0,86,0,86,0,0,0,86,86,86,86,9/28/19 17:57,600,The main experiment item,yes,Flankertask.osexp,C:\Users\Edgar\Documents\Edgar School\Fall 2019\Lab 2-1,no,mono,no,18,no,white,no,yes,768,legacy,6,79,C:/Users/Edgar/Documents/Edgar School/Fall 2019/Lab 2-2/KR-subject-4.csv,legacy,Kafkaesque Koffka,3.2.8,0,s,NA,NA,h,h,s,462,NA,NA,95168,75810,462,2,legacy,1024,2,48000,-16,experiment,HHSHH,4,even,361672,100514,349367,NA,350455,5323,353640,NA,362912,NA,5342,273553,363018,363483,362904,363018,Flanker task,82,58699,87,yes,1024
94.31818182,94.31818182,671.9090909,671.9090909,black,legacy,legacy,legacy,0,congruent,uniform,1,undefined,1,h,87,0,0,0,87,0,87,0,87,0,0,0,87,87,87,87,9/28/19 17:57,600,The main experiment item,yes,Flankertask.osexp,C:\Users\Edgar\Documents\Edgar School\Fall 2019\Lab 2-1,no,mono,no,18,no,white,no,yes,768,legacy,7,79,C:/Users/Edgar/Documents/Edgar School/Fall 2019/Lab 2-2/KR-subject-4.csv,legacy,Kafkaesque Koffka,3.2.8,0,h,NA,NA,h,h,h,429,NA,NA,95168,75810,429,2,legacy,1024,2,48000,-16,experiment,HHHHH,4,even,363542,100514,349367,NA,350455,5323,353640,NA,364778,NA,5342,273553,364884,365317,364770,364883,Flanker task,83,59128,88,yes,1024
94.38202247,94.38202247,669.0786517,669.0786517,black,legacy,legacy,legacy,0,incongruent,uniform,1,undefined,1,h,88,0,0,0,88,0,88,0,88,0,0,0,88,88,88,88,9/28/19 17:57,600,The main experiment item,yes,Flankertask.osexp,C:\Users\Edgar\Documents\Edgar School\Fall 2019\Lab 2-1,no,mono,no,18,no,white,no,yes,768,legacy,8,79,C:/Users/Edgar/Documents/Edgar School/Fall 2019/Lab 2-2/KR-subject-4.csv,legacy,Kafkaesque Koffka,3.2.8,0,h,NA,NA,h,h,h,420,NA,NA,95168,75810,420,2,legacy,1024,2,48000,-16,experiment,SSHSS,4,even,365388,100514,349367,NA,350455,5323,353640,NA,366627,NA,5342,273553,366734,367158,366619,366733,Flanker task,84,59548,89,yes,1024
94.44444444,94.44444444,667.4888889,667.4888889,black,legacy,legacy,legacy,0,incongruent,uniform,1,undefined,1,s,89,0,0,0,89,0,89,0,89,0,0,0,89,89,89,89,9/28/19 17:57,600,The main experiment item,yes,Flankertask.osexp,C:\Users\Edgar\Documents\Edgar School\Fall 2019\Lab 2-1,no,mono,no,18,no,white,no,yes,768,legacy,9,79,C:/Users/Edgar/Documents/Edgar School/Fall 2019/Lab 2-2/KR-subject-4.csv,legacy,Kafkaesque Koffka,3.2.8,0,s,NA,NA,h,h,s,526,NA,NA,95168,75810,526,2,legacy,1024,2,48000,-16,experiment,HHSHH,4,even,367213,100514,349367,NA,350455,5323,353640,NA,368451,NA,5342,273553,368557,369087,368443,368556,Flanker task,85,60074,90,yes,1024
94.50549451,94.50549451,666.5054945,666.5054945,black,legacy,legacy,legacy,0,incongruent,uniform,1,undefined,1,h,90,0,0,0,90,0,90,0,90,0,0,0,90,90,90,90,9/28/19 17:57,600,The main experiment item,yes,Flankertask.osexp,C:\Users\Edgar\Documents\Edgar School\Fall 2019\Lab 2-1,no,mono,no,18,no,white,no,yes,768,legacy,10,79,C:/Users/Edgar/Documents/Edgar School/Fall 2019/Lab 2-2/KR-subject-4.csv,legacy,Kafkaesque Koffka,3.2.8,0,h,NA,NA,h,h,h,578,NA,NA,95168,75810,578,2,legacy,1024,2,48000,-16,experiment,SSHSS,4,even,369127,100514,349367,NA,350455,5323,353640,NA,370364,NA,5342,273553,370471,371055,370357,370470,Flanker task,86,60652,91,yes,1024
94.56521739,94.56521739,666.173913,666.173913,black,legacy,legacy,legacy,0,congruent,uniform,1,undefined,1,h,91,0,0,0,91,0,91,0,91,0,0,0,91,91,91,91,9/28/19 17:57,600,The main experiment item,yes,Flankertask.osexp,C:\Users\Edgar\Documents\Edgar School\Fall 2019\Lab 2-1,no,mono,no,18,no,white,no,yes,768,legacy,11,79,C:/Users/Edgar/Documents/Edgar School/Fall 2019/Lab 2-2/KR-subject-4.csv,legacy,Kafkaesque Koffka,3.2.8,0,h,NA,NA,h,h,h,636,NA,NA,95168,75810,636,2,legacy,1024,2,48000,-16,experiment,HHHHH,4,even,371124,100514,349367,NA,350455,5323,353640,NA,372377,NA,5342,273553,372483,373126,372369,372482,Flanker task,87,61288,92,yes,1024
94.62365591,94.62365591,664.9032258,664.9032258,black,legacy,legacy,legacy,0,congruent,uniform,1,undefined,1,s,92,0,0,0,92,0,92,0,92,0,0,0,92,92,92,92,9/28/19 17:57,600,The main experiment item,yes,Flankertask.osexp,C:\Users\Edgar\Documents\Edgar School\Fall 2019\Lab 2-1,no,mono,no,18,no,white,no,yes,768,legacy,12,79,C:/Users/Edgar/Documents/Edgar School/Fall 2019/Lab 2-2/KR-subject-4.csv,legacy,Kafkaesque Koffka,3.2.8,0,s,NA,NA,h,h,s,548,NA,NA,95168,75810,548,2,legacy,1024,2,48000,-16,experiment,SSSSS,4,even,373699,100514,349367,NA,350455,5323,373194,NA,374939,NA,5342,273553,375044,375597,374931,375044,Flanker task,88,61836,93,yes,1024
94.68085106,94.68085106,663.7021277,663.7021277,black,legacy,legacy,legacy,0,incongruent,uniform,1,undefined,1,s,93,0,0,0,93,0,93,0,93,0,0,0,93,93,93,93,9/28/19 17:57,600,The main experiment item,yes,Flankertask.osexp,C:\Users\Edgar\Documents\Edgar School\Fall 2019\Lab 2-1,no,mono,no,18,no,white,no,yes,768,legacy,13,79,C:/Users/Edgar/Documents/Edgar School/Fall 2019/Lab 2-2/KR-subject-4.csv,legacy,Kafkaesque Koffka,3.2.8,0,s,NA,NA,h,h,s,552,NA,NA,95168,75810,552,2,legacy,1024,2,48000,-16,experiment,HHSHH,4,even,375661,100514,349367,NA,350455,5323,373194,NA,376921,NA,5342,273553,377029,377586,376913,377028,Flanker task,89,62388,94,yes,1024
94.73684211,94.73684211,662.1789474,662.1789474,black,legacy,legacy,legacy,0,incongruent,uniform,1,undefined,1,h,94,0,0,0,94,0,94,0,94,0,0,0,94,94,94,94,9/28/19 17:57,600,The main experiment item,yes,Flankertask.osexp,C:\Users\Edgar\Documents\Edgar School\Fall 2019\Lab 2-1,no,mono,no,18,no,white,no,yes,768,legacy,14,79,C:/Users/Edgar/Documents/Edgar School/Fall 2019/Lab 2-2/KR-subject-4.csv,legacy,Kafkaesque Koffka,3.2.8,0,h,NA,NA,h,h,h,519,NA,NA,95168,75810,519,2,legacy,1024,2,48000,-16,experiment,SSHSS,4,even,377644,100514,349367,NA,350455,5323,373194,NA,378883,NA,5342,273553,378990,379514,378876,378990,Flanker task,90,62907,95,yes,1024
94.79166667,94.79166667,661.28125,661.28125,black,legacy,legacy,legacy,0,congruent,uniform,1,undefined,1,h,95,0,0,0,95,0,95,0,95,0,0,0,95,95,95,95,9/28/19 17:57,600,The main experiment item,yes,Flankertask.osexp,C:\Users\Edgar\Documents\Edgar School\Fall 2019\Lab 2-1,no,mono,no,18,no,white,no,yes,768,legacy,15,79,C:/Users/Edgar/Documents/Edgar School/Fall 2019/Lab 2-2/KR-subject-4.csv,legacy,Kafkaesque Koffka,3.2.8,0,h,NA,NA,h,h,h,576,NA,NA,95168,75810,576,2,legacy,1024,2,48000,-16,experiment,HHHHH,4,even,379573,100514,349367,NA,350455,5323,373194,NA,380802,NA,5342,273553,380909,381489,380794,380908,Flanker task,91,63483,96,yes,1024
94.84536082,94.84536082,658.5979381,658.5979381,black,legacy,legacy,legacy,0,incongruent,uniform,1,undefined,1,h,96,0,0,0,96,0,96,0,96,0,0,0,96,96,96,96,9/28/19 17:57,600,The main experiment item,yes,Flankertask.osexp,C:\Users\Edgar\Documents\Edgar School\Fall 2019\Lab 2-1,no,mono,no,18,no,white,no,yes,768,legacy,16,79,C:/Users/Edgar/Documents/Edgar School/Fall 2019/Lab 2-2/KR-subject-4.csv,legacy,Kafkaesque Koffka,3.2.8,0,h,NA,NA,h,h,h,401,NA,NA,95168,75810,401,2,legacy,1024,2,48000,-16,experiment,SSHSS,4,even,381581,100514,349367,NA,350455,5323,373194,NA,382821,NA,5342,273553,382927,383332,382812,382927,Flanker task,92,63884,97,yes,1024
94.89795918,94.89795918,657.3061224,657.3061224,black,legacy,legacy,legacy,0,congruent,uniform,1,undefined,1,h,97,0,0,0,97,0,97,0,97,0,0,0,97,97,97,97,9/28/19 17:57,600,The main experiment item,yes,Flankertask.osexp,C:\Users\Edgar\Documents\Edgar School\Fall 2019\Lab 2-1,no,mono,no,18,no,white,no,yes,768,legacy,17,79,C:/Users/Edgar/Documents/Edgar School/Fall 2019/Lab 2-2/KR-subject-4.csv,legacy,Kafkaesque Koffka,3.2.8,0,h,NA,NA,h,h,h,532,NA,NA,95168,75810,532,2,legacy,1024,2,48000,-16,experiment,HHHHH,4,even,383383,100514,349367,NA,350455,5323,373194,NA,384617,NA,5342,273553,384723,385259,384608,384722,Flanker task,93,64416,98,yes,1024
94.94949495,94.94949495,654.7272727,654.7272727,black,legacy,legacy,legacy,0,incongruent,uniform,1,undefined,1,s,98,0,0,0,98,0,98,0,98,0,0,0,98,98,98,98,9/28/19 17:57,600,The main experiment item,yes,Flankertask.osexp,C:\Users\Edgar\Documents\Edgar School\Fall 2019\Lab 2-1,no,mono,no,18,no,white,no,yes,768,legacy,18,79,C:/Users/Edgar/Documents/Edgar School/Fall 2019/Lab 2-2/KR-subject-4.csv,legacy,Kafkaesque Koffka,3.2.8,0,s,NA,NA,h,h,s,402,NA,NA,95168,75810,402,2,legacy,1024,2,48000,-16,experiment,HHSHH,4,even,385325,100514,349367,NA,350455,5323,373194,NA,386562,NA,5342,273553,386668,387075,386554,386667,Flanker task,94,64818,99,yes,1024
95,95,654.44,654.44,black,legacy,legacy,legacy,0,congruent,uniform,1,undefined,1,s,99,0,0,0,99,0,99,0,99,0,0,0,99,99,99,99,9/28/19 17:57,600,The main experiment item,yes,Flankertask.osexp,C:\Users\Edgar\Documents\Edgar School\Fall 2019\Lab 2-1,no,mono,no,18,no,white,no,yes,768,legacy,19,79,C:/Users/Edgar/Documents/Edgar School/Fall 2019/Lab 2-2/KR-subject-4.csv,legacy,Kafkaesque Koffka,3.2.8,0,s,NA,NA,h,h,s,626,NA,NA,95168,75810,626,2,legacy,1024,2,48000,-16,experiment,SSSSS,4,even,387132,100514,349367,NA,350455,5323,373194,NA,388390,NA,5342,273553,388498,389128,388382,388497,Flanker task,95,65444,100,yes,1024
95.04950495,95.04950495,651.8514851,651.8514851,black,legacy,legacy,legacy,0,congruent,uniform,1,undefined,1,h,100,0,0,0,100,0,100,0,100,0,0,0,100,100,100,100,9/28/19 17:57,600,The main experiment item,yes,Flankertask.osexp,C:\Users\Edgar\Documents\Edgar School\Fall 2019\Lab 2-1,no,mono,no,18,no,white,no,yes,768,legacy,20,79,C:/Users/Edgar/Documents/Edgar School/Fall 2019/Lab 2-2/KR-subject-4.csv,legacy,Kafkaesque Koffka,3.2.8,0,h,NA,NA,h,h,h,393,NA,NA,95168,75810,393,2,legacy,1024,2,48000,-16,experiment,HHHHH,4,even,389670,100514,349367,NA,350455,5323,389164,NA,390912,NA,5342,273553,391018,391415,390904,391017,Flanker task,96,65837,101,yes,1024
95.09803922,95.09803922,651.1960784,651.1960784,black,legacy,legacy,legacy,0,congruent,uniform,1,undefined,1,h,101,0,0,0,101,0,101,0,101,0,0,0,101,101,101,101,9/28/19 17:57,600,The main experiment item,yes,Flankertask.osexp,C:\Users\Edgar\Documents\Edgar School\Fall 2019\Lab 2-1,no,mono,no,18,no,white,no,yes,768,legacy,21,79,C:/Users/Edgar/Documents/Edgar School/Fall 2019/Lab 2-2/KR-subject-4.csv,legacy,Kafkaesque Koffka,3.2.8,0,h,NA,NA,h,h,h,585,NA,NA,95168,75810,585,2,legacy,1024,2,48000,-16,experiment,HHHHH,4,even,391466,100514,349367,NA,350455,5323,389164,NA,392701,NA,5342,273553,392808,393397,392692,392807,Flanker task,97,66422,102,yes,1024
95.14563107,95.14563107,650.8834951,650.8834951,black,legacy,legacy,legacy,0,congruent,uniform,1,undefined,1,s,102,0,0,0,102,0,102,0,102,0,0,0,102,102,102,102,9/28/19 17:57,600,The main experiment item,yes,Flankertask.osexp,C:\Users\Edgar\Documents\Edgar School\Fall 2019\Lab 2-1,no,mono,no,18,no,white,no,yes,768,legacy,22,79,C:/Users/Edgar/Documents/Edgar School/Fall 2019/Lab 2-2/KR-subject-4.csv,legacy,Kafkaesque Koffka,3.2.8,0,s,NA,NA,h,h,s,619,NA,NA,95168,75810,619,2,legacy,1024,2,48000,-16,experiment,SSSSS,4,even,393447,100514,349367,NA,350455,5323,389164,NA,394677,NA,5342,273553,394785,395408,394669,394784,Flanker task,98,67041,103,yes,1024
95.19230769,95.19230769,651.4038462,651.4038462,black,legacy,legacy,legacy,0,incongruent,uniform,1,undefined,1,s,103,0,0,0,103,0,103,0,103,0,0,0,103,103,103,103,9/28/19 17:57,600,The main experiment item,yes,Flankertask.osexp,C:\Users\Edgar\Documents\Edgar School\Fall 2019\Lab 2-1,no,mono,no,18,no,white,no,yes,768,legacy,23,79,C:/Users/Edgar/Documents/Edgar School/Fall 2019/Lab 2-2/KR-subject-4.csv,legacy,Kafkaesque Koffka,3.2.8,0,s,NA,NA,h,h,s,705,NA,NA,95168,75810,705,2,legacy,1024,2,48000,-16,experiment,HHSHH,4,even,395970,100514,349367,NA,350455,5323,395464,NA,397215,NA,5342,273553,397321,398031,397207,397320,Flanker task,99,67746,104,yes,1024
95.23809524,95.23809524,649.9904762,649.9904762,black,legacy,legacy,legacy,0,incongruent,uniform,1,undefined,1,s,104,0,0,0,104,0,104,0,104,0,0,0,104,104,104,104,9/28/19 17:57,600,The main experiment item,yes,Flankertask.osexp,C:\Users\Edgar\Documents\Edgar School\Fall 2019\Lab 2-1,no,mono,no,18,no,white,no,yes,768,legacy,24,79,C:/Users/Edgar/Documents/Edgar School/Fall 2019/Lab 2-2/KR-subject-4.csv,legacy,Kafkaesque Koffka,3.2.8,0,s,NA,NA,h,h,s,503,NA,NA,95168,75810,503,2,legacy,1024,2,48000,-16,experiment,HHSHH,4,even,398610,100514,349367,NA,350455,5323,398105,NA,399867,NA,5342,273553,399974,400481,399858,399973,Flanker task,100,68249,105,yes,1024
95.28301887,95.28301887,648.1226415,648.1226415,black,legacy,legacy,legacy,0,congruent,uniform,1,undefined,1,s,105,0,0,0,105,0,105,0,105,0,0,0,105,105,105,105,9/28/19 17:57,600,The main experiment item,yes,Flankertask.osexp,C:\Users\Edgar\Documents\Edgar School\Fall 2019\Lab 2-1,no,mono,no,18,no,white,no,yes,768,legacy,25,79,C:/Users/Edgar/Documents/Edgar School/Fall 2019/Lab 2-2/KR-subject-4.csv,legacy,Kafkaesque Koffka,3.2.8,0,s,NA,NA,h,h,s,452,NA,NA,95168,75810,452,2,legacy,1024,2,48000,-16,experiment,SSSSS,4,even,400535,100514,349367,NA,350455,5323,398105,NA,401815,NA,5342,273553,401922,402379,401807,401921,Flanker task,101,68701,106,yes,1024
95.3271028,95.3271028,646.7476636,646.7476636,black,legacy,legacy,legacy,0,incongruent,uniform,1,undefined,1,s,106,0,0,0,106,0,106,0,106,0,0,0,106,106,106,106,9/28/19 17:57,600,The main experiment item,yes,Flankertask.osexp,C:\Users\Edgar\Documents\Edgar School\Fall 2019\Lab 2-1,no,mono,no,18,no,white,no,yes,768,legacy,26,79,C:/Users/Edgar/Documents/Edgar School/Fall 2019/Lab 2-2/KR-subject-4.csv,legacy,Kafkaesque Koffka,3.2.8,0,s,NA,NA,h,h,s,501,NA,NA,95168,75810,501,2,legacy,1024,2,48000,-16,experiment,HHSHH,4,even,402421,100514,349367,NA,350455,5323,398105,NA,403711,NA,5342,273553,403818,404327,403702,403817,Flanker task,102,69202,107,yes,1024
95.37037037,95.37037037,645.25,645.25,black,legacy,legacy,legacy,0,incongruent,uniform,1,undefined,1,h,107,0,0,0,107,0,107,0,107,0,0,0,107,107,107,107,9/28/19 17:57,600,The main experiment item,yes,Flankertask.osexp,C:\Users\Edgar\Documents\Edgar School\Fall 2019\Lab 2-1,no,mono,no,18,no,white,no,yes,768,legacy,27,79,C:/Users/Edgar/Documents/Edgar School/Fall 2019/Lab 2-2/KR-subject-4.csv,legacy,Kafkaesque Koffka,3.2.8,0,h,NA,NA,h,h,h,485,NA,NA,95168,75810,485,2,legacy,1024,2,48000,-16,experiment,SSHSS,4,even,404363,100514,349367,NA,350455,5323,398105,NA,405635,NA,5342,273553,405742,406235,405626,405741,Flanker task,103,69687,108,yes,1024
95.41284404,95.41284404,644.2568807,644.2568807,black,legacy,legacy,legacy,0,incongruent,uniform,1,undefined,1,h,108,0,0,0,108,0,108,0,108,0,0,0,108,108,108,108,9/28/19 17:57,600,The main experiment item,yes,Flankertask.osexp,C:\Users\Edgar\Documents\Edgar School\Fall 2019\Lab 2-1,no,mono,no,18,no,white,no,yes,768,legacy,28,79,C:/Users/Edgar/Documents/Edgar School/Fall 2019/Lab 2-2/KR-subject-4.csv,legacy,Kafkaesque Koffka,3.2.8,0,h,NA,NA,h,h,h,537,NA,NA,95168,75810,537,2,legacy,1024,2,48000,-16,experiment,SSHSS,4,even,406516,100514,349367,NA,350455,5323,398105,NA,407747,NA,5342,273553,407855,408397,407740,407854,Flanker task,104,70224,109,yes,1024
95.45454545,95.45454545,641.9636364,641.9636364,black,legacy,legacy,legacy,0,congruent,uniform,1,undefined,1,h,109,0,0,0,109,0,109,0,109,0,0,0,109,109,109,109,9/28/19 17:57,600,The main experiment item,yes,Flankertask.osexp,C:\Users\Edgar\Documents\Edgar School\Fall 2019\Lab 2-1,no,mono,no,18,no,white,no,yes,768,legacy,29,79,C:/Users/Edgar/Documents/Edgar School/Fall 2019/Lab 2-2/KR-subject-4.csv,legacy,Kafkaesque Koffka,3.2.8,0,h,NA,NA,h,h,h,392,NA,NA,95168,75810,392,2,legacy,1024,2,48000,-16,experiment,HHHHH,4,even,408456,100514,349367,NA,350455,5323,398105,NA,409710,NA,5342,273553,409816,410213,409701,409815,Flanker task,105,70616,110,yes,1024
95.4954955,95.4954955,640.9189189,640.9189189,black,legacy,legacy,legacy,0,congruent,uniform,1,undefined,1,s,110,0,0,0,110,0,110,0,110,0,0,0,110,110,110,110,9/28/19 17:57,600,The main experiment item,yes,Flankertask.osexp,C:\Users\Edgar\Documents\Edgar School\Fall 2019\Lab 2-1,no,mono,no,18,no,white,no,yes,768,legacy,30,79,C:/Users/Edgar/Documents/Edgar School/Fall 2019/Lab 2-2/KR-subject-4.csv,legacy,Kafkaesque Koffka,3.2.8,0,s,NA,NA,h,h,s,526,NA,NA,95168,75810,526,2,legacy,1024,2,48000,-16,experiment,SSSSS,4,even,410276,100514,349367,NA,350455,5323,398105,NA,411522,NA,5342,273553,411628,412159,411512,411627,Flanker task,106,71142,111,yes,1024
95.53571429,95.53571429,642.5267857,642.5267857,black,legacy,legacy,legacy,0,congruent,uniform,1,undefined,1,h,111,0,0,0,111,0,111,0,111,0,0,0,111,111,111,111,9/28/19 17:57,600,The main experiment item,yes,Flankertask.osexp,C:\Users\Edgar\Documents\Edgar School\Fall 2019\Lab 2-1,no,mono,no,18,no,white,no,yes,768,legacy,31,79,C:/Users/Edgar/Documents/Edgar School/Fall 2019/Lab 2-2/KR-subject-4.csv,legacy,Kafkaesque Koffka,3.2.8,0,h,NA,NA,h,h,h,821,NA,NA,95168,75810,821,2,legacy,1024,2,48000,-16,experiment,HHHHH,4,even,412212,100514,349367,NA,350455,5323,398105,NA,413452,NA,5342,273553,413559,414384,413445,413558,Flanker task,107,71963,112,yes,1024
95.57522124,95.57522124,641.3893805,641.3893805,black,legacy,legacy,legacy,0,congruent,uniform,1,undefined,1,h,112,0,0,0,112,0,112,0,112,0,0,0,112,112,112,112,9/28/19 17:57,600,The main experiment item,yes,Flankertask.osexp,C:\Users\Edgar\Documents\Edgar School\Fall 2019\Lab 2-1,no,mono,no,18,no,white,no,yes,768,legacy,32,79,C:/Users/Edgar/Documents/Edgar School/Fall 2019/Lab 2-2/KR-subject-4.csv,legacy,Kafkaesque Koffka,3.2.8,0,h,NA,NA,h,h,h,514,NA,NA,95168,75810,514,2,legacy,1024,2,48000,-16,experiment,HHHHH,4,even,414920,100514,349367,NA,350455,5323,414414,NA,416175,NA,5342,273553,416281,416799,416166,416280,Flanker task,108,72477,113,yes,1024
95.61403509,95.61403509,640.2017544,640.2017544,black,legacy,legacy,legacy,0,congruent,uniform,1,undefined,1,s,113,0,0,0,113,0,113,0,113,0,0,0,113,113,113,113,9/28/19 17:57,600,The main experiment item,yes,Flankertask.osexp,C:\Users\Edgar\Documents\Edgar School\Fall 2019\Lab 2-1,no,mono,no,18,no,white,no,yes,768,legacy,33,79,C:/Users/Edgar/Documents/Edgar School/Fall 2019/Lab 2-2/KR-subject-4.csv,legacy,Kafkaesque Koffka,3.2.8,0,s,NA,NA,h,h,s,506,NA,NA,95168,75810,506,2,legacy,1024,2,48000,-16,experiment,SSSSS,4,even,416850,100514,349367,NA,350455,5323,414414,NA,418081,NA,5342,273553,418188,418698,418073,418187,Flanker task,109,72983,114,yes,1024
95.65217391,95.65217391,638.373913,638.373913,black,legacy,legacy,legacy,0,congruent,uniform,1,undefined,1,h,114,0,0,0,114,0,114,0,114,0,0,0,114,114,114,114,9/28/19 17:57,600,The main experiment item,yes,Flankertask.osexp,C:\Users\Edgar\Documents\Edgar School\Fall 2019\Lab 2-1,no,mono,no,18,no,white,no,yes,768,legacy,34,79,C:/Users/Edgar/Documents/Edgar School/Fall 2019/Lab 2-2/KR-subject-4.csv,legacy,Kafkaesque Koffka,3.2.8,0,h,NA,NA,h,h,h,430,NA,NA,95168,75810,430,2,legacy,1024,2,48000,-16,experiment,HHHHH,4,even,418747,100514,349367,NA,350455,5323,414414,NA,420008,NA,5342,273553,420114,420549,419999,420113,Flanker task,110,73413,115,yes,1024
95.68965517,95.68965517,636.7413793,636.7413793,black,legacy,legacy,legacy,0,congruent,uniform,1,undefined,1,s,115,0,0,0,115,0,115,0,115,0,0,0,115,115,115,115,9/28/19 17:57,600,The main experiment item,yes,Flankertask.osexp,C:\Users\Edgar\Documents\Edgar School\Fall 2019\Lab 2-1,no,mono,no,18,no,white,no,yes,768,legacy,35,79,C:/Users/Edgar/Documents/Edgar School/Fall 2019/Lab 2-2/KR-subject-4.csv,legacy,Kafkaesque Koffka,3.2.8,0,s,NA,NA,h,h,s,449,NA,NA,95168,75810,449,2,legacy,1024,2,48000,-16,experiment,SSSSS,4,even,420623,100514,349367,NA,350455,5323,414414,NA,421855,NA,5342,273553,421961,422416,421847,421960,Flanker task,111,73862,116,yes,1024
95.72649573,95.72649573,635.8205128,635.8205128,black,legacy,legacy,legacy,0,incongruent,uniform,1,undefined,1,s,116,0,0,0,116,0,116,0,116,0,0,0,116,116,116,116,9/28/19 17:57,600,The main experiment item,yes,Flankertask.osexp,C:\Users\Edgar\Documents\Edgar School\Fall 2019\Lab 2-1,no,mono,no,18,no,white,no,yes,768,legacy,36,79,C:/Users/Edgar/Documents/Edgar School/Fall 2019/Lab 2-2/KR-subject-4.csv,legacy,Kafkaesque Koffka,3.2.8,0,s,NA,NA,h,h,s,529,NA,NA,95168,75810,529,2,legacy,1024,2,48000,-16,experiment,HHSHH,4,even,422467,100514,349367,NA,350455,5323,414414,NA,423706,NA,5342,273553,423812,424354,423699,423812,Flanker task,112,74391,117,yes,1024
95.76271186,95.76271186,635.3135593,635.3135593,black,legacy,legacy,legacy,0,congruent,uniform,1,undefined,1,s,117,0,0,0,117,0,117,0,117,0,0,0,117,117,117,117,9/28/19 17:57,600,The main experiment item,yes,Flankertask.osexp,C:\Users\Edgar\Documents\Edgar School\Fall 2019\Lab 2-1,no,mono,no,18,no,white,no,yes,768,legacy,37,79,C:/Users/Edgar/Documents/Edgar School/Fall 2019/Lab 2-2/KR-subject-4.csv,legacy,Kafkaesque Koffka,3.2.8,0,s,NA,NA,h,h,s,576,NA,NA,95168,75810,576,2,legacy,1024,2,48000,-16,experiment,SSSSS,4,even,424389,100514,349367,NA,350455,5323,414414,NA,425650,NA,5342,273553,425756,426338,425642,425755,Flanker task,113,74967,118,yes,1024
95.79831933,95.79831933,634.5042017,634.5042017,black,legacy,legacy,legacy,0,congruent,uniform,1,undefined,1,h,118,0,0,0,118,0,118,0,118,0,0,0,118,118,118,118,9/28/19 17:57,600,The main experiment item,yes,Flankertask.osexp,C:\Users\Edgar\Documents\Edgar School\Fall 2019\Lab 2-1,no,mono,no,18,no,white,no,yes,768,legacy,38,79,C:/Users/Edgar/Documents/Edgar School/Fall 2019/Lab 2-2/KR-subject-4.csv,legacy,Kafkaesque Koffka,3.2.8,0,h,NA,NA,h,h,h,539,NA,NA,95168,75810,539,2,legacy,1024,2,48000,-16,experiment,HHHHH,4,even,426381,100514,349367,NA,350455,5323,414414,NA,427614,NA,5342,273553,427721,428265,427607,427721,Flanker task,114,75506,119,yes,1024
95.83333333,95.83333333,634.9416667,634.9416667,black,legacy,legacy,legacy,0,incongruent,uniform,1,undefined,1,s,119,0,0,0,119,0,119,0,119,0,0,0,119,119,119,119,9/28/19 17:57,600,The main experiment item,yes,Flankertask.osexp,C:\Users\Edgar\Documents\Edgar School\Fall 2019\Lab 2-1,no,mono,no,18,no,white,no,yes,768,legacy,39,79,C:/Users/Edgar/Documents/Edgar School/Fall 2019/Lab 2-2/KR-subject-4.csv,legacy,Kafkaesque Koffka,3.2.8,0,s,NA,NA,h,h,s,687,NA,NA,95168,75810,687,2,legacy,1024,2,48000,-16,experiment,HHSHH,4,even,428338,100514,349367,NA,350455,5323,414414,NA,429595,NA,5342,273553,429701,430394,429586,429700,Flanker task,115,76193,120,yes,1024
95.8677686,95.8677686,634.2561983,634.2561983,black,legacy,legacy,legacy,0,congruent,uniform,1,undefined,1,h,120,0,0,0,120,0,120,0,120,0,0,0,120,120,120,120,9/28/19 17:57,600,The main experiment item,yes,Flankertask.osexp,C:\Users\Edgar\Documents\Edgar School\Fall 2019\Lab 2-1,no,mono,no,18,no,white,no,yes,768,legacy,40,79,C:/Users/Edgar/Documents/Edgar School/Fall 2019/Lab 2-2/KR-subject-4.csv,legacy,Kafkaesque Koffka,3.2.8,0,h,NA,NA,h,h,h,552,NA,NA,95168,75810,552,2,legacy,1024,2,48000,-16,experiment,HHHHH,4,even,430951,100514,349367,NA,350455,5323,430446,NA,432209,NA,5342,273553,432314,432870,432200,432314,Flanker task,116,76745,121,yes,1024
95.90163934,95.90163934,633.3688525,633.3688525,black,legacy,legacy,legacy,0,incongruent,uniform,1,undefined,1,s,121,0,0,0,121,0,121,0,121,0,0,0,121,121,121,121,9/28/19 17:57,600,The main experiment item,yes,Flankertask.osexp,C:\Users\Edgar\Documents\Edgar School\Fall 2019\Lab 2-1,no,mono,no,18,no,white,no,yes,768,legacy,41,79,C:/Users/Edgar/Documents/Edgar School/Fall 2019/Lab 2-2/KR-subject-4.csv,legacy,Kafkaesque Koffka,3.2.8,0,s,NA,NA,h,h,s,526,NA,NA,95168,75810,526,2,legacy,1024,2,48000,-16,experiment,HHSHH,4,even,432926,100514,349367,NA,350455,5323,430446,NA,434165,NA,5342,273553,434271,434803,434157,434270,Flanker task,117,77271,122,yes,1024
95.93495935,95.93495935,633.8292683,633.8292683,black,legacy,legacy,legacy,0,congruent,uniform,1,undefined,1,s,122,0,0,0,122,0,122,0,122,0,0,0,122,122,122,122,9/28/19 17:57,600,The main experiment item,yes,Flankertask.osexp,C:\Users\Edgar\Documents\Edgar School\Fall 2019\Lab 2-1,no,mono,no,18,no,white,no,yes,768,legacy,42,79,C:/Users/Edgar/Documents/Edgar School/Fall 2019/Lab 2-2/KR-subject-4.csv,legacy,Kafkaesque Koffka,3.2.8,0,s,NA,NA,h,h,s,690,NA,NA,95168,75810,690,2,legacy,1024,2,48000,-16,experiment,SSSSS,4,even,434856,100514,349367,NA,350455,5323,430446,NA,436111,NA,5342,273553,436217,436914,436102,436216,Flanker task,118,77961,123,yes,1024
95.96774194,95.96774194,632.3629032,632.3629032,black,legacy,legacy,legacy,0,congruent,uniform,1,undefined,1,h,123,0,0,0,123,0,123,0,123,0,0,0,123,123,123,123,9/28/19 17:57,600,The main experiment item,yes,Flankertask.osexp,C:\Users\Edgar\Documents\Edgar School\Fall 2019\Lab 2-1,no,mono,no,18,no,white,no,yes,768,legacy,43,79,C:/Users/Edgar/Documents/Edgar School/Fall 2019/Lab 2-2/KR-subject-4.csv,legacy,Kafkaesque Koffka,3.2.8,0,h,NA,NA,h,h,h,452,NA,NA,95168,75810,452,2,legacy,1024,2,48000,-16,experiment,HHHHH,4,even,437485,100514,349367,NA,350455,5323,436980,NA,438738,NA,5342,273553,438846,439303,438731,438844,Flanker task,119,78413,124,yes,1024
96,96,631.68,631.68,black,legacy,legacy,legacy,0,incongruent,uniform,1,undefined,1,h,124,0,0,0,124,0,124,0,124,0,0,0,124,124,124,124,9/28/19 17:57,600,The main experiment item,yes,Flankertask.osexp,C:\Users\Edgar\Documents\Edgar School\Fall 2019\Lab 2-1,no,mono,no,18,no,white,no,yes,768,legacy,44,79,C:/Users/Edgar/Documents/Edgar School/Fall 2019/Lab 2-2/KR-subject-4.csv,legacy,Kafkaesque Koffka,3.2.8,0,h,NA,NA,h,h,h,547,NA,NA,95168,75810,547,2,legacy,1024,2,48000,-16,experiment,SSHSS,4,even,439342,100514,349367,NA,350455,5323,436980,NA,440599,NA,5342,273553,440706,441258,440589,440705,Flanker task,120,78960,125,yes,1024
96.03174603,96.03174603,631.2857143,631.2857143,black,legacy,legacy,legacy,0,incongruent,uniform,1,undefined,1,s,125,0,0,0,125,0,125,0,125,0,0,0,125,125,125,125,9/28/19 17:57,600,The main experiment item,yes,Flankertask.osexp,C:\Users\Edgar\Documents\Edgar School\Fall 2019\Lab 2-1,no,mono,no,18,no,white,no,yes,768,legacy,45,79,C:/Users/Edgar/Documents/Edgar School/Fall 2019/Lab 2-2/KR-subject-4.csv,legacy,Kafkaesque Koffka,3.2.8,0,s,NA,NA,h,h,s,582,NA,NA,95168,75810,582,2,legacy,1024,2,48000,-16,experiment,HHSHH,4,even,441324,100514,349367,NA,350455,5323,436980,NA,442576,NA,5342,273553,442682,443270,442568,442681,Flanker task,121,79542,126,yes,1024
96.06299213,96.06299213,630.6535433,630.6535433,black,legacy,legacy,legacy,0,incongruent,uniform,1,undefined,1,s,126,0,0,0,126,0,126,0,126,0,0,0,126,126,126,126,9/28/19 17:57,600,The main experiment item,yes,Flankertask.osexp,C:\Users\Edgar\Documents\Edgar School\Fall 2019\Lab 2-1,no,mono,no,18,no,white,no,yes,768,legacy,46,79,C:/Users/Edgar/Documents/Edgar School/Fall 2019/Lab 2-2/KR-subject-4.csv,legacy,Kafkaesque Koffka,3.2.8,0,s,NA,NA,h,h,s,551,NA,NA,95168,75810,551,2,legacy,1024,2,48000,-16,experiment,HHSHH,4,even,443326,100514,349367,NA,350455,5323,436980,NA,444568,NA,5342,273553,444675,445234,444560,444674,Flanker task,122,80093,127,yes,1024
96.09375,96.09375,632.8984375,632.8984375,black,legacy,legacy,legacy,0,congruent,uniform,1,undefined,1,h,127,0,0,0,127,0,127,0,127,0,0,0,127,127,127,127,9/28/19 17:57,600,The main experiment item,yes,Flankertask.osexp,C:\Users\Edgar\Documents\Edgar School\Fall 2019\Lab 2-1,no,mono,no,18,no,white,no,yes,768,legacy,47,79,C:/Users/Edgar/Documents/Edgar School/Fall 2019/Lab 2-2/KR-subject-4.csv,legacy,Kafkaesque Koffka,3.2.8,0,h,NA,NA,h,h,h,918,NA,NA,95168,75810,918,2,legacy,1024,2,48000,-16,experiment,HHHHH,4,even,445268,100514,349367,NA,350455,5323,436980,NA,446531,NA,5342,273553,446636,447561,446523,446636,Flanker task,123,81011,128,yes,1024
96.12403101,96.12403101,631.7596899,631.7596899,black,legacy,legacy,legacy,0,congruent,uniform,1,undefined,1,h,128,0,0,0,128,0,128,0,128,0,0,0,128,128,128,128,9/28/19 17:57,600,The main experiment item,yes,Flankertask.osexp,C:\Users\Edgar\Documents\Edgar School\Fall 2019\Lab 2-1,no,mono,no,18,no,white,no,yes,768,legacy,48,79,C:/Users/Edgar/Documents/Edgar School/Fall 2019/Lab 2-2/KR-subject-4.csv,legacy,Kafkaesque Koffka,3.2.8,0,h,NA,NA,h,h,h,486,NA,NA,95168,75810,486,2,legacy,1024,2,48000,-16,experiment,HHHHH,4,even,448146,100514,349367,NA,350455,5323,447641,NA,449382,NA,5342,273553,449489,449982,449374,449488,Flanker task,124,81497,129,yes,1024
96.15384615,96.15384615,630.9307692,630.9307692,black,legacy,legacy,legacy,0,incongruent,uniform,1,undefined,1,s,129,0,0,0,129,0,129,0,129,0,0,0,129,129,129,129,9/28/19 17:57,600,The main experiment item,yes,Flankertask.osexp,C:\Users\Edgar\Documents\Edgar School\Fall 2019\Lab 2-1,no,mono,no,18,no,white,no,yes,768,legacy,49,79,C:/Users/Edgar/Documents/Edgar School/Fall 2019/Lab 2-2/KR-subject-4.csv,legacy,Kafkaesque Koffka,3.2.8,0,s,NA,NA,h,h,s,524,NA,NA,95168,75810,524,2,legacy,1024,2,48000,-16,experiment,HHSHH,4,even,450027,100514,349367,NA,350455,5323,447641,NA,451283,NA,5342,273553,451390,451919,451275,451389,Flanker task,125,82021,130,yes,1024
96.18320611,96.18320611,631.1679389,631.1679389,black,legacy,legacy,legacy,0,incongruent,uniform,1,undefined,1,h,130,0,0,0,130,0,130,0,130,0,0,0,130,130,130,130,9/28/19 17:57,600,The main experiment item,yes,Flankertask.osexp,C:\Users\Edgar\Documents\Edgar School\Fall 2019\Lab 2-1,no,mono,no,18,no,white,no,yes,768,legacy,50,79,C:/Users/Edgar/Documents/Edgar School/Fall 2019/Lab 2-2/KR-subject-4.csv,legacy,Kafkaesque Koffka,3.2.8,0,h,NA,NA,h,h,h,662,NA,NA,95168,75810,662,2,legacy,1024,2,48000,-16,experiment,SSHSS,4,even,451979,100514,349367,NA,350455,5323,447641,NA,453216,NA,5342,273553,453323,453990,453206,453323,Flanker task,126,82683,131,yes,1024
96.21212121,96.21212121,631.75,631.75,black,legacy,legacy,legacy,0,congruent,uniform,1,undefined,1,s,131,0,0,0,131,0,131,0,131,0,0,0,131,131,131,131,9/28/19 17:57,600,The main experiment item,yes,Flankertask.osexp,C:\Users\Edgar\Documents\Edgar School\Fall 2019\Lab 2-1,no,mono,no,18,no,white,no,yes,768,legacy,51,79,C:/Users/Edgar/Documents/Edgar School/Fall 2019/Lab 2-2/KR-subject-4.csv,legacy,Kafkaesque Koffka,3.2.8,0,s,NA,NA,h,h,s,708,NA,NA,95168,75810,708,2,legacy,1024,2,48000,-16,experiment,SSSSS,4,even,454556,100514,349367,NA,350455,5323,454050,NA,455822,NA,5342,273553,455929,456642,455815,455928,Flanker task,127,83391,132,yes,1024
96.2406015,96.2406015,631.0676692,631.0676692,black,legacy,legacy,legacy,0,congruent,uniform,1,undefined,1,h,132,0,0,0,132,0,132,0,132,0,0,0,132,132,132,132,9/28/19 17:57,600,The main experiment item,yes,Flankertask.osexp,C:\Users\Edgar\Documents\Edgar School\Fall 2019\Lab 2-1,no,mono,no,18,no,white,no,yes,768,legacy,52,79,C:/Users/Edgar/Documents/Edgar School/Fall 2019/Lab 2-2/KR-subject-4.csv,legacy,Kafkaesque Koffka,3.2.8,0,h,NA,NA,h,h,h,541,NA,NA,95168,75810,541,2,legacy,1024,2,48000,-16,experiment,HHHHH,4,even,457200,100514,349367,NA,350455,5323,456694,NA,458442,NA,5342,273553,458548,459098,458434,458547,Flanker task,128,83932,133,yes,1024
96.26865672,96.26865672,630.7910448,630.7910448,black,legacy,legacy,legacy,0,incongruent,uniform,1,undefined,1,h,133,0,0,0,133,0,133,0,133,0,0,0,133,133,133,133,9/28/19 17:57,600,The main experiment item,yes,Flankertask.osexp,C:\Users\Edgar\Documents\Edgar School\Fall 2019\Lab 2-1,no,mono,no,18,no,white,no,yes,768,legacy,53,79,C:/Users/Edgar/Documents/Edgar School/Fall 2019/Lab 2-2/KR-subject-4.csv,legacy,Kafkaesque Koffka,3.2.8,0,h,NA,NA,h,h,h,594,NA,NA,95168,75810,594,2,legacy,1024,2,48000,-16,experiment,SSHSS,4,even,459153,100514,349367,NA,350455,5323,456694,NA,460404,NA,5342,273553,460510,461110,460396,460509,Flanker task,129,84526,134,yes,1024
96.2962963,96.2962963,630.1407407,630.1407407,black,legacy,legacy,legacy,0,congruent,uniform,1,undefined,1,s,134,0,0,0,134,0,134,0,134,0,0,0,134,134,134,134,9/28/19 17:57,600,The main experiment item,yes,Flankertask.osexp,C:\Users\Edgar\Documents\Edgar School\Fall 2019\Lab 2-1,no,mono,no,18,no,white,no,yes,768,legacy,54,79,C:/Users/Edgar/Documents/Edgar School/Fall 2019/Lab 2-2/KR-subject-4.csv,legacy,Kafkaesque Koffka,3.2.8,0,s,NA,NA,h,h,s,543,NA,NA,95168,75810,543,2,legacy,1024,2,48000,-16,experiment,SSSSS,4,even,461206,100514,349367,NA,350455,5323,456694,NA,462433,NA,5342,273553,462540,463088,462426,462539,Flanker task,130,85069,135,yes,1024
95.58823529,95.58823529,629.3088235,629.3088235,black,legacy,legacy,legacy,0,congruent,uniform,0,undefined,0,s,135,0,0,0,135,0,135,0,135,0,0,0,135,135,135,135,9/28/19 17:57,600,The main experiment item,yes,Flankertask.osexp,C:\Users\Edgar\Documents\Edgar School\Fall 2019\Lab 2-1,no,mono,no,18,no,white,no,yes,768,legacy,55,79,C:/Users/Edgar/Documents/Edgar School/Fall 2019/Lab 2-2/KR-subject-4.csv,legacy,Kafkaesque Koffka,3.2.8,0,h,NA,NA,h,h,h,517,NA,NA,95168,75810,517,2,legacy,1024,2,48000,-16,experiment,SSSSS,4,even,463125,100514,349367,NA,350455,5323,456694,NA,464356,NA,5342,273553,464463,464986,464348,464462,Flanker task,130,85586,136,yes,1024
95.62043796,95.62043796,628.2481752,628.2481752,black,legacy,legacy,legacy,0,congruent,uniform,1,undefined,1,h,136,0,0,0,136,0,136,0,136,0,0,0,136,136,136,136,9/28/19 17:57,600,The main experiment item,yes,Flankertask.osexp,C:\Users\Edgar\Documents\Edgar School\Fall 2019\Lab 2-1,no,mono,no,18,no,white,no,yes,768,legacy,56,79,C:/Users/Edgar/Documents/Edgar School/Fall 2019/Lab 2-2/KR-subject-4.csv,legacy,Kafkaesque Koffka,3.2.8,0,h,NA,NA,h,h,h,484,NA,NA,95168,75810,484,2,legacy,1024,2,48000,-16,experiment,HHHHH,4,even,465554,100514,349367,NA,465049,5323,456694,NA,814316,NA,5342,273553,814426,814915,466785,814425,Flanker task,131,86070,137,yes,1024
95.65217391,95.65217391,627.5,627.5,black,legacy,legacy,legacy,0,incongruent,uniform,1,undefined,1,s,137,0,0,0,137,0,137,0,137,0,0,0,137,137,137,137,9/28/19 17:57,600,The main experiment item,yes,Flankertask.osexp,C:\Users\Edgar\Documents\Edgar School\Fall 2019\Lab 2-1,no,mono,no,18,no,white,no,yes,768,legacy,57,79,C:/Users/Edgar/Documents/Edgar School/Fall 2019/Lab 2-2/KR-subject-4.csv,legacy,Kafkaesque Koffka,3.2.8,0,s,NA,NA,h,h,s,525,NA,NA,95168,75810,525,2,legacy,1024,2,48000,-16,experiment,HHSHH,4,even,814979,100514,349367,NA,465049,5323,456694,NA,816249,NA,5342,273553,816355,816885,816240,816354,Flanker task,132,86595,138,yes,1024
94.96402878,94.96402878,626.352518,626.352518,black,legacy,legacy,legacy,0,incongruent,uniform,0,undefined,0,h,138,0,0,0,138,0,138,0,138,0,0,0,138,138,138,138,9/28/19 17:57,600,The main experiment item,yes,Flankertask.osexp,C:\Users\Edgar\Documents\Edgar School\Fall 2019\Lab 2-1,no,mono,no,18,no,white,no,yes,768,legacy,58,79,C:/Users/Edgar/Documents/Edgar School/Fall 2019/Lab 2-2/KR-subject-4.csv,legacy,Kafkaesque Koffka,3.2.8,0,s,NA,NA,h,h,s,468,NA,NA,95168,75810,468,2,legacy,1024,2,48000,-16,experiment,SSHSS,4,even,816954,100514,349367,NA,465049,5323,456694,NA,818189,NA,5342,273553,818295,818770,818181,818295,Flanker task,132,87063,139,yes,1024
95,95,625.4357143,625.4357143,black,legacy,legacy,legacy,0,incongruent,uniform,1,undefined,1,h,139,0,0,0,139,0,139,0,139,0,0,0,139,139,139,139,9/28/19 17:57,600,The main experiment item,yes,Flankertask.osexp,C:\Users\Edgar\Documents\Edgar School\Fall 2019\Lab 2-1,no,mono,no,18,no,white,no,yes,768,legacy,59,79,C:/Users/Edgar/Documents/Edgar School/Fall 2019/Lab 2-2/KR-subject-4.csv,legacy,Kafkaesque Koffka,3.2.8,0,h,NA,NA,h,h,h,498,NA,NA,95168,75810,498,2,legacy,1024,2,48000,-16,experiment,SSHSS,4,even,819314,100514,349367,NA,818808,5323,456694,NA,820556,NA,5342,273553,820663,821167,820546,820662,Flanker task,133,87561,140,yes,1024
95.03546099,95.03546099,625.0212766,625.0212766,black,legacy,legacy,legacy,0,incongruent,uniform,1,undefined,1,s,140,0,0,0,140,0,140,0,140,0,0,0,140,140,140,140,9/28/19 17:57,600,The main experiment item,yes,Flankertask.osexp,C:\Users\Edgar\Documents\Edgar School\Fall 2019\Lab 2-1,no,mono,no,18,no,white,no,yes,768,legacy,60,79,C:/Users/Edgar/Documents/Edgar School/Fall 2019/Lab 2-2/KR-subject-4.csv,legacy,Kafkaesque Koffka,3.2.8,0,s,NA,NA,h,h,s,567,NA,NA,95168,75810,567,2,legacy,1024,2,48000,-16,experiment,HHSHH,4,even,821248,100514,349367,NA,818808,5323,456694,NA,822525,NA,5342,273553,822631,823203,822517,822630,Flanker task,134,88128,141,yes,1024
95.07042254,95.07042254,624.3521127,624.3521127,black,legacy,legacy,legacy,0,congruent,uniform,1,undefined,1,h,141,0,0,0,141,0,141,0,141,0,0,0,141,141,141,141,9/28/19 17:57,600,The main experiment item,yes,Flankertask.osexp,C:\Users\Edgar\Documents\Edgar School\Fall 2019\Lab 2-1,no,mono,no,18,no,white,no,yes,768,legacy,61,79,C:/Users/Edgar/Documents/Edgar School/Fall 2019/Lab 2-2/KR-subject-4.csv,legacy,Kafkaesque Koffka,3.2.8,0,h,NA,NA,h,h,h,530,NA,NA,95168,75810,530,2,legacy,1024,2,48000,-16,experiment,HHHHH,4,even,823256,100514,349367,NA,818808,5323,456694,NA,824491,NA,5342,273553,824597,825132,824484,824597,Flanker task,135,88658,142,yes,1024
95.1048951,95.1048951,624.3146853,624.3146853,black,legacy,legacy,legacy,0,incongruent,uniform,1,undefined,1,h,142,0,0,0,142,0,142,0,142,0,0,0,142,142,142,142,9/28/19 17:57,600,The main experiment item,yes,Flankertask.osexp,C:\Users\Edgar\Documents\Edgar School\Fall 2019\Lab 2-1,no,mono,no,18,no,white,no,yes,768,legacy,62,79,C:/Users/Edgar/Documents/Edgar School/Fall 2019/Lab 2-2/KR-subject-4.csv,legacy,Kafkaesque Koffka,3.2.8,0,h,NA,NA,h,h,h,619,NA,NA,95168,75810,619,2,legacy,1024,2,48000,-16,experiment,SSHSS,4,even,825186,100514,349367,NA,818808,5323,456694,NA,826422,NA,5342,273553,826528,827157,826415,826527,Flanker task,136,89277,143,yes,1024
95.13888889,95.13888889,624.8541667,624.8541667,black,legacy,legacy,legacy,0,incongruent,uniform,1,undefined,1,s,143,0,0,0,143,0,143,0,143,0,0,0,143,143,143,143,9/28/19 17:57,600,The main experiment item,yes,Flankertask.osexp,C:\Users\Edgar\Documents\Edgar School\Fall 2019\Lab 2-1,no,mono,no,18,no,white,no,yes,768,legacy,63,79,C:/Users/Edgar/Documents/Edgar School/Fall 2019/Lab 2-2/KR-subject-4.csv,legacy,Kafkaesque Koffka,3.2.8,0,s,NA,NA,h,h,s,702,NA,NA,95168,75810,702,2,legacy,1024,2,48000,-16,experiment,HHSHH,4,even,827699,100514,349367,NA,818808,5323,827193,NA,828942,NA,5342,273553,829048,829755,828935,829048,Flanker task,137,89979,144,yes,1024
94.48275862,94.48275862,623.2896552,623.2896552,black,legacy,legacy,legacy,0,congruent,uniform,0,undefined,0,s,144,0,0,0,144,0,144,0,144,0,0,0,144,144,144,144,9/28/19 17:57,600,The main experiment item,yes,Flankertask.osexp,C:\Users\Edgar\Documents\Edgar School\Fall 2019\Lab 2-1,no,mono,no,18,no,white,no,yes,768,legacy,64,79,C:/Users/Edgar/Documents/Edgar School/Fall 2019/Lab 2-2/KR-subject-4.csv,legacy,Kafkaesque Koffka,3.2.8,0,h,NA,NA,h,h,h,398,NA,NA,95168,75810,398,2,legacy,1024,2,48000,-16,experiment,SSSSS,4,even,830323,100514,349367,NA,818808,5323,829818,NA,831552,NA,5342,273553,831658,832061,831544,831657,Flanker task,137,90377,145,yes,1024
94.52054795,94.52054795,622.3219178,622.3219178,black,legacy,legacy,legacy,0,incongruent,uniform,1,undefined,1,h,145,0,0,0,145,0,145,0,145,0,0,0,145,145,145,145,9/28/19 17:57,600,The main experiment item,yes,Flankertask.osexp,C:\Users\Edgar\Documents\Edgar School\Fall 2019\Lab 2-1,no,mono,no,18,no,white,no,yes,768,legacy,65,79,C:/Users/Edgar/Documents/Edgar School/Fall 2019/Lab 2-2/KR-subject-4.csv,legacy,Kafkaesque Koffka,3.2.8,0,h,NA,NA,h,h,h,482,NA,NA,95168,75810,482,2,legacy,1024,2,48000,-16,experiment,SSHSS,4,even,832625,100514,349367,NA,832120,5323,829818,NA,833868,NA,5342,273553,833975,834464,833852,833974,Flanker task,138,90859,146,yes,1024
94.55782313,94.55782313,621.0952381,621.0952381,black,legacy,legacy,legacy,0,incongruent,uniform,1,undefined,1,h,146,0,0,0,146,0,146,0,146,0,0,0,146,146,146,146,9/28/19 17:57,600,The main experiment item,yes,Flankertask.osexp,C:\Users\Edgar\Documents\Edgar School\Fall 2019\Lab 2-1,no,mono,no,18,no,white,no,yes,768,legacy,66,79,C:/Users/Edgar/Documents/Edgar School/Fall 2019/Lab 2-2/KR-subject-4.csv,legacy,Kafkaesque Koffka,3.2.8,0,h,NA,NA,h,h,h,442,NA,NA,95168,75810,442,2,legacy,1024,2,48000,-16,experiment,SSHSS,4,even,834517,100514,349367,NA,832120,5323,829818,NA,835749,NA,5342,273553,835855,836303,835741,835854,Flanker task,139,91301,147,yes,1024
94.59459459,94.59459459,620.1824324,620.1824324,black,legacy,legacy,legacy,0,congruent,uniform,1,undefined,1,h,147,0,0,0,147,0,147,0,147,0,0,0,147,147,147,147,9/28/19 17:57,600,The main experiment item,yes,Flankertask.osexp,C:\Users\Edgar\Documents\Edgar School\Fall 2019\Lab 2-1,no,mono,no,18,no,white,no,yes,768,legacy,67,79,C:/Users/Edgar/Documents/Edgar School/Fall 2019/Lab 2-2/KR-subject-4.csv,legacy,Kafkaesque Koffka,3.2.8,0,h,NA,NA,h,h,h,486,NA,NA,95168,75810,486,2,legacy,1024,2,48000,-16,experiment,HHHHH,4,even,836342,100514,349367,NA,832120,5323,829818,NA,837610,NA,5342,273553,837716,838208,837601,837715,Flanker task,140,91787,148,yes,1024
94.63087248,94.63087248,619.9328859,619.9328859,black,legacy,legacy,legacy,0,incongruent,uniform,1,undefined,1,h,148,0,0,0,148,0,148,0,148,0,0,0,148,148,148,148,9/28/19 17:57,600,The main experiment item,yes,Flankertask.osexp,C:\Users\Edgar\Documents\Edgar School\Fall 2019\Lab 2-1,no,mono,no,18,no,white,no,yes,768,legacy,68,79,C:/Users/Edgar/Documents/Edgar School/Fall 2019/Lab 2-2/KR-subject-4.csv,legacy,Kafkaesque Koffka,3.2.8,0,h,NA,NA,h,h,h,583,NA,NA,95168,75810,583,2,legacy,1024,2,48000,-16,experiment,SSHSS,4,even,838276,100514,349367,NA,832120,5323,829818,NA,839509,NA,5342,273553,839615,840204,839501,839614,Flanker task,141,92370,149,yes,1024
94.66666667,94.66666667,619.48,619.48,black,legacy,legacy,legacy,0,incongruent,uniform,1,undefined,1,s,149,0,0,0,149,0,149,0,149,0,0,0,149,149,149,149,9/28/19 17:57,600,The main experiment item,yes,Flankertask.osexp,C:\Users\Edgar\Documents\Edgar School\Fall 2019\Lab 2-1,no,mono,no,18,no,white,no,yes,768,legacy,69,79,C:/Users/Edgar/Documents/Edgar School/Fall 2019/Lab 2-2/KR-subject-4.csv,legacy,Kafkaesque Koffka,3.2.8,0,s,NA,NA,h,h,s,552,NA,NA,95168,75810,552,2,legacy,1024,2,48000,-16,experiment,HHSHH,4,even,840285,100514,349367,NA,832120,5323,829818,NA,841519,NA,5342,273553,841625,842183,841511,841624,Flanker task,142,92922,150,yes,1024
94.70198676,94.70198676,618.218543,618.218543,black,legacy,legacy,legacy,0,incongruent,uniform,1,undefined,1,s,150,0,0,0,150,0,150,0,150,0,0,0,150,150,150,150,9/28/19 17:57,600,The main experiment item,yes,Flankertask.osexp,C:\Users\Edgar\Documents\Edgar School\Fall 2019\Lab 2-1,no,mono,no,18,no,white,no,yes,768,legacy,70,79,C:/Users/Edgar/Documents/Edgar School/Fall 2019/Lab 2-2/KR-subject-4.csv,legacy,Kafkaesque Koffka,3.2.8,0,s,NA,NA,h,h,s,429,NA,NA,95168,75810,429,2,legacy,1024,2,48000,-16,experiment,HHSHH,4,even,842245,100514,349367,NA,832120,5323,829818,NA,843503,NA,5342,273553,843609,844043,843495,843608,Flanker task,143,93351,151,yes,1024
94.73684211,94.73684211,617.7434211,617.7434211,black,legacy,legacy,legacy,0,incongruent,uniform,1,undefined,1,h,151,0,0,0,151,0,151,0,151,0,0,0,151,151,151,151,9/28/19 17:57,600,The main experiment item,yes,Flankertask.osexp,C:\Users\Edgar\Documents\Edgar School\Fall 2019\Lab 2-1,no,mono,no,18,no,white,no,yes,768,legacy,71,79,C:/Users/Edgar/Documents/Edgar School/Fall 2019/Lab 2-2/KR-subject-4.csv,legacy,Kafkaesque Koffka,3.2.8,0,h,NA,NA,h,h,h,546,NA,NA,95168,75810,546,2,legacy,1024,2,48000,-16,experiment,SSHSS,4,even,844101,100514,349367,NA,832120,5323,829818,NA,845333,NA,5342,273553,845438,845990,845325,845438,Flanker task,144,93897,152,yes,1024
94.77124183,94.77124183,616.9019608,616.9019608,black,legacy,legacy,legacy,0,congruent,uniform,1,undefined,1,s,152,0,0,0,152,0,152,0,152,0,0,0,152,152,152,152,9/28/19 17:57,600,The main experiment item,yes,Flankertask.osexp,C:\Users\Edgar\Documents\Edgar School\Fall 2019\Lab 2-1,no,mono,no,18,no,white,no,yes,768,legacy,72,79,C:/Users/Edgar/Documents/Edgar School/Fall 2019/Lab 2-2/KR-subject-4.csv,legacy,Kafkaesque Koffka,3.2.8,0,s,NA,NA,h,h,s,489,NA,NA,95168,75810,489,2,legacy,1024,2,48000,-16,experiment,SSSSS,4,even,846049,100514,349367,NA,832120,5323,829818,NA,847281,NA,5342,273553,847387,847883,847273,847386,Flanker task,145,94386,153,yes,1024
