"acc","accuracy","average_response_time","avg_rt","background","canvas_backend","clock_backend","color_backend","condition","correct","correct_instructions1","correct_keyboard_response","correct_response","count_ISI","count_block1","count_block2","count_block3","count_errorFeedback","count_experiment","count_faster","count_fixation","count_getting_started","count_instructions1","count_instructions2","count_instructions3","count_keyboard_response","count_logger","count_new_sketchpad","count_sequence","count_stimulus","count_welcome","datetime","deadline","description","disable_garbage_collection","experiment_file","experiment_path","font_bold","font_family","font_italic","font_size","font_underline","foreground","form_clicks","fullscreen","height","keyboard_backend","live_row","live_row_block1","logfile","mouse_backend","opensesame_codename","opensesame_version","repeat_cycle","response","response_instructions1","response_instructions2","response_instructions3","response_keyboard_response","response_new_sketchpad","response_time","response_time_instructions1","response_time_instructions2","response_time_instructions3","response_time_keyboard_response","response_time_new_sketchpad","response_time_welcome","response_welcome","round_decimals","sampler_backend","sound_buf_size","sound_channels","sound_freq","sound_sample_size","start","stimulus","subject_nr","subject_parity","time_ISI","time_block1","time_block2","time_block3","time_errorFeedback","time_experiment","time_faster","time_fixation","time_getting_started","time_instructions1","time_instructions2","time_instructions3","time_keyboard_response","time_logger","time_new_sketchpad","time_sequence","time_stimulus","time_welcome","title","total_correct","total_response_time","total_responses","width"
"100","100","1277","1277","#3d3846","legacy","legacy","legacy","congruent","1","undefined","1","h","0","0","0","0","0","0","0","0","NA","0","0","0","0","0","0","0","0","NA","Sat Sep 16 21:21:51 2023","1500","The main experiment item","True","FlankerTask.osexp","C:/Users/backs/OneDrive/Documents","False","mono","False","18","no","white","no","yes","768","legacy","0","0","C:/Users/backs/OneDrive/Documents/BZ-subject-1.csv","legacy","Melodramatic Milgram","4.0.5","0","h","s","NA","NA","h","NA","1277.0","51568","NA","NA","1277","NA","NA","NA","2","legacy","1024","2","48000","-16","experiment","HHHHH","1","odd","NA","59404","NA","NA","NA","7812","NA","59619","NA","7835","NA","NA","59720","60998","NA","59618","59720","NA","Flanker Task ","1","1277.0","1","1024"
"100","100","1114","1114","#3d3846","legacy","legacy","legacy","incongruent","1","undefined","1","h","1","0","0","0","1","0","1","1","NA","0","0","0","1","1","0","1","1","NA","Sat Sep 16 21:21:51 2023","1500","The main experiment item","True","FlankerTask.osexp","C:/Users/backs/OneDrive/Documents","False","mono","False","18","no","white","no","yes","768","legacy","1","1","C:/Users/backs/OneDrive/Documents/BZ-subject-1.csv","legacy","Melodramatic Milgram","4.0.5","0","h","s","NA","NA","h","NA","952.0","51568","NA","NA","952","NA","NA","NA","2","legacy","1024","2","48000","-16","experiment","SSHSS","1","odd","61005","59404","NA","NA","NA","7812","NA","62075","NA","7835","NA","NA","62176","63128","NA","62073","62176","NA","Flanker Task ","2","2229.0","2","1024"
"100","100","960","960","#3d3846","legacy","legacy","legacy","incongruent","1","undefined","1","h","2","0","0","0","2","0","2","2","NA","0","0","0","2","2","0","2","2","NA","Sat Sep 16 21:21:51 2023","1500","The main experiment item","True","FlankerTask.osexp","C:/Users/backs/OneDrive/Documents","False","mono","False","18","no","white","no","yes","768","legacy","2","2","C:/Users/backs/OneDrive/Documents/BZ-subject-1.csv","legacy","Melodramatic Milgram","4.0.5","0","h","s","NA","NA","h","NA","652.0","51568","NA","NA","652","NA","NA","NA","2","legacy","1024","2","48000","-16","experiment","SSHSS","1","odd","63133","59404","NA","NA","NA","7812","NA","64211","NA","7835","NA","NA","64313","64966","NA","64209","64313","NA","Flanker Task ","3","2881.0","3","1024"
"100","100","914","914","#3d3846","legacy","legacy","legacy","incongruent","1","undefined","1","s","3","0","0","0","3","0","3","3","NA","0","0","0","3","3","0","3","3","NA","Sat Sep 16 21:21:51 2023","1500","The main experiment item","True","FlankerTask.osexp","C:/Users/backs/OneDrive/Documents","False","mono","False","18","no","white","no","yes","768","legacy","3","3","C:/Users/backs/OneDrive/Documents/BZ-subject-1.csv","legacy","Melodramatic Milgram","4.0.5","0","s","s","NA","NA","s","NA","777.0","51568","NA","NA","777","NA","NA","NA","2","legacy","1024","2","48000","-16","experiment","HHSHH","1","odd","64971","59404","NA","NA","NA","7812","NA","66060","NA","7835","NA","NA","66161","66939","NA","66058","66161","NA","Flanker Task ","4","3658.0","4","1024"
"100","100","862","862","#3d3846","legacy","legacy","legacy","incongruent","1","undefined","1","s","4","0","0","0","4","0","4","4","NA","0","0","0","4","4","0","4","4","NA","Sat Sep 16 21:21:51 2023","1500","The main experiment item","True","FlankerTask.osexp","C:/Users/backs/OneDrive/Documents","False","mono","False","18","no","white","no","yes","768","legacy","4","4","C:/Users/backs/OneDrive/Documents/BZ-subject-1.csv","legacy","Melodramatic Milgram","4.0.5","0","s","s","NA","NA","s","NA","653.0","51568","NA","NA","653","NA","NA","NA","2","legacy","1024","2","48000","-16","experiment","HHSHH","1","odd","66943","59404","NA","NA","NA","7812","NA","68027","NA","7835","NA","NA","68129","68783","NA","68025","68129","NA","Flanker Task ","5","4311.0","5","1024"
"100","100","837","837","#3d3846","legacy","legacy","legacy","incongruent","1","undefined","1","h","5","0","0","0","5","0","5","5","NA","0","0","0","5","5","0","5","5","NA","Sat Sep 16 21:21:51 2023","1500","The main experiment item","True","FlankerTask.osexp","C:/Users/backs/OneDrive/Documents","False","mono","False","18","no","white","no","yes","768","legacy","5","5","C:/Users/backs/OneDrive/Documents/BZ-subject-1.csv","legacy","Melodramatic Milgram","4.0.5","0","h","s","NA","NA","h","NA","713.0","51568","NA","NA","713","NA","NA","NA","2","legacy","1024","2","48000","-16","experiment","SSHSS","1","odd","68790","59404","NA","NA","NA","7812","NA","69875","NA","7835","NA","NA","69977","70691","NA","69873","69977","NA","Flanker Task ","6","5024.0","6","1024"
"100","100","803","803","#3d3846","legacy","legacy","legacy","congruent","1","undefined","1","h","6","0","0","0","6","0","6","6","NA","0","0","0","6","6","0","6","6","NA","Sat Sep 16 21:21:51 2023","1500","The main experiment item","True","FlankerTask.osexp","C:/Users/backs/OneDrive/Documents","False","mono","False","18","no","white","no","yes","768","legacy","6","6","C:/Users/backs/OneDrive/Documents/BZ-subject-1.csv","legacy","Melodramatic Milgram","4.0.5","0","h","s","NA","NA","h","NA","602.0","51568","NA","NA","602","NA","NA","NA","2","legacy","1024","2","48000","-16","experiment","HHHHH","1","odd","70697","59404","NA","NA","NA","7812","NA","71773","NA","7835","NA","NA","71875","72478","NA","71771","71875","NA","Flanker Task ","7","5626.0","7","1024"
"100","100","782","782","#3d3846","legacy","legacy","legacy","congruent","1","undefined","1","s","7","0","0","0","7","0","7","7","NA","0","0","0","7","7","0","7","7","NA","Sat Sep 16 21:21:51 2023","1500","The main experiment item","True","FlankerTask.osexp","C:/Users/backs/OneDrive/Documents","False","mono","False","18","no","white","no","yes","768","legacy","7","7","C:/Users/backs/OneDrive/Documents/BZ-subject-1.csv","legacy","Melodramatic Milgram","4.0.5","0","s","s","NA","NA","s","NA","634.0","51568","NA","NA","634","NA","NA","NA","2","legacy","1024","2","48000","-16","experiment","SSSSS","1","odd","72482","59404","NA","NA","NA","7812","NA","73572","NA","7835","NA","NA","73674","74309","NA","73570","73674","NA","Flanker Task ","8","6260.0","8","1024"
"100","100","767","767","#3d3846","legacy","legacy","legacy","incongruent","1","undefined","1","s","8","0","0","0","8","0","8","8","NA","0","0","0","8","8","0","8","8","NA","Sat Sep 16 21:21:51 2023","1500","The main experiment item","True","FlankerTask.osexp","C:/Users/backs/OneDrive/Documents","False","mono","False","18","no","white","no","yes","768","legacy","8","8","C:/Users/backs/OneDrive/Documents/BZ-subject-1.csv","legacy","Melodramatic Milgram","4.0.5","0","s","s","NA","NA","s","NA","650.0","51568","NA","NA","650","NA","NA","NA","2","legacy","1024","2","48000","-16","experiment","HHSHH","1","odd","74314","59404","NA","NA","NA","7812","NA","75399","NA","7835","NA","NA","75500","76151","NA","75396","75500","NA","Flanker Task ","9","6910.0","9","1024"
"100","100","746","746","#3d3846","legacy","legacy","legacy","congruent","1","undefined","1","h","9","0","0","0","9","0","9","9","NA","0","0","0","9","9","0","9","9","NA","Sat Sep 16 21:21:51 2023","1500","The main experiment item","True","FlankerTask.osexp","C:/Users/backs/OneDrive/Documents","False","mono","False","18","no","white","no","yes","768","legacy","9","9","C:/Users/backs/OneDrive/Documents/BZ-subject-1.csv","legacy","Melodramatic Milgram","4.0.5","0","h","s","NA","NA","h","NA","550.0","51568","NA","NA","550","NA","NA","NA","2","legacy","1024","2","48000","-16","experiment","HHHHH","1","odd","76157","59404","NA","NA","NA","7812","NA","77221","NA","7835","NA","NA","77323","77874","NA","77219","77323","NA","Flanker Task ","10","7460.0","10","1024"
"100","100","735","735","#3d3846","legacy","legacy","legacy","incongruent","1","undefined","1","h","10","0","0","0","10","0","10","10","NA","0","0","0","10","10","0","10","10","NA","Sat Sep 16 21:21:51 2023","1500","The main experiment item","True","FlankerTask.osexp","C:/Users/backs/OneDrive/Documents","False","mono","False","18","no","white","no","yes","768","legacy","10","10","C:/Users/backs/OneDrive/Documents/BZ-subject-1.csv","legacy","Melodramatic Milgram","4.0.5","0","h","s","NA","NA","h","NA","633.0","51568","NA","NA","633","NA","NA","NA","2","legacy","1024","2","48000","-16","experiment","SSHSS","1","odd","77879","59404","NA","NA","NA","7812","NA","78970","NA","7835","NA","NA","79073","79707","NA","78968","79073","NA","Flanker Task ","11","8093.0","11","1024"
"100","100","723","723","#3d3846","legacy","legacy","legacy","congruent","1","undefined","1","s","11","0","0","0","11","0","11","11","NA","0","0","0","11","11","0","11","11","NA","Sat Sep 16 21:21:51 2023","1500","The main experiment item","True","FlankerTask.osexp","C:/Users/backs/OneDrive/Documents","False","mono","False","18","no","white","no","yes","768","legacy","11","11","C:/Users/backs/OneDrive/Documents/BZ-subject-1.csv","legacy","Melodramatic Milgram","4.0.5","0","s","s","NA","NA","s","NA","594.0","51568","NA","NA","594","NA","NA","NA","2","legacy","1024","2","48000","-16","experiment","SSSSS","1","odd","79712","59404","NA","NA","NA","7812","NA","80801","NA","7835","NA","NA","80903","81498","NA","80799","80903","NA","Flanker Task ","12","8687.0","12","1024"
"100","100","725","725","#3d3846","legacy","legacy","legacy","incongruent","1","undefined","1","h","12","0","0","0","12","0","12","12","NA","0","0","0","12","12","0","12","12","NA","Sat Sep 16 21:21:51 2023","1500","The main experiment item","True","FlankerTask.osexp","C:/Users/backs/OneDrive/Documents","False","mono","False","18","no","white","no","yes","768","legacy","12","12","C:/Users/backs/OneDrive/Documents/BZ-subject-1.csv","legacy","Melodramatic Milgram","4.0.5","0","h","s","NA","NA","h","NA","745.0","51568","NA","NA","745","NA","NA","NA","2","legacy","1024","2","48000","-16","experiment","SSHSS","1","odd","81502","59404","NA","NA","NA","7812","NA","82596","NA","7835","NA","NA","82698","83444","NA","82594","82698","NA","Flanker Task ","13","9432.0","13","1024"
"92","92","780","780","#3d3846","legacy","legacy","legacy","incongruent","0","undefined","0","s","13","0","0","0","13","0","13","13","NA","0","0","0","13","13","0","13","13","NA","Sat Sep 16 21:21:51 2023","1500","The main experiment item","True","FlankerTask.osexp","C:/Users/backs/OneDrive/Documents","False","mono","False","18","no","white","no","yes","768","legacy","13","13","C:/Users/backs/OneDrive/Documents/BZ-subject-1.csv","legacy","Melodramatic Milgram","4.0.5","0","None","s","NA","NA","None","NA","1500.0","51568","NA","NA","1500","NA","NA","NA","2","legacy","1024","2","48000","-16","experiment","HHSHH","1","odd","83448","59404","NA","NA","NA","7812","NA","84546","NA","7835","NA","NA","84648","86148","NA","84543","84648","NA","Flanker Task ","13","10932.0","14","1024"
"93","93","773","773","#3d3846","legacy","legacy","legacy","congruent","1","undefined","1","s","14","0","0","0","14","0","14","14","NA","0","0","0","14","14","0","14","14","NA","Sat Sep 16 21:21:51 2023","1500","The main experiment item","True","FlankerTask.osexp","C:/Users/backs/OneDrive/Documents","False","mono","False","18","no","white","no","yes","768","legacy","14","14","C:/Users/backs/OneDrive/Documents/BZ-subject-1.csv","legacy","Melodramatic Milgram","4.0.5","0","s","s","NA","NA","s","NA","674.0","51568","NA","NA","674","NA","NA","NA","2","legacy","1024","2","48000","-16","experiment","SSSSS","1","odd","86655","59404","NA","NA","86154","7812","NA","87731","NA","7835","NA","NA","87833","88508","NA","87729","87833","NA","Flanker Task ","14","11606.0","15","1024"
"93","93","764","764","#3d3846","legacy","legacy","legacy","incongruent","1","undefined","1","s","15","0","0","0","15","0","15","15","NA","0","0","0","15","15","0","15","15","NA","Sat Sep 16 21:21:51 2023","1500","The main experiment item","True","FlankerTask.osexp","C:/Users/backs/OneDrive/Documents","False","mono","False","18","no","white","no","yes","768","legacy","15","15","C:/Users/backs/OneDrive/Documents/BZ-subject-1.csv","legacy","Melodramatic Milgram","4.0.5","0","s","s","NA","NA","s","NA","622.0","51568","NA","NA","622","NA","NA","NA","2","legacy","1024","2","48000","-16","experiment","HHSHH","1","odd","88513","59404","NA","NA","86154","7812","NA","89593","NA","7835","NA","NA","89695","90318","NA","89591","89694","NA","Flanker Task ","15","12228.0","16","1024"
"88","88","742","742","#3d3846","legacy","legacy","legacy","congruent","0","undefined","0","h","16","0","0","0","16","0","16","16","NA","0","0","0","16","16","0","16","16","NA","Sat Sep 16 21:21:51 2023","1500","The main experiment item","True","FlankerTask.osexp","C:/Users/backs/OneDrive/Documents","False","mono","False","18","no","white","no","yes","768","legacy","16","16","C:/Users/backs/OneDrive/Documents/BZ-subject-1.csv","legacy","Melodramatic Milgram","4.0.5","0","s","s","NA","NA","s","NA","396.0","51568","NA","NA","396","NA","NA","NA","2","legacy","1024","2","48000","-16","experiment","HHHHH","1","odd","90322","59404","NA","NA","86154","7812","NA","91406","NA","7835","NA","NA","91508","91904","NA","91404","91507","NA","Flanker Task ","15","12624.0","17","1024"
"88","88","752","752","#3d3846","legacy","legacy","legacy","incongruent","1","undefined","1","s","17","0","0","0","17","0","17","17","NA","0","0","0","17","17","0","17","17","NA","Sat Sep 16 21:21:51 2023","1500","The main experiment item","True","FlankerTask.osexp","C:/Users/backs/OneDrive/Documents","False","mono","False","18","no","white","no","yes","768","legacy","17","17","C:/Users/backs/OneDrive/Documents/BZ-subject-1.csv","legacy","Melodramatic Milgram","4.0.5","0","s","s","NA","NA","s","NA","926.0","51568","NA","NA","926","NA","NA","NA","2","legacy","1024","2","48000","-16","experiment","HHSHH","1","odd","92412","59404","NA","NA","91910","7812","NA","93499","NA","7835","NA","NA","93601","94528","NA","93497","93601","NA","Flanker Task ","16","13550.0","18","1024"
"89","89","743","743","#3d3846","legacy","legacy","legacy","congruent","1","undefined","1","s","18","0","0","0","18","0","18","18","NA","0","0","0","18","18","0","18","18","NA","Sat Sep 16 21:21:51 2023","1500","The main experiment item","True","FlankerTask.osexp","C:/Users/backs/OneDrive/Documents","False","mono","False","18","no","white","no","yes","768","legacy","18","18","C:/Users/backs/OneDrive/Documents/BZ-subject-1.csv","legacy","Melodramatic Milgram","4.0.5","0","s","s","NA","NA","s","NA","572.0","51568","NA","NA","572","NA","NA","NA","2","legacy","1024","2","48000","-16","experiment","SSSSS","1","odd","94532","59404","NA","NA","91910","7812","NA","95612","NA","7835","NA","NA","95714","96286","NA","95610","95714","NA","Flanker Task ","17","14122.0","19","1024"
"90","90","735","735","#3d3846","legacy","legacy","legacy","incongruent","1","undefined","1","h","19","0","0","0","19","0","19","19","NA","0","0","0","19","19","0","19","19","NA","Sat Sep 16 21:21:51 2023","1500","The main experiment item","True","FlankerTask.osexp","C:/Users/backs/OneDrive/Documents","False","mono","False","18","no","white","no","yes","768","legacy","19","19","C:/Users/backs/OneDrive/Documents/BZ-subject-1.csv","legacy","Melodramatic Milgram","4.0.5","0","h","s","NA","NA","h","NA","587.0","51568","NA","NA","587","NA","NA","NA","2","legacy","1024","2","48000","-16","experiment","SSHSS","1","odd","96291","59404","NA","NA","91910","7812","NA","97381","NA","7835","NA","NA","97483","98071","NA","97378","97483","NA","Flanker Task ","18","14709.0","20","1024"
"90","90","741","741","#3d3846","legacy","legacy","legacy","congruent","1","undefined","1","h","20","0","0","0","20","0","20","20","NA","0","0","0","20","20","0","20","20","NA","Sat Sep 16 21:21:51 2023","1500","The main experiment item","True","FlankerTask.osexp","C:/Users/backs/OneDrive/Documents","False","mono","False","18","no","white","no","yes","768","legacy","20","20","C:/Users/backs/OneDrive/Documents/BZ-subject-1.csv","legacy","Melodramatic Milgram","4.0.5","0","h","s","NA","NA","h","NA","857.0","51568","NA","NA","857","NA","NA","NA","2","legacy","1024","2","48000","-16","experiment","HHHHH","1","odd","98077","59404","NA","NA","91910","7812","NA","99177","NA","7835","NA","NA","99279","100137","NA","99175","99278","NA","Flanker Task ","19","15566.0","21","1024"
"90","90","734","734","#3d3846","legacy","legacy","legacy","incongruent","1","undefined","1","s","21","0","0","0","21","0","21","21","NA","0","0","0","21","21","0","21","21","NA","Sat Sep 16 21:21:51 2023","1500","The main experiment item","True","FlankerTask.osexp","C:/Users/backs/OneDrive/Documents","False","mono","False","18","no","white","no","yes","768","legacy","21","21","C:/Users/backs/OneDrive/Documents/BZ-subject-1.csv","legacy","Melodramatic Milgram","4.0.5","0","s","s","NA","NA","s","NA","587.0","51568","NA","NA","587","NA","NA","NA","2","legacy","1024","2","48000","-16","experiment","HHSHH","1","odd","100142","59404","NA","NA","91910","7812","NA","101218","NA","7835","NA","NA","101319","101907","NA","101216","101319","NA","Flanker Task ","20","16153.0","22","1024"
"91","91","730","730","#3d3846","legacy","legacy","legacy","congruent","1","undefined","1","h","22","0","0","0","22","0","22","22","NA","0","0","0","22","22","0","22","22","NA","Sat Sep 16 21:21:51 2023","1500","The main experiment item","True","FlankerTask.osexp","C:/Users/backs/OneDrive/Documents","False","mono","False","18","no","white","no","yes","768","legacy","22","22","C:/Users/backs/OneDrive/Documents/BZ-subject-1.csv","legacy","Melodramatic Milgram","4.0.5","0","h","s","NA","NA","h","NA","651.0","51568","NA","NA","651","NA","NA","NA","2","legacy","1024","2","48000","-16","experiment","HHHHH","1","odd","101912","59404","NA","NA","91910","7812","NA","103000","NA","7835","NA","NA","103102","103754","NA","102998","103102","NA","Flanker Task ","21","16804.0","23","1024"
"91","91","741","741","#3d3846","legacy","legacy","legacy","incongruent","1","undefined","1","s","23","0","0","0","23","0","23","23","NA","0","0","0","23","23","0","23","23","NA","Sat Sep 16 21:21:51 2023","1500","The main experiment item","True","FlankerTask.osexp","C:/Users/backs/OneDrive/Documents","False","mono","False","18","no","white","no","yes","768","legacy","23","23","C:/Users/backs/OneDrive/Documents/BZ-subject-1.csv","legacy","Melodramatic Milgram","4.0.5","0","s","s","NA","NA","s","NA","986.0","51568","NA","NA","986","NA","NA","NA","2","legacy","1024","2","48000","-16","experiment","HHSHH","1","odd","103758","59404","NA","NA","91910","7812","NA","104841","NA","7835","NA","NA","104944","105931","NA","104839","104944","NA","Flanker Task ","22","17790.0","24","1024"
"92","92","744","744","#3d3846","legacy","legacy","legacy","incongruent","1","undefined","1","h","24","0","0","0","24","0","24","24","NA","0","0","0","24","24","0","24","24","NA","Sat Sep 16 21:21:51 2023","1500","The main experiment item","True","FlankerTask.osexp","C:/Users/backs/OneDrive/Documents","False","mono","False","18","no","white","no","yes","768","legacy","24","24","C:/Users/backs/OneDrive/Documents/BZ-subject-1.csv","legacy","Melodramatic Milgram","4.0.5","0","h","s","NA","NA","h","NA","831.0","51568","NA","NA","831","NA","NA","NA","2","legacy","1024","2","48000","-16","experiment","SSHSS","1","odd","105935","59404","NA","NA","91910","7812","NA","107020","NA","7835","NA","NA","107122","107954","NA","107018","107122","NA","Flanker Task ","23","18621.0","25","1024"
"92","92","736","736","#3d3846","legacy","legacy","legacy","congruent","1","undefined","1","s","25","0","0","0","25","0","25","25","NA","0","0","0","25","25","0","25","25","NA","Sat Sep 16 21:21:51 2023","1500","The main experiment item","True","FlankerTask.osexp","C:/Users/backs/OneDrive/Documents","False","mono","False","18","no","white","no","yes","768","legacy","25","25","C:/Users/backs/OneDrive/Documents/BZ-subject-1.csv","legacy","Melodramatic Milgram","4.0.5","0","s","s","NA","NA","s","NA","517.0","51568","NA","NA","517","NA","NA","NA","2","legacy","1024","2","48000","-16","experiment","SSSSS","1","odd","107959","59404","NA","NA","91910","7812","NA","109039","NA","7835","NA","NA","109142","109660","NA","109037","109141","NA","Flanker Task ","24","19138.0","26","1024"
"92","92","729","729","#3d3846","legacy","legacy","legacy","congruent","1","undefined","1","h","26","0","0","0","26","0","26","26","NA","0","0","0","26","26","0","26","26","NA","Sat Sep 16 21:21:51 2023","1500","The main experiment item","True","FlankerTask.osexp","C:/Users/backs/OneDrive/Documents","False","mono","False","18","no","white","no","yes","768","legacy","26","26","C:/Users/backs/OneDrive/Documents/BZ-subject-1.csv","legacy","Melodramatic Milgram","4.0.5","0","h","s","NA","NA","h","NA","554.0","51568","NA","NA","554","NA","NA","NA","2","legacy","1024","2","48000","-16","experiment","HHHHH","1","odd","109666","59404","NA","NA","91910","7812","NA","110740","NA","7835","NA","NA","110841","111395","NA","110738","110841","NA","Flanker Task ","25","19692.0","27","1024"
"92","92","723","723","#3d3846","legacy","legacy","legacy","incongruent","1","undefined","1","s","27","0","0","0","27","0","27","27","NA","0","0","0","27","27","0","27","27","NA","Sat Sep 16 21:21:51 2023","1500","The main experiment item","True","FlankerTask.osexp","C:/Users/backs/OneDrive/Documents","False","mono","False","18","no","white","no","yes","768","legacy","27","27","C:/Users/backs/OneDrive/Documents/BZ-subject-1.csv","legacy","Melodramatic Milgram","4.0.5","0","s","s","NA","NA","s","NA","558.0","51568","NA","NA","558","NA","NA","NA","2","legacy","1024","2","48000","-16","experiment","HHSHH","1","odd","111400","59404","NA","NA","91910","7812","NA","112476","NA","7835","NA","NA","112578","113137","NA","112474","112577","NA","Flanker Task ","26","20250.0","28","1024"
"93","93","723","723","#3d3846","legacy","legacy","legacy","incongruent","1","undefined","1","h","28","0","0","0","28","0","28","28","NA","0","0","0","28","28","0","28","28","NA","Sat Sep 16 21:21:51 2023","1500","The main experiment item","True","FlankerTask.osexp","C:/Users/backs/OneDrive/Documents","False","mono","False","18","no","white","no","yes","768","legacy","28","28","C:/Users/backs/OneDrive/Documents/BZ-subject-1.csv","legacy","Melodramatic Milgram","4.0.5","0","h","s","NA","NA","h","NA","727.0","51568","NA","NA","727","NA","NA","NA","2","legacy","1024","2","48000","-16","experiment","SSHSS","1","odd","113143","59404","NA","NA","91910","7812","NA","114224","NA","7835","NA","NA","114326","115054","NA","114222","114325","NA","Flanker Task ","27","20977.0","29","1024"
"93","93","721","721","#3d3846","legacy","legacy","legacy","incongruent","1","undefined","1","s","29","0","0","0","29","0","29","29","NA","0","0","0","29","29","0","29","29","NA","Sat Sep 16 21:21:51 2023","1500","The main experiment item","True","FlankerTask.osexp","C:/Users/backs/OneDrive/Documents","False","mono","False","18","no","white","no","yes","768","legacy","29","29","C:/Users/backs/OneDrive/Documents/BZ-subject-1.csv","legacy","Melodramatic Milgram","4.0.5","0","s","s","NA","NA","s","NA","672.0","51568","NA","NA","672","NA","NA","NA","2","legacy","1024","2","48000","-16","experiment","HHSHH","1","odd","115057","59404","NA","NA","91910","7812","NA","116153","NA","7835","NA","NA","116255","116928","NA","116151","116255","NA","Flanker Task ","28","21649.0","30","1024"
"93","93","716","716","#3d3846","legacy","legacy","legacy","congruent","1","undefined","1","s","30","0","0","0","30","0","30","30","NA","0","0","0","30","30","0","30","30","NA","Sat Sep 16 21:21:51 2023","1500","The main experiment item","True","FlankerTask.osexp","C:/Users/backs/OneDrive/Documents","False","mono","False","18","no","white","no","yes","768","legacy","30","30","C:/Users/backs/OneDrive/Documents/BZ-subject-1.csv","legacy","Melodramatic Milgram","4.0.5","0","s","s","NA","NA","s","NA","576.0","51568","NA","NA","576","NA","NA","NA","2","legacy","1024","2","48000","-16","experiment","SSSSS","1","odd","116934","59404","NA","NA","91910","7812","NA","118019","NA","7835","NA","NA","118121","118698","NA","118017","118121","NA","Flanker Task ","29","22225.0","31","1024"
"93","93","718","718","#3d3846","legacy","legacy","legacy","incongruent","1","undefined","1","s","31","0","0","0","31","0","31","31","NA","0","0","0","31","31","0","31","31","NA","Sat Sep 16 21:21:51 2023","1500","The main experiment item","True","FlankerTask.osexp","C:/Users/backs/OneDrive/Documents","False","mono","False","18","no","white","no","yes","768","legacy","31","31","C:/Users/backs/OneDrive/Documents/BZ-subject-1.csv","legacy","Melodramatic Milgram","4.0.5","0","s","s","NA","NA","s","NA","780.0","51568","NA","NA","780","NA","NA","NA","2","legacy","1024","2","48000","-16","experiment","HHSHH","1","odd","118702","59404","NA","NA","91910","7812","NA","119794","NA","7835","NA","NA","119897","120678","NA","119792","119896","NA","Flanker Task ","30","23005.0","32","1024"
"93","93","716","716","#3d3846","legacy","legacy","legacy","incongruent","1","undefined","1","h","32","0","0","0","32","0","32","32","NA","0","0","0","32","32","0","32","32","NA","Sat Sep 16 21:21:51 2023","1500","The main experiment item","True","FlankerTask.osexp","C:/Users/backs/OneDrive/Documents","False","mono","False","18","no","white","no","yes","768","legacy","32","32","C:/Users/backs/OneDrive/Documents/BZ-subject-1.csv","legacy","Melodramatic Milgram","4.0.5","0","h","s","NA","NA","h","NA","629.0","51568","NA","NA","629","NA","NA","NA","2","legacy","1024","2","48000","-16","experiment","SSHSS","1","odd","120682","59404","NA","NA","91910","7812","NA","121758","NA","7835","NA","NA","121859","122489","NA","121756","121859","NA","Flanker Task ","31","23634.0","33","1024"
"94","94","716","716","#3d3846","legacy","legacy","legacy","congruent","1","undefined","1","h","33","0","0","0","33","0","33","33","NA","0","0","0","33","33","0","33","33","NA","Sat Sep 16 21:21:51 2023","1500","The main experiment item","True","FlankerTask.osexp","C:/Users/backs/OneDrive/Documents","False","mono","False","18","no","white","no","yes","768","legacy","33","33","C:/Users/backs/OneDrive/Documents/BZ-subject-1.csv","legacy","Melodramatic Milgram","4.0.5","0","h","s","NA","NA","h","NA","742.0","51568","NA","NA","742","NA","NA","NA","2","legacy","1024","2","48000","-16","experiment","HHHHH","1","odd","122493","59404","NA","NA","91910","7812","NA","123582","NA","7835","NA","NA","123684","124428","NA","123579","123684","NA","Flanker Task ","32","24376.0","34","1024"
"94","94","709","709","#3d3846","legacy","legacy","legacy","congruent","1","undefined","1","h","34","0","0","0","34","0","34","34","NA","0","0","0","34","34","0","34","34","NA","Sat Sep 16 21:21:51 2023","1500","The main experiment item","True","FlankerTask.osexp","C:/Users/backs/OneDrive/Documents","False","mono","False","18","no","white","no","yes","768","legacy","34","34","C:/Users/backs/OneDrive/Documents/BZ-subject-1.csv","legacy","Melodramatic Milgram","4.0.5","0","h","s","NA","NA","h","NA","458.0","51568","NA","NA","458","NA","NA","NA","2","legacy","1024","2","48000","-16","experiment","HHHHH","1","odd","124434","59404","NA","NA","91910","7812","NA","125517","NA","7835","NA","NA","125619","126077","NA","125515","125618","NA","Flanker Task ","33","24834.0","35","1024"
"94","94","707","707","#3d3846","legacy","legacy","legacy","incongruent","1","undefined","1","h","35","0","0","0","35","0","35","35","NA","0","0","0","35","35","0","35","35","NA","Sat Sep 16 21:21:51 2023","1500","The main experiment item","True","FlankerTask.osexp","C:/Users/backs/OneDrive/Documents","False","mono","False","18","no","white","no","yes","768","legacy","35","35","C:/Users/backs/OneDrive/Documents/BZ-subject-1.csv","legacy","Melodramatic Milgram","4.0.5","0","h","s","NA","NA","h","NA","634.0","51568","NA","NA","634","NA","NA","NA","2","legacy","1024","2","48000","-16","experiment","SSHSS","1","odd","126081","59404","NA","NA","91910","7812","NA","127163","NA","7835","NA","NA","127265","127900","NA","127161","127265","NA","Flanker Task ","34","25468.0","36","1024"
"94","94","701","701","#3d3846","legacy","legacy","legacy","congruent","1","undefined","1","s","36","0","0","0","36","0","36","36","NA","0","0","0","36","36","0","36","36","NA","Sat Sep 16 21:21:51 2023","1500","The main experiment item","True","FlankerTask.osexp","C:/Users/backs/OneDrive/Documents","False","mono","False","18","no","white","no","yes","768","legacy","36","36","C:/Users/backs/OneDrive/Documents/BZ-subject-1.csv","legacy","Melodramatic Milgram","4.0.5","0","s","s","NA","NA","s","NA","490.0","51568","NA","NA","490","NA","NA","NA","2","legacy","1024","2","48000","-16","experiment","SSSSS","1","odd","127904","59404","NA","NA","91910","7812","NA","129004","NA","7835","NA","NA","129106","129597","NA","128999","129106","NA","Flanker Task ","35","25958.0","37","1024"
"94","94","704","704","#3d3846","legacy","legacy","legacy","congruent","1","undefined","1","s","37","0","0","0","37","0","37","37","NA","0","0","0","37","37","0","37","37","NA","Sat Sep 16 21:21:51 2023","1500","The main experiment item","True","FlankerTask.osexp","C:/Users/backs/OneDrive/Documents","False","mono","False","18","no","white","no","yes","768","legacy","37","37","C:/Users/backs/OneDrive/Documents/BZ-subject-1.csv","legacy","Melodramatic Milgram","4.0.5","0","s","s","NA","NA","s","NA","801.0","51568","NA","NA","801","NA","NA","NA","2","legacy","1024","2","48000","-16","experiment","SSSSS","1","odd","129601","59404","NA","NA","91910","7812","NA","130690","NA","7835","NA","NA","130793","131595","NA","130688","130793","NA","Flanker Task ","36","26759.0","38","1024"
"94","94","699","699","#3d3846","legacy","legacy","legacy","incongruent","1","undefined","1","h","38","0","0","0","38","0","38","38","NA","0","0","0","38","38","0","38","38","NA","Sat Sep 16 21:21:51 2023","1500","The main experiment item","True","FlankerTask.osexp","C:/Users/backs/OneDrive/Documents","False","mono","False","18","no","white","no","yes","768","legacy","38","38","C:/Users/backs/OneDrive/Documents/BZ-subject-1.csv","legacy","Melodramatic Milgram","4.0.5","0","h","s","NA","NA","h","NA","535.0","51568","NA","NA","535","NA","NA","NA","2","legacy","1024","2","48000","-16","experiment","SSHSS","1","odd","131599","59404","NA","NA","91910","7812","NA","132700","NA","7835","NA","NA","132802","133338","NA","132698","132802","NA","Flanker Task ","37","27294.0","39","1024"
"95","95","697","697","#3d3846","legacy","legacy","legacy","incongruent","1","undefined","1","s","39","0","0","0","39","0","39","39","NA","0","0","0","39","39","0","39","39","NA","Sat Sep 16 21:21:51 2023","1500","The main experiment item","True","FlankerTask.osexp","C:/Users/backs/OneDrive/Documents","False","mono","False","18","no","white","no","yes","768","legacy","39","39","C:/Users/backs/OneDrive/Documents/BZ-subject-1.csv","legacy","Melodramatic Milgram","4.0.5","0","s","s","NA","NA","s","NA","619.0","51568","NA","NA","619","NA","NA","NA","2","legacy","1024","2","48000","-16","experiment","HHSHH","1","odd","133342","59404","NA","NA","91910","7812","NA","134435","NA","7835","NA","NA","134537","135157","NA","134432","134537","NA","Flanker Task ","38","27913.0","40","1024"
"95","95","700","700","#3d3846","legacy","legacy","legacy","congruent","1","undefined","1","s","40","0","0","0","40","0","40","40","NA","0","0","0","40","40","0","40","40","NA","Sat Sep 16 21:21:51 2023","1500","The main experiment item","True","FlankerTask.osexp","C:/Users/backs/OneDrive/Documents","False","mono","False","18","no","white","no","yes","768","legacy","40","40","C:/Users/backs/OneDrive/Documents/BZ-subject-1.csv","legacy","Melodramatic Milgram","4.0.5","0","s","s","NA","NA","s","NA","816.0","51568","NA","NA","816","NA","NA","NA","2","legacy","1024","2","48000","-16","experiment","SSSSS","1","odd","135163","59404","NA","NA","91910","7812","NA","136252","NA","7835","NA","NA","136354","137171","NA","136250","136354","NA","Flanker Task ","39","28729.0","41","1024"
"95","95","705","705","#3d3846","legacy","legacy","legacy","congruent","1","undefined","1","h","41","0","0","0","41","0","41","41","NA","0","0","0","41","41","0","41","41","NA","Sat Sep 16 21:21:51 2023","1500","The main experiment item","True","FlankerTask.osexp","C:/Users/backs/OneDrive/Documents","False","mono","False","18","no","white","no","yes","768","legacy","41","41","C:/Users/backs/OneDrive/Documents/BZ-subject-1.csv","legacy","Melodramatic Milgram","4.0.5","0","h","s","NA","NA","h","NA","912.0","51568","NA","NA","912","NA","NA","NA","2","legacy","1024","2","48000","-16","experiment","HHHHH","1","odd","137175","59404","NA","NA","91910","7812","NA","138260","NA","7835","NA","NA","138362","139275","NA","138258","138361","NA","Flanker Task ","40","29641.0","42","1024"
"95","95","700","700","#3d3846","legacy","legacy","legacy","congruent","1","undefined","1","h","42","0","0","0","42","0","42","42","NA","0","0","0","42","42","0","42","42","NA","Sat Sep 16 21:21:51 2023","1500","The main experiment item","True","FlankerTask.osexp","C:/Users/backs/OneDrive/Documents","False","mono","False","18","no","white","no","yes","768","legacy","42","42","C:/Users/backs/OneDrive/Documents/BZ-subject-1.csv","legacy","Melodramatic Milgram","4.0.5","0","h","s","NA","NA","h","NA","490.0","51568","NA","NA","490","NA","NA","NA","2","legacy","1024","2","48000","-16","experiment","HHHHH","1","odd","139279","59404","NA","NA","91910","7812","NA","140350","NA","7835","NA","NA","140453","140944","NA","140348","140452","NA","Flanker Task ","41","30131.0","43","1024"
"95","95","695","695","#3d3846","legacy","legacy","legacy","congruent","1","undefined","1","s","43","0","0","0","43","0","43","43","NA","0","0","0","43","43","0","43","43","NA","Sat Sep 16 21:21:51 2023","1500","The main experiment item","True","FlankerTask.osexp","C:/Users/backs/OneDrive/Documents","False","mono","False","18","no","white","no","yes","768","legacy","43","43","C:/Users/backs/OneDrive/Documents/BZ-subject-1.csv","legacy","Melodramatic Milgram","4.0.5","0","s","s","NA","NA","s","NA","477.0","51568","NA","NA","477","NA","NA","NA","2","legacy","1024","2","48000","-16","experiment","SSSSS","1","odd","140947","59404","NA","NA","91910","7812","NA","142030","NA","7835","NA","NA","142133","142611","NA","142028","142133","NA","Flanker Task ","42","30608.0","44","1024"
"95","95","700","700","#3d3846","legacy","legacy","legacy","congruent","1","undefined","1","h","44","0","0","0","44","0","44","44","NA","0","0","0","44","44","0","44","44","NA","Sat Sep 16 21:21:51 2023","1500","The main experiment item","True","FlankerTask.osexp","C:/Users/backs/OneDrive/Documents","False","mono","False","18","no","white","no","yes","768","legacy","44","44","C:/Users/backs/OneDrive/Documents/BZ-subject-1.csv","legacy","Melodramatic Milgram","4.0.5","0","h","s","NA","NA","h","NA","912.0","51568","NA","NA","912","NA","NA","NA","2","legacy","1024","2","48000","-16","experiment","HHHHH","1","odd","142616","59404","NA","NA","91910","7812","NA","143713","NA","7835","NA","NA","143815","144728","NA","143711","143815","NA","Flanker Task ","43","31520.0","45","1024"
"95","95","700","700","#3d3846","legacy","legacy","legacy","incongruent","1","undefined","1","s","45","0","0","0","45","0","45","45","NA","0","0","0","45","45","0","45","45","NA","Sat Sep 16 21:21:51 2023","1500","The main experiment item","True","FlankerTask.osexp","C:/Users/backs/OneDrive/Documents","False","mono","False","18","no","white","no","yes","768","legacy","45","45","C:/Users/backs/OneDrive/Documents/BZ-subject-1.csv","legacy","Melodramatic Milgram","4.0.5","0","s","s","NA","NA","s","NA","706.0","51568","NA","NA","706","NA","NA","NA","2","legacy","1024","2","48000","-16","experiment","HHSHH","1","odd","144733","59404","NA","NA","91910","7812","NA","145815","NA","7835","NA","NA","145917","146624","NA","145813","145917","NA","Flanker Task ","44","32226.0","46","1024"
"95","95","700","700","#3d3846","legacy","legacy","legacy","congruent","1","undefined","1","s","46","0","0","0","46","0","46","46","NA","0","0","0","46","46","0","46","46","NA","Sat Sep 16 21:21:51 2023","1500","The main experiment item","True","FlankerTask.osexp","C:/Users/backs/OneDrive/Documents","False","mono","False","18","no","white","no","yes","768","legacy","46","46","C:/Users/backs/OneDrive/Documents/BZ-subject-1.csv","legacy","Melodramatic Milgram","4.0.5","0","s","s","NA","NA","s","NA","688.0","51568","NA","NA","688","NA","NA","NA","2","legacy","1024","2","48000","-16","experiment","SSSSS","1","odd","146628","59404","NA","NA","91910","7812","NA","147721","NA","7835","NA","NA","147823","148512","NA","147719","147823","NA","Flanker Task ","45","32914.0","47","1024"
"95","95","699","699","#3d3846","legacy","legacy","legacy","congruent","1","undefined","1","s","47","0","0","0","47","0","47","47","NA","0","0","0","47","47","0","47","47","NA","Sat Sep 16 21:21:51 2023","1500","The main experiment item","True","FlankerTask.osexp","C:/Users/backs/OneDrive/Documents","False","mono","False","18","no","white","no","yes","768","legacy","47","47","C:/Users/backs/OneDrive/Documents/BZ-subject-1.csv","legacy","Melodramatic Milgram","4.0.5","0","s","s","NA","NA","s","NA","667.0","51568","NA","NA","667","NA","NA","NA","2","legacy","1024","2","48000","-16","experiment","SSSSS","1","odd","148517","59404","NA","NA","91910","7812","NA","149646","NA","7835","NA","NA","149748","150416","NA","149643","149748","NA","Flanker Task ","46","33581.0","48","1024"
"95","95","697","697","#3d3846","legacy","legacy","legacy","congruent","1","undefined","1","h","48","0","0","0","48","0","48","48","NA","0","0","0","48","48","0","48","48","NA","Sat Sep 16 21:21:51 2023","1500","The main experiment item","True","FlankerTask.osexp","C:/Users/backs/OneDrive/Documents","False","mono","False","18","no","white","no","yes","768","legacy","48","48","C:/Users/backs/OneDrive/Documents/BZ-subject-1.csv","legacy","Melodramatic Milgram","4.0.5","0","h","s","NA","NA","h","NA","595.0","51568","NA","NA","595","NA","NA","NA","2","legacy","1024","2","48000","-16","experiment","HHHHH","1","odd","150420","59404","NA","NA","91910","7812","NA","151515","NA","7835","NA","NA","151618","152214","NA","151512","151618","NA","Flanker Task ","47","34176.0","49","1024"
"96","96","696","696","#3d3846","legacy","legacy","legacy","congruent","1","undefined","1","h","49","0","0","0","49","0","49","49","NA","0","0","0","49","49","0","49","49","NA","Sat Sep 16 21:21:51 2023","1500","The main experiment item","True","FlankerTask.osexp","C:/Users/backs/OneDrive/Documents","False","mono","False","18","no","white","no","yes","768","legacy","49","49","C:/Users/backs/OneDrive/Documents/BZ-subject-1.csv","legacy","Melodramatic Milgram","4.0.5","0","h","s","NA","NA","h","NA","651.0","51568","NA","NA","651","NA","NA","NA","2","legacy","1024","2","48000","-16","experiment","HHHHH","1","odd","152217","59404","NA","NA","91910","7812","NA","153300","NA","7835","NA","NA","153402","154055","NA","153298","153402","NA","Flanker Task ","48","34827.0","50","1024"
"96","96","697","697","#3d3846","legacy","legacy","legacy","congruent","1","undefined","1","s","50","0","0","0","50","0","50","50","NA","0","0","0","50","50","0","50","50","NA","Sat Sep 16 21:21:51 2023","1500","The main experiment item","True","FlankerTask.osexp","C:/Users/backs/OneDrive/Documents","False","mono","False","18","no","white","no","yes","768","legacy","50","50","C:/Users/backs/OneDrive/Documents/BZ-subject-1.csv","legacy","Melodramatic Milgram","4.0.5","0","s","s","NA","NA","s","NA","721.0","51568","NA","NA","721","NA","NA","NA","2","legacy","1024","2","48000","-16","experiment","SSSSS","1","odd","154059","59404","NA","NA","91910","7812","NA","155138","NA","7835","NA","NA","155240","155962","NA","155136","155240","NA","Flanker Task ","49","35548.0","51","1024"
"96","96","695","695","#3d3846","legacy","legacy","legacy","incongruent","1","undefined","1","s","51","0","0","0","51","0","51","51","NA","0","0","0","51","51","0","51","51","NA","Sat Sep 16 21:21:51 2023","1500","The main experiment item","True","FlankerTask.osexp","C:/Users/backs/OneDrive/Documents","False","mono","False","18","no","white","no","yes","768","legacy","51","51","C:/Users/backs/OneDrive/Documents/BZ-subject-1.csv","legacy","Melodramatic Milgram","4.0.5","0","s","s","NA","NA","s","NA","639.0","51568","NA","NA","639","NA","NA","NA","2","legacy","1024","2","48000","-16","experiment","HHSHH","1","odd","155968","59404","NA","NA","91910","7812","NA","157051","NA","7835","NA","NA","157153","157793","NA","157049","157153","NA","Flanker Task ","50","36187.0","52","1024"
"96","96","692","692","#3d3846","legacy","legacy","legacy","congruent","1","undefined","1","s","52","0","0","0","52","0","52","52","NA","0","0","0","52","52","0","52","52","NA","Sat Sep 16 21:21:51 2023","1500","The main experiment item","True","FlankerTask.osexp","C:/Users/backs/OneDrive/Documents","False","mono","False","18","no","white","no","yes","768","legacy","52","52","C:/Users/backs/OneDrive/Documents/BZ-subject-1.csv","legacy","Melodramatic Milgram","4.0.5","0","s","s","NA","NA","s","NA","529.0","51568","NA","NA","529","NA","NA","NA","2","legacy","1024","2","48000","-16","experiment","SSSSS","1","odd","157797","59404","NA","NA","91910","7812","NA","158880","NA","7835","NA","NA","158982","159512","NA","158878","158981","NA","Flanker Task ","51","36716.0","53","1024"
"96","96","689","689","#3d3846","legacy","legacy","legacy","congruent","1","undefined","1","h","53","0","0","0","53","0","53","53","NA","0","0","0","53","53","0","53","53","NA","Sat Sep 16 21:21:51 2023","1500","The main experiment item","True","FlankerTask.osexp","C:/Users/backs/OneDrive/Documents","False","mono","False","18","no","white","no","yes","768","legacy","53","53","C:/Users/backs/OneDrive/Documents/BZ-subject-1.csv","legacy","Melodramatic Milgram","4.0.5","0","h","s","NA","NA","h","NA","529.0","51568","NA","NA","529","NA","NA","NA","2","legacy","1024","2","48000","-16","experiment","HHHHH","1","odd","159516","59404","NA","NA","91910","7812","NA","160589","NA","7835","NA","NA","160691","161221","NA","160587","160690","NA","Flanker Task ","52","37245.0","54","1024"
"96","96","691","691","#3d3846","legacy","legacy","legacy","incongruent","1","undefined","1","h","54","0","0","0","54","0","54","54","NA","0","0","0","54","54","0","54","54","NA","Sat Sep 16 21:21:51 2023","1500","The main experiment item","True","FlankerTask.osexp","C:/Users/backs/OneDrive/Documents","False","mono","False","18","no","white","no","yes","768","legacy","54","54","C:/Users/backs/OneDrive/Documents/BZ-subject-1.csv","legacy","Melodramatic Milgram","4.0.5","0","h","s","NA","NA","h","NA","792.0","51568","NA","NA","792","NA","NA","NA","2","legacy","1024","2","48000","-16","experiment","SSHSS","1","odd","161226","59404","NA","NA","91910","7812","NA","162302","NA","7835","NA","NA","162404","163197","NA","162300","162403","NA","Flanker Task ","53","38037.0","55","1024"
"96","96","689","689","#3d3846","legacy","legacy","legacy","congruent","1","undefined","1","s","55","0","0","0","55","0","55","55","NA","0","0","0","55","55","0","55","55","NA","Sat Sep 16 21:21:51 2023","1500","The main experiment item","True","FlankerTask.osexp","C:/Users/backs/OneDrive/Documents","False","mono","False","18","no","white","no","yes","768","legacy","55","55","C:/Users/backs/OneDrive/Documents/BZ-subject-1.csv","legacy","Melodramatic Milgram","4.0.5","0","s","s","NA","NA","s","NA","576.0","51568","NA","NA","576","NA","NA","NA","2","legacy","1024","2","48000","-16","experiment","SSSSS","1","odd","163202","59404","NA","NA","91910","7812","NA","164288","NA","7835","NA","NA","164391","164968","NA","164286","164391","NA","Flanker Task ","54","38613.0","56","1024"
"96","96","691","691","#3d3846","legacy","legacy","legacy","incongruent","1","undefined","1","h","56","0","0","0","56","0","56","56","NA","0","0","0","56","56","0","56","56","NA","Sat Sep 16 21:21:51 2023","1500","The main experiment item","True","FlankerTask.osexp","C:/Users/backs/OneDrive/Documents","False","mono","False","18","no","white","no","yes","768","legacy","56","56","C:/Users/backs/OneDrive/Documents/BZ-subject-1.csv","legacy","Melodramatic Milgram","4.0.5","0","h","s","NA","NA","h","NA","830.0","51568","NA","NA","830","NA","NA","NA","2","legacy","1024","2","48000","-16","experiment","SSHSS","1","odd","164972","59404","NA","NA","91910","7812","NA","166092","NA","7835","NA","NA","166194","167025","NA","166089","166194","NA","Flanker Task ","55","39443.0","57","1024"
"96","96","695","695","#3d3846","legacy","legacy","legacy","incongruent","1","undefined","1","h","57","0","0","0","57","0","57","57","NA","0","0","0","57","57","0","57","57","NA","Sat Sep 16 21:21:51 2023","1500","The main experiment item","True","FlankerTask.osexp","C:/Users/backs/OneDrive/Documents","False","mono","False","18","no","white","no","yes","768","legacy","57","57","C:/Users/backs/OneDrive/Documents/BZ-subject-1.csv","legacy","Melodramatic Milgram","4.0.5","0","h","s","NA","NA","h","NA","882.0","51568","NA","NA","882","NA","NA","NA","2","legacy","1024","2","48000","-16","experiment","SSHSS","1","odd","167029","59404","NA","NA","91910","7812","NA","168107","NA","7835","NA","NA","168209","169092","NA","168105","168208","NA","Flanker Task ","56","40325.0","58","1024"
"96","96","691","691","#3d3846","legacy","legacy","legacy","congruent","1","undefined","1","s","58","0","0","0","58","0","58","58","NA","0","0","0","58","58","0","58","58","NA","Sat Sep 16 21:21:51 2023","1500","The main experiment item","True","FlankerTask.osexp","C:/Users/backs/OneDrive/Documents","False","mono","False","18","no","white","no","yes","768","legacy","58","58","C:/Users/backs/OneDrive/Documents/BZ-subject-1.csv","legacy","Melodramatic Milgram","4.0.5","0","s","s","NA","NA","s","NA","472.0","51568","NA","NA","472","NA","NA","NA","2","legacy","1024","2","48000","-16","experiment","SSSSS","1","odd","169097","59404","NA","NA","91910","7812","NA","170177","NA","7835","NA","NA","170279","170752","NA","170175","170278","NA","Flanker Task ","57","40797.0","59","1024"
"96","96","687","687","#3d3846","legacy","legacy","legacy","congruent","1","undefined","1","s","59","0","0","0","59","0","59","59","NA","0","0","0","59","59","0","59","59","NA","Sat Sep 16 21:21:51 2023","1500","The main experiment item","True","FlankerTask.osexp","C:/Users/backs/OneDrive/Documents","False","mono","False","18","no","white","no","yes","768","legacy","59","59","C:/Users/backs/OneDrive/Documents/BZ-subject-1.csv","legacy","Melodramatic Milgram","4.0.5","0","s","s","NA","NA","s","NA","471.0","51568","NA","NA","471","NA","NA","NA","2","legacy","1024","2","48000","-16","experiment","SSSSS","1","odd","170756","59404","NA","NA","91910","7812","NA","171828","NA","7835","NA","NA","171930","172402","NA","171827","171930","NA","Flanker Task ","58","41268.0","60","1024"
"96","96","686","686","#3d3846","legacy","legacy","legacy","congruent","1","undefined","1","h","60","0","0","0","60","0","60","60","NA","0","0","0","60","60","0","60","60","NA","Sat Sep 16 21:21:51 2023","1500","The main experiment item","True","FlankerTask.osexp","C:/Users/backs/OneDrive/Documents","False","mono","False","18","no","white","no","yes","768","legacy","60","60","C:/Users/backs/OneDrive/Documents/BZ-subject-1.csv","legacy","Melodramatic Milgram","4.0.5","0","h","s","NA","NA","h","NA","588.0","51568","NA","NA","588","NA","NA","NA","2","legacy","1024","2","48000","-16","experiment","HHHHH","1","odd","172407","59404","NA","NA","91910","7812","NA","173486","NA","7835","NA","NA","173588","174178","NA","173483","173588","NA","Flanker Task ","59","41856.0","61","1024"
"96","96","688","688","#3d3846","legacy","legacy","legacy","incongruent","1","undefined","1","h","61","0","0","0","61","0","61","61","NA","0","0","0","61","61","0","61","61","NA","Sat Sep 16 21:21:51 2023","1500","The main experiment item","True","FlankerTask.osexp","C:/Users/backs/OneDrive/Documents","False","mono","False","18","no","white","no","yes","768","legacy","61","61","C:/Users/backs/OneDrive/Documents/BZ-subject-1.csv","legacy","Melodramatic Milgram","4.0.5","0","h","s","NA","NA","h","NA","839.0","51568","NA","NA","839","NA","NA","NA","2","legacy","1024","2","48000","-16","experiment","SSHSS","1","odd","174182","59404","NA","NA","91910","7812","NA","175272","NA","7835","NA","NA","175374","176214","NA","175270","175374","NA","Flanker Task ","60","42695.0","62","1024"
"96","96","686","686","#3d3846","legacy","legacy","legacy","incongruent","1","undefined","1","h","62","0","0","0","62","0","62","62","NA","0","0","0","62","62","0","62","62","NA","Sat Sep 16 21:21:51 2023","1500","The main experiment item","True","FlankerTask.osexp","C:/Users/backs/OneDrive/Documents","False","mono","False","18","no","white","no","yes","768","legacy","62","62","C:/Users/backs/OneDrive/Documents/BZ-subject-1.csv","legacy","Melodramatic Milgram","4.0.5","0","h","s","NA","NA","h","NA","523.0","51568","NA","NA","523","NA","NA","NA","2","legacy","1024","2","48000","-16","experiment","SSHSS","1","odd","176218","59404","NA","NA","91910","7812","NA","177304","NA","7835","NA","NA","177406","177930","NA","177302","177406","NA","Flanker Task ","61","43218.0","63","1024"
"96","96","681","681","#3d3846","legacy","legacy","legacy","congruent","1","undefined","1","h","63","0","0","0","63","0","63","63","NA","0","0","0","63","63","0","63","63","NA","Sat Sep 16 21:21:51 2023","1500","The main experiment item","True","FlankerTask.osexp","C:/Users/backs/OneDrive/Documents","False","mono","False","18","no","white","no","yes","768","legacy","63","63","C:/Users/backs/OneDrive/Documents/BZ-subject-1.csv","legacy","Melodramatic Milgram","4.0.5","0","h","s","NA","NA","h","NA","423.0","51568","NA","NA","423","NA","NA","NA","2","legacy","1024","2","48000","-16","experiment","HHHHH","1","odd","177935","59404","NA","NA","91910","7812","NA","179025","NA","7835","NA","NA","179127","179552","NA","179023","179127","NA","Flanker Task ","62","43641.0","64","1024"
"96","96","681","681","#3d3846","legacy","legacy","legacy","incongruent","1","undefined","1","h","64","0","0","0","64","0","64","64","NA","0","0","0","64","64","0","64","64","NA","Sat Sep 16 21:21:51 2023","1500","The main experiment item","True","FlankerTask.osexp","C:/Users/backs/OneDrive/Documents","False","mono","False","18","no","white","no","yes","768","legacy","64","64","C:/Users/backs/OneDrive/Documents/BZ-subject-1.csv","legacy","Melodramatic Milgram","4.0.5","0","h","s","NA","NA","h","NA","645.0","51568","NA","NA","645","NA","NA","NA","2","legacy","1024","2","48000","-16","experiment","SSHSS","1","odd","179556","59404","NA","NA","91910","7812","NA","180641","NA","7835","NA","NA","180743","181389","NA","180639","180742","NA","Flanker Task ","63","44286.0","65","1024"
"96","96","680","680","#3d3846","legacy","legacy","legacy","incongruent","1","undefined","1","s","65","0","0","0","65","0","65","65","NA","0","0","0","65","65","0","65","65","NA","Sat Sep 16 21:21:51 2023","1500","The main experiment item","True","FlankerTask.osexp","C:/Users/backs/OneDrive/Documents","False","mono","False","18","no","white","no","yes","768","legacy","65","65","C:/Users/backs/OneDrive/Documents/BZ-subject-1.csv","legacy","Melodramatic Milgram","4.0.5","0","s","s","NA","NA","s","NA","612.0","51568","NA","NA","612","NA","NA","NA","2","legacy","1024","2","48000","-16","experiment","HHSHH","1","odd","181393","59404","NA","NA","91910","7812","NA","182495","NA","7835","NA","NA","182597","183210","NA","182493","182597","NA","Flanker Task ","64","44898.0","66","1024"
"97","97","681","681","#3d3846","legacy","legacy","legacy","incongruent","1","undefined","1","s","66","0","0","0","66","0","66","66","NA","0","0","0","66","66","0","66","66","NA","Sat Sep 16 21:21:51 2023","1500","The main experiment item","True","FlankerTask.osexp","C:/Users/backs/OneDrive/Documents","False","mono","False","18","no","white","no","yes","768","legacy","66","66","C:/Users/backs/OneDrive/Documents/BZ-subject-1.csv","legacy","Melodramatic Milgram","4.0.5","0","s","s","NA","NA","s","NA","730.0","51568","NA","NA","730","NA","NA","NA","2","legacy","1024","2","48000","-16","experiment","HHSHH","1","odd","183214","59404","NA","NA","91910","7812","NA","184298","NA","7835","NA","NA","184400","185131","NA","184296","184400","NA","Flanker Task ","65","45628.0","67","1024"
"97","97","682","682","#3d3846","legacy","legacy","legacy","congruent","1","undefined","1","h","67","0","0","0","67","0","67","67","NA","0","0","0","67","67","0","67","67","NA","Sat Sep 16 21:21:51 2023","1500","The main experiment item","True","FlankerTask.osexp","C:/Users/backs/OneDrive/Documents","False","mono","False","18","no","white","no","yes","768","legacy","67","67","C:/Users/backs/OneDrive/Documents/BZ-subject-1.csv","legacy","Melodramatic Milgram","4.0.5","0","h","s","NA","NA","h","NA","804.0","51568","NA","NA","804","NA","NA","NA","2","legacy","1024","2","48000","-16","experiment","HHHHH","1","odd","185136","59404","NA","NA","91910","7812","NA","186200","NA","7835","NA","NA","186302","187107","NA","186198","186302","NA","Flanker Task ","66","46432.0","68","1024"
"97","97","679","679","#3d3846","legacy","legacy","legacy","incongruent","1","undefined","1","h","68","0","0","0","68","0","68","68","NA","0","0","0","68","68","0","68","68","NA","Sat Sep 16 21:21:51 2023","1500","The main experiment item","True","FlankerTask.osexp","C:/Users/backs/OneDrive/Documents","False","mono","False","18","no","white","no","yes","768","legacy","68","68","C:/Users/backs/OneDrive/Documents/BZ-subject-1.csv","legacy","Melodramatic Milgram","4.0.5","0","h","s","NA","NA","h","NA","435.0","51568","NA","NA","435","NA","NA","NA","2","legacy","1024","2","48000","-16","experiment","SSHSS","1","odd","187111","59404","NA","NA","91910","7812","NA","188187","NA","7835","NA","NA","188290","188726","NA","188186","188290","NA","Flanker Task ","67","46867.0","69","1024"
"97","97","679","679","#3d3846","legacy","legacy","legacy","congruent","1","undefined","1","s","69","0","0","0","69","0","69","69","NA","0","0","0","69","69","0","69","69","NA","Sat Sep 16 21:21:51 2023","1500","The main experiment item","True","FlankerTask.osexp","C:/Users/backs/OneDrive/Documents","False","mono","False","18","no","white","no","yes","768","legacy","69","69","C:/Users/backs/OneDrive/Documents/BZ-subject-1.csv","legacy","Melodramatic Milgram","4.0.5","0","s","s","NA","NA","s","NA","686.0","51568","NA","NA","686","NA","NA","NA","2","legacy","1024","2","48000","-16","experiment","SSSSS","1","odd","188731","59404","NA","NA","91910","7812","NA","189824","NA","7835","NA","NA","189927","190614","NA","189822","189927","NA","Flanker Task ","68","47553.0","70","1024"
"97","97","685","685","#3d3846","legacy","legacy","legacy","incongruent","1","undefined","1","h","70","0","0","0","70","0","70","70","NA","0","0","0","70","70","0","70","70","NA","Sat Sep 16 21:21:51 2023","1500","The main experiment item","True","FlankerTask.osexp","C:/Users/backs/OneDrive/Documents","False","mono","False","18","no","white","no","yes","768","legacy","70","70","C:/Users/backs/OneDrive/Documents/BZ-subject-1.csv","legacy","Melodramatic Milgram","4.0.5","0","h","s","NA","NA","h","NA","1125.0","51568","NA","NA","1125","NA","NA","NA","2","legacy","1024","2","48000","-16","experiment","SSHSS","1","odd","190618","59404","NA","NA","91910","7812","NA","191698","NA","7835","NA","NA","191800","192926","NA","191696","191799","NA","Flanker Task ","69","48678.0","71","1024"
"97","97","684","684","#3d3846","legacy","legacy","legacy","incongruent","1","undefined","1","h","71","0","0","0","71","0","71","71","NA","0","0","0","71","71","0","71","71","NA","Sat Sep 16 21:21:51 2023","1500","The main experiment item","True","FlankerTask.osexp","C:/Users/backs/OneDrive/Documents","False","mono","False","18","no","white","no","yes","768","legacy","71","71","C:/Users/backs/OneDrive/Documents/BZ-subject-1.csv","legacy","Melodramatic Milgram","4.0.5","0","h","s","NA","NA","h","NA","611.0","51568","NA","NA","611","NA","NA","NA","2","legacy","1024","2","48000","-16","experiment","SSHSS","1","odd","192930","59404","NA","NA","91910","7812","NA","194017","NA","7835","NA","NA","194119","194732","NA","194014","194119","NA","Flanker Task ","70","49289.0","72","1024"
"97","97","682","682","#3d3846","legacy","legacy","legacy","congruent","1","undefined","1","s","72","0","0","0","72","0","72","72","NA","0","0","0","72","72","0","72","72","NA","Sat Sep 16 21:21:51 2023","1500","The main experiment item","True","FlankerTask.osexp","C:/Users/backs/OneDrive/Documents","False","mono","False","18","no","white","no","yes","768","legacy","72","72","C:/Users/backs/OneDrive/Documents/BZ-subject-1.csv","legacy","Melodramatic Milgram","4.0.5","0","s","s","NA","NA","s","NA","521.0","51568","NA","NA","521","NA","NA","NA","2","legacy","1024","2","48000","-16","experiment","SSSSS","1","odd","194736","59404","NA","NA","91910","7812","NA","195822","NA","7835","NA","NA","195924","196446","NA","195820","195924","NA","Flanker Task ","71","49810.0","73","1024"
"97","97","686","686","#3d3846","legacy","legacy","legacy","incongruent","1","undefined","1","s","73","0","0","0","73","0","73","73","NA","0","0","0","73","73","0","73","73","NA","Sat Sep 16 21:21:51 2023","1500","The main experiment item","True","FlankerTask.osexp","C:/Users/backs/OneDrive/Documents","False","mono","False","18","no","white","no","yes","768","legacy","73","73","C:/Users/backs/OneDrive/Documents/BZ-subject-1.csv","legacy","Melodramatic Milgram","4.0.5","0","s","s","NA","NA","s","NA","971.0","51568","NA","NA","971","NA","NA","NA","2","legacy","1024","2","48000","-16","experiment","HHSHH","1","odd","196450","59404","NA","NA","91910","7812","NA","197534","NA","7835","NA","NA","197636","198608","NA","197532","197636","NA","Flanker Task ","72","50781.0","74","1024"
"97","97","684","684","#3d3846","legacy","legacy","legacy","incongruent","1","undefined","1","s","74","0","0","0","74","0","74","74","NA","0","0","0","74","74","0","74","74","NA","Sat Sep 16 21:21:51 2023","1500","The main experiment item","True","FlankerTask.osexp","C:/Users/backs/OneDrive/Documents","False","mono","False","18","no","white","no","yes","768","legacy","74","74","C:/Users/backs/OneDrive/Documents/BZ-subject-1.csv","legacy","Melodramatic Milgram","4.0.5","0","s","s","NA","NA","s","NA","573.0","51568","NA","NA","573","NA","NA","NA","2","legacy","1024","2","48000","-16","experiment","HHSHH","1","odd","198614","59404","NA","NA","91910","7812","NA","199687","NA","7835","NA","NA","199788","200362","NA","199685","199788","NA","Flanker Task ","73","51354.0","75","1024"
"97","97","681","681","#3d3846","legacy","legacy","legacy","incongruent","1","undefined","1","s","75","0","0","0","75","0","75","75","NA","0","0","0","75","75","0","75","75","NA","Sat Sep 16 21:21:51 2023","1500","The main experiment item","True","FlankerTask.osexp","C:/Users/backs/OneDrive/Documents","False","mono","False","18","no","white","no","yes","768","legacy","75","75","C:/Users/backs/OneDrive/Documents/BZ-subject-1.csv","legacy","Melodramatic Milgram","4.0.5","0","s","s","NA","NA","s","NA","438.0","51568","NA","NA","438","NA","NA","NA","2","legacy","1024","2","48000","-16","experiment","HHSHH","1","odd","200366","59404","NA","NA","91910","7812","NA","201438","NA","7835","NA","NA","201540","201979","NA","201435","201539","NA","Flanker Task ","74","51792.0","76","1024"
"97","97","677","677","#3d3846","legacy","legacy","legacy","congruent","1","undefined","1","s","76","0","0","0","76","0","76","76","NA","0","0","0","76","76","0","76","76","NA","Sat Sep 16 21:21:51 2023","1500","The main experiment item","True","FlankerTask.osexp","C:/Users/backs/OneDrive/Documents","False","mono","False","18","no","white","no","yes","768","legacy","76","76","C:/Users/backs/OneDrive/Documents/BZ-subject-1.csv","legacy","Melodramatic Milgram","4.0.5","0","s","s","NA","NA","s","NA","389.0","51568","NA","NA","389","NA","NA","NA","2","legacy","1024","2","48000","-16","experiment","SSSSS","1","odd","201984","59404","NA","NA","91910","7812","NA","203073","NA","7835","NA","NA","203175","203566","NA","203071","203175","NA","Flanker Task ","75","52181.0","77","1024"
"97","97","675","675","#3d3846","legacy","legacy","legacy","congruent","1","undefined","1","h","77","0","0","0","77","0","77","77","NA","0","0","0","77","77","0","77","77","NA","Sat Sep 16 21:21:51 2023","1500","The main experiment item","True","FlankerTask.osexp","C:/Users/backs/OneDrive/Documents","False","mono","False","18","no","white","no","yes","768","legacy","77","77","C:/Users/backs/OneDrive/Documents/BZ-subject-1.csv","legacy","Melodramatic Milgram","4.0.5","0","h","s","NA","NA","h","NA","514.0","51568","NA","NA","514","NA","NA","NA","2","legacy","1024","2","48000","-16","experiment","HHHHH","1","odd","203570","59404","NA","NA","91910","7812","NA","204666","NA","7835","NA","NA","204769","205284","NA","204664","204768","NA","Flanker Task ","76","52695.0","78","1024"
"97","97","675","675","#3d3846","legacy","legacy","legacy","incongruent","1","undefined","1","s","78","0","0","0","78","0","78","78","NA","0","0","0","78","78","0","78","78","NA","Sat Sep 16 21:21:51 2023","1500","The main experiment item","True","FlankerTask.osexp","C:/Users/backs/OneDrive/Documents","False","mono","False","18","no","white","no","yes","768","legacy","78","78","C:/Users/backs/OneDrive/Documents/BZ-subject-1.csv","legacy","Melodramatic Milgram","4.0.5","0","s","s","NA","NA","s","NA","658.0","51568","NA","NA","658","NA","NA","NA","2","legacy","1024","2","48000","-16","experiment","HHSHH","1","odd","205289","59404","NA","NA","91910","7812","NA","206373","NA","7835","NA","NA","206474","207133","NA","206370","206474","NA","Flanker Task ","77","53353.0","79","1024"
"97","97","676","676","#3d3846","legacy","legacy","legacy","congruent","1","undefined","1","h","79","0","0","0","79","0","79","79","NA","0","0","0","79","79","0","79","79","NA","Sat Sep 16 21:21:51 2023","1500","The main experiment item","True","FlankerTask.osexp","C:/Users/backs/OneDrive/Documents","False","mono","False","18","no","white","no","yes","768","legacy","79","79","C:/Users/backs/OneDrive/Documents/BZ-subject-1.csv","legacy","Melodramatic Milgram","4.0.5","0","h","s","NA","NA","h","NA","781.0","51568","NA","NA","781","NA","NA","NA","2","legacy","1024","2","48000","-16","experiment","HHHHH","1","odd","207137","59404","NA","NA","91910","7812","NA","208216","NA","7835","NA","NA","208318","209101","NA","208213","208318","NA","Flanker Task ","78","54134.0","80","1024"
"96","96","680","680","#3d3846","legacy","legacy","legacy","congruent","0","undefined","0","s","80","0","0","0","80","0","80","80","NA","0","0","0","80","80","0","80","80","NA","Sat Sep 16 21:21:51 2023","600","The main experiment item","True","FlankerTask.osexp","C:/Users/backs/OneDrive/Documents","False","mono","False","18","no","white","no","yes","768","legacy","0","79","C:/Users/backs/OneDrive/Documents/BZ-subject-1.csv","legacy","Melodramatic Milgram","4.0.5","0","h","s","s","NA","h","NA","987.0","51568","18717","NA","987","NA","NA","NA","2","legacy","1024","2","48000","-16","experiment","SSSSS","1","odd","209104","59404","228824","NA","91910","7812","NA","228884","NA","7835","210106","NA","228985","229973","NA","228883","228985","NA","Flanker Task ","78","55121.0","81","1024"
"96","96","684","684","#3d3846","legacy","legacy","legacy","incongruent","1","undefined","1","h","81","0","0","0","81","0","81","81","NA","0","0","0","81","81","0","81","81","NA","Sat Sep 16 21:21:51 2023","600","The main experiment item","True","FlankerTask.osexp","C:/Users/backs/OneDrive/Documents","False","mono","False","18","no","white","no","yes","768","legacy","1","79","C:/Users/backs/OneDrive/Documents/BZ-subject-1.csv","legacy","Melodramatic Milgram","4.0.5","0","h","s","s","NA","h","NA","991.0","51568","18717","NA","991","NA","NA","NA","2","legacy","1024","2","48000","-16","experiment","SSHSS","1","odd","230979","59404","228824","NA","229977","7812","230478","232050","NA","7835","210106","NA","232152","233144","NA","232048","232151","NA","Flanker Task ","79","56112.0","82","1024"
"96","96","684","684","#3d3846","legacy","legacy","legacy","incongruent","1","undefined","1","h","82","0","0","0","82","0","82","82","NA","0","0","0","82","82","0","82","82","NA","Sat Sep 16 21:21:51 2023","600","The main experiment item","True","FlankerTask.osexp","C:/Users/backs/OneDrive/Documents","False","mono","False","18","no","white","no","yes","768","legacy","2","79","C:/Users/backs/OneDrive/Documents/BZ-subject-1.csv","legacy","Melodramatic Milgram","4.0.5","0","h","s","s","NA","h","NA","682.0","51568","18717","NA","682","NA","NA","NA","2","legacy","1024","2","48000","-16","experiment","SSHSS","1","odd","233650","59404","228824","NA","229977","7812","233148","234723","NA","7835","210106","NA","234825","235508","NA","234721","234825","NA","Flanker Task ","80","56794.0","83","1024"
"95","95","682","682","#3d3846","legacy","legacy","legacy","incongruent","0","undefined","0","s","83","0","0","0","83","0","83","83","NA","0","0","0","83","83","0","83","83","NA","Sat Sep 16 21:21:51 2023","600","The main experiment item","True","FlankerTask.osexp","C:/Users/backs/OneDrive/Documents","False","mono","False","18","no","white","no","yes","768","legacy","3","79","C:/Users/backs/OneDrive/Documents/BZ-subject-1.csv","legacy","Melodramatic Milgram","4.0.5","0","h","s","s","NA","h","NA","514.0","51568","18717","NA","514","NA","NA","NA","2","legacy","1024","2","48000","-16","experiment","HHSHH","1","odd","236013","59404","228824","NA","229977","7812","235512","237088","NA","7835","210106","NA","237190","237706","NA","237086","237190","NA","Flanker Task ","80","57308.0","84","1024"
"95","95","682","682","#3d3846","legacy","legacy","legacy","incongruent","1","undefined","1","s","84","0","0","0","84","0","84","84","NA","0","0","0","84","84","0","84","84","NA","Sat Sep 16 21:21:51 2023","600","The main experiment item","True","FlankerTask.osexp","C:/Users/backs/OneDrive/Documents","False","mono","False","18","no","white","no","yes","768","legacy","4","79","C:/Users/backs/OneDrive/Documents/BZ-subject-1.csv","legacy","Melodramatic Milgram","4.0.5","0","s","s","s","NA","s","NA","691.0","51568","18717","NA","691","NA","NA","NA","2","legacy","1024","2","48000","-16","experiment","HHSHH","1","odd","238212","59404","228824","NA","237710","7812","235512","239297","NA","7835","210106","NA","239399","240091","NA","239295","239399","NA","Flanker Task ","81","57999.0","85","1024"
"95","95","682","682","#3d3846","legacy","legacy","legacy","incongruent","1","undefined","1","s","85","0","0","0","85","0","85","85","NA","0","0","0","85","85","0","85","85","NA","Sat Sep 16 21:21:51 2023","600","The main experiment item","True","FlankerTask.osexp","C:/Users/backs/OneDrive/Documents","False","mono","False","18","no","white","no","yes","768","legacy","5","79","C:/Users/backs/OneDrive/Documents/BZ-subject-1.csv","legacy","Melodramatic Milgram","4.0.5","0","s","s","s","NA","s","NA","731.0","51568","18717","NA","731","NA","NA","NA","2","legacy","1024","2","48000","-16","experiment","HHSHH","1","odd","240597","59404","228824","NA","237710","7812","240096","241682","NA","7835","210106","NA","241784","242517","NA","241680","241784","NA","Flanker Task ","82","58730.0","86","1024"
"94","94","682","682","#3d3846","legacy","legacy","legacy","congruent","0","undefined","0","h","86","0","0","0","86","0","86","86","NA","0","0","0","86","86","0","86","86","NA","Sat Sep 16 21:21:51 2023","600","The main experiment item","True","FlankerTask.osexp","C:/Users/backs/OneDrive/Documents","False","mono","False","18","no","white","no","yes","768","legacy","6","79","C:/Users/backs/OneDrive/Documents/BZ-subject-1.csv","legacy","Melodramatic Milgram","4.0.5","0","s","s","s","NA","s","NA","646.0","51568","18717","NA","646","NA","NA","NA","2","legacy","1024","2","48000","-16","experiment","HHHHH","1","odd","243024","59404","228824","NA","237710","7812","242522","244112","NA","7835","210106","NA","244214","244862","NA","244109","244214","NA","Flanker Task ","82","59376.0","87","1024"
"94","94","682","682","#3d3846","legacy","legacy","legacy","congruent","1","undefined","1","h","87","0","0","0","87","0","87","87","NA","0","0","0","87","87","0","87","87","NA","Sat Sep 16 21:21:51 2023","600","The main experiment item","True","FlankerTask.osexp","C:/Users/backs/OneDrive/Documents","False","mono","False","18","no","white","no","yes","768","legacy","7","79","C:/Users/backs/OneDrive/Documents/BZ-subject-1.csv","legacy","Melodramatic Milgram","4.0.5","0","h","s","s","NA","h","NA","663.0","51568","18717","NA","663","NA","NA","NA","2","legacy","1024","2","48000","-16","experiment","HHHHH","1","odd","245872","59404","228824","NA","244868","7812","245370","246945","NA","7835","210106","NA","247047","247711","NA","246943","247047","NA","Flanker Task ","83","60039.0","88","1024"
"94","94","681","681","#3d3846","legacy","legacy","legacy","congruent","1","undefined","1","h","88","0","0","0","88","0","88","88","NA","0","0","0","88","88","0","88","88","NA","Sat Sep 16 21:21:51 2023","600","The main experiment item","True","FlankerTask.osexp","C:/Users/backs/OneDrive/Documents","False","mono","False","18","no","white","no","yes","768","legacy","8","79","C:/Users/backs/OneDrive/Documents/BZ-subject-1.csv","legacy","Melodramatic Milgram","4.0.5","0","h","s","s","NA","h","NA","610.0","51568","18717","NA","610","NA","NA","NA","2","legacy","1024","2","48000","-16","experiment","HHHHH","1","odd","248215","59404","228824","NA","244868","7812","247714","249300","NA","7835","210106","NA","249401","250013","NA","249298","249401","NA","Flanker Task ","84","60649.0","89","1024"
"94","94","678","678","#3d3846","legacy","legacy","legacy","congruent","1","undefined","1","h","89","0","0","0","89","0","89","89","NA","0","0","0","89","89","0","89","89","NA","Sat Sep 16 21:21:51 2023","600","The main experiment item","True","FlankerTask.osexp","C:/Users/backs/OneDrive/Documents","False","mono","False","18","no","white","no","yes","768","legacy","9","79","C:/Users/backs/OneDrive/Documents/BZ-subject-1.csv","legacy","Melodramatic Milgram","4.0.5","0","h","s","s","NA","h","NA","419.0","51568","18717","NA","419","NA","NA","NA","2","legacy","1024","2","48000","-16","experiment","HHHHH","1","odd","250520","59404","228824","NA","244868","7812","250018","251622","NA","7835","210106","NA","251724","252145","NA","251620","251723","NA","Flanker Task ","85","61068.0","90","1024"
"94","94","677","677","#3d3846","legacy","legacy","legacy","incongruent","1","undefined","1","h","90","0","0","0","90","0","90","90","NA","0","0","0","90","90","0","90","90","NA","Sat Sep 16 21:21:51 2023","600","The main experiment item","True","FlankerTask.osexp","C:/Users/backs/OneDrive/Documents","False","mono","False","18","no","white","no","yes","768","legacy","10","79","C:/Users/backs/OneDrive/Documents/BZ-subject-1.csv","legacy","Melodramatic Milgram","4.0.5","0","h","s","s","NA","h","NA","572.0","51568","18717","NA","572","NA","NA","NA","2","legacy","1024","2","48000","-16","experiment","SSHSS","1","odd","252149","59404","228824","NA","244868","7812","250018","253231","NA","7835","210106","NA","253333","253906","NA","253228","253333","NA","Flanker Task ","86","61640.0","91","1024"
"93","93","675","675","#3d3846","legacy","legacy","legacy","incongruent","0","undefined","0","s","91","0","0","0","91","0","91","91","NA","0","0","0","91","91","0","91","91","NA","Sat Sep 16 21:21:51 2023","600","The main experiment item","True","FlankerTask.osexp","C:/Users/backs/OneDrive/Documents","False","mono","False","18","no","white","no","yes","768","legacy","11","79","C:/Users/backs/OneDrive/Documents/BZ-subject-1.csv","legacy","Melodramatic Milgram","4.0.5","0","h","s","s","NA","h","NA","479.0","51568","18717","NA","479","NA","NA","NA","2","legacy","1024","2","48000","-16","experiment","HHSHH","1","odd","253911","59404","228824","NA","244868","7812","250018","254998","NA","7835","210106","NA","255100","255580","NA","254996","255100","NA","Flanker Task ","86","62119.0","92","1024"
"93","93","675","675","#3d3846","legacy","legacy","legacy","congruent","1","undefined","1","h","92","0","0","0","92","0","92","92","NA","0","0","0","92","92","0","92","92","NA","Sat Sep 16 21:21:51 2023","600","The main experiment item","True","FlankerTask.osexp","C:/Users/backs/OneDrive/Documents","False","mono","False","18","no","white","no","yes","768","legacy","12","79","C:/Users/backs/OneDrive/Documents/BZ-subject-1.csv","legacy","Melodramatic Milgram","4.0.5","0","h","s","s","NA","h","NA","713.0","51568","18717","NA","713","NA","NA","NA","2","legacy","1024","2","48000","-16","experiment","HHHHH","1","odd","256087","59404","228824","NA","255585","7812","250018","257162","NA","7835","210106","NA","257264","257979","NA","257160","257263","NA","Flanker Task ","87","62832.0","93","1024"
"93","93","673","673","#3d3846","legacy","legacy","legacy","congruent","1","undefined","1","h","93","0","0","0","93","0","93","93","NA","0","0","0","93","93","0","93","93","NA","Sat Sep 16 21:21:51 2023","600","The main experiment item","True","FlankerTask.osexp","C:/Users/backs/OneDrive/Documents","False","mono","False","18","no","white","no","yes","768","legacy","13","79","C:/Users/backs/OneDrive/Documents/BZ-subject-1.csv","legacy","Melodramatic Milgram","4.0.5","0","h","s","s","NA","h","NA","442.0","51568","18717","NA","442","NA","NA","NA","2","legacy","1024","2","48000","-16","experiment","HHHHH","1","odd","258485","59404","228824","NA","255585","7812","257983","259578","NA","7835","210106","NA","259680","260123","NA","259576","259679","NA","Flanker Task ","88","63274.0","94","1024"
"93","93","671","671","#3d3846","legacy","legacy","legacy","congruent","1","undefined","1","s","94","0","0","0","94","0","94","94","NA","0","0","0","94","94","0","94","94","NA","Sat Sep 16 21:21:51 2023","600","The main experiment item","True","FlankerTask.osexp","C:/Users/backs/OneDrive/Documents","False","mono","False","18","no","white","no","yes","768","legacy","14","79","C:/Users/backs/OneDrive/Documents/BZ-subject-1.csv","legacy","Melodramatic Milgram","4.0.5","0","s","s","s","NA","s","NA","482.0","51568","18717","NA","482","NA","NA","NA","2","legacy","1024","2","48000","-16","experiment","SSSSS","1","odd","260129","59404","228824","NA","255585","7812","257983","261213","NA","7835","210106","NA","261315","261799","NA","261211","261315","NA","Flanker Task ","89","63756.0","95","1024"
"93","93","670","670","#3d3846","legacy","legacy","legacy","incongruent","1","undefined","1","s","95","0","0","0","95","0","95","95","NA","0","0","0","95","95","0","95","95","NA","Sat Sep 16 21:21:51 2023","600","The main experiment item","True","FlankerTask.osexp","C:/Users/backs/OneDrive/Documents","False","mono","False","18","no","white","no","yes","768","legacy","15","79","C:/Users/backs/OneDrive/Documents/BZ-subject-1.csv","legacy","Melodramatic Milgram","4.0.5","0","s","s","s","NA","s","NA","624.0","51568","18717","NA","624","NA","NA","NA","2","legacy","1024","2","48000","-16","experiment","HHSHH","1","odd","261803","59404","228824","NA","255585","7812","257983","262895","NA","7835","210106","NA","262997","263623","NA","262893","262997","NA","Flanker Task ","90","64380.0","96","1024"
"93","93","669","669","#3d3846","legacy","legacy","legacy","congruent","1","undefined","1","s","96","0","0","0","96","0","96","96","NA","0","0","0","96","96","0","96","96","NA","Sat Sep 16 21:21:51 2023","600","The main experiment item","True","FlankerTask.osexp","C:/Users/backs/OneDrive/Documents","False","mono","False","18","no","white","no","yes","768","legacy","16","79","C:/Users/backs/OneDrive/Documents/BZ-subject-1.csv","legacy","Melodramatic Milgram","4.0.5","0","s","s","s","NA","s","NA","550.0","51568","18717","NA","550","NA","NA","NA","2","legacy","1024","2","48000","-16","experiment","SSSSS","1","odd","264128","59404","228824","NA","255585","7812","263626","265208","NA","7835","210106","NA","265310","265862","NA","265205","265309","NA","Flanker Task ","91","64930.0","97","1024"
"93","93","667","667","#3d3846","legacy","legacy","legacy","congruent","1","undefined","1","h","97","0","0","0","97","0","97","97","NA","0","0","0","97","97","0","97","97","NA","Sat Sep 16 21:21:51 2023","600","The main experiment item","True","FlankerTask.osexp","C:/Users/backs/OneDrive/Documents","False","mono","False","18","no","white","no","yes","768","legacy","17","79","C:/Users/backs/OneDrive/Documents/BZ-subject-1.csv","legacy","Melodramatic Milgram","4.0.5","0","h","s","s","NA","h","NA","528.0","51568","18717","NA","528","NA","NA","NA","2","legacy","1024","2","48000","-16","experiment","HHHHH","1","odd","265865","59404","228824","NA","255585","7812","263626","266920","NA","7835","210106","NA","267022","267551","NA","266918","267021","NA","Flanker Task ","92","65458.0","98","1024"
"93","93","666","666","#3d3846","legacy","legacy","legacy","congruent","1","undefined","1","s","98","0","0","0","98","0","98","98","NA","0","0","0","98","98","0","98","98","NA","Sat Sep 16 21:21:51 2023","600","The main experiment item","True","FlankerTask.osexp","C:/Users/backs/OneDrive/Documents","False","mono","False","18","no","white","no","yes","768","legacy","18","79","C:/Users/backs/OneDrive/Documents/BZ-subject-1.csv","legacy","Melodramatic Milgram","4.0.5","0","s","s","s","NA","s","NA","534.0","51568","18717","NA","534","NA","NA","NA","2","legacy","1024","2","48000","-16","experiment","SSSSS","1","odd","267555","59404","228824","NA","255585","7812","263626","268654","NA","7835","210106","NA","268756","269291","NA","268652","268756","NA","Flanker Task ","93","65992.0","99","1024"
"94","94","665","665","#3d3846","legacy","legacy","legacy","congruent","1","undefined","1","h","99","0","0","0","99","0","99","99","NA","0","0","0","99","99","0","99","99","NA","Sat Sep 16 21:21:51 2023","600","The main experiment item","True","FlankerTask.osexp","C:/Users/backs/OneDrive/Documents","False","mono","False","18","no","white","no","yes","768","legacy","19","79","C:/Users/backs/OneDrive/Documents/BZ-subject-1.csv","legacy","Melodramatic Milgram","4.0.5","0","h","s","s","NA","h","NA","568.0","51568","18717","NA","568","NA","NA","NA","2","legacy","1024","2","48000","-16","experiment","HHHHH","1","odd","269296","59404","228824","NA","255585","7812","263626","270367","NA","7835","210106","NA","270468","271037","NA","270365","270468","NA","Flanker Task ","94","66560.0","100","1024"
"94","94","665","665","#3d3846","legacy","legacy","legacy","congruent","1","undefined","1","s","100","0","0","0","100","0","100","100","NA","0","0","0","100","100","0","100","100","NA","Sat Sep 16 21:21:51 2023","600","The main experiment item","True","FlankerTask.osexp","C:/Users/backs/OneDrive/Documents","False","mono","False","18","no","white","no","yes","768","legacy","20","79","C:/Users/backs/OneDrive/Documents/BZ-subject-1.csv","legacy","Melodramatic Milgram","4.0.5","0","s","s","s","NA","s","NA","651.0","51568","18717","NA","651","NA","NA","NA","2","legacy","1024","2","48000","-16","experiment","SSSSS","1","odd","271040","59404","228824","NA","255585","7812","263626","272132","NA","7835","210106","NA","272234","272886","NA","272130","272234","NA","Flanker Task ","95","67211.0","101","1024"
"94","94","663","663","#3d3846","legacy","legacy","legacy","congruent","1","undefined","1","s","101","0","0","0","101","0","101","101","NA","0","0","0","101","101","0","101","101","NA","Sat Sep 16 21:21:51 2023","600","The main experiment item","True","FlankerTask.osexp","C:/Users/backs/OneDrive/Documents","False","mono","False","18","no","white","no","yes","768","legacy","21","79","C:/Users/backs/OneDrive/Documents/BZ-subject-1.csv","legacy","Melodramatic Milgram","4.0.5","0","s","s","s","NA","s","NA","482.0","51568","18717","NA","482","NA","NA","NA","2","legacy","1024","2","48000","-16","experiment","SSSSS","1","odd","273391","59404","228824","NA","255585","7812","272890","274478","NA","7835","210106","NA","274580","275064","NA","274476","274580","NA","Flanker Task ","96","67693.0","102","1024"
"94","94","663","663","#3d3846","legacy","legacy","legacy","congruent","1","undefined","1","h","102","0","0","0","102","0","102","102","NA","0","0","0","102","102","0","102","102","NA","Sat Sep 16 21:21:51 2023","600","The main experiment item","True","FlankerTask.osexp","C:/Users/backs/OneDrive/Documents","False","mono","False","18","no","white","no","yes","768","legacy","22","79","C:/Users/backs/OneDrive/Documents/BZ-subject-1.csv","legacy","Melodramatic Milgram","4.0.5","0","h","s","s","NA","h","NA","614.0","51568","18717","NA","614","NA","NA","NA","2","legacy","1024","2","48000","-16","experiment","HHHHH","1","odd","275068","59404","228824","NA","255585","7812","272890","276163","NA","7835","210106","NA","276266","276881","NA","276161","276266","NA","Flanker Task ","97","68307.0","103","1024"
"93","93","660","660","#3d3846","legacy","legacy","legacy","congruent","0","undefined","0","s","103","0","0","0","103","0","103","103","NA","0","0","0","103","103","0","103","103","NA","Sat Sep 16 21:21:51 2023","600","The main experiment item","True","FlankerTask.osexp","C:/Users/backs/OneDrive/Documents","False","mono","False","18","no","white","no","yes","768","legacy","23","79","C:/Users/backs/OneDrive/Documents/BZ-subject-1.csv","legacy","Melodramatic Milgram","4.0.5","0","h","s","s","NA","h","NA","421.0","51568","18717","NA","421","NA","NA","NA","2","legacy","1024","2","48000","-16","experiment","SSSSS","1","odd","277388","59404","228824","NA","255585","7812","276886","278481","NA","7835","210106","NA","278583","279005","NA","278478","278583","NA","Flanker Task ","97","68728.0","104","1024"
"93","93","660","660","#3d3846","legacy","legacy","legacy","congruent","1","undefined","1","s","104","0","0","0","104","0","104","104","NA","0","0","0","104","104","0","104","104","NA","Sat Sep 16 21:21:51 2023","600","The main experiment item","True","FlankerTask.osexp","C:/Users/backs/OneDrive/Documents","False","mono","False","18","no","white","no","yes","768","legacy","24","79","C:/Users/backs/OneDrive/Documents/BZ-subject-1.csv","legacy","Melodramatic Milgram","4.0.5","0","s","s","s","NA","s","NA","601.0","51568","18717","NA","601","NA","NA","NA","2","legacy","1024","2","48000","-16","experiment","SSSSS","1","odd","279512","59404","228824","NA","279010","7812","276886","280596","NA","7835","210106","NA","280698","281300","NA","280594","280698","NA","Flanker Task ","98","69329.0","105","1024"
"93","93","659","659","#3d3846","legacy","legacy","legacy","incongruent","1","undefined","1","h","105","0","0","0","105","0","105","105","NA","0","0","0","105","105","0","105","105","NA","Sat Sep 16 21:21:51 2023","600","The main experiment item","True","FlankerTask.osexp","C:/Users/backs/OneDrive/Documents","False","mono","False","18","no","white","no","yes","768","legacy","25","79","C:/Users/backs/OneDrive/Documents/BZ-subject-1.csv","legacy","Melodramatic Milgram","4.0.5","0","h","s","s","NA","h","NA","627.0","51568","18717","NA","627","NA","NA","NA","2","legacy","1024","2","48000","-16","experiment","SSHSS","1","odd","281806","59404","228824","NA","279010","7812","281304","282892","NA","7835","210106","NA","282994","283623","NA","282889","282994","NA","Flanker Task ","99","69956.0","106","1024"
"93","93","660","660","#3d3846","legacy","legacy","legacy","incongruent","1","undefined","1","s","106","0","0","0","106","0","106","106","NA","0","0","0","106","106","0","106","106","NA","Sat Sep 16 21:21:51 2023","600","The main experiment item","True","FlankerTask.osexp","C:/Users/backs/OneDrive/Documents","False","mono","False","18","no","white","no","yes","768","legacy","26","79","C:/Users/backs/OneDrive/Documents/BZ-subject-1.csv","legacy","Melodramatic Milgram","4.0.5","0","s","s","s","NA","s","NA","747.0","51568","18717","NA","747","NA","NA","NA","2","legacy","1024","2","48000","-16","experiment","HHSHH","1","odd","284128","59404","228824","NA","279010","7812","283626","285221","NA","7835","210106","NA","285323","286071","NA","285219","285322","NA","Flanker Task ","100","70703.0","107","1024"
"93","93","659","659","#3d3846","legacy","legacy","legacy","congruent","1","undefined","1","s","107","0","0","0","107","0","107","107","NA","0","0","0","107","107","0","107","107","NA","Sat Sep 16 21:21:51 2023","600","The main experiment item","True","FlankerTask.osexp","C:/Users/backs/OneDrive/Documents","False","mono","False","18","no","white","no","yes","768","legacy","27","79","C:/Users/backs/OneDrive/Documents/BZ-subject-1.csv","legacy","Melodramatic Milgram","4.0.5","0","s","s","s","NA","s","NA","472.0","51568","18717","NA","472","NA","NA","NA","2","legacy","1024","2","48000","-16","experiment","SSSSS","1","odd","286578","59404","228824","NA","279010","7812","286076","287680","NA","7835","210106","NA","287782","288256","NA","287677","287782","NA","Flanker Task ","101","71175.0","108","1024"
"93","93","657","657","#3d3846","legacy","legacy","legacy","incongruent","1","undefined","1","h","108","0","0","0","108","0","108","108","NA","0","0","0","108","108","0","108","108","NA","Sat Sep 16 21:21:51 2023","600","The main experiment item","True","FlankerTask.osexp","C:/Users/backs/OneDrive/Documents","False","mono","False","18","no","white","no","yes","768","legacy","28","79","C:/Users/backs/OneDrive/Documents/BZ-subject-1.csv","legacy","Melodramatic Milgram","4.0.5","0","h","s","s","NA","h","NA","468.0","51568","18717","NA","468","NA","NA","NA","2","legacy","1024","2","48000","-16","experiment","SSHSS","1","odd","288261","59404","228824","NA","279010","7812","286076","289352","NA","7835","210106","NA","289454","289923","NA","289349","289454","NA","Flanker Task ","102","71643.0","109","1024"
"92","92","658","658","#3d3846","legacy","legacy","legacy","incongruent","0","undefined","0","h","109","0","0","0","109","0","109","109","NA","0","0","0","109","109","0","109","109","NA","Sat Sep 16 21:21:51 2023","600","The main experiment item","True","FlankerTask.osexp","C:/Users/backs/OneDrive/Documents","False","mono","False","18","no","white","no","yes","768","legacy","29","79","C:/Users/backs/OneDrive/Documents/BZ-subject-1.csv","legacy","Melodramatic Milgram","4.0.5","0","s","s","s","NA","s","NA","773.0","51568","18717","NA","773","NA","NA","NA","2","legacy","1024","2","48000","-16","experiment","SSHSS","1","odd","289927","59404","228824","NA","279010","7812","286076","291006","NA","7835","210106","NA","291108","291882","NA","291004","291107","NA","Flanker Task ","102","72416.0","110","1024"
"92","92","658","658","#3d3846","legacy","legacy","legacy","congruent","1","undefined","1","h","110","0","0","0","110","0","110","110","NA","0","0","0","110","110","0","110","110","NA","Sat Sep 16 21:21:51 2023","600","The main experiment item","True","FlankerTask.osexp","C:/Users/backs/OneDrive/Documents","False","mono","False","18","no","white","no","yes","768","legacy","30","79","C:/Users/backs/OneDrive/Documents/BZ-subject-1.csv","legacy","Melodramatic Milgram","4.0.5","0","h","s","s","NA","h","NA","663.0","51568","18717","NA","663","NA","NA","NA","2","legacy","1024","2","48000","-16","experiment","HHHHH","1","odd","292891","59404","228824","NA","291886","7812","292388","293983","NA","7835","210106","NA","294085","294749","NA","293981","294085","NA","Flanker Task ","103","73079.0","111","1024"
"92","92","657","657","#3d3846","legacy","legacy","legacy","congruent","1","undefined","1","h","111","0","0","0","111","0","111","111","NA","0","0","0","111","111","0","111","111","NA","Sat Sep 16 21:21:51 2023","600","The main experiment item","True","FlankerTask.osexp","C:/Users/backs/OneDrive/Documents","False","mono","False","18","no","white","no","yes","768","legacy","31","79","C:/Users/backs/OneDrive/Documents/BZ-subject-1.csv","legacy","Melodramatic Milgram","4.0.5","0","h","s","s","NA","h","NA","525.0","51568","18717","NA","525","NA","NA","NA","2","legacy","1024","2","48000","-16","experiment","HHHHH","1","odd","295255","59404","228824","NA","291886","7812","294753","296347","NA","7835","210106","NA","296449","296975","NA","296345","296448","NA","Flanker Task ","104","73604.0","112","1024"
"92","92","657","657","#3d3846","legacy","legacy","legacy","incongruent","1","undefined","1","s","112","0","0","0","112","0","112","112","NA","0","0","0","112","112","0","112","112","NA","Sat Sep 16 21:21:51 2023","600","The main experiment item","True","FlankerTask.osexp","C:/Users/backs/OneDrive/Documents","False","mono","False","18","no","white","no","yes","768","legacy","32","79","C:/Users/backs/OneDrive/Documents/BZ-subject-1.csv","legacy","Melodramatic Milgram","4.0.5","0","s","s","s","NA","s","NA","640.0","51568","18717","NA","640","NA","NA","NA","2","legacy","1024","2","48000","-16","experiment","HHSHH","1","odd","296980","59404","228824","NA","291886","7812","294753","298060","NA","7835","210106","NA","298162","298803","NA","298058","298161","NA","Flanker Task ","105","74244.0","113","1024"
"92","92","655","655","#3d3846","legacy","legacy","legacy","congruent","0","undefined","0","h","113","0","0","0","113","0","113","113","NA","0","0","0","113","113","0","113","113","NA","Sat Sep 16 21:21:51 2023","600","The main experiment item","True","FlankerTask.osexp","C:/Users/backs/OneDrive/Documents","False","mono","False","18","no","white","no","yes","768","legacy","33","79","C:/Users/backs/OneDrive/Documents/BZ-subject-1.csv","legacy","Melodramatic Milgram","4.0.5","0","s","s","s","NA","s","NA","429.0","51568","18717","NA","429","NA","NA","NA","2","legacy","1024","2","48000","-16","experiment","HHHHH","1","odd","299308","59404","228824","NA","291886","7812","298807","300391","NA","7835","210106","NA","300493","300923","NA","300389","300493","NA","Flanker Task ","105","74673.0","114","1024"
"92","92","655","655","#3d3846","legacy","legacy","legacy","congruent","1","undefined","1","h","114","0","0","0","114","0","114","114","NA","0","0","0","114","114","0","114","114","NA","Sat Sep 16 21:21:51 2023","600","The main experiment item","True","FlankerTask.osexp","C:/Users/backs/OneDrive/Documents","False","mono","False","18","no","white","no","yes","768","legacy","34","79","C:/Users/backs/OneDrive/Documents/BZ-subject-1.csv","legacy","Melodramatic Milgram","4.0.5","0","h","s","s","NA","h","NA","734.0","51568","18717","NA","734","NA","NA","NA","2","legacy","1024","2","48000","-16","experiment","HHHHH","1","odd","301431","59404","228824","NA","300929","7812","298807","302520","NA","7835","210106","NA","302622","303357","NA","302517","302622","NA","Flanker Task ","106","75407.0","115","1024"
"92","92","654","654","#3d3846","legacy","legacy","legacy","congruent","1","undefined","1","h","115","0","0","0","115","0","115","115","NA","0","0","0","115","115","0","115","115","NA","Sat Sep 16 21:21:51 2023","600","The main experiment item","True","FlankerTask.osexp","C:/Users/backs/OneDrive/Documents","False","mono","False","18","no","white","no","yes","768","legacy","35","79","C:/Users/backs/OneDrive/Documents/BZ-subject-1.csv","legacy","Melodramatic Milgram","4.0.5","0","h","s","s","NA","h","NA","531.0","51568","18717","NA","531","NA","NA","NA","2","legacy","1024","2","48000","-16","experiment","HHHHH","1","odd","303864","59404","228824","NA","300929","7812","303362","304925","NA","7835","210106","NA","305027","305560","NA","304923","305027","NA","Flanker Task ","107","75938.0","116","1024"
"92","92","653","653","#3d3846","legacy","legacy","legacy","congruent","1","undefined","1","h","116","0","0","0","116","0","116","116","NA","0","0","0","116","116","0","116","116","NA","Sat Sep 16 21:21:51 2023","600","The main experiment item","True","FlankerTask.osexp","C:/Users/backs/OneDrive/Documents","False","mono","False","18","no","white","no","yes","768","legacy","36","79","C:/Users/backs/OneDrive/Documents/BZ-subject-1.csv","legacy","Melodramatic Milgram","4.0.5","0","h","s","s","NA","h","NA","548.0","51568","18717","NA","548","NA","NA","NA","2","legacy","1024","2","48000","-16","experiment","HHHHH","1","odd","305564","59404","228824","NA","300929","7812","303362","306682","NA","7835","210106","NA","306784","307334","NA","306680","306784","NA","Flanker Task ","108","76486.0","117","1024"
"92","92","652","652","#3d3846","legacy","legacy","legacy","congruent","1","undefined","1","s","117","0","0","0","117","0","117","117","NA","0","0","0","117","117","0","117","117","NA","Sat Sep 16 21:21:51 2023","600","The main experiment item","True","FlankerTask.osexp","C:/Users/backs/OneDrive/Documents","False","mono","False","18","no","white","no","yes","768","legacy","37","79","C:/Users/backs/OneDrive/Documents/BZ-subject-1.csv","legacy","Melodramatic Milgram","4.0.5","0","s","s","s","NA","s","NA","510.0","51568","18717","NA","510","NA","NA","NA","2","legacy","1024","2","48000","-16","experiment","SSSSS","1","odd","307339","59404","228824","NA","300929","7812","303362","308415","NA","7835","210106","NA","308517","309029","NA","308413","308516","NA","Flanker Task ","109","76996.0","118","1024"
"92","92","652","652","#3d3846","legacy","legacy","legacy","congruent","1","undefined","1","h","118","0","0","0","118","0","118","118","NA","0","0","0","118","118","0","118","118","NA","Sat Sep 16 21:21:51 2023","600","The main experiment item","True","FlankerTask.osexp","C:/Users/backs/OneDrive/Documents","False","mono","False","18","no","white","no","yes","768","legacy","38","79","C:/Users/backs/OneDrive/Documents/BZ-subject-1.csv","legacy","Melodramatic Milgram","4.0.5","0","h","s","s","NA","h","NA","681.0","51568","18717","NA","681","NA","NA","NA","2","legacy","1024","2","48000","-16","experiment","HHHHH","1","odd","309033","59404","228824","NA","300929","7812","303362","310123","NA","7835","210106","NA","310225","310907","NA","310120","310225","NA","Flanker Task ","110","77677.0","119","1024"
"92","92","651","651","#3d3846","legacy","legacy","legacy","congruent","1","undefined","1","s","119","0","0","0","119","0","119","119","NA","0","0","0","119","119","0","119","119","NA","Sat Sep 16 21:21:51 2023","600","The main experiment item","True","FlankerTask.osexp","C:/Users/backs/OneDrive/Documents","False","mono","False","18","no","white","no","yes","768","legacy","39","79","C:/Users/backs/OneDrive/Documents/BZ-subject-1.csv","legacy","Melodramatic Milgram","4.0.5","0","s","s","s","NA","s","NA","542.0","51568","18717","NA","542","NA","NA","NA","2","legacy","1024","2","48000","-16","experiment","SSSSS","1","odd","311414","59404","228824","NA","300929","7812","310912","312510","NA","7835","210106","NA","312613","313157","NA","312507","312612","NA","Flanker Task ","111","78219.0","120","1024"
"92","92","651","651","#3d3846","legacy","legacy","legacy","incongruent","1","undefined","1","h","120","0","0","0","120","0","120","120","NA","0","0","0","120","120","0","120","120","NA","Sat Sep 16 21:21:51 2023","600","The main experiment item","True","FlankerTask.osexp","C:/Users/backs/OneDrive/Documents","False","mono","False","18","no","white","no","yes","768","legacy","40","79","C:/Users/backs/OneDrive/Documents/BZ-subject-1.csv","legacy","Melodramatic Milgram","4.0.5","0","h","s","s","NA","h","NA","625.0","51568","18717","NA","625","NA","NA","NA","2","legacy","1024","2","48000","-16","experiment","SSHSS","1","odd","313161","59404","228824","NA","300929","7812","310912","314261","NA","7835","210106","NA","314363","314990","NA","314258","314363","NA","Flanker Task ","112","78844.0","121","1024"
"92","92","651","651","#3d3846","legacy","legacy","legacy","congruent","1","undefined","1","h","121","0","0","0","121","0","121","121","NA","0","0","0","121","121","0","121","121","NA","Sat Sep 16 21:21:51 2023","600","The main experiment item","True","FlankerTask.osexp","C:/Users/backs/OneDrive/Documents","False","mono","False","18","no","white","no","yes","768","legacy","41","79","C:/Users/backs/OneDrive/Documents/BZ-subject-1.csv","legacy","Melodramatic Milgram","4.0.5","0","h","s","s","NA","h","NA","656.0","51568","18717","NA","656","NA","NA","NA","2","legacy","1024","2","48000","-16","experiment","HHHHH","1","odd","315498","59404","228824","NA","300929","7812","314995","316587","NA","7835","210106","NA","316689","317348","NA","316584","316689","NA","Flanker Task ","113","79500.0","122","1024"
"92","92","650","650","#3d3846","legacy","legacy","legacy","congruent","1","undefined","1","s","122","0","0","0","122","0","122","122","NA","0","0","0","122","122","0","122","122","NA","Sat Sep 16 21:21:51 2023","600","The main experiment item","True","FlankerTask.osexp","C:/Users/backs/OneDrive/Documents","False","mono","False","18","no","white","no","yes","768","legacy","42","79","C:/Users/backs/OneDrive/Documents/BZ-subject-1.csv","legacy","Melodramatic Milgram","4.0.5","0","s","s","s","NA","s","NA","566.0","51568","18717","NA","566","NA","NA","NA","2","legacy","1024","2","48000","-16","experiment","SSSSS","1","odd","317855","59404","228824","NA","300929","7812","317353","318950","NA","7835","210106","NA","319052","319620","NA","318948","319052","NA","Flanker Task ","114","80066.0","123","1024"
"91","91","650","650","#3d3846","legacy","legacy","legacy","incongruent","0","undefined","0","s","123","0","0","0","123","0","123","123","NA","0","0","0","123","123","0","123","123","NA","Sat Sep 16 21:21:51 2023","600","The main experiment item","True","FlankerTask.osexp","C:/Users/backs/OneDrive/Documents","False","mono","False","18","no","white","no","yes","768","legacy","43","79","C:/Users/backs/OneDrive/Documents/BZ-subject-1.csv","legacy","Melodramatic Milgram","4.0.5","0","h","s","s","NA","h","NA","603.0","51568","18717","NA","603","NA","NA","NA","2","legacy","1024","2","48000","-16","experiment","HHSHH","1","odd","319626","59404","228824","NA","300929","7812","317353","320727","NA","7835","210106","NA","320829","321434","NA","320724","320829","NA","Flanker Task ","114","80669.0","124","1024"
