acc,accuracy,average_response_time,avg_rt,background,canvas_backend,clock_backend,color_backend,compensation,condition,coordinates,correct,correct_Instruction1,correct_keyboard_response,correct_response,count_Block1,count_Block2,count_Block3,count_Instruction1,count_errorfeedback,count_experiment,count_faster,count_finish,count_fixation,count_instructions2,count_instructions2_1,count_instructions3,count_instructions3_1,count_isi,count_keyboard_response,count_logger,count_new_sketchpad_1,count_sequence,count_sketchpad,count_stimulus,count_welcome,datetime,deadline,description,disable_garbage_collection,experiment_file,experiment_path,font_bold,font_family,font_italic,font_size,font_underline,foreground,form_clicks,fullscreen,height,keyboard_backend,live_row,live_row_Block1,logfile,mouse_backend,opensesame_codename,opensesame_version,repeat_cycle,response,response_Instruction1,response_finish,response_instructions2,response_instructions2_1,response_instructions3,response_instructions3_1,response_keyboard_response,response_new_sketchpad_1,response_sketchpad,response_time,response_time_Instruction1,response_time_finish,response_time_instructions2,response_time_instructions2_1,response_time_instructions3,response_time_instructions3_1,response_time_keyboard_response,response_time_new_sketchpad_1,response_time_sketchpad,response_time_welcome,response_welcome,round_decimals,sampler_backend,sound_buf_size,sound_channels,sound_freq,sound_sample_size,start,stimulus,subject_nr,subject_parity,time_Block1,time_Block2,time_Block3,time_Instruction1,time_errorfeedback,time_experiment,time_faster,time_finish,time_fixation,time_instructions2,time_instructions2_1,time_instructions3,time_instructions3_1,time_isi,time_keyboard_response,time_logger,time_new_sketchpad_1,time_sequence,time_sketchpad,time_stimulus,time_welcome,title,total_correct,total_response_time,total_responses,uniform_coordinates,width
0,0,1500,1500,black,legacy,legacy,legacy,0,incongruent,uniform,0,undefined,0,s,0,0,0,0,0,0,0,0,0,NA,0,NA,0,0,0,0,NA,0,NA,0,NA,9/18/2022 22:33,1500,The main experiment item,yes,FlankerTask.osexp,C:/Users/olasa/OneDrive/Desktop,no,mono,no,18,no,white,no,yes,768,legacy,0,0,C:/Users/olasa/OneDrive/Desktop/OL-subject-1.csv,legacy,Lentiform Loewenfeld,3.3.12,0,None,space,NA,NA,NA,NA,NA,None,NA,NA,1500,1235,NA,NA,NA,NA,NA,1500,NA,NA,NA,NA,2,legacy,1024,2,48000,-16,experiment,HHSHH,1,odd,3515,NA,NA,2276,NA,2272,NA,NA,3600,NA,NA,NA,NA,NA,3701,5201,NA,3596,NA,3701,NA,Flanker Task,0,1500,1,yes,1024
50,50,1096,1096,black,legacy,legacy,legacy,0,incongruent,uniform,1,undefined,1,h,0,0,0,0,1,0,1,0,1,NA,0,NA,0,1,1,1,NA,1,NA,1,NA,9/18/2022 22:33,1500,The main experiment item,yes,FlankerTask.osexp,C:/Users/olasa/OneDrive/Desktop,no,mono,no,18,no,white,no,yes,768,legacy,1,1,C:/Users/olasa/OneDrive/Desktop/OL-subject-1.csv,legacy,Lentiform Loewenfeld,3.3.12,0,h,space,NA,NA,NA,NA,NA,h,NA,NA,692,1235,NA,NA,NA,NA,NA,692,NA,NA,NA,NA,2,legacy,1024,2,48000,-16,experiment,SSHSS,1,odd,3515,NA,NA,2276,5232,2272,NA,NA,6785,NA,NA,NA,NA,5733,6887,7580,NA,6783,NA,6887,NA,Flanker Task,1,2192,2,yes,1024
66.66666667,66.66666667,932.6666667,932.6666667,black,legacy,legacy,legacy,0,incongruent,uniform,1,undefined,1,s,0,0,0,0,2,0,2,0,2,NA,0,NA,0,2,2,2,NA,2,NA,2,NA,9/18/2022 22:33,1500,The main experiment item,yes,FlankerTask.osexp,C:/Users/olasa/OneDrive/Desktop,no,mono,no,18,no,white,no,yes,768,legacy,2,2,C:/Users/olasa/OneDrive/Desktop/OL-subject-1.csv,legacy,Lentiform Loewenfeld,3.3.12,0,s,space,NA,NA,NA,NA,NA,s,NA,NA,606,1235,NA,NA,NA,NA,NA,606,NA,NA,NA,NA,2,legacy,1024,2,48000,-16,experiment,HHSHH,1,odd,3515,NA,NA,2276,5232,2272,NA,NA,8637,NA,NA,NA,NA,7588,8738,9346,NA,8635,NA,8738,NA,Flanker Task,2,2798,3,yes,1024
50,50,794.25,794.25,black,legacy,legacy,legacy,0,incongruent,uniform,0,undefined,0,h,0,0,0,0,3,0,3,0,3,NA,0,NA,0,3,3,3,NA,3,NA,3,NA,9/18/2022 22:33,1500,The main experiment item,yes,FlankerTask.osexp,C:/Users/olasa/OneDrive/Desktop,no,mono,no,18,no,white,no,yes,768,legacy,3,3,C:/Users/olasa/OneDrive/Desktop/OL-subject-1.csv,legacy,Lentiform Loewenfeld,3.3.12,0,s,space,NA,NA,NA,NA,NA,s,NA,NA,379,1235,NA,NA,NA,NA,NA,379,NA,NA,NA,NA,2,legacy,1024,2,48000,-16,experiment,SSHSS,1,odd,3515,NA,NA,2276,5232,2272,NA,NA,10421,NA,NA,NA,NA,9357,10523,10903,NA,10417,NA,10522,NA,Flanker Task,2,3177,4,yes,1024
40,40,725.8,725.8,black,legacy,legacy,legacy,0,incongruent,uniform,0,undefined,0,h,0,0,0,0,4,0,4,0,4,NA,0,NA,0,4,4,4,NA,4,NA,4,NA,9/18/2022 22:33,1500,The main experiment item,yes,FlankerTask.osexp,C:/Users/olasa/OneDrive/Desktop,no,mono,no,18,no,white,no,yes,768,legacy,4,4,C:/Users/olasa/OneDrive/Desktop/OL-subject-1.csv,legacy,Lentiform Loewenfeld,3.3.12,0,s,space,NA,NA,NA,NA,NA,s,NA,NA,452,1235,NA,NA,NA,NA,NA,452,NA,NA,NA,NA,2,legacy,1024,2,48000,-16,experiment,SSHSS,1,odd,3515,NA,NA,2276,10911,2272,NA,NA,12474,NA,NA,NA,NA,11412,12575,13028,NA,12471,NA,12575,NA,Flanker Task,2,3629,5,yes,1024
33.33333333,33.33333333,681.6666667,681.6666667,black,legacy,legacy,legacy,0,incongruent,uniform,0,undefined,0,s,0,0,0,0,5,0,5,0,5,NA,0,NA,0,5,5,5,NA,5,NA,5,NA,9/18/2022 22:33,1500,The main experiment item,yes,FlankerTask.osexp,C:/Users/olasa/OneDrive/Desktop,no,mono,no,18,no,white,no,yes,768,legacy,5,5,C:/Users/olasa/OneDrive/Desktop/OL-subject-1.csv,legacy,Lentiform Loewenfeld,3.3.12,0,h,space,NA,NA,NA,NA,NA,h,NA,NA,461,1235,NA,NA,NA,NA,NA,461,NA,NA,NA,NA,2,legacy,1024,2,48000,-16,experiment,HHSHH,1,odd,3515,NA,NA,2276,13056,2272,NA,NA,14615,NA,NA,NA,NA,13557,14716,15177,NA,14612,NA,14716,NA,Flanker Task,2,4090,6,yes,1024
42.85714286,42.85714286,640,640,black,legacy,legacy,legacy,0,congruent,uniform,1,undefined,1,h,0,0,0,0,6,0,6,0,6,NA,0,NA,0,6,6,6,NA,6,NA,6,NA,9/18/2022 22:33,1500,The main experiment item,yes,FlankerTask.osexp,C:/Users/olasa/OneDrive/Desktop,no,mono,no,18,no,white,no,yes,768,legacy,6,6,C:/Users/olasa/OneDrive/Desktop/OL-subject-1.csv,legacy,Lentiform Loewenfeld,3.3.12,0,h,space,NA,NA,NA,NA,NA,h,NA,NA,390,1235,NA,NA,NA,NA,NA,390,NA,NA,NA,NA,2,legacy,1024,2,48000,-16,experiment,HHHHH,1,odd,3515,NA,NA,2276,15186,2272,NA,NA,16736,NA,NA,NA,NA,15688,16837,17227,NA,16734,NA,16837,NA,Flanker Task,3,4480,7,yes,1024
50,50,612.5,612.5,black,legacy,legacy,legacy,0,congruent,uniform,1,undefined,1,h,0,0,0,0,7,0,7,0,7,NA,0,NA,0,7,7,7,NA,7,NA,7,NA,9/18/2022 22:33,1500,The main experiment item,yes,FlankerTask.osexp,C:/Users/olasa/OneDrive/Desktop,no,mono,no,18,no,white,no,yes,768,legacy,7,7,C:/Users/olasa/OneDrive/Desktop/OL-subject-1.csv,legacy,Lentiform Loewenfeld,3.3.12,0,h,space,NA,NA,NA,NA,NA,h,NA,NA,420,1235,NA,NA,NA,NA,NA,420,NA,NA,NA,NA,2,legacy,1024,2,48000,-16,experiment,HHHHH,1,odd,3515,NA,NA,2276,15186,2272,NA,NA,18281,NA,NA,NA,NA,17236,18383,18804,NA,18279,NA,18383,NA,Flanker Task,4,4900,8,yes,1024
55.55555556,55.55555556,562.3333333,562.3333333,black,legacy,legacy,legacy,0,congruent,uniform,1,undefined,1,h,0,0,0,0,8,0,8,0,8,NA,0,NA,0,8,8,8,NA,8,NA,8,NA,9/18/2022 22:33,1500,The main experiment item,yes,FlankerTask.osexp,C:/Users/olasa/OneDrive/Desktop,no,mono,no,18,no,white,no,yes,768,legacy,8,8,C:/Users/olasa/OneDrive/Desktop/OL-subject-1.csv,legacy,Lentiform Loewenfeld,3.3.12,0,h,space,NA,NA,NA,NA,NA,h,NA,NA,161,1235,NA,NA,NA,NA,NA,161,NA,NA,NA,NA,2,legacy,1024,2,48000,-16,experiment,HHHHH,1,odd,3515,NA,NA,2276,15186,2272,NA,NA,19862,NA,NA,NA,NA,18813,19963,20125,NA,19859,NA,19963,NA,Flanker Task,5,5061,9,yes,1024
50,50,519.9,519.9,black,legacy,legacy,legacy,0,incongruent,uniform,0,undefined,0,s,0,0,0,0,9,0,9,0,9,NA,0,NA,0,9,9,9,NA,9,NA,9,NA,9/18/2022 22:33,1500,The main experiment item,yes,FlankerTask.osexp,C:/Users/olasa/OneDrive/Desktop,no,mono,no,18,no,white,no,yes,768,legacy,9,9,C:/Users/olasa/OneDrive/Desktop/OL-subject-1.csv,legacy,Lentiform Loewenfeld,3.3.12,0,h,space,NA,NA,NA,NA,NA,h,NA,NA,138,1235,NA,NA,NA,NA,NA,138,NA,NA,NA,NA,2,legacy,1024,2,48000,-16,experiment,HHSHH,1,odd,3515,NA,NA,2276,15186,2272,NA,NA,21201,NA,NA,NA,NA,20154,21303,21442,NA,21199,NA,21303,NA,Flanker Task,5,5199,10,yes,1024
54.54545455,54.54545455,486.2727273,486.2727273,black,legacy,legacy,legacy,0,congruent,uniform,1,undefined,1,s,0,0,0,0,10,0,10,0,10,NA,0,NA,0,10,10,10,NA,10,NA,10,NA,9/18/2022 22:33,1500,The main experiment item,yes,FlankerTask.osexp,C:/Users/olasa/OneDrive/Desktop,no,mono,no,18,no,white,no,yes,768,legacy,10,10,C:/Users/olasa/OneDrive/Desktop/OL-subject-1.csv,legacy,Lentiform Loewenfeld,3.3.12,0,s,space,NA,NA,NA,NA,NA,s,NA,NA,150,1235,NA,NA,NA,NA,NA,150,NA,NA,NA,NA,2,legacy,1024,2,48000,-16,experiment,SSSSS,1,odd,3515,NA,NA,2276,21451,2272,NA,NA,23006,NA,NA,NA,NA,21952,23107,23258,NA,23003,NA,23107,NA,Flanker Task,6,5349,11,yes,1024
50,50,472.5,472.5,black,legacy,legacy,legacy,0,incongruent,uniform,0,undefined,0,h,0,0,0,0,11,0,11,0,11,NA,0,NA,0,11,11,11,NA,11,NA,11,NA,9/18/2022 22:33,1500,The main experiment item,yes,FlankerTask.osexp,C:/Users/olasa/OneDrive/Desktop,no,mono,no,18,no,white,no,yes,768,legacy,11,11,C:/Users/olasa/OneDrive/Desktop/OL-subject-1.csv,legacy,Lentiform Loewenfeld,3.3.12,0,s,space,NA,NA,NA,NA,NA,s,NA,NA,321,1235,NA,NA,NA,NA,NA,321,NA,NA,NA,NA,2,legacy,1024,2,48000,-16,experiment,SSHSS,1,odd,3515,NA,NA,2276,21451,2272,NA,NA,24315,NA,NA,NA,NA,23267,24417,24739,NA,24313,NA,24416,NA,Flanker Task,6,5670,12,yes,1024
53.84615385,53.84615385,477.1538462,477.1538462,black,legacy,legacy,legacy,0,incongruent,uniform,1,undefined,1,s,0,0,0,0,12,0,12,0,12,NA,0,NA,0,12,12,12,NA,12,NA,12,NA,9/18/2022 22:33,1500,The main experiment item,yes,FlankerTask.osexp,C:/Users/olasa/OneDrive/Desktop,no,mono,no,18,no,white,no,yes,768,legacy,12,12,C:/Users/olasa/OneDrive/Desktop/OL-subject-1.csv,legacy,Lentiform Loewenfeld,3.3.12,0,s,space,NA,NA,NA,NA,NA,s,NA,NA,533,1235,NA,NA,NA,NA,NA,533,NA,NA,NA,NA,2,legacy,1024,2,48000,-16,experiment,HHSHH,1,odd,3515,NA,NA,2276,24746,2272,NA,NA,26294,NA,NA,NA,NA,25248,26395,26929,NA,26293,NA,26395,NA,Flanker Task,7,6203,13,yes,1024
57.14285714,57.14285714,477.8571429,477.8571429,black,legacy,legacy,legacy,0,congruent,uniform,1,undefined,1,s,0,0,0,0,13,0,13,0,13,NA,0,NA,0,13,13,13,NA,13,NA,13,NA,9/18/2022 22:33,1500,The main experiment item,yes,FlankerTask.osexp,C:/Users/olasa/OneDrive/Desktop,no,mono,no,18,no,white,no,yes,768,legacy,13,13,C:/Users/olasa/OneDrive/Desktop/OL-subject-1.csv,legacy,Lentiform Loewenfeld,3.3.12,0,s,space,NA,NA,NA,NA,NA,s,NA,NA,487,1235,NA,NA,NA,NA,NA,487,NA,NA,NA,NA,2,legacy,1024,2,48000,-16,experiment,SSSSS,1,odd,3515,NA,NA,2276,24746,2272,NA,NA,28007,NA,NA,NA,NA,26957,28108,28596,NA,28003,NA,28108,NA,Flanker Task,8,6690,14,yes,1024
53.33333333,53.33333333,470.8,470.8,black,legacy,legacy,legacy,0,incongruent,uniform,0,undefined,0,s,0,0,0,0,14,0,14,0,14,NA,0,NA,0,14,14,14,NA,14,NA,14,NA,9/18/2022 22:33,1500,The main experiment item,yes,FlankerTask.osexp,C:/Users/olasa/OneDrive/Desktop,no,mono,no,18,no,white,no,yes,768,legacy,14,14,C:/Users/olasa/OneDrive/Desktop/OL-subject-1.csv,legacy,Lentiform Loewenfeld,3.3.12,0,h,space,NA,NA,NA,NA,NA,h,NA,NA,372,1235,NA,NA,NA,NA,NA,372,NA,NA,NA,NA,2,legacy,1024,2,48000,-16,experiment,HHSHH,1,odd,3515,NA,NA,2276,24746,2272,NA,NA,29651,NA,NA,NA,NA,28604,29753,30127,NA,29648,NA,29753,NA,Flanker Task,8,7062,15,yes,1024
56.25,56.25,476.5,476.5,black,legacy,legacy,legacy,0,incongruent,uniform,1,undefined,1,s,0,0,0,0,15,0,15,0,15,NA,0,NA,0,15,15,15,NA,15,NA,15,NA,9/18/2022 22:33,1500,The main experiment item,yes,FlankerTask.osexp,C:/Users/olasa/OneDrive/Desktop,no,mono,no,18,no,white,no,yes,768,legacy,15,15,C:/Users/olasa/OneDrive/Desktop/OL-subject-1.csv,legacy,Lentiform Loewenfeld,3.3.12,0,s,space,NA,NA,NA,NA,NA,s,NA,NA,562,1235,NA,NA,NA,NA,NA,562,NA,NA,NA,NA,2,legacy,1024,2,48000,-16,experiment,HHSHH,1,odd,3515,NA,NA,2276,30156,2272,NA,NA,31706,NA,NA,NA,NA,30657,31808,32371,NA,31703,NA,31808,NA,Flanker Task,9,7624,16,yes,1024
58.82352941,58.82352941,477.5294118,477.5294118,black,legacy,legacy,legacy,0,incongruent,uniform,1,undefined,1,h,0,0,0,0,16,0,16,0,16,NA,0,NA,0,16,16,16,NA,16,NA,16,NA,9/18/2022 22:33,1500,The main experiment item,yes,FlankerTask.osexp,C:/Users/olasa/OneDrive/Desktop,no,mono,no,18,no,white,no,yes,768,legacy,16,16,C:/Users/olasa/OneDrive/Desktop/OL-subject-1.csv,legacy,Lentiform Loewenfeld,3.3.12,0,h,space,NA,NA,NA,NA,NA,h,NA,NA,494,1235,NA,NA,NA,NA,NA,494,NA,NA,NA,NA,2,legacy,1024,2,48000,-16,experiment,SSHSS,1,odd,3515,NA,NA,2276,30156,2272,NA,NA,33442,NA,NA,NA,NA,32379,33544,34038,NA,33438,NA,33544,NA,Flanker Task,10,8118,17,yes,1024
61.11111111,61.11111111,480.5555556,480.5555556,black,legacy,legacy,legacy,0,congruent,uniform,1,undefined,1,s,0,0,0,0,17,0,17,0,17,NA,0,NA,0,17,17,17,NA,17,NA,17,NA,9/18/2022 22:33,1500,The main experiment item,yes,FlankerTask.osexp,C:/Users/olasa/OneDrive/Desktop,no,mono,no,18,no,white,no,yes,768,legacy,17,17,C:/Users/olasa/OneDrive/Desktop/OL-subject-1.csv,legacy,Lentiform Loewenfeld,3.3.12,0,s,space,NA,NA,NA,NA,NA,s,NA,NA,532,1235,NA,NA,NA,NA,NA,532,NA,NA,NA,NA,2,legacy,1024,2,48000,-16,experiment,SSSSS,1,odd,3515,NA,NA,2276,30156,2272,NA,NA,35097,NA,NA,NA,NA,34047,35199,35731,NA,35095,NA,35199,NA,Flanker Task,11,8650,18,yes,1024
63.15789474,63.15789474,480.6315789,480.6315789,black,legacy,legacy,legacy,0,congruent,uniform,1,undefined,1,h,0,0,0,0,18,0,18,0,18,NA,0,NA,0,18,18,18,NA,18,NA,18,NA,9/18/2022 22:33,1500,The main experiment item,yes,FlankerTask.osexp,C:/Users/olasa/OneDrive/Desktop,no,mono,no,18,no,white,no,yes,768,legacy,18,18,C:/Users/olasa/OneDrive/Desktop/OL-subject-1.csv,legacy,Lentiform Loewenfeld,3.3.12,0,h,space,NA,NA,NA,NA,NA,h,NA,NA,482,1235,NA,NA,NA,NA,NA,482,NA,NA,NA,NA,2,legacy,1024,2,48000,-16,experiment,HHHHH,1,odd,3515,NA,NA,2276,30156,2272,NA,NA,36801,NA,NA,NA,NA,35740,36903,37386,NA,36798,NA,36903,NA,Flanker Task,12,9132,19,yes,1024
65,65,472.2,472.2,black,legacy,legacy,legacy,0,congruent,uniform,1,undefined,1,s,0,0,0,0,19,0,19,0,19,NA,0,NA,0,19,19,19,NA,19,NA,19,NA,9/18/2022 22:33,1500,The main experiment item,yes,FlankerTask.osexp,C:/Users/olasa/OneDrive/Desktop,no,mono,no,18,no,white,no,yes,768,legacy,19,19,C:/Users/olasa/OneDrive/Desktop/OL-subject-1.csv,legacy,Lentiform Loewenfeld,3.3.12,0,s,space,NA,NA,NA,NA,NA,s,NA,NA,312,1235,NA,NA,NA,NA,NA,312,NA,NA,NA,NA,2,legacy,1024,2,48000,-16,experiment,SSSSS,1,odd,3515,NA,NA,2276,30156,2272,NA,NA,38439,NA,NA,NA,NA,37392,38541,38855,NA,38438,NA,38541,NA,Flanker Task,13,9444,20,yes,1024
66.66666667,66.66666667,472.3809524,472.3809524,black,legacy,legacy,legacy,0,congruent,uniform,1,undefined,1,h,0,0,0,0,20,0,20,0,20,NA,0,NA,0,20,20,20,NA,20,NA,20,NA,9/18/2022 22:33,1500,The main experiment item,yes,FlankerTask.osexp,C:/Users/olasa/OneDrive/Desktop,no,mono,no,18,no,white,no,yes,768,legacy,20,20,C:/Users/olasa/OneDrive/Desktop/OL-subject-1.csv,legacy,Lentiform Loewenfeld,3.3.12,0,h,space,NA,NA,NA,NA,NA,h,NA,NA,476,1235,NA,NA,NA,NA,NA,476,NA,NA,NA,NA,2,legacy,1024,2,48000,-16,experiment,HHHHH,1,odd,3515,NA,NA,2276,30156,2272,NA,NA,39934,NA,NA,NA,NA,38884,40039,40516,NA,39930,NA,40039,NA,Flanker Task,14,9920,21,yes,1024
63.63636364,63.63636364,465.9090909,465.9090909,black,legacy,legacy,legacy,0,incongruent,uniform,0,undefined,0,h,0,0,0,0,21,0,21,0,21,NA,0,NA,0,21,21,21,NA,21,NA,21,NA,9/18/2022 22:33,1500,The main experiment item,yes,FlankerTask.osexp,C:/Users/olasa/OneDrive/Desktop,no,mono,no,18,no,white,no,yes,768,legacy,21,21,C:/Users/olasa/OneDrive/Desktop/OL-subject-1.csv,legacy,Lentiform Loewenfeld,3.3.12,0,s,space,NA,NA,NA,NA,NA,s,NA,NA,330,1235,NA,NA,NA,NA,NA,330,NA,NA,NA,NA,2,legacy,1024,2,48000,-16,experiment,SSHSS,1,odd,3515,NA,NA,2276,30156,2272,NA,NA,41571,NA,NA,NA,NA,40525,41672,42002,NA,41569,NA,41672,NA,Flanker Task,14,10250,22,yes,1024
65.2173913,65.2173913,467.3913043,467.3913043,black,legacy,legacy,legacy,0,congruent,uniform,1,undefined,1,s,0,0,0,0,22,0,22,0,22,NA,0,NA,0,22,22,22,NA,22,NA,22,NA,9/18/2022 22:33,1500,The main experiment item,yes,FlankerTask.osexp,C:/Users/olasa/OneDrive/Desktop,no,mono,no,18,no,white,no,yes,768,legacy,22,22,C:/Users/olasa/OneDrive/Desktop/OL-subject-1.csv,legacy,Lentiform Loewenfeld,3.3.12,0,s,space,NA,NA,NA,NA,NA,s,NA,NA,500,1235,NA,NA,NA,NA,NA,500,NA,NA,NA,NA,2,legacy,1024,2,48000,-16,experiment,SSSSS,1,odd,3515,NA,NA,2276,42031,2272,NA,NA,43587,NA,NA,NA,NA,42533,43690,44191,NA,43585,NA,43690,NA,Flanker Task,15,10750,23,yes,1024
66.66666667,66.66666667,461.1666667,461.1666667,black,legacy,legacy,legacy,0,incongruent,uniform,1,undefined,1,h,0,0,0,0,23,0,23,0,23,NA,0,NA,0,23,23,23,NA,23,NA,23,NA,9/18/2022 22:33,1500,The main experiment item,yes,FlankerTask.osexp,C:/Users/olasa/OneDrive/Desktop,no,mono,no,18,no,white,no,yes,768,legacy,23,23,C:/Users/olasa/OneDrive/Desktop/OL-subject-1.csv,legacy,Lentiform Loewenfeld,3.3.12,0,h,space,NA,NA,NA,NA,NA,h,NA,NA,318,1235,NA,NA,NA,NA,NA,318,NA,NA,NA,NA,2,legacy,1024,2,48000,-16,experiment,SSHSS,1,odd,3515,NA,NA,2276,42031,2272,NA,NA,45255,NA,NA,NA,NA,44200,45356,45676,NA,45252,NA,45356,NA,Flanker Task,16,11068,24,yes,1024
68,68,453.8,453.8,black,legacy,legacy,legacy,0,congruent,uniform,1,undefined,1,s,0,0,0,0,24,0,24,0,24,NA,0,NA,0,24,24,24,NA,24,NA,24,NA,9/18/2022 22:33,1500,The main experiment item,yes,FlankerTask.osexp,C:/Users/olasa/OneDrive/Desktop,no,mono,no,18,no,white,no,yes,768,legacy,24,24,C:/Users/olasa/OneDrive/Desktop/OL-subject-1.csv,legacy,Lentiform Loewenfeld,3.3.12,0,s,space,NA,NA,NA,NA,NA,s,NA,NA,277,1235,NA,NA,NA,NA,NA,277,NA,NA,NA,NA,2,legacy,1024,2,48000,-16,experiment,SSSSS,1,odd,3515,NA,NA,2276,42031,2272,NA,NA,46731,NA,NA,NA,NA,45685,46833,47112,NA,46729,NA,46832,NA,Flanker Task,17,11345,25,yes,1024
69.23076923,69.23076923,455.3846154,455.3846154,black,legacy,legacy,legacy,0,congruent,uniform,1,undefined,1,h,0,0,0,0,25,0,25,0,25,NA,0,NA,0,25,25,25,NA,25,NA,25,NA,9/18/2022 22:33,1500,The main experiment item,yes,FlankerTask.osexp,C:/Users/olasa/OneDrive/Desktop,no,mono,no,18,no,white,no,yes,768,legacy,25,25,C:/Users/olasa/OneDrive/Desktop/OL-subject-1.csv,legacy,Lentiform Loewenfeld,3.3.12,0,h,space,NA,NA,NA,NA,NA,h,NA,NA,495,1235,NA,NA,NA,NA,NA,495,NA,NA,NA,NA,2,legacy,1024,2,48000,-16,experiment,HHHHH,1,odd,3515,NA,NA,2276,42031,2272,NA,NA,48173,NA,NA,NA,NA,47120,48275,48771,NA,48170,NA,48275,NA,Flanker Task,18,11840,26,yes,1024
66.66666667,66.66666667,449.962963,449.962963,black,legacy,legacy,legacy,0,congruent,uniform,0,undefined,0,s,0,0,0,0,26,0,26,0,26,NA,0,NA,0,26,26,26,NA,26,NA,26,NA,9/18/2022 22:33,1500,The main experiment item,yes,FlankerTask.osexp,C:/Users/olasa/OneDrive/Desktop,no,mono,no,18,no,white,no,yes,768,legacy,26,26,C:/Users/olasa/OneDrive/Desktop/OL-subject-1.csv,legacy,Lentiform Loewenfeld,3.3.12,0,h,space,NA,NA,NA,NA,NA,h,NA,NA,309,1235,NA,NA,NA,NA,NA,309,NA,NA,NA,NA,2,legacy,1024,2,48000,-16,experiment,SSSSS,1,odd,3515,NA,NA,2276,42031,2272,NA,NA,49827,NA,NA,NA,NA,48780,49928,50239,NA,49825,NA,49928,NA,Flanker Task,18,12149,27,yes,1024
67.85714286,67.85714286,448.4285714,448.4285714,black,legacy,legacy,legacy,0,incongruent,uniform,1,undefined,1,s,0,0,0,0,27,0,27,0,27,NA,0,NA,0,27,27,27,NA,27,NA,27,NA,9/18/2022 22:33,1500,The main experiment item,yes,FlankerTask.osexp,C:/Users/olasa/OneDrive/Desktop,no,mono,no,18,no,white,no,yes,768,legacy,27,27,C:/Users/olasa/OneDrive/Desktop/OL-subject-1.csv,legacy,Lentiform Loewenfeld,3.3.12,0,s,space,NA,NA,NA,NA,NA,s,NA,NA,407,1235,NA,NA,NA,NA,NA,407,NA,NA,NA,NA,2,legacy,1024,2,48000,-16,experiment,HHSHH,1,odd,3515,NA,NA,2276,50248,2272,NA,NA,51799,NA,NA,NA,NA,50749,51900,52308,NA,51795,NA,51900,NA,Flanker Task,19,12556,28,yes,1024
68.96551724,68.96551724,447.6551724,447.6551724,black,legacy,legacy,legacy,0,congruent,uniform,1,undefined,1,h,0,0,0,0,28,0,28,0,28,NA,0,NA,0,28,28,28,NA,28,NA,28,NA,9/18/2022 22:33,1500,The main experiment item,yes,FlankerTask.osexp,C:/Users/olasa/OneDrive/Desktop,no,mono,no,18,no,white,no,yes,768,legacy,28,28,C:/Users/olasa/OneDrive/Desktop/OL-subject-1.csv,legacy,Lentiform Loewenfeld,3.3.12,0,h,space,NA,NA,NA,NA,NA,h,NA,NA,426,1235,NA,NA,NA,NA,NA,426,NA,NA,NA,NA,2,legacy,1024,2,48000,-16,experiment,HHHHH,1,odd,3515,NA,NA,2276,50248,2272,NA,NA,53363,NA,NA,NA,NA,52317,53469,53897,NA,53361,NA,53468,NA,Flanker Task,20,12982,29,yes,1024
70,70,438.6666667,438.6666667,black,legacy,legacy,legacy,0,incongruent,uniform,1,undefined,1,s,0,0,0,0,29,0,29,0,29,NA,0,NA,0,29,29,29,NA,29,NA,29,NA,9/18/2022 22:33,1500,The main experiment item,yes,FlankerTask.osexp,C:/Users/olasa/OneDrive/Desktop,no,mono,no,18,no,white,no,yes,768,legacy,29,29,C:/Users/olasa/OneDrive/Desktop/OL-subject-1.csv,legacy,Lentiform Loewenfeld,3.3.12,0,s,space,NA,NA,NA,NA,NA,s,NA,NA,178,1235,NA,NA,NA,NA,NA,178,NA,NA,NA,NA,2,legacy,1024,2,48000,-16,experiment,HHSHH,1,odd,3515,NA,NA,2276,50248,2272,NA,NA,54960,NA,NA,NA,NA,53907,55062,55241,NA,54958,NA,55062,NA,Flanker Task,21,13160,30,yes,1024
67.74193548,67.74193548,432.2903226,432.2903226,black,legacy,legacy,legacy,0,incongruent,uniform,0,undefined,0,s,0,0,0,0,30,0,30,0,30,NA,0,NA,0,30,30,30,NA,30,NA,30,NA,9/18/2022 22:33,1500,The main experiment item,yes,FlankerTask.osexp,C:/Users/olasa/OneDrive/Desktop,no,mono,no,18,no,white,no,yes,768,legacy,30,30,C:/Users/olasa/OneDrive/Desktop/OL-subject-1.csv,legacy,Lentiform Loewenfeld,3.3.12,0,h,space,NA,NA,NA,NA,NA,h,NA,NA,241,1235,NA,NA,NA,NA,NA,241,NA,NA,NA,NA,2,legacy,1024,2,48000,-16,experiment,HHSHH,1,odd,3515,NA,NA,2276,50248,2272,NA,NA,56315,NA,NA,NA,NA,55269,56417,56659,NA,56314,NA,56417,NA,Flanker Task,21,13401,31,yes,1024
68.75,68.75,429.6875,429.6875,black,legacy,legacy,legacy,0,congruent,uniform,1,undefined,1,s,0,0,0,0,31,0,31,0,31,NA,0,NA,0,31,31,31,NA,31,NA,31,NA,9/18/2022 22:33,1500,The main experiment item,yes,FlankerTask.osexp,C:/Users/olasa/OneDrive/Desktop,no,mono,no,18,no,white,no,yes,768,legacy,31,31,C:/Users/olasa/OneDrive/Desktop/OL-subject-1.csv,legacy,Lentiform Loewenfeld,3.3.12,0,s,space,NA,NA,NA,NA,NA,s,NA,NA,349,1235,NA,NA,NA,NA,NA,349,NA,NA,NA,NA,2,legacy,1024,2,48000,-16,experiment,SSSSS,1,odd,3515,NA,NA,2276,56668,2272,NA,NA,58216,NA,NA,NA,NA,57169,58318,58668,NA,58214,NA,58318,NA,Flanker Task,22,13750,32,yes,1024
69.6969697,69.6969697,427.8787879,427.8787879,black,legacy,legacy,legacy,0,congruent,uniform,1,undefined,1,h,0,0,0,0,32,0,32,0,32,NA,0,NA,0,32,32,32,NA,32,NA,32,NA,9/18/2022 22:33,1500,The main experiment item,yes,FlankerTask.osexp,C:/Users/olasa/OneDrive/Desktop,no,mono,no,18,no,white,no,yes,768,legacy,32,32,C:/Users/olasa/OneDrive/Desktop/OL-subject-1.csv,legacy,Lentiform Loewenfeld,3.3.12,0,h,space,NA,NA,NA,NA,NA,h,NA,NA,370,1235,NA,NA,NA,NA,NA,370,NA,NA,NA,NA,2,legacy,1024,2,48000,-16,experiment,HHHHH,1,odd,3515,NA,NA,2276,56668,2272,NA,NA,59726,NA,NA,NA,NA,58676,59827,60198,NA,59724,NA,59827,NA,Flanker Task,23,14120,33,yes,1024
67.64705882,67.64705882,435.2352941,435.2352941,black,legacy,legacy,legacy,0,incongruent,uniform,0,undefined,0,h,0,0,0,0,33,0,33,0,33,NA,0,NA,0,33,33,33,NA,33,NA,33,NA,9/18/2022 22:33,1500,The main experiment item,yes,FlankerTask.osexp,C:/Users/olasa/OneDrive/Desktop,no,mono,no,18,no,white,no,yes,768,legacy,33,33,C:/Users/olasa/OneDrive/Desktop/OL-subject-1.csv,legacy,Lentiform Loewenfeld,3.3.12,0,s,space,NA,NA,NA,NA,NA,s,NA,NA,678,1235,NA,NA,NA,NA,NA,678,NA,NA,NA,NA,2,legacy,1024,2,48000,-16,experiment,SSHSS,1,odd,3515,NA,NA,2276,56668,2272,NA,NA,61253,NA,NA,NA,NA,60206,61355,62034,NA,61251,NA,61355,NA,Flanker Task,23,14798,34,yes,1024
65.71428571,65.71428571,428.6571429,428.6571429,black,legacy,legacy,legacy,0,congruent,uniform,0,undefined,0,s,0,0,0,0,34,0,34,0,34,NA,0,NA,0,34,34,34,NA,34,NA,34,NA,9/18/2022 22:33,1500,The main experiment item,yes,FlankerTask.osexp,C:/Users/olasa/OneDrive/Desktop,no,mono,no,18,no,white,no,yes,768,legacy,34,34,C:/Users/olasa/OneDrive/Desktop/OL-subject-1.csv,legacy,Lentiform Loewenfeld,3.3.12,0,h,space,NA,NA,NA,NA,NA,h,NA,NA,205,1235,NA,NA,NA,NA,NA,205,NA,NA,NA,NA,2,legacy,1024,2,48000,-16,experiment,SSSSS,1,odd,3515,NA,NA,2276,62042,2272,NA,NA,63589,NA,NA,NA,NA,62543,63691,63897,NA,63588,NA,63690,NA,Flanker Task,23,15003,35,yes,1024
63.88888889,63.88888889,421.0277778,421.0277778,black,legacy,legacy,legacy,0,incongruent,uniform,0,undefined,0,s,0,0,0,0,35,0,35,0,35,NA,0,NA,0,35,35,35,NA,35,NA,35,NA,9/18/2022 22:33,1500,The main experiment item,yes,FlankerTask.osexp,C:/Users/olasa/OneDrive/Desktop,no,mono,no,18,no,white,no,yes,768,legacy,35,35,C:/Users/olasa/OneDrive/Desktop/OL-subject-1.csv,legacy,Lentiform Loewenfeld,3.3.12,0,h,space,NA,NA,NA,NA,NA,h,NA,NA,154,1235,NA,NA,NA,NA,NA,154,NA,NA,NA,NA,2,legacy,1024,2,48000,-16,experiment,HHSHH,1,odd,3515,NA,NA,2276,63900,2272,NA,NA,65469,NA,NA,NA,NA,64401,65571,65726,NA,65467,NA,65571,NA,Flanker Task,23,15157,36,yes,1024
64.86486486,64.86486486,418.2972973,418.2972973,black,legacy,legacy,legacy,0,congruent,uniform,1,undefined,1,h,0,0,0,0,36,0,36,0,36,NA,0,NA,0,36,36,36,NA,36,NA,36,NA,9/18/2022 22:33,1500,The main experiment item,yes,FlankerTask.osexp,C:/Users/olasa/OneDrive/Desktop,no,mono,no,18,no,white,no,yes,768,legacy,36,36,C:/Users/olasa/OneDrive/Desktop/OL-subject-1.csv,legacy,Lentiform Loewenfeld,3.3.12,0,h,space,NA,NA,NA,NA,NA,h,NA,NA,320,1235,NA,NA,NA,NA,NA,320,NA,NA,NA,NA,2,legacy,1024,2,48000,-16,experiment,HHHHH,1,odd,3515,NA,NA,2276,65737,2272,NA,NA,67283,NA,NA,NA,NA,66238,67384,67705,NA,67282,NA,67384,NA,Flanker Task,24,15477,37,yes,1024
63.15789474,63.15789474,413.7894737,413.7894737,black,legacy,legacy,legacy,0,congruent,uniform,0,undefined,0,s,0,0,0,0,37,0,37,0,37,NA,0,NA,0,37,37,37,NA,37,NA,37,NA,9/18/2022 22:33,1500,The main experiment item,yes,FlankerTask.osexp,C:/Users/olasa/OneDrive/Desktop,no,mono,no,18,no,white,no,yes,768,legacy,37,37,C:/Users/olasa/OneDrive/Desktop/OL-subject-1.csv,legacy,Lentiform Loewenfeld,3.3.12,0,h,space,NA,NA,NA,NA,NA,h,NA,NA,247,1235,NA,NA,NA,NA,NA,247,NA,NA,NA,NA,2,legacy,1024,2,48000,-16,experiment,SSSSS,1,odd,3515,NA,NA,2276,65737,2272,NA,NA,68766,NA,NA,NA,NA,67713,68867,69116,NA,68760,NA,68867,NA,Flanker Task,24,15724,38,yes,1024
64.1025641,64.1025641,415.5128205,415.5128205,black,legacy,legacy,legacy,0,incongruent,uniform,1,undefined,1,s,0,0,0,0,38,0,38,0,38,NA,0,NA,0,38,38,38,NA,38,NA,38,NA,9/18/2022 22:33,1500,The main experiment item,yes,FlankerTask.osexp,C:/Users/olasa/OneDrive/Desktop,no,mono,no,18,no,white,no,yes,768,legacy,38,38,C:/Users/olasa/OneDrive/Desktop/OL-subject-1.csv,legacy,Lentiform Loewenfeld,3.3.12,0,s,space,NA,NA,NA,NA,NA,s,NA,NA,481,1235,NA,NA,NA,NA,NA,481,NA,NA,NA,NA,2,legacy,1024,2,48000,-16,experiment,HHSHH,1,odd,3515,NA,NA,2276,69145,2272,NA,NA,70693,NA,NA,NA,NA,69646,70795,71277,NA,70691,NA,70795,NA,Flanker Task,25,16205,39,yes,1024
62.5,62.5,413.925,413.925,black,legacy,legacy,legacy,0,incongruent,uniform,0,undefined,0,h,0,0,0,0,39,0,39,0,39,NA,0,NA,0,39,39,39,NA,39,NA,39,NA,9/18/2022 22:33,1500,The main experiment item,yes,FlankerTask.osexp,C:/Users/olasa/OneDrive/Desktop,no,mono,no,18,no,white,no,yes,768,legacy,39,39,C:/Users/olasa/OneDrive/Desktop/OL-subject-1.csv,legacy,Lentiform Loewenfeld,3.3.12,0,s,space,NA,NA,NA,NA,NA,s,NA,NA,352,1235,NA,NA,NA,NA,NA,352,NA,NA,NA,NA,2,legacy,1024,2,48000,-16,experiment,SSHSS,1,odd,3515,NA,NA,2276,69145,2272,NA,NA,72338,NA,NA,NA,NA,71285,72440,72794,NA,72336,NA,72439,NA,Flanker Task,25,16557,40,yes,1024
63.41463415,63.41463415,416.3658537,416.3658537,black,legacy,legacy,legacy,0,incongruent,uniform,1,undefined,1,s,0,0,0,0,40,0,40,0,40,NA,0,NA,0,40,40,40,NA,40,NA,40,NA,9/18/2022 22:33,1500,The main experiment item,yes,FlankerTask.osexp,C:/Users/olasa/OneDrive/Desktop,no,mono,no,18,no,white,no,yes,768,legacy,40,40,C:/Users/olasa/OneDrive/Desktop/OL-subject-1.csv,legacy,Lentiform Loewenfeld,3.3.12,0,s,space,NA,NA,NA,NA,NA,s,NA,NA,514,1235,NA,NA,NA,NA,NA,514,NA,NA,NA,NA,2,legacy,1024,2,48000,-16,experiment,HHSHH,1,odd,3515,NA,NA,2276,72802,2272,NA,NA,74354,NA,NA,NA,NA,73303,74456,74971,NA,74352,NA,74455,NA,Flanker Task,26,17071,41,yes,1024
64.28571429,64.28571429,416.7142857,416.7142857,black,legacy,legacy,legacy,0,congruent,uniform,1,undefined,1,h,0,0,0,0,41,0,41,0,41,NA,0,NA,0,41,41,41,NA,41,NA,41,NA,9/18/2022 22:33,1500,The main experiment item,yes,FlankerTask.osexp,C:/Users/olasa/OneDrive/Desktop,no,mono,no,18,no,white,no,yes,768,legacy,41,41,C:/Users/olasa/OneDrive/Desktop/OL-subject-1.csv,legacy,Lentiform Loewenfeld,3.3.12,0,h,space,NA,NA,NA,NA,NA,h,NA,NA,431,1235,NA,NA,NA,NA,NA,431,NA,NA,NA,NA,2,legacy,1024,2,48000,-16,experiment,HHHHH,1,odd,3515,NA,NA,2276,72802,2272,NA,NA,76033,NA,NA,NA,NA,74979,76134,76565,NA,76031,NA,76134,NA,Flanker Task,27,17502,42,yes,1024
62.79069767,62.79069767,415.4883721,415.4883721,black,legacy,legacy,legacy,0,incongruent,uniform,0,undefined,0,h,0,0,0,0,42,0,42,0,42,NA,0,NA,0,42,42,42,NA,42,NA,42,NA,9/18/2022 22:33,1500,The main experiment item,yes,FlankerTask.osexp,C:/Users/olasa/OneDrive/Desktop,no,mono,no,18,no,white,no,yes,768,legacy,42,42,C:/Users/olasa/OneDrive/Desktop/OL-subject-1.csv,legacy,Lentiform Loewenfeld,3.3.12,0,s,space,NA,NA,NA,NA,NA,s,NA,NA,364,1235,NA,NA,NA,NA,NA,364,NA,NA,NA,NA,2,legacy,1024,2,48000,-16,experiment,SSHSS,1,odd,3515,NA,NA,2276,72802,2272,NA,NA,77621,NA,NA,NA,NA,76574,77722,78088,NA,77619,NA,77722,NA,Flanker Task,27,17866,43,yes,1024
63.63636364,63.63636364,422.6818182,422.6818182,black,legacy,legacy,legacy,0,incongruent,uniform,1,undefined,1,s,0,0,0,0,43,0,43,0,43,NA,0,NA,0,43,43,43,NA,43,NA,43,NA,9/18/2022 22:33,1500,The main experiment item,yes,FlankerTask.osexp,C:/Users/olasa/OneDrive/Desktop,no,mono,no,18,no,white,no,yes,768,legacy,43,43,C:/Users/olasa/OneDrive/Desktop/OL-subject-1.csv,legacy,Lentiform Loewenfeld,3.3.12,0,s,space,NA,NA,NA,NA,NA,s,NA,NA,732,1235,NA,NA,NA,NA,NA,732,NA,NA,NA,NA,2,legacy,1024,2,48000,-16,experiment,HHSHH,1,odd,3515,NA,NA,2276,78096,2272,NA,NA,79644,NA,NA,NA,NA,78597,79745,80478,NA,79643,NA,79745,NA,Flanker Task,28,18598,44,yes,1024
64.44444444,64.44444444,425,425,black,legacy,legacy,legacy,0,incongruent,uniform,1,undefined,1,h,0,0,0,0,44,0,44,0,44,NA,0,NA,0,44,44,44,NA,44,NA,44,NA,9/18/2022 22:33,1500,The main experiment item,yes,FlankerTask.osexp,C:/Users/olasa/OneDrive/Desktop,no,mono,no,18,no,white,no,yes,768,legacy,44,44,C:/Users/olasa/OneDrive/Desktop/OL-subject-1.csv,legacy,Lentiform Loewenfeld,3.3.12,0,h,space,NA,NA,NA,NA,NA,h,NA,NA,527,1235,NA,NA,NA,NA,NA,527,NA,NA,NA,NA,2,legacy,1024,2,48000,-16,experiment,SSHSS,1,odd,3515,NA,NA,2276,78096,2272,NA,NA,81534,NA,NA,NA,NA,80486,81635,82162,NA,81532,NA,81635,NA,Flanker Task,29,19125,45,yes,1024
65.2173913,65.2173913,427.4347826,427.4347826,black,legacy,legacy,legacy,0,congruent,uniform,1,undefined,1,s,0,0,0,0,45,0,45,0,45,NA,0,NA,0,45,45,45,NA,45,NA,45,NA,9/18/2022 22:33,1500,The main experiment item,yes,FlankerTask.osexp,C:/Users/olasa/OneDrive/Desktop,no,mono,no,18,no,white,no,yes,768,legacy,45,45,C:/Users/olasa/OneDrive/Desktop/OL-subject-1.csv,legacy,Lentiform Loewenfeld,3.3.12,0,s,space,NA,NA,NA,NA,NA,s,NA,NA,537,1235,NA,NA,NA,NA,NA,537,NA,NA,NA,NA,2,legacy,1024,2,48000,-16,experiment,SSSSS,1,odd,3515,NA,NA,2276,78096,2272,NA,NA,83219,NA,NA,NA,NA,82171,83321,83859,NA,83217,NA,83321,NA,Flanker Task,30,19662,46,yes,1024
65.95744681,65.95744681,427.7446809,427.7446809,black,legacy,legacy,legacy,0,congruent,uniform,1,undefined,1,s,0,0,0,0,46,0,46,0,46,NA,0,NA,0,46,46,46,NA,46,NA,46,NA,9/18/2022 22:33,1500,The main experiment item,yes,FlankerTask.osexp,C:/Users/olasa/OneDrive/Desktop,no,mono,no,18,no,white,no,yes,768,legacy,46,46,C:/Users/olasa/OneDrive/Desktop/OL-subject-1.csv,legacy,Lentiform Loewenfeld,3.3.12,0,s,space,NA,NA,NA,NA,NA,s,NA,NA,442,1235,NA,NA,NA,NA,NA,442,NA,NA,NA,NA,2,legacy,1024,2,48000,-16,experiment,SSSSS,1,odd,3515,NA,NA,2276,78096,2272,NA,NA,84941,NA,NA,NA,NA,83887,85042,85486,NA,84938,NA,85042,NA,Flanker Task,31,20104,47,yes,1024
66.66666667,66.66666667,426.8541667,426.8541667,black,legacy,legacy,legacy,0,congruent,uniform,1,undefined,1,h,0,0,0,0,47,0,47,0,47,NA,0,NA,0,47,47,47,NA,47,NA,47,NA,9/18/2022 22:33,1500,The main experiment item,yes,FlankerTask.osexp,C:/Users/olasa/OneDrive/Desktop,no,mono,no,18,no,white,no,yes,768,legacy,47,47,C:/Users/olasa/OneDrive/Desktop/OL-subject-1.csv,legacy,Lentiform Loewenfeld,3.3.12,0,h,space,NA,NA,NA,NA,NA,h,NA,NA,385,1235,NA,NA,NA,NA,NA,385,NA,NA,NA,NA,2,legacy,1024,2,48000,-16,experiment,HHHHH,1,odd,3515,NA,NA,2276,78096,2272,NA,NA,86545,NA,NA,NA,NA,85496,86646,87032,NA,86543,NA,86646,NA,Flanker Task,32,20489,48,yes,1024
67.34693878,67.34693878,430.2857143,430.2857143,black,legacy,legacy,legacy,0,congruent,uniform,1,undefined,1,s,0,0,0,0,48,0,48,0,48,NA,0,NA,0,48,48,48,NA,48,NA,48,NA,9/18/2022 22:33,1500,The main experiment item,yes,FlankerTask.osexp,C:/Users/olasa/OneDrive/Desktop,no,mono,no,18,no,white,no,yes,768,legacy,48,48,C:/Users/olasa/OneDrive/Desktop/OL-subject-1.csv,legacy,Lentiform Loewenfeld,3.3.12,0,s,space,NA,NA,NA,NA,NA,s,NA,NA,595,1235,NA,NA,NA,NA,NA,595,NA,NA,NA,NA,2,legacy,1024,2,48000,-16,experiment,SSSSS,1,odd,3515,NA,NA,2276,78096,2272,NA,NA,88107,NA,NA,NA,NA,87060,88209,88805,NA,88106,NA,88209,NA,Flanker Task,33,21084,49,yes,1024
68,68,433.38,433.38,black,legacy,legacy,legacy,0,congruent,uniform,1,undefined,1,h,0,0,0,0,49,0,49,0,49,NA,0,NA,0,49,49,49,NA,49,NA,49,NA,9/18/2022 22:33,1500,The main experiment item,yes,FlankerTask.osexp,C:/Users/olasa/OneDrive/Desktop,no,mono,no,18,no,white,no,yes,768,legacy,49,49,C:/Users/olasa/OneDrive/Desktop/OL-subject-1.csv,legacy,Lentiform Loewenfeld,3.3.12,0,h,space,NA,NA,NA,NA,NA,h,NA,NA,585,1235,NA,NA,NA,NA,NA,585,NA,NA,NA,NA,2,legacy,1024,2,48000,-16,experiment,HHHHH,1,odd,3515,NA,NA,2276,78096,2272,NA,NA,89860,NA,NA,NA,NA,88814,89961,90547,NA,89858,NA,89961,NA,Flanker Task,34,21669,50,yes,1024
68.62745098,68.62745098,438.372549,438.372549,black,legacy,legacy,legacy,0,incongruent,uniform,1,undefined,1,h,0,0,0,0,50,0,50,0,50,NA,0,NA,0,50,50,50,NA,50,NA,50,NA,9/18/2022 22:33,1500,The main experiment item,yes,FlankerTask.osexp,C:/Users/olasa/OneDrive/Desktop,no,mono,no,18,no,white,no,yes,768,legacy,50,50,C:/Users/olasa/OneDrive/Desktop/OL-subject-1.csv,legacy,Lentiform Loewenfeld,3.3.12,0,h,space,NA,NA,NA,NA,NA,h,NA,NA,688,1235,NA,NA,NA,NA,NA,688,NA,NA,NA,NA,2,legacy,1024,2,48000,-16,experiment,SSHSS,1,odd,3515,NA,NA,2276,78096,2272,NA,NA,91624,NA,NA,NA,NA,90576,91729,92418,NA,91622,NA,91728,NA,Flanker Task,35,22357,51,yes,1024
69.23076923,69.23076923,439.3846154,439.3846154,black,legacy,legacy,legacy,0,incongruent,uniform,1,undefined,1,h,0,0,0,0,51,0,51,0,51,NA,0,NA,0,51,51,51,NA,51,NA,51,NA,9/18/2022 22:33,1500,The main experiment item,yes,FlankerTask.osexp,C:/Users/olasa/OneDrive/Desktop,no,mono,no,18,no,white,no,yes,768,legacy,51,51,C:/Users/olasa/OneDrive/Desktop/OL-subject-1.csv,legacy,Lentiform Loewenfeld,3.3.12,0,h,space,NA,NA,NA,NA,NA,h,NA,NA,491,1235,NA,NA,NA,NA,NA,491,NA,NA,NA,NA,2,legacy,1024,2,48000,-16,experiment,SSHSS,1,odd,3515,NA,NA,2276,78096,2272,NA,NA,93478,NA,NA,NA,NA,92427,93580,94072,NA,93477,NA,93580,NA,Flanker Task,36,22848,52,yes,1024
67.9245283,67.9245283,439.4528302,439.4528302,black,legacy,legacy,legacy,0,congruent,uniform,0,undefined,0,s,0,0,0,0,52,0,52,0,52,NA,0,NA,0,52,52,52,NA,52,NA,52,NA,9/18/2022 22:33,1500,The main experiment item,yes,FlankerTask.osexp,C:/Users/olasa/OneDrive/Desktop,no,mono,no,18,no,white,no,yes,768,legacy,52,52,C:/Users/olasa/OneDrive/Desktop/OL-subject-1.csv,legacy,Lentiform Loewenfeld,3.3.12,0,h,space,NA,NA,NA,NA,NA,h,NA,NA,443,1235,NA,NA,NA,NA,NA,443,NA,NA,NA,NA,2,legacy,1024,2,48000,-16,experiment,SSSSS,1,odd,3515,NA,NA,2276,78096,2272,NA,NA,95143,NA,NA,NA,NA,94081,95244,95688,NA,95138,NA,95244,NA,Flanker Task,36,23291,53,yes,1024
68.51851852,68.51851852,441.8148148,441.8148148,black,legacy,legacy,legacy,0,incongruent,uniform,1,undefined,1,s,0,0,0,0,53,0,53,0,53,NA,0,NA,0,53,53,53,NA,53,NA,53,NA,9/18/2022 22:33,1500,The main experiment item,yes,FlankerTask.osexp,C:/Users/olasa/OneDrive/Desktop,no,mono,no,18,no,white,no,yes,768,legacy,53,53,C:/Users/olasa/OneDrive/Desktop/OL-subject-1.csv,legacy,Lentiform Loewenfeld,3.3.12,0,s,space,NA,NA,NA,NA,NA,s,NA,NA,567,1235,NA,NA,NA,NA,NA,567,NA,NA,NA,NA,2,legacy,1024,2,48000,-16,experiment,HHSHH,1,odd,3515,NA,NA,2276,95696,2272,NA,NA,97244,NA,NA,NA,NA,96197,97345,97913,NA,97242,NA,97345,NA,Flanker Task,37,23858,54,yes,1024
69.09090909,69.09090909,443.4909091,443.4909091,black,legacy,legacy,legacy,0,congruent,uniform,1,undefined,1,h,0,0,0,0,54,0,54,0,54,NA,0,NA,0,54,54,54,NA,54,NA,54,NA,9/18/2022 22:33,1500,The main experiment item,yes,FlankerTask.osexp,C:/Users/olasa/OneDrive/Desktop,no,mono,no,18,no,white,no,yes,768,legacy,54,54,C:/Users/olasa/OneDrive/Desktop/OL-subject-1.csv,legacy,Lentiform Loewenfeld,3.3.12,0,h,space,NA,NA,NA,NA,NA,h,NA,NA,534,1235,NA,NA,NA,NA,NA,534,NA,NA,NA,NA,2,legacy,1024,2,48000,-16,experiment,HHHHH,1,odd,3515,NA,NA,2276,95696,2272,NA,NA,98968,NA,NA,NA,NA,97922,99070,99606,NA,98966,NA,99070,NA,Flanker Task,38,24392,55,yes,1024
69.64285714,69.64285714,451.375,451.375,black,legacy,legacy,legacy,0,incongruent,uniform,1,undefined,1,h,0,0,0,0,55,0,55,0,55,NA,0,NA,0,55,55,55,NA,55,NA,55,NA,9/18/2022 22:33,1500,The main experiment item,yes,FlankerTask.osexp,C:/Users/olasa/OneDrive/Desktop,no,mono,no,18,no,white,no,yes,768,legacy,55,55,C:/Users/olasa/OneDrive/Desktop/OL-subject-1.csv,legacy,Lentiform Loewenfeld,3.3.12,0,h,space,NA,NA,NA,NA,NA,h,NA,NA,885,1235,NA,NA,NA,NA,NA,885,NA,NA,NA,NA,2,legacy,1024,2,48000,-16,experiment,SSHSS,1,odd,3515,NA,NA,2276,95696,2272,NA,NA,100665,NA,NA,NA,NA,99615,100767,101654,NA,100663,NA,100767,NA,Flanker Task,39,25277,56,yes,1024
70.1754386,70.1754386,454.3859649,454.3859649,black,legacy,legacy,legacy,0,congruent,uniform,1,undefined,1,s,0,0,0,0,56,0,56,0,56,NA,0,NA,0,56,56,56,NA,56,NA,56,NA,9/18/2022 22:33,1500,The main experiment item,yes,FlankerTask.osexp,C:/Users/olasa/OneDrive/Desktop,no,mono,no,18,no,white,no,yes,768,legacy,56,56,C:/Users/olasa/OneDrive/Desktop/OL-subject-1.csv,legacy,Lentiform Loewenfeld,3.3.12,0,s,space,NA,NA,NA,NA,NA,s,NA,NA,623,1235,NA,NA,NA,NA,NA,623,NA,NA,NA,NA,2,legacy,1024,2,48000,-16,experiment,SSSSS,1,odd,3515,NA,NA,2276,95696,2272,NA,NA,102747,NA,NA,NA,NA,101682,102849,103472,NA,102740,NA,102849,NA,Flanker Task,40,25900,57,yes,1024
70.68965517,70.68965517,456.362069,456.362069,black,legacy,legacy,legacy,0,congruent,uniform,1,undefined,1,h,0,0,0,0,57,0,57,0,57,NA,0,NA,0,57,57,57,NA,57,NA,57,NA,9/18/2022 22:33,1500,The main experiment item,yes,FlankerTask.osexp,C:/Users/olasa/OneDrive/Desktop,no,mono,no,18,no,white,no,yes,768,legacy,57,57,C:/Users/olasa/OneDrive/Desktop/OL-subject-1.csv,legacy,Lentiform Loewenfeld,3.3.12,0,h,space,NA,NA,NA,NA,NA,h,NA,NA,569,1235,NA,NA,NA,NA,NA,569,NA,NA,NA,NA,2,legacy,1024,2,48000,-16,experiment,HHHHH,1,odd,3515,NA,NA,2276,95696,2272,NA,NA,104521,NA,NA,NA,NA,103476,104624,105195,NA,104519,NA,104623,NA,Flanker Task,41,26469,58,yes,1024
71.18644068,71.18644068,457.0847458,457.0847458,black,legacy,legacy,legacy,0,incongruent,uniform,1,undefined,1,h,0,0,0,0,58,0,58,0,58,NA,0,NA,0,58,58,58,NA,58,NA,58,NA,9/18/2022 22:33,1500,The main experiment item,yes,FlankerTask.osexp,C:/Users/olasa/OneDrive/Desktop,no,mono,no,18,no,white,no,yes,768,legacy,58,58,C:/Users/olasa/OneDrive/Desktop/OL-subject-1.csv,legacy,Lentiform Loewenfeld,3.3.12,0,h,space,NA,NA,NA,NA,NA,h,NA,NA,499,1235,NA,NA,NA,NA,NA,499,NA,NA,NA,NA,2,legacy,1024,2,48000,-16,experiment,SSHSS,1,odd,3515,NA,NA,2276,95696,2272,NA,NA,106276,NA,NA,NA,NA,105224,106378,106879,NA,106273,NA,106377,NA,Flanker Task,42,26968,59,yes,1024
71.66666667,71.66666667,460.7166667,460.7166667,black,legacy,legacy,legacy,0,congruent,uniform,1,undefined,1,h,0,0,0,0,59,0,59,0,59,NA,0,NA,0,59,59,59,NA,59,NA,59,NA,9/18/2022 22:33,1500,The main experiment item,yes,FlankerTask.osexp,C:/Users/olasa/OneDrive/Desktop,no,mono,no,18,no,white,no,yes,768,legacy,59,59,C:/Users/olasa/OneDrive/Desktop/OL-subject-1.csv,legacy,Lentiform Loewenfeld,3.3.12,0,h,space,NA,NA,NA,NA,NA,h,NA,NA,675,1235,NA,NA,NA,NA,NA,675,NA,NA,NA,NA,2,legacy,1024,2,48000,-16,experiment,HHHHH,1,odd,3515,NA,NA,2276,95696,2272,NA,NA,107937,NA,NA,NA,NA,106888,108038,108714,NA,107934,NA,108038,NA,Flanker Task,43,27643,60,yes,1024
72.13114754,72.13114754,460.9508197,460.9508197,black,legacy,legacy,legacy,0,congruent,uniform,1,undefined,1,h,0,0,0,0,60,0,60,0,60,NA,0,NA,0,60,60,60,NA,60,NA,60,NA,9/18/2022 22:33,1500,The main experiment item,yes,FlankerTask.osexp,C:/Users/olasa/OneDrive/Desktop,no,mono,no,18,no,white,no,yes,768,legacy,60,60,C:/Users/olasa/OneDrive/Desktop/OL-subject-1.csv,legacy,Lentiform Loewenfeld,3.3.12,0,h,space,NA,NA,NA,NA,NA,h,NA,NA,475,1235,NA,NA,NA,NA,NA,475,NA,NA,NA,NA,2,legacy,1024,2,48000,-16,experiment,HHHHH,1,odd,3515,NA,NA,2276,95696,2272,NA,NA,109768,NA,NA,NA,NA,108722,109869,110345,NA,109766,NA,109869,NA,Flanker Task,44,28118,61,yes,1024
72.58064516,72.58064516,459.4193548,459.4193548,black,legacy,legacy,legacy,0,congruent,uniform,1,undefined,1,s,0,0,0,0,61,0,61,0,61,NA,0,NA,0,61,61,61,NA,61,NA,61,NA,9/18/2022 22:33,1500,The main experiment item,yes,FlankerTask.osexp,C:/Users/olasa/OneDrive/Desktop,no,mono,no,18,no,white,no,yes,768,legacy,61,61,C:/Users/olasa/OneDrive/Desktop/OL-subject-1.csv,legacy,Lentiform Loewenfeld,3.3.12,0,s,space,NA,NA,NA,NA,NA,s,NA,NA,366,1235,NA,NA,NA,NA,NA,366,NA,NA,NA,NA,2,legacy,1024,2,48000,-16,experiment,SSSSS,1,odd,3515,NA,NA,2276,95696,2272,NA,NA,111404,NA,NA,NA,NA,110356,111505,111872,NA,111402,NA,111505,NA,Flanker Task,45,28484,62,yes,1024
73.01587302,73.01587302,459.7936508,459.7936508,black,legacy,legacy,legacy,0,incongruent,uniform,1,undefined,1,s,0,0,0,0,62,0,62,0,62,NA,0,NA,0,62,62,62,NA,62,NA,62,NA,9/18/2022 22:33,1500,The main experiment item,yes,FlankerTask.osexp,C:/Users/olasa/OneDrive/Desktop,no,mono,no,18,no,white,no,yes,768,legacy,62,62,C:/Users/olasa/OneDrive/Desktop/OL-subject-1.csv,legacy,Lentiform Loewenfeld,3.3.12,0,s,space,NA,NA,NA,NA,NA,s,NA,NA,483,1235,NA,NA,NA,NA,NA,483,NA,NA,NA,NA,2,legacy,1024,2,48000,-16,experiment,HHSHH,1,odd,3515,NA,NA,2276,95696,2272,NA,NA,112927,NA,NA,NA,NA,111880,113029,113514,NA,112925,NA,113029,NA,Flanker Task,46,28967,63,yes,1024
73.4375,73.4375,458.328125,458.328125,black,legacy,legacy,legacy,0,congruent,uniform,1,undefined,1,s,0,0,0,0,63,0,63,0,63,NA,0,NA,0,63,63,63,NA,63,NA,63,NA,9/18/2022 22:33,1500,The main experiment item,yes,FlankerTask.osexp,C:/Users/olasa/OneDrive/Desktop,no,mono,no,18,no,white,no,yes,768,legacy,63,63,C:/Users/olasa/OneDrive/Desktop/OL-subject-1.csv,legacy,Lentiform Loewenfeld,3.3.12,0,s,space,NA,NA,NA,NA,NA,s,NA,NA,366,1235,NA,NA,NA,NA,NA,366,NA,NA,NA,NA,2,legacy,1024,2,48000,-16,experiment,SSSSS,1,odd,3515,NA,NA,2276,95696,2272,NA,NA,114571,NA,NA,NA,NA,113523,114673,115041,NA,114569,NA,114672,NA,Flanker Task,47,29333,64,yes,1024
72.30769231,72.30769231,456.2923077,456.2923077,black,legacy,legacy,legacy,0,incongruent,uniform,0,undefined,0,h,0,0,0,0,64,0,64,0,64,NA,0,NA,0,64,64,64,NA,64,NA,64,NA,9/18/2022 22:33,1500,The main experiment item,yes,FlankerTask.osexp,C:/Users/olasa/OneDrive/Desktop,no,mono,no,18,no,white,no,yes,768,legacy,64,64,C:/Users/olasa/OneDrive/Desktop/OL-subject-1.csv,legacy,Lentiform Loewenfeld,3.3.12,0,s,space,NA,NA,NA,NA,NA,s,NA,NA,326,1235,NA,NA,NA,NA,NA,326,NA,NA,NA,NA,2,legacy,1024,2,48000,-16,experiment,SSHSS,1,odd,3515,NA,NA,2276,95696,2272,NA,NA,116123,NA,NA,NA,NA,115070,116225,116552,NA,116121,NA,116225,NA,Flanker Task,47,29659,65,yes,1024
72.72727273,72.72727273,456.2878788,456.2878788,black,legacy,legacy,legacy,0,congruent,uniform,1,undefined,1,h,0,0,0,0,65,0,65,0,65,NA,0,NA,0,65,65,65,NA,65,NA,65,NA,9/18/2022 22:33,1500,The main experiment item,yes,FlankerTask.osexp,C:/Users/olasa/OneDrive/Desktop,no,mono,no,18,no,white,no,yes,768,legacy,65,65,C:/Users/olasa/OneDrive/Desktop/OL-subject-1.csv,legacy,Lentiform Loewenfeld,3.3.12,0,h,space,NA,NA,NA,NA,NA,h,NA,NA,456,1235,NA,NA,NA,NA,NA,456,NA,NA,NA,NA,2,legacy,1024,2,48000,-16,experiment,HHHHH,1,odd,3515,NA,NA,2276,116561,2272,NA,NA,118112,NA,NA,NA,NA,117062,118214,118672,NA,118110,NA,118213,NA,Flanker Task,48,30115,66,yes,1024
73.13432836,73.13432836,458.761194,458.761194,black,legacy,legacy,legacy,0,incongruent,uniform,1,undefined,1,s,0,0,0,0,66,0,66,0,66,NA,0,NA,0,66,66,66,NA,66,NA,66,NA,9/18/2022 22:33,1500,The main experiment item,yes,FlankerTask.osexp,C:/Users/olasa/OneDrive/Desktop,no,mono,no,18,no,white,no,yes,768,legacy,66,66,C:/Users/olasa/OneDrive/Desktop/OL-subject-1.csv,legacy,Lentiform Loewenfeld,3.3.12,0,s,space,NA,NA,NA,NA,NA,s,NA,NA,622,1235,NA,NA,NA,NA,NA,622,NA,NA,NA,NA,2,legacy,1024,2,48000,-16,experiment,HHSHH,1,odd,3515,NA,NA,2276,116561,2272,NA,NA,119734,NA,NA,NA,NA,118680,119835,120458,NA,119731,NA,119835,NA,Flanker Task,49,30737,67,yes,1024
73.52941176,73.52941176,459.9264706,459.9264706,black,legacy,legacy,legacy,0,incongruent,uniform,1,undefined,1,h,0,0,0,0,67,0,67,0,67,NA,0,NA,0,67,67,67,NA,67,NA,67,NA,9/18/2022 22:33,1500,The main experiment item,yes,FlankerTask.osexp,C:/Users/olasa/OneDrive/Desktop,no,mono,no,18,no,white,no,yes,768,legacy,67,67,C:/Users/olasa/OneDrive/Desktop/OL-subject-1.csv,legacy,Lentiform Loewenfeld,3.3.12,0,h,space,NA,NA,NA,NA,NA,h,NA,NA,538,1235,NA,NA,NA,NA,NA,538,NA,NA,NA,NA,2,legacy,1024,2,48000,-16,experiment,SSHSS,1,odd,3515,NA,NA,2276,116561,2272,NA,NA,121515,NA,NA,NA,NA,120461,121617,122156,NA,121511,NA,121617,NA,Flanker Task,50,31275,68,yes,1024
73.91304348,73.91304348,459.8985507,459.8985507,black,legacy,legacy,legacy,0,congruent,uniform,1,undefined,1,s,0,0,0,0,68,0,68,0,68,NA,0,NA,0,68,68,68,NA,68,NA,68,NA,9/18/2022 22:33,1500,The main experiment item,yes,FlankerTask.osexp,C:/Users/olasa/OneDrive/Desktop,no,mono,no,18,no,white,no,yes,768,legacy,68,68,C:/Users/olasa/OneDrive/Desktop/OL-subject-1.csv,legacy,Lentiform Loewenfeld,3.3.12,0,s,space,NA,NA,NA,NA,NA,s,NA,NA,458,1235,NA,NA,NA,NA,NA,458,NA,NA,NA,NA,2,legacy,1024,2,48000,-16,experiment,SSSSS,1,odd,3515,NA,NA,2276,116561,2272,NA,NA,123211,NA,NA,NA,NA,122165,123312,123771,NA,123208,NA,123312,NA,Flanker Task,51,31733,69,yes,1024
74.28571429,74.28571429,460.6,460.6,black,legacy,legacy,legacy,0,incongruent,uniform,1,undefined,1,s,0,0,0,0,69,0,69,0,69,NA,0,NA,0,69,69,69,NA,69,NA,69,NA,9/18/2022 22:33,1500,The main experiment item,yes,FlankerTask.osexp,C:/Users/olasa/OneDrive/Desktop,no,mono,no,18,no,white,no,yes,768,legacy,69,69,C:/Users/olasa/OneDrive/Desktop/OL-subject-1.csv,legacy,Lentiform Loewenfeld,3.3.12,0,s,space,NA,NA,NA,NA,NA,s,NA,NA,509,1235,NA,NA,NA,NA,NA,509,NA,NA,NA,NA,2,legacy,1024,2,48000,-16,experiment,HHSHH,1,odd,3515,NA,NA,2276,116561,2272,NA,NA,124829,NA,NA,NA,NA,123777,124931,125441,NA,124827,NA,124931,NA,Flanker Task,52,32242,70,yes,1024
74.64788732,74.64788732,461.0704225,461.0704225,black,legacy,legacy,legacy,0,congruent,uniform,1,undefined,1,h,0,0,0,0,70,0,70,0,70,NA,0,NA,0,70,70,70,NA,70,NA,70,NA,9/18/2022 22:33,1500,The main experiment item,yes,FlankerTask.osexp,C:/Users/olasa/OneDrive/Desktop,no,mono,no,18,no,white,no,yes,768,legacy,70,70,C:/Users/olasa/OneDrive/Desktop/OL-subject-1.csv,legacy,Lentiform Loewenfeld,3.3.12,0,h,space,NA,NA,NA,NA,NA,h,NA,NA,494,1235,NA,NA,NA,NA,NA,494,NA,NA,NA,NA,2,legacy,1024,2,48000,-16,experiment,HHHHH,1,odd,3515,NA,NA,2276,116561,2272,NA,NA,126521,NA,NA,NA,NA,125468,126622,127118,NA,126519,NA,126622,NA,Flanker Task,53,32736,71,yes,1024
75,75,460.4861111,460.4861111,black,legacy,legacy,legacy,0,congruent,uniform,1,undefined,1,h,0,0,0,0,71,0,71,0,71,NA,0,NA,0,71,71,71,NA,71,NA,71,NA,9/18/2022 22:33,1500,The main experiment item,yes,FlankerTask.osexp,C:/Users/olasa/OneDrive/Desktop,no,mono,no,18,no,white,no,yes,768,legacy,71,71,C:/Users/olasa/OneDrive/Desktop/OL-subject-1.csv,legacy,Lentiform Loewenfeld,3.3.12,0,h,space,NA,NA,NA,NA,NA,h,NA,NA,419,1235,NA,NA,NA,NA,NA,419,NA,NA,NA,NA,2,legacy,1024,2,48000,-16,experiment,HHHHH,1,odd,3515,NA,NA,2276,116561,2272,NA,NA,128168,NA,NA,NA,NA,127123,128270,128691,NA,128166,NA,128270,NA,Flanker Task,54,33155,72,yes,1024
75.34246575,75.34246575,459.5479452,459.5479452,black,legacy,legacy,legacy,0,congruent,uniform,1,undefined,1,h,0,0,0,0,72,0,72,0,72,NA,0,NA,0,72,72,72,NA,72,NA,72,NA,9/18/2022 22:33,1500,The main experiment item,yes,FlankerTask.osexp,C:/Users/olasa/OneDrive/Desktop,no,mono,no,18,no,white,no,yes,768,legacy,72,72,C:/Users/olasa/OneDrive/Desktop/OL-subject-1.csv,legacy,Lentiform Loewenfeld,3.3.12,0,h,space,NA,NA,NA,NA,NA,h,NA,NA,392,1235,NA,NA,NA,NA,NA,392,NA,NA,NA,NA,2,legacy,1024,2,48000,-16,experiment,HHHHH,1,odd,3515,NA,NA,2276,116561,2272,NA,NA,129747,NA,NA,NA,NA,128700,129849,130246,NA,129745,NA,129848,NA,Flanker Task,55,33547,73,yes,1024
75.67567568,75.67567568,460.7027027,460.7027027,black,legacy,legacy,legacy,0,congruent,uniform,1,undefined,1,s,0,0,0,0,73,0,73,0,73,NA,0,NA,0,73,73,73,NA,73,NA,73,NA,9/18/2022 22:33,1500,The main experiment item,yes,FlankerTask.osexp,C:/Users/olasa/OneDrive/Desktop,no,mono,no,18,no,white,no,yes,768,legacy,73,73,C:/Users/olasa/OneDrive/Desktop/OL-subject-1.csv,legacy,Lentiform Loewenfeld,3.3.12,0,s,space,NA,NA,NA,NA,NA,s,NA,NA,545,1235,NA,NA,NA,NA,NA,545,NA,NA,NA,NA,2,legacy,1024,2,48000,-16,experiment,SSSSS,1,odd,3515,NA,NA,2276,116561,2272,NA,NA,131301,NA,NA,NA,NA,130255,131404,131950,NA,131299,NA,131404,NA,Flanker Task,56,34092,74,yes,1024
76,76,461.1066667,461.1066667,black,legacy,legacy,legacy,0,incongruent,uniform,1,undefined,1,h,0,0,0,0,74,0,74,0,74,NA,0,NA,0,74,74,74,NA,74,NA,74,NA,9/18/2022 22:33,1500,The main experiment item,yes,FlankerTask.osexp,C:/Users/olasa/OneDrive/Desktop,no,mono,no,18,no,white,no,yes,768,legacy,74,74,C:/Users/olasa/OneDrive/Desktop/OL-subject-1.csv,legacy,Lentiform Loewenfeld,3.3.12,0,h,space,NA,NA,NA,NA,NA,h,NA,NA,491,1235,NA,NA,NA,NA,NA,491,NA,NA,NA,NA,2,legacy,1024,2,48000,-16,experiment,SSHSS,1,odd,3515,NA,NA,2276,116561,2272,NA,NA,133005,NA,NA,NA,NA,131958,133106,133599,NA,133003,NA,133106,NA,Flanker Task,57,34583,75,yes,1024
75,75,461.6710526,461.6710526,black,legacy,legacy,legacy,0,incongruent,uniform,0,undefined,0,h,0,0,0,0,75,0,75,0,75,NA,0,NA,0,75,75,75,NA,75,NA,75,NA,9/18/2022 22:33,1500,The main experiment item,yes,FlankerTask.osexp,C:/Users/olasa/OneDrive/Desktop,no,mono,no,18,no,white,no,yes,768,legacy,75,75,C:/Users/olasa/OneDrive/Desktop/OL-subject-1.csv,legacy,Lentiform Loewenfeld,3.3.12,0,s,space,NA,NA,NA,NA,NA,s,NA,NA,504,1235,NA,NA,NA,NA,NA,504,NA,NA,NA,NA,2,legacy,1024,2,48000,-16,experiment,SSHSS,1,odd,3515,NA,NA,2276,116561,2272,NA,NA,134661,NA,NA,NA,NA,133608,134763,135268,NA,134659,NA,134763,NA,Flanker Task,57,35087,76,yes,1024
75.32467532,75.32467532,460.1298701,460.1298701,black,legacy,legacy,legacy,0,incongruent,uniform,1,undefined,1,h,0,0,0,0,76,0,76,0,76,NA,0,NA,0,76,76,76,NA,76,NA,76,NA,9/18/2022 22:33,1500,The main experiment item,yes,FlankerTask.osexp,C:/Users/olasa/OneDrive/Desktop,no,mono,no,18,no,white,no,yes,768,legacy,76,76,C:/Users/olasa/OneDrive/Desktop/OL-subject-1.csv,legacy,Lentiform Loewenfeld,3.3.12,0,h,space,NA,NA,NA,NA,NA,h,NA,NA,343,1235,NA,NA,NA,NA,NA,343,NA,NA,NA,NA,2,legacy,1024,2,48000,-16,experiment,SSHSS,1,odd,3515,NA,NA,2276,135297,2272,NA,NA,136858,NA,NA,NA,NA,135799,136960,137304,NA,136856,NA,136959,NA,Flanker Task,58,35430,77,yes,1024
75.64102564,75.64102564,458.5641026,458.5641026,black,legacy,legacy,legacy,0,congruent,uniform,1,undefined,1,s,0,0,0,0,77,0,77,0,77,NA,0,NA,0,77,77,77,NA,77,NA,77,NA,9/18/2022 22:33,1500,The main experiment item,yes,FlankerTask.osexp,C:/Users/olasa/OneDrive/Desktop,no,mono,no,18,no,white,no,yes,768,legacy,77,77,C:/Users/olasa/OneDrive/Desktop/OL-subject-1.csv,legacy,Lentiform Loewenfeld,3.3.12,0,s,space,NA,NA,NA,NA,NA,s,NA,NA,338,1235,NA,NA,NA,NA,NA,338,NA,NA,NA,NA,2,legacy,1024,2,48000,-16,experiment,SSSSS,1,odd,3515,NA,NA,2276,135297,2272,NA,NA,138360,NA,NA,NA,NA,137313,138462,138801,NA,138358,NA,138462,NA,Flanker Task,59,35768,78,yes,1024
75.94936709,75.94936709,458.9240506,458.9240506,black,legacy,legacy,legacy,0,incongruent,uniform,1,undefined,1,s,0,0,0,0,78,0,78,0,78,NA,0,NA,0,78,78,78,NA,78,NA,78,NA,9/18/2022 22:33,1500,The main experiment item,yes,FlankerTask.osexp,C:/Users/olasa/OneDrive/Desktop,no,mono,no,18,no,white,no,yes,768,legacy,78,78,C:/Users/olasa/OneDrive/Desktop/OL-subject-1.csv,legacy,Lentiform Loewenfeld,3.3.12,0,s,space,NA,NA,NA,NA,NA,s,NA,NA,487,1235,NA,NA,NA,NA,NA,487,NA,NA,NA,NA,2,legacy,1024,2,48000,-16,experiment,HHSHH,1,odd,3515,NA,NA,2276,135297,2272,NA,NA,139880,NA,NA,NA,NA,138830,139981,140469,NA,139876,NA,139981,NA,Flanker Task,60,36255,79,yes,1024
76.25,76.25,458.2375,458.2375,black,legacy,legacy,legacy,0,incongruent,uniform,1,undefined,1,s,0,0,0,0,79,0,79,0,79,NA,0,NA,0,79,79,79,NA,79,NA,79,NA,9/18/2022 22:33,1500,The main experiment item,yes,FlankerTask.osexp,C:/Users/olasa/OneDrive/Desktop,no,mono,no,18,no,white,no,yes,768,legacy,79,79,C:/Users/olasa/OneDrive/Desktop/OL-subject-1.csv,legacy,Lentiform Loewenfeld,3.3.12,0,s,space,NA,NA,NA,NA,NA,s,NA,NA,404,1235,NA,NA,NA,NA,NA,404,NA,NA,NA,NA,2,legacy,1024,2,48000,-16,experiment,HHSHH,1,odd,3515,NA,NA,2276,135297,2272,NA,NA,141527,NA,NA,NA,NA,140476,141629,142034,NA,141525,NA,141629,NA,Flanker Task,61,36659,80,yes,1024
76.54320988,76.54320988,457.7037037,457.7037037,black,legacy,legacy,legacy,0,congruent,uniform,1,undefined,1,s,0,0,0,0,80,0,80,0,80,NA,0,NA,0,80,80,80,NA,80,NA,80,NA,9/18/2022 22:33,600,The main experiment item,yes,FlankerTask.osexp,C:/Users/olasa/OneDrive/Desktop,no,mono,no,18,no,white,no,yes,768,legacy,0,79,C:/Users/olasa/OneDrive/Desktop/OL-subject-1.csv,legacy,Lentiform Loewenfeld,3.3.12,0,s,space,NA,NA,h,NA,NA,s,NA,NA,415,1235,NA,NA,7477,NA,NA,415,NA,NA,NA,NA,2,legacy,1024,2,48000,-16,experiment,SSSSS,1,odd,3515,150531,NA,2276,135297,2272,NA,NA,150579,NA,143053,NA,NA,142043,150681,151098,NA,150577,NA,150681,NA,Flanker Task,62,37074,81,yes,1024
76.82926829,76.82926829,457.9756098,457.9756098,black,legacy,legacy,legacy,0,incongruent,uniform,1,undefined,1,h,0,0,0,0,81,0,81,0,81,NA,0,NA,0,81,81,81,NA,81,NA,81,NA,9/18/2022 22:33,600,The main experiment item,yes,FlankerTask.osexp,C:/Users/olasa/OneDrive/Desktop,no,mono,no,18,no,white,no,yes,768,legacy,1,79,C:/Users/olasa/OneDrive/Desktop/OL-subject-1.csv,legacy,Lentiform Loewenfeld,3.3.12,0,h,space,NA,NA,h,NA,NA,h,NA,NA,480,1235,NA,NA,7477,NA,NA,480,NA,NA,NA,NA,2,legacy,1024,2,48000,-16,experiment,SSHSS,1,odd,3515,150531,NA,2276,135297,2272,NA,NA,152175,NA,143053,NA,NA,151126,152276,152758,NA,152173,NA,152276,NA,Flanker Task,63,37554,82,yes,1024
77.10843373,77.10843373,458.4939759,458.4939759,black,legacy,legacy,legacy,0,incongruent,uniform,1,undefined,1,s,0,0,0,0,82,0,82,0,82,NA,0,NA,0,82,82,82,NA,82,NA,82,NA,9/18/2022 22:33,600,The main experiment item,yes,FlankerTask.osexp,C:/Users/olasa/OneDrive/Desktop,no,mono,no,18,no,white,no,yes,768,legacy,2,79,C:/Users/olasa/OneDrive/Desktop/OL-subject-1.csv,legacy,Lentiform Loewenfeld,3.3.12,0,s,space,NA,NA,h,NA,NA,s,NA,NA,501,1235,NA,NA,7477,NA,NA,501,NA,NA,NA,NA,2,legacy,1024,2,48000,-16,experiment,HHSHH,1,odd,3515,150531,NA,2276,135297,2272,NA,NA,153808,NA,143053,NA,NA,152761,153909,154411,NA,153806,NA,153909,NA,Flanker Task,64,38055,83,yes,1024
77.38095238,77.38095238,458.0357143,458.0357143,black,legacy,legacy,legacy,0,incongruent,uniform,1,undefined,1,h,0,0,0,0,83,0,83,0,83,NA,0,NA,0,83,83,83,NA,83,NA,83,NA,9/18/2022 22:33,600,The main experiment item,yes,FlankerTask.osexp,C:/Users/olasa/OneDrive/Desktop,no,mono,no,18,no,white,no,yes,768,legacy,3,79,C:/Users/olasa/OneDrive/Desktop/OL-subject-1.csv,legacy,Lentiform Loewenfeld,3.3.12,0,h,space,NA,NA,h,NA,NA,h,NA,NA,420,1235,NA,NA,7477,NA,NA,420,NA,NA,NA,NA,2,legacy,1024,2,48000,-16,experiment,SSHSS,1,odd,3515,150531,NA,2276,135297,2272,NA,NA,155494,NA,143053,NA,NA,154440,155595,156017,NA,155492,NA,155595,NA,Flanker Task,65,38475,84,yes,1024
77.64705882,77.64705882,457.9176471,457.9176471,black,legacy,legacy,legacy,0,incongruent,uniform,1,undefined,1,s,0,0,0,0,84,0,84,0,84,NA,0,NA,0,84,84,84,NA,84,NA,84,NA,9/18/2022 22:33,600,The main experiment item,yes,FlankerTask.osexp,C:/Users/olasa/OneDrive/Desktop,no,mono,no,18,no,white,no,yes,768,legacy,4,79,C:/Users/olasa/OneDrive/Desktop/OL-subject-1.csv,legacy,Lentiform Loewenfeld,3.3.12,0,s,space,NA,NA,h,NA,NA,s,NA,NA,448,1235,NA,NA,7477,NA,NA,448,NA,NA,NA,NA,2,legacy,1024,2,48000,-16,experiment,HHSHH,1,odd,3515,150531,NA,2276,135297,2272,NA,NA,157094,NA,143053,NA,NA,156045,157196,157646,NA,157091,NA,157196,NA,Flanker Task,66,38923,85,yes,1024
76.74418605,76.74418605,456.4186047,456.4186047,black,legacy,legacy,legacy,0,congruent,uniform,0,undefined,0,h,0,0,0,0,85,0,85,0,85,NA,0,NA,0,85,85,85,NA,85,NA,85,NA,9/18/2022 22:33,600,The main experiment item,yes,FlankerTask.osexp,C:/Users/olasa/OneDrive/Desktop,no,mono,no,18,no,white,no,yes,768,legacy,5,79,C:/Users/olasa/OneDrive/Desktop/OL-subject-1.csv,legacy,Lentiform Loewenfeld,3.3.12,0,s,space,NA,NA,h,NA,NA,s,NA,NA,329,1235,NA,NA,7477,NA,NA,329,NA,NA,NA,NA,2,legacy,1024,2,48000,-16,experiment,HHHHH,1,odd,3515,150531,NA,2276,135297,2272,NA,NA,158722,NA,143053,NA,NA,157675,158824,159154,NA,158720,NA,158824,NA,Flanker Task,66,39252,86,yes,1024
77.01149425,77.01149425,456.1034483,456.1034483,black,legacy,legacy,legacy,0,congruent,uniform,1,undefined,1,h,0,0,0,0,86,0,86,0,86,NA,0,NA,0,86,86,86,NA,86,NA,86,NA,9/18/2022 22:33,600,The main experiment item,yes,FlankerTask.osexp,C:/Users/olasa/OneDrive/Desktop,no,mono,no,18,no,white,no,yes,768,legacy,6,79,C:/Users/olasa/OneDrive/Desktop/OL-subject-1.csv,legacy,Lentiform Loewenfeld,3.3.12,0,h,space,NA,NA,h,NA,NA,h,NA,NA,429,1235,NA,NA,7477,NA,NA,429,NA,NA,NA,NA,2,legacy,1024,2,48000,-16,experiment,HHHHH,1,odd,3515,150531,NA,2276,159184,2272,NA,NA,160738,NA,143053,NA,NA,159685,160839,161271,NA,160736,NA,160839,NA,Flanker Task,67,39681,87,yes,1024
77.27272727,77.27272727,454.8409091,454.8409091,black,legacy,legacy,legacy,0,incongruent,uniform,1,undefined,1,s,0,0,0,0,87,0,87,0,87,NA,0,NA,0,87,87,87,NA,87,NA,87,NA,9/18/2022 22:33,600,The main experiment item,yes,FlankerTask.osexp,C:/Users/olasa/OneDrive/Desktop,no,mono,no,18,no,white,no,yes,768,legacy,7,79,C:/Users/olasa/OneDrive/Desktop/OL-subject-1.csv,legacy,Lentiform Loewenfeld,3.3.12,0,s,space,NA,NA,h,NA,NA,s,NA,NA,345,1235,NA,NA,7477,NA,NA,345,NA,NA,NA,NA,2,legacy,1024,2,48000,-16,experiment,HHSHH,1,odd,3515,150531,NA,2276,159184,2272,NA,NA,162326,NA,143053,NA,NA,161279,162428,162774,NA,162324,NA,162428,NA,Flanker Task,68,40026,88,yes,1024
77.52808989,77.52808989,454.5280899,454.5280899,black,legacy,legacy,legacy,0,congruent,uniform,1,undefined,1,h,0,0,0,0,88,0,88,0,88,NA,0,NA,0,88,88,88,NA,88,NA,88,NA,9/18/2022 22:33,600,The main experiment item,yes,FlankerTask.osexp,C:/Users/olasa/OneDrive/Desktop,no,mono,no,18,no,white,no,yes,768,legacy,8,79,C:/Users/olasa/OneDrive/Desktop/OL-subject-1.csv,legacy,Lentiform Loewenfeld,3.3.12,0,h,space,NA,NA,h,NA,NA,h,NA,NA,427,1235,NA,NA,7477,NA,NA,427,NA,NA,NA,NA,2,legacy,1024,2,48000,-16,experiment,HHHHH,1,odd,3515,150531,NA,2276,159184,2272,NA,NA,163826,NA,143053,NA,NA,162778,163928,164356,NA,163822,NA,163928,NA,Flanker Task,69,40453,89,yes,1024
77.77777778,77.77777778,453.6333333,453.6333333,black,legacy,legacy,legacy,0,congruent,uniform,1,undefined,1,s,0,0,0,0,89,0,89,0,89,NA,0,NA,0,89,89,89,NA,89,NA,89,NA,9/18/2022 22:33,600,The main experiment item,yes,FlankerTask.osexp,C:/Users/olasa/OneDrive/Desktop,no,mono,no,18,no,white,no,yes,768,legacy,9,79,C:/Users/olasa/OneDrive/Desktop/OL-subject-1.csv,legacy,Lentiform Loewenfeld,3.3.12,0,s,space,NA,NA,h,NA,NA,s,NA,NA,374,1235,NA,NA,7477,NA,NA,374,NA,NA,NA,NA,2,legacy,1024,2,48000,-16,experiment,SSSSS,1,odd,3515,150531,NA,2276,159184,2272,NA,NA,165439,NA,143053,NA,NA,164385,165540,165917,NA,165437,NA,165540,NA,Flanker Task,70,40827,90,yes,1024
78.02197802,78.02197802,453.8901099,453.8901099,black,legacy,legacy,legacy,0,incongruent,uniform,1,undefined,1,s,0,0,0,0,90,0,90,0,90,NA,0,NA,0,90,90,90,NA,90,NA,90,NA,9/18/2022 22:33,600,The main experiment item,yes,FlankerTask.osexp,C:/Users/olasa/OneDrive/Desktop,no,mono,no,18,no,white,no,yes,768,legacy,10,79,C:/Users/olasa/OneDrive/Desktop/OL-subject-1.csv,legacy,Lentiform Loewenfeld,3.3.12,0,s,space,NA,NA,h,NA,NA,s,NA,NA,477,1235,NA,NA,7477,NA,NA,477,NA,NA,NA,NA,2,legacy,1024,2,48000,-16,experiment,HHSHH,1,odd,3515,150531,NA,2276,159184,2272,NA,NA,166995,NA,143053,NA,NA,165946,167096,167579,NA,166993,NA,167096,NA,Flanker Task,71,41304,91,yes,1024
78.26086957,78.26086957,453.8586957,453.8586957,black,legacy,legacy,legacy,0,incongruent,uniform,1,undefined,1,h,0,0,0,0,91,0,91,0,91,NA,0,NA,0,91,91,91,NA,91,NA,91,NA,9/18/2022 22:33,600,The main experiment item,yes,FlankerTask.osexp,C:/Users/olasa/OneDrive/Desktop,no,mono,no,18,no,white,no,yes,768,legacy,11,79,C:/Users/olasa/OneDrive/Desktop/OL-subject-1.csv,legacy,Lentiform Loewenfeld,3.3.12,0,h,space,NA,NA,h,NA,NA,h,NA,NA,451,1235,NA,NA,7477,NA,NA,451,NA,NA,NA,NA,2,legacy,1024,2,48000,-16,experiment,SSHSS,1,odd,3515,150531,NA,2276,159184,2272,NA,NA,168639,NA,143053,NA,NA,167588,168740,169193,NA,168637,NA,168740,NA,Flanker Task,72,41755,92,yes,1024
78.49462366,78.49462366,453.2150538,453.2150538,black,legacy,legacy,legacy,0,congruent,uniform,1,undefined,1,s,0,0,0,0,92,0,92,0,92,NA,0,NA,0,92,92,92,NA,92,NA,92,NA,9/18/2022 22:33,600,The main experiment item,yes,FlankerTask.osexp,C:/Users/olasa/OneDrive/Desktop,no,mono,no,18,no,white,no,yes,768,legacy,12,79,C:/Users/olasa/OneDrive/Desktop/OL-subject-1.csv,legacy,Lentiform Loewenfeld,3.3.12,0,s,space,NA,NA,h,NA,NA,s,NA,NA,394,1235,NA,NA,7477,NA,NA,394,NA,NA,NA,NA,2,legacy,1024,2,48000,-16,experiment,SSSSS,1,odd,3515,150531,NA,2276,159184,2272,NA,NA,170267,NA,143053,NA,NA,169221,170370,170768,NA,170265,NA,170369,NA,Flanker Task,73,42149,93,yes,1024
78.72340426,78.72340426,453.0106383,453.0106383,black,legacy,legacy,legacy,0,congruent,uniform,1,undefined,1,h,0,0,0,0,93,0,93,0,93,NA,0,NA,0,93,93,93,NA,93,NA,93,NA,9/18/2022 22:33,600,The main experiment item,yes,FlankerTask.osexp,C:/Users/olasa/OneDrive/Desktop,no,mono,no,18,no,white,no,yes,768,legacy,13,79,C:/Users/olasa/OneDrive/Desktop/OL-subject-1.csv,legacy,Lentiform Loewenfeld,3.3.12,0,h,space,NA,NA,h,NA,NA,h,NA,NA,434,1235,NA,NA,7477,NA,NA,434,NA,NA,NA,NA,2,legacy,1024,2,48000,-16,experiment,HHHHH,1,odd,3515,150531,NA,2276,159184,2272,NA,NA,171823,NA,143053,NA,NA,170776,171925,172362,NA,171821,NA,171925,NA,Flanker Task,74,42583,94,yes,1024
77.89473684,77.89473684,452.1473684,452.1473684,black,legacy,legacy,legacy,0,incongruent,uniform,0,undefined,0,s,0,0,0,0,94,0,94,0,94,NA,0,NA,0,94,94,94,NA,94,NA,94,NA,9/18/2022 22:33,600,The main experiment item,yes,FlankerTask.osexp,C:/Users/olasa/OneDrive/Desktop,no,mono,no,18,no,white,no,yes,768,legacy,14,79,C:/Users/olasa/OneDrive/Desktop/OL-subject-1.csv,legacy,Lentiform Loewenfeld,3.3.12,0,h,space,NA,NA,h,NA,NA,h,NA,NA,371,1235,NA,NA,7477,NA,NA,371,NA,NA,NA,NA,2,legacy,1024,2,48000,-16,experiment,HHSHH,1,odd,3515,150531,NA,2276,159184,2272,NA,NA,173436,NA,143053,NA,NA,172390,173538,173911,NA,173435,NA,173538,NA,Flanker Task,74,42954,95,yes,1024
77.08333333,77.08333333,452.125,452.125,black,legacy,legacy,legacy,0,incongruent,uniform,0,undefined,0,h,0,0,0,0,95,0,95,0,95,NA,0,NA,0,95,95,95,NA,95,NA,95,NA,9/18/2022 22:33,600,The main experiment item,yes,FlankerTask.osexp,C:/Users/olasa/OneDrive/Desktop,no,mono,no,18,no,white,no,yes,768,legacy,15,79,C:/Users/olasa/OneDrive/Desktop/OL-subject-1.csv,legacy,Lentiform Loewenfeld,3.3.12,0,s,space,NA,NA,h,NA,NA,s,NA,NA,450,1235,NA,NA,7477,NA,NA,450,NA,NA,NA,NA,2,legacy,1024,2,48000,-16,experiment,SSHSS,1,odd,3515,150531,NA,2276,173939,2272,NA,NA,175499,NA,143053,NA,NA,174440,175601,176053,NA,175498,NA,175601,NA,Flanker Task,74,43404,96,yes,1024
77.31958763,77.31958763,452.8247423,452.8247423,black,legacy,legacy,legacy,0,incongruent,uniform,1,undefined,1,s,0,0,0,0,96,0,96,0,96,NA,0,NA,0,96,96,96,NA,96,NA,96,NA,9/18/2022 22:33,600,The main experiment item,yes,FlankerTask.osexp,C:/Users/olasa/OneDrive/Desktop,no,mono,no,18,no,white,no,yes,768,legacy,16,79,C:/Users/olasa/OneDrive/Desktop/OL-subject-1.csv,legacy,Lentiform Loewenfeld,3.3.12,0,s,space,NA,NA,h,NA,NA,s,NA,NA,520,1235,NA,NA,7477,NA,NA,520,NA,NA,NA,NA,2,legacy,1024,2,48000,-16,experiment,HHSHH,1,odd,3515,150531,NA,2276,176082,2272,NA,NA,177632,NA,143053,NA,NA,176583,177733,178254,NA,177630,NA,177733,NA,Flanker Task,75,43924,97,yes,1024
77.55102041,77.55102041,452.8061224,452.8061224,black,legacy,legacy,legacy,0,incongruent,uniform,1,undefined,1,s,0,0,0,0,97,0,97,0,97,NA,0,NA,0,97,97,97,NA,97,NA,97,NA,9/18/2022 22:33,600,The main experiment item,yes,FlankerTask.osexp,C:/Users/olasa/OneDrive/Desktop,no,mono,no,18,no,white,no,yes,768,legacy,17,79,C:/Users/olasa/OneDrive/Desktop/OL-subject-1.csv,legacy,Lentiform Loewenfeld,3.3.12,0,s,space,NA,NA,h,NA,NA,s,NA,NA,451,1235,NA,NA,7477,NA,NA,451,NA,NA,NA,NA,2,legacy,1024,2,48000,-16,experiment,HHSHH,1,odd,3515,150531,NA,2276,176082,2272,NA,NA,179321,NA,143053,NA,NA,178263,179423,179875,NA,179313,NA,179423,NA,Flanker Task,76,44375,98,yes,1024
77.77777778,77.77777778,452.8484848,452.8484848,black,legacy,legacy,legacy,0,congruent,uniform,1,undefined,1,h,0,0,0,0,98,0,98,0,98,NA,0,NA,0,98,98,98,NA,98,NA,98,NA,9/18/2022 22:33,600,The main experiment item,yes,FlankerTask.osexp,C:/Users/olasa/OneDrive/Desktop,no,mono,no,18,no,white,no,yes,768,legacy,18,79,C:/Users/olasa/OneDrive/Desktop/OL-subject-1.csv,legacy,Lentiform Loewenfeld,3.3.12,0,h,space,NA,NA,h,NA,NA,h,NA,NA,457,1235,NA,NA,7477,NA,NA,457,NA,NA,NA,NA,2,legacy,1024,2,48000,-16,experiment,HHHHH,1,odd,3515,150531,NA,2276,176082,2272,NA,NA,180931,NA,143053,NA,NA,179881,181033,181492,NA,180929,NA,181033,NA,Flanker Task,77,44832,99,yes,1024
78,78,456.64,456.64,black,legacy,legacy,legacy,0,congruent,uniform,1,undefined,1,s,0,0,0,0,99,0,99,0,99,NA,0,NA,0,99,99,99,NA,99,NA,99,NA,9/18/2022 22:33,600,The main experiment item,yes,FlankerTask.osexp,C:/Users/olasa/OneDrive/Desktop,no,mono,no,18,no,white,no,yes,768,legacy,19,79,C:/Users/olasa/OneDrive/Desktop/OL-subject-1.csv,legacy,Lentiform Loewenfeld,3.3.12,0,s,space,NA,NA,h,NA,NA,s,NA,NA,832,1235,NA,NA,7477,NA,NA,832,NA,NA,NA,NA,2,legacy,1024,2,48000,-16,experiment,SSSSS,1,odd,3515,150531,NA,2276,176082,2272,NA,NA,182549,NA,143053,NA,NA,181500,182651,183485,NA,182547,NA,182651,NA,Flanker Task,78,45664,100,yes,1024
78.21782178,78.21782178,456.2970297,456.2970297,black,legacy,legacy,legacy,0,congruent,uniform,1,undefined,1,h,0,0,0,0,100,0,100,0,100,NA,0,NA,0,100,100,100,NA,100,NA,100,NA,9/18/2022 22:33,600,The main experiment item,yes,FlankerTask.osexp,C:/Users/olasa/OneDrive/Desktop,no,mono,no,18,no,white,no,yes,768,legacy,20,79,C:/Users/olasa/OneDrive/Desktop/OL-subject-1.csv,legacy,Lentiform Loewenfeld,3.3.12,0,h,space,NA,NA,h,NA,NA,h,NA,NA,422,1235,NA,NA,7477,NA,NA,422,NA,NA,NA,NA,2,legacy,1024,2,48000,-16,experiment,HHHHH,1,odd,3515,150531,NA,2276,176082,2272,183493,NA,185056,NA,143053,NA,NA,183994,185157,185581,NA,185053,NA,185157,NA,Flanker Task,79,46086,101,yes,1024
78.43137255,78.43137255,455.0294118,455.0294118,black,legacy,legacy,legacy,0,congruent,uniform,1,undefined,1,s,0,0,0,0,101,0,101,0,101,NA,0,NA,0,101,101,101,NA,101,NA,101,NA,9/18/2022 22:33,600,The main experiment item,yes,FlankerTask.osexp,C:/Users/olasa/OneDrive/Desktop,no,mono,no,18,no,white,no,yes,768,legacy,21,79,C:/Users/olasa/OneDrive/Desktop/OL-subject-1.csv,legacy,Lentiform Loewenfeld,3.3.12,0,s,space,NA,NA,h,NA,NA,s,NA,NA,327,1235,NA,NA,7477,NA,NA,327,NA,NA,NA,NA,2,legacy,1024,2,48000,-16,experiment,SSSSS,1,odd,3515,150531,NA,2276,176082,2272,183493,NA,186642,NA,143053,NA,NA,185589,186743,187072,NA,186639,NA,186743,NA,Flanker Task,80,46413,102,yes,1024
77.66990291,77.66990291,454.3398058,454.3398058,black,legacy,legacy,legacy,0,congruent,uniform,0,undefined,0,h,0,0,0,0,102,0,102,0,102,NA,0,NA,0,102,102,102,NA,102,NA,102,NA,9/18/2022 22:33,600,The main experiment item,yes,FlankerTask.osexp,C:/Users/olasa/OneDrive/Desktop,no,mono,no,18,no,white,no,yes,768,legacy,22,79,C:/Users/olasa/OneDrive/Desktop/OL-subject-1.csv,legacy,Lentiform Loewenfeld,3.3.12,0,s,space,NA,NA,h,NA,NA,s,NA,NA,384,1235,NA,NA,7477,NA,NA,384,NA,NA,NA,NA,2,legacy,1024,2,48000,-16,experiment,HHHHH,1,odd,3515,150531,NA,2276,176082,2272,183493,NA,188150,NA,143053,NA,NA,187100,188252,188636,NA,188148,NA,188252,NA,Flanker Task,80,46797,103,yes,1024
77.88461538,77.88461538,451.7115385,451.7115385,black,legacy,legacy,legacy,0,congruent,uniform,1,undefined,1,s,0,0,0,0,103,0,103,0,103,NA,0,NA,0,103,103,103,NA,103,NA,103,NA,9/18/2022 22:33,600,The main experiment item,yes,FlankerTask.osexp,C:/Users/olasa/OneDrive/Desktop,no,mono,no,18,no,white,no,yes,768,legacy,23,79,C:/Users/olasa/OneDrive/Desktop/OL-subject-1.csv,legacy,Lentiform Loewenfeld,3.3.12,0,s,space,NA,NA,h,NA,NA,s,NA,NA,181,1235,NA,NA,7477,NA,NA,181,NA,NA,NA,NA,2,legacy,1024,2,48000,-16,experiment,SSSSS,1,odd,3515,150531,NA,2276,188641,2272,183493,NA,190201,NA,143053,NA,NA,189142,190303,190485,NA,190197,NA,190303,NA,Flanker Task,81,46978,104,yes,1024
77.14285714,77.14285714,449.7333333,449.7333333,black,legacy,legacy,legacy,0,incongruent,uniform,0,undefined,0,s,0,0,0,0,104,0,104,0,104,NA,0,NA,0,104,104,104,NA,104,NA,104,NA,9/18/2022 22:33,600,The main experiment item,yes,FlankerTask.osexp,C:/Users/olasa/OneDrive/Desktop,no,mono,no,18,no,white,no,yes,768,legacy,24,79,C:/Users/olasa/OneDrive/Desktop/OL-subject-1.csv,legacy,Lentiform Loewenfeld,3.3.12,0,h,space,NA,NA,h,NA,NA,h,NA,NA,244,1235,NA,NA,7477,NA,NA,244,NA,NA,NA,NA,2,legacy,1024,2,48000,-16,experiment,HHSHH,1,odd,3515,150531,NA,2276,188641,2272,183493,NA,191559,NA,143053,NA,NA,190513,191660,191906,NA,191557,NA,191660,NA,Flanker Task,81,47222,105,yes,1024
77.35849057,77.35849057,450.4150943,450.4150943,black,legacy,legacy,legacy,0,congruent,uniform,1,undefined,1,s,0,0,0,0,105,0,105,0,105,NA,0,NA,0,105,105,105,NA,105,NA,105,NA,9/18/2022 22:33,600,The main experiment item,yes,FlankerTask.osexp,C:/Users/olasa/OneDrive/Desktop,no,mono,no,18,no,white,no,yes,768,legacy,25,79,C:/Users/olasa/OneDrive/Desktop/OL-subject-1.csv,legacy,Lentiform Loewenfeld,3.3.12,0,s,space,NA,NA,h,NA,NA,s,NA,NA,522,1235,NA,NA,7477,NA,NA,522,NA,NA,NA,NA,2,legacy,1024,2,48000,-16,experiment,SSSSS,1,odd,3515,150531,NA,2276,191914,2272,183493,NA,193463,NA,143053,NA,NA,192415,193565,194088,NA,193460,NA,193564,NA,Flanker Task,82,47744,106,yes,1024
76.63551402,76.63551402,448.728972,448.728972,black,legacy,legacy,legacy,0,incongruent,uniform,0,undefined,0,h,0,0,0,0,106,0,106,0,106,NA,0,NA,0,106,106,106,NA,106,NA,106,NA,9/18/2022 22:33,600,The main experiment item,yes,FlankerTask.osexp,C:/Users/olasa/OneDrive/Desktop,no,mono,no,18,no,white,no,yes,768,legacy,26,79,C:/Users/olasa/OneDrive/Desktop/OL-subject-1.csv,legacy,Lentiform Loewenfeld,3.3.12,0,s,space,NA,NA,h,NA,NA,s,NA,NA,270,1235,NA,NA,7477,NA,NA,270,NA,NA,NA,NA,2,legacy,1024,2,48000,-16,experiment,SSHSS,1,odd,3515,150531,NA,2276,191914,2272,183493,NA,195176,NA,143053,NA,NA,194117,195278,195549,NA,195174,NA,195278,NA,Flanker Task,82,48014,107,yes,1024
76.85185185,76.85185185,447.287037,447.287037,black,legacy,legacy,legacy,0,incongruent,uniform,1,undefined,1,h,0,0,0,0,107,0,107,0,107,NA,0,NA,0,107,107,107,NA,107,NA,107,NA,9/18/2022 22:33,600,The main experiment item,yes,FlankerTask.osexp,C:/Users/olasa/OneDrive/Desktop,no,mono,no,18,no,white,no,yes,768,legacy,27,79,C:/Users/olasa/OneDrive/Desktop/OL-subject-1.csv,legacy,Lentiform Loewenfeld,3.3.12,0,h,space,NA,NA,h,NA,NA,h,NA,NA,293,1235,NA,NA,7477,NA,NA,293,NA,NA,NA,NA,2,legacy,1024,2,48000,-16,experiment,SSHSS,1,odd,3515,150531,NA,2276,195577,2272,183493,NA,197124,NA,143053,NA,NA,196078,197226,197522,NA,197122,NA,197226,NA,Flanker Task,83,48307,108,yes,1024
76.14678899,76.14678899,444.7522936,444.7522936,black,legacy,legacy,legacy,0,congruent,uniform,0,undefined,0,h,0,0,0,0,108,0,108,0,108,NA,0,NA,0,108,108,108,NA,108,NA,108,NA,9/18/2022 22:33,600,The main experiment item,yes,FlankerTask.osexp,C:/Users/olasa/OneDrive/Desktop,no,mono,no,18,no,white,no,yes,768,legacy,28,79,C:/Users/olasa/OneDrive/Desktop/OL-subject-1.csv,legacy,Lentiform Loewenfeld,3.3.12,0,s,space,NA,NA,h,NA,NA,s,NA,NA,171,1235,NA,NA,7477,NA,NA,171,NA,NA,NA,NA,2,legacy,1024,2,48000,-16,experiment,HHHHH,1,odd,3515,150531,NA,2276,195577,2272,183493,NA,198573,NA,143053,NA,NA,197525,198675,198848,NA,198571,NA,198675,NA,Flanker Task,83,48478,109,yes,1024
76.36363636,76.36363636,447.2363636,447.2363636,black,legacy,legacy,legacy,0,congruent,uniform,1,undefined,1,h,0,0,0,0,109,0,109,0,109,NA,0,NA,0,109,109,109,NA,109,NA,109,NA,9/18/2022 22:33,600,The main experiment item,yes,FlankerTask.osexp,C:/Users/olasa/OneDrive/Desktop,no,mono,no,18,no,white,no,yes,768,legacy,29,79,C:/Users/olasa/OneDrive/Desktop/OL-subject-1.csv,legacy,Lentiform Loewenfeld,3.3.12,0,h,space,NA,NA,h,NA,NA,h,NA,NA,718,1235,NA,NA,7477,NA,NA,718,NA,NA,NA,NA,2,legacy,1024,2,48000,-16,experiment,HHHHH,1,odd,3515,150531,NA,2276,198862,2272,183493,NA,200409,NA,143053,NA,NA,199364,200511,201231,NA,200407,NA,200510,NA,Flanker Task,84,49196,110,yes,1024
76.57657658,76.57657658,446.5495496,446.5495496,black,legacy,legacy,legacy,0,congruent,uniform,1,undefined,1,s,0,0,0,0,110,0,110,0,110,NA,0,NA,0,110,110,110,NA,110,NA,110,NA,9/18/2022 22:33,600,The main experiment item,yes,FlankerTask.osexp,C:/Users/olasa/OneDrive/Desktop,no,mono,no,18,no,white,no,yes,768,legacy,30,79,C:/Users/olasa/OneDrive/Desktop/OL-subject-1.csv,legacy,Lentiform Loewenfeld,3.3.12,0,s,space,NA,NA,h,NA,NA,s,NA,NA,371,1235,NA,NA,7477,NA,NA,371,NA,NA,NA,NA,2,legacy,1024,2,48000,-16,experiment,SSSSS,1,odd,3515,150531,NA,2276,198862,2272,201260,NA,202807,NA,143053,NA,NA,201761,202908,203280,NA,202804,NA,202908,NA,Flanker Task,85,49567,111,yes,1024
76.78571429,76.78571429,444.9910714,444.9910714,black,legacy,legacy,legacy,0,incongruent,uniform,1,undefined,1,h,0,0,0,0,111,0,111,0,111,NA,0,NA,0,111,111,111,NA,111,NA,111,NA,9/18/2022 22:33,600,The main experiment item,yes,FlankerTask.osexp,C:/Users/olasa/OneDrive/Desktop,no,mono,no,18,no,white,no,yes,768,legacy,31,79,C:/Users/olasa/OneDrive/Desktop/OL-subject-1.csv,legacy,Lentiform Loewenfeld,3.3.12,0,h,space,NA,NA,h,NA,NA,h,NA,NA,272,1235,NA,NA,7477,NA,NA,272,NA,NA,NA,NA,2,legacy,1024,2,48000,-16,experiment,SSHSS,1,odd,3515,150531,NA,2276,198862,2272,201260,NA,204355,NA,143053,NA,NA,203309,204457,204734,NA,204353,NA,204456,NA,Flanker Task,86,49839,112,yes,1024
76.99115044,76.99115044,443.3716814,443.3716814,black,legacy,legacy,legacy,0,congruent,uniform,1,undefined,1,s,0,0,0,0,112,0,112,0,112,NA,0,NA,0,112,112,112,NA,112,NA,112,NA,9/18/2022 22:33,600,The main experiment item,yes,FlankerTask.osexp,C:/Users/olasa/OneDrive/Desktop,no,mono,no,18,no,white,no,yes,768,legacy,32,79,C:/Users/olasa/OneDrive/Desktop/OL-subject-1.csv,legacy,Lentiform Loewenfeld,3.3.12,0,s,space,NA,NA,h,NA,NA,s,NA,NA,262,1235,NA,NA,7477,NA,NA,262,NA,NA,NA,NA,2,legacy,1024,2,48000,-16,experiment,SSSSS,1,odd,3515,150531,NA,2276,198862,2272,201260,NA,205796,NA,143053,NA,NA,204743,205898,206162,NA,205795,NA,205898,NA,Flanker Task,87,50101,113,yes,1024
76.31578947,76.31578947,440.9473684,440.9473684,black,legacy,legacy,legacy,0,congruent,uniform,0,undefined,0,s,0,0,0,0,113,0,113,0,113,NA,0,NA,0,113,113,113,NA,113,NA,113,NA,9/18/2022 22:33,600,The main experiment item,yes,FlankerTask.osexp,C:/Users/olasa/OneDrive/Desktop,no,mono,no,18,no,white,no,yes,768,legacy,33,79,C:/Users/olasa/OneDrive/Desktop/OL-subject-1.csv,legacy,Lentiform Loewenfeld,3.3.12,0,h,space,NA,NA,h,NA,NA,h,NA,NA,167,1235,NA,NA,7477,NA,NA,167,NA,NA,NA,NA,2,legacy,1024,2,48000,-16,experiment,SSSSS,1,odd,3515,150531,NA,2276,198862,2272,201260,NA,207244,NA,143053,NA,NA,206190,207346,207515,NA,207242,NA,207346,NA,Flanker Task,87,50268,114,yes,1024
76.52173913,76.52173913,438.7043478,438.7043478,black,legacy,legacy,legacy,0,congruent,uniform,1,undefined,1,s,0,0,0,0,114,0,114,0,114,NA,0,NA,0,114,114,114,NA,114,NA,114,NA,9/18/2022 22:33,600,The main experiment item,yes,FlankerTask.osexp,C:/Users/olasa/OneDrive/Desktop,no,mono,no,18,no,white,no,yes,768,legacy,34,79,C:/Users/olasa/OneDrive/Desktop/OL-subject-1.csv,legacy,Lentiform Loewenfeld,3.3.12,0,s,space,NA,NA,h,NA,NA,s,NA,NA,183,1235,NA,NA,7477,NA,NA,183,NA,NA,NA,NA,2,legacy,1024,2,48000,-16,experiment,SSSSS,1,odd,3515,150531,NA,2276,207544,2272,201260,NA,209095,NA,143053,NA,NA,208045,209196,209381,NA,209092,NA,209196,NA,Flanker Task,88,50451,115,yes,1024
75.86206897,75.86206897,437.0431034,437.0431034,black,legacy,legacy,legacy,0,congruent,uniform,0,undefined,0,h,0,0,0,0,115,0,115,0,115,NA,0,NA,0,115,115,115,NA,115,NA,115,NA,9/18/2022 22:33,600,The main experiment item,yes,FlankerTask.osexp,C:/Users/olasa/OneDrive/Desktop,no,mono,no,18,no,white,no,yes,768,legacy,35,79,C:/Users/olasa/OneDrive/Desktop/OL-subject-1.csv,legacy,Lentiform Loewenfeld,3.3.12,0,s,space,NA,NA,h,NA,NA,s,NA,NA,246,1235,NA,NA,7477,NA,NA,246,NA,NA,NA,NA,2,legacy,1024,2,48000,-16,experiment,HHHHH,1,odd,3515,150531,NA,2276,207544,2272,201260,NA,210442,NA,143053,NA,NA,209390,210544,210792,NA,210440,NA,210544,NA,Flanker Task,88,50697,116,yes,1024
75.21367521,75.21367521,435.7094017,435.7094017,black,legacy,legacy,legacy,0,incongruent,uniform,0,undefined,0,h,0,0,0,0,116,0,116,0,116,NA,0,NA,0,116,116,116,NA,116,NA,116,NA,9/18/2022 22:33,600,The main experiment item,yes,FlankerTask.osexp,C:/Users/olasa/OneDrive/Desktop,no,mono,no,18,no,white,no,yes,768,legacy,36,79,C:/Users/olasa/OneDrive/Desktop/OL-subject-1.csv,legacy,Lentiform Loewenfeld,3.3.12,0,s,space,NA,NA,h,NA,NA,s,NA,NA,281,1235,NA,NA,7477,NA,NA,281,NA,NA,NA,NA,2,legacy,1024,2,48000,-16,experiment,SSHSS,1,odd,3515,150531,NA,2276,210821,2272,201260,NA,212372,NA,143053,NA,NA,211322,212473,212756,NA,212370,NA,212473,NA,Flanker Task,88,50978,117,yes,1024
74.57627119,74.57627119,437.2881356,437.2881356,black,legacy,legacy,legacy,0,congruent,uniform,0,undefined,0,s,0,0,0,0,117,0,117,0,117,NA,0,NA,0,117,117,117,NA,117,NA,117,NA,9/18/2022 22:33,600,The main experiment item,yes,FlankerTask.osexp,C:/Users/olasa/OneDrive/Desktop,no,mono,no,18,no,white,no,yes,768,legacy,37,79,C:/Users/olasa/OneDrive/Desktop/OL-subject-1.csv,legacy,Lentiform Loewenfeld,3.3.12,0,h,space,NA,NA,h,NA,NA,h,NA,NA,622,1235,NA,NA,7477,NA,NA,622,NA,NA,NA,NA,2,legacy,1024,2,48000,-16,experiment,SSSSS,1,odd,3515,150531,NA,2276,212765,2272,201260,NA,214317,NA,143053,NA,NA,213266,214418,215042,NA,214315,NA,214418,NA,Flanker Task,88,51600,118,yes,1024
73.94957983,73.94957983,435.5378151,435.5378151,black,legacy,legacy,legacy,0,congruent,uniform,0,undefined,0,s,0,0,0,0,118,0,118,0,118,NA,0,NA,0,118,118,118,NA,118,NA,118,NA,9/18/2022 22:33,600,The main experiment item,yes,FlankerTask.osexp,C:/Users/olasa/OneDrive/Desktop,no,mono,no,18,no,white,no,yes,768,legacy,38,79,C:/Users/olasa/OneDrive/Desktop/OL-subject-1.csv,legacy,Lentiform Loewenfeld,3.3.12,0,h,space,NA,NA,h,NA,NA,h,NA,NA,229,1235,NA,NA,7477,NA,NA,229,NA,NA,NA,NA,2,legacy,1024,2,48000,-16,experiment,SSSSS,1,odd,3515,150531,NA,2276,215070,2272,215571,NA,217124,NA,143053,NA,NA,216073,217226,217457,NA,217122,NA,217226,NA,Flanker Task,88,51829,119,yes,1024
74.16666667,74.16666667,432.8416667,432.8416667,black,legacy,legacy,legacy,0,incongruent,uniform,1,undefined,1,h,0,0,0,0,119,0,119,0,119,NA,0,NA,0,119,119,119,NA,119,NA,119,NA,9/18/2022 22:33,600,The main experiment item,yes,FlankerTask.osexp,C:/Users/olasa/OneDrive/Desktop,no,mono,no,18,no,white,no,yes,768,legacy,39,79,C:/Users/olasa/OneDrive/Desktop/OL-subject-1.csv,legacy,Lentiform Loewenfeld,3.3.12,0,h,space,NA,NA,h,NA,NA,h,NA,NA,112,1235,NA,NA,7477,NA,NA,112,NA,NA,NA,NA,2,legacy,1024,2,48000,-16,experiment,SSHSS,1,odd,3515,150531,NA,2276,217463,2272,215571,NA,219024,NA,143053,NA,NA,217964,219125,219240,NA,219013,NA,219125,NA,Flanker Task,89,51941,120,yes,1024
74.38016529,74.38016529,431.8181818,431.8181818,black,legacy,legacy,legacy,0,incongruent,uniform,1,undefined,1,h,0,0,0,0,120,0,120,0,120,NA,0,NA,0,120,120,120,NA,120,NA,120,NA,9/18/2022 22:33,600,The main experiment item,yes,FlankerTask.osexp,C:/Users/olasa/OneDrive/Desktop,no,mono,no,18,no,white,no,yes,768,legacy,40,79,C:/Users/olasa/OneDrive/Desktop/OL-subject-1.csv,legacy,Lentiform Loewenfeld,3.3.12,0,h,space,NA,NA,h,NA,NA,h,NA,NA,309,1235,NA,NA,7477,NA,NA,309,NA,NA,NA,NA,2,legacy,1024,2,48000,-16,experiment,SSHSS,1,odd,3515,150531,NA,2276,217463,2272,215571,NA,220313,NA,143053,NA,NA,219250,220415,220726,NA,220297,NA,220415,NA,Flanker Task,90,52250,121,yes,1024
74.59016393,74.59016393,429.2213115,429.2213115,black,legacy,legacy,legacy,0,congruent,uniform,1,undefined,1,h,0,0,0,0,121,0,121,0,121,NA,0,NA,0,121,121,121,NA,121,NA,121,NA,9/18/2022 22:33,600,The main experiment item,yes,FlankerTask.osexp,C:/Users/olasa/OneDrive/Desktop,no,mono,no,18,no,white,no,yes,768,legacy,41,79,C:/Users/olasa/OneDrive/Desktop/OL-subject-1.csv,legacy,Lentiform Loewenfeld,3.3.12,0,h,space,NA,NA,h,NA,NA,h,NA,NA,115,1235,NA,NA,7477,NA,NA,115,NA,NA,NA,NA,2,legacy,1024,2,48000,-16,experiment,HHHHH,1,odd,3515,150531,NA,2276,217463,2272,215571,NA,221784,NA,143053,NA,NA,220734,221886,222002,NA,221782,NA,221886,NA,Flanker Task,91,52365,122,yes,1024
73.98373984,73.98373984,426.6585366,426.6585366,black,legacy,legacy,legacy,0,incongruent,uniform,0,undefined,0,s,0,0,0,0,122,0,122,0,122,NA,0,NA,0,122,122,122,NA,122,NA,122,NA,9/18/2022 22:33,600,The main experiment item,yes,FlankerTask.osexp,C:/Users/olasa/OneDrive/Desktop,no,mono,no,18,no,white,no,yes,768,legacy,42,79,C:/Users/olasa/OneDrive/Desktop/OL-subject-1.csv,legacy,Lentiform Loewenfeld,3.3.12,0,h,space,NA,NA,h,NA,NA,h,NA,NA,114,1235,NA,NA,7477,NA,NA,114,NA,NA,NA,NA,2,legacy,1024,2,48000,-16,experiment,HHSHH,1,odd,3515,150531,NA,2276,217463,2272,215571,NA,223076,NA,143053,NA,NA,222031,223177,223293,NA,223075,NA,223177,NA,Flanker Task,91,52479,123,yes,1024
73.38709677,73.38709677,426.8870968,426.8870968,black,legacy,legacy,legacy,0,incongruent,uniform,0,undefined,0,s,0,0,0,0,123,0,123,0,123,NA,0,NA,0,123,123,123,NA,123,NA,123,NA,9/18/2022 22:33,600,The main experiment item,yes,FlankerTask.osexp,C:/Users/olasa/OneDrive/Desktop,no,mono,no,18,no,white,no,yes,768,legacy,43,79,C:/Users/olasa/OneDrive/Desktop/OL-subject-1.csv,legacy,Lentiform Loewenfeld,3.3.12,0,h,space,NA,NA,h,NA,NA,h,NA,NA,455,1235,NA,NA,7477,NA,NA,455,NA,NA,NA,NA,2,legacy,1024,2,48000,-16,experiment,HHSHH,1,odd,3515,150531,NA,2276,223298,2272,215571,NA,224847,NA,143053,NA,NA,223799,224950,225408,NA,224845,NA,224949,NA,Flanker Task,91,52934,124,yes,1024
72.8,72.8,424.696,424.696,black,legacy,legacy,legacy,0,incongruent,uniform,0,undefined,0,s,0,0,0,0,124,0,124,0,124,NA,0,NA,0,124,124,124,NA,124,NA,124,NA,9/18/2022 22:33,600,The main experiment item,yes,FlankerTask.osexp,C:/Users/olasa/OneDrive/Desktop,no,mono,no,18,no,white,no,yes,768,legacy,44,79,C:/Users/olasa/OneDrive/Desktop/OL-subject-1.csv,legacy,Lentiform Loewenfeld,3.3.12,0,h,space,NA,NA,h,NA,NA,h,NA,NA,153,1235,NA,NA,7477,NA,NA,153,NA,NA,NA,NA,2,legacy,1024,2,48000,-16,experiment,HHSHH,1,odd,3515,150531,NA,2276,225416,2272,215571,NA,226974,NA,143053,NA,NA,225917,227075,227232,NA,226972,NA,227075,NA,Flanker Task,91,53087,125,yes,1024
73.01587302,73.01587302,422.5,422.5,black,legacy,legacy,legacy,0,congruent,uniform,1,undefined,1,h,0,0,0,0,125,0,125,0,125,NA,0,NA,0,125,125,125,NA,125,NA,125,NA,9/18/2022 22:33,600,The main experiment item,yes,FlankerTask.osexp,C:/Users/olasa/OneDrive/Desktop,no,mono,no,18,no,white,no,yes,768,legacy,45,79,C:/Users/olasa/OneDrive/Desktop/OL-subject-1.csv,legacy,Lentiform Loewenfeld,3.3.12,0,h,space,NA,NA,h,NA,NA,h,NA,NA,148,1235,NA,NA,7477,NA,NA,148,NA,NA,NA,NA,2,legacy,1024,2,48000,-16,experiment,HHHHH,1,odd,3515,150531,NA,2276,227262,2272,215571,NA,228808,NA,143053,NA,NA,227763,228910,229060,NA,228806,NA,228910,NA,Flanker Task,92,53235,126,yes,1024
72.44094488,72.44094488,420.8897638,420.8897638,black,legacy,legacy,legacy,0,incongruent,uniform,0,undefined,0,s,0,0,0,0,126,0,126,0,126,NA,0,NA,0,126,126,126,NA,126,NA,126,NA,9/18/2022 22:33,600,The main experiment item,yes,FlankerTask.osexp,C:/Users/olasa/OneDrive/Desktop,no,mono,no,18,no,white,no,yes,768,legacy,46,79,C:/Users/olasa/OneDrive/Desktop/OL-subject-1.csv,legacy,Lentiform Loewenfeld,3.3.12,0,h,space,NA,NA,h,NA,NA,h,NA,NA,218,1235,NA,NA,7477,NA,NA,218,NA,NA,NA,NA,2,legacy,1024,2,48000,-16,experiment,HHSHH,1,odd,3515,150531,NA,2276,227262,2272,215571,NA,230122,NA,143053,NA,NA,229068,230224,230443,NA,230121,NA,230224,NA,Flanker Task,92,53453,127,yes,1024
72.65625,72.65625,418.7578125,418.7578125,black,legacy,legacy,legacy,0,congruent,uniform,1,undefined,1,h,0,0,0,0,127,0,127,0,127,NA,0,NA,0,127,127,127,NA,127,NA,127,NA,9/18/2022 22:33,600,The main experiment item,yes,FlankerTask.osexp,C:/Users/olasa/OneDrive/Desktop,no,mono,no,18,no,white,no,yes,768,legacy,47,79,C:/Users/olasa/OneDrive/Desktop/OL-subject-1.csv,legacy,Lentiform Loewenfeld,3.3.12,0,h,space,NA,NA,h,NA,NA,h,NA,NA,148,1235,NA,NA,7477,NA,NA,148,NA,NA,NA,NA,2,legacy,1024,2,48000,-16,experiment,HHHHH,1,odd,3515,150531,NA,2276,230452,2272,215571,NA,232002,NA,143053,NA,NA,230953,232104,232253,NA,232001,NA,232104,NA,Flanker Task,93,53601,128,yes,1024
72.09302326,72.09302326,416.8682171,416.8682171,black,legacy,legacy,legacy,0,incongruent,uniform,0,undefined,0,s,0,0,0,0,128,0,128,0,128,NA,0,NA,0,128,128,128,NA,128,NA,128,NA,9/18/2022 22:33,600,The main experiment item,yes,FlankerTask.osexp,C:/Users/olasa/OneDrive/Desktop,no,mono,no,18,no,white,no,yes,768,legacy,48,79,C:/Users/olasa/OneDrive/Desktop/OL-subject-1.csv,legacy,Lentiform Loewenfeld,3.3.12,0,h,space,NA,NA,h,NA,NA,h,NA,NA,175,1235,NA,NA,7477,NA,NA,175,NA,NA,NA,NA,2,legacy,1024,2,48000,-16,experiment,HHSHH,1,odd,3515,150531,NA,2276,230452,2272,215571,NA,233311,NA,143053,NA,NA,232261,233413,233590,NA,233307,NA,233412,NA,Flanker Task,93,53776,129,yes,1024
72.30769231,72.30769231,415.6692308,415.6692308,black,legacy,legacy,legacy,0,incongruent,uniform,1,undefined,1,h,0,0,0,0,129,0,129,0,129,NA,0,NA,0,129,129,129,NA,129,NA,129,NA,9/18/2022 22:33,600,The main experiment item,yes,FlankerTask.osexp,C:/Users/olasa/OneDrive/Desktop,no,mono,no,18,no,white,no,yes,768,legacy,49,79,C:/Users/olasa/OneDrive/Desktop/OL-subject-1.csv,legacy,Lentiform Loewenfeld,3.3.12,0,h,space,NA,NA,h,NA,NA,h,NA,NA,261,1235,NA,NA,7477,NA,NA,261,NA,NA,NA,NA,2,legacy,1024,2,48000,-16,experiment,SSHSS,1,odd,3515,150531,NA,2276,233599,2272,215571,NA,235155,NA,143053,NA,NA,234100,235257,235521,NA,235152,NA,235257,NA,Flanker Task,94,54037,130,yes,1024
72.51908397,72.51908397,413.4045802,413.4045802,black,legacy,legacy,legacy,0,incongruent,uniform,1,undefined,1,h,0,0,0,0,130,0,130,0,130,NA,0,NA,0,130,130,130,NA,130,NA,130,NA,9/18/2022 22:33,600,The main experiment item,yes,FlankerTask.osexp,C:/Users/olasa/OneDrive/Desktop,no,mono,no,18,no,white,no,yes,768,legacy,50,79,C:/Users/olasa/OneDrive/Desktop/OL-subject-1.csv,legacy,Lentiform Loewenfeld,3.3.12,0,h,space,NA,NA,h,NA,NA,h,NA,NA,119,1235,NA,NA,7477,NA,NA,119,NA,NA,NA,NA,2,legacy,1024,2,48000,-16,experiment,SSHSS,1,odd,3515,150531,NA,2276,233599,2272,215571,NA,236594,NA,143053,NA,NA,235549,236696,236817,NA,236593,NA,236696,NA,Flanker Task,95,54156,131,yes,1024
72.72727273,72.72727273,411.1818182,411.1818182,black,legacy,legacy,legacy,0,congruent,uniform,1,undefined,1,h,0,0,0,0,131,0,131,0,131,NA,0,NA,0,131,131,131,NA,131,NA,131,NA,9/18/2022 22:33,600,The main experiment item,yes,FlankerTask.osexp,C:/Users/olasa/OneDrive/Desktop,no,mono,no,18,no,white,no,yes,768,legacy,51,79,C:/Users/olasa/OneDrive/Desktop/OL-subject-1.csv,legacy,Lentiform Loewenfeld,3.3.12,0,h,space,NA,NA,h,NA,NA,h,NA,NA,120,1235,NA,NA,7477,NA,NA,120,NA,NA,NA,NA,2,legacy,1024,2,48000,-16,experiment,HHHHH,1,odd,3515,150531,NA,2276,233599,2272,215571,NA,237892,NA,143053,NA,NA,236846,237993,238115,NA,237890,NA,237993,NA,Flanker Task,96,54276,132,yes,1024
72.18045113,72.18045113,411.8120301,411.8120301,black,legacy,legacy,legacy,0,congruent,uniform,0,undefined,0,s,0,0,0,0,132,0,132,0,132,NA,0,NA,0,132,132,132,NA,132,NA,132,NA,9/18/2022 22:33,600,The main experiment item,yes,FlankerTask.osexp,C:/Users/olasa/OneDrive/Desktop,no,mono,no,18,no,white,no,yes,768,legacy,52,79,C:/Users/olasa/OneDrive/Desktop/OL-subject-1.csv,legacy,Lentiform Loewenfeld,3.3.12,0,h,space,NA,NA,h,NA,NA,h,NA,NA,495,1235,NA,NA,7477,NA,NA,495,NA,NA,NA,NA,2,legacy,1024,2,48000,-16,experiment,SSSSS,1,odd,3515,150531,NA,2276,233599,2272,215571,NA,239166,NA,143053,NA,NA,238120,239268,239764,NA,239164,NA,239267,NA,Flanker Task,96,54771,133,yes,1024
71.64179104,71.64179104,410.1268657,410.1268657,black,legacy,legacy,legacy,0,congruent,uniform,0,undefined,0,s,0,0,0,0,133,0,133,0,133,NA,0,NA,0,133,133,133,NA,133,NA,133,NA,9/18/2022 22:33,600,The main experiment item,yes,FlankerTask.osexp,C:/Users/olasa/OneDrive/Desktop,no,mono,no,18,no,white,no,yes,768,legacy,53,79,C:/Users/olasa/OneDrive/Desktop/OL-subject-1.csv,legacy,Lentiform Loewenfeld,3.3.12,0,h,space,NA,NA,h,NA,NA,h,NA,NA,186,1235,NA,NA,7477,NA,NA,186,NA,NA,NA,NA,2,legacy,1024,2,48000,-16,experiment,SSSSS,1,odd,3515,150531,NA,2276,239768,2272,215571,NA,241314,NA,143053,NA,NA,240269,241415,241603,NA,241312,NA,241415,NA,Flanker Task,96,54957,134,yes,1024
71.11111111,71.11111111,408.1185185,408.1185185,black,legacy,legacy,legacy,0,incongruent,uniform,0,undefined,0,s,0,0,0,0,134,0,134,0,134,NA,0,NA,0,134,134,134,NA,134,NA,134,NA,9/18/2022 22:33,600,The main experiment item,yes,FlankerTask.osexp,C:/Users/olasa/OneDrive/Desktop,no,mono,no,18,no,white,no,yes,768,legacy,54,79,C:/Users/olasa/OneDrive/Desktop/OL-subject-1.csv,legacy,Lentiform Loewenfeld,3.3.12,0,h,space,NA,NA,h,NA,NA,h,NA,NA,139,1235,NA,NA,7477,NA,NA,139,NA,NA,NA,NA,2,legacy,1024,2,48000,-16,experiment,HHSHH,1,odd,3515,150531,NA,2276,241612,2272,215571,NA,243162,NA,143053,NA,NA,242113,243263,243404,NA,243160,NA,243263,NA,Flanker Task,96,55096,135,yes,1024
70.58823529,70.58823529,406.2352941,406.2352941,black,legacy,legacy,legacy,0,congruent,uniform,0,undefined,0,s,0,0,0,0,135,0,135,0,135,NA,0,NA,0,135,135,135,NA,135,NA,135,NA,9/18/2022 22:33,600,The main experiment item,yes,FlankerTask.osexp,C:/Users/olasa/OneDrive/Desktop,no,mono,no,18,no,white,no,yes,768,legacy,55,79,C:/Users/olasa/OneDrive/Desktop/OL-subject-1.csv,legacy,Lentiform Loewenfeld,3.3.12,0,h,space,NA,NA,h,NA,NA,h,NA,NA,152,1235,NA,NA,7477,NA,NA,152,NA,NA,NA,NA,2,legacy,1024,2,48000,-16,experiment,SSSSS,1,odd,3515,150531,NA,2276,243433,2272,215571,NA,244982,NA,143053,NA,NA,243934,245083,245237,NA,244980,NA,245083,NA,Flanker Task,96,55248,136,yes,1024
70.80291971,70.80291971,404.540146,404.540146,black,legacy,legacy,legacy,0,incongruent,uniform,1,undefined,1,h,0,0,0,0,136,0,136,0,136,NA,0,NA,0,136,136,136,NA,136,NA,136,NA,9/18/2022 22:33,600,The main experiment item,yes,FlankerTask.osexp,C:/Users/olasa/OneDrive/Desktop,no,mono,no,18,no,white,no,yes,768,legacy,56,79,C:/Users/olasa/OneDrive/Desktop/OL-subject-1.csv,legacy,Lentiform Loewenfeld,3.3.12,0,h,space,NA,NA,h,NA,NA,h,NA,NA,174,1235,NA,NA,7477,NA,NA,174,NA,NA,NA,NA,2,legacy,1024,2,48000,-16,experiment,SSHSS,1,odd,3515,150531,NA,2276,245240,2272,215571,NA,246795,NA,143053,NA,NA,245741,246897,247072,NA,246793,NA,246896,NA,Flanker Task,97,55422,137,yes,1024
71.01449275,71.01449275,402.9782609,402.9782609,black,legacy,legacy,legacy,0,incongruent,uniform,1,undefined,1,h,0,0,0,0,137,0,137,0,137,NA,0,NA,0,137,137,137,NA,137,NA,137,NA,9/18/2022 22:33,600,The main experiment item,yes,FlankerTask.osexp,C:/Users/olasa/OneDrive/Desktop,no,mono,no,18,no,white,no,yes,768,legacy,57,79,C:/Users/olasa/OneDrive/Desktop/OL-subject-1.csv,legacy,Lentiform Loewenfeld,3.3.12,0,h,space,NA,NA,h,NA,NA,h,NA,NA,189,1235,NA,NA,7477,NA,NA,189,NA,NA,NA,NA,2,legacy,1024,2,48000,-16,experiment,SSHSS,1,odd,3515,150531,NA,2276,245240,2272,215571,NA,248151,NA,143053,NA,NA,247100,248252,248443,NA,248148,NA,248252,NA,Flanker Task,98,55611,138,yes,1024
71.22302158,71.22302158,401.4460432,401.4460432,black,legacy,legacy,legacy,0,congruent,uniform,1,undefined,1,h,0,0,0,0,138,0,138,0,138,NA,0,NA,0,138,138,138,NA,138,NA,138,NA,9/18/2022 22:33,600,The main experiment item,yes,FlankerTask.osexp,C:/Users/olasa/OneDrive/Desktop,no,mono,no,18,no,white,no,yes,768,legacy,58,79,C:/Users/olasa/OneDrive/Desktop/OL-subject-1.csv,legacy,Lentiform Loewenfeld,3.3.12,0,h,space,NA,NA,h,NA,NA,h,NA,NA,190,1235,NA,NA,7477,NA,NA,190,NA,NA,NA,NA,2,legacy,1024,2,48000,-16,experiment,HHHHH,1,odd,3515,150531,NA,2276,245240,2272,215571,NA,249519,NA,143053,NA,NA,248471,249621,249812,NA,249515,NA,249621,NA,Flanker Task,99,55801,139,yes,1024
71.42857143,71.42857143,399.6285714,399.6285714,black,legacy,legacy,legacy,0,congruent,uniform,1,undefined,1,h,0,0,0,0,139,0,139,0,139,NA,0,NA,0,139,139,139,NA,139,NA,139,NA,9/18/2022 22:33,600,The main experiment item,yes,FlankerTask.osexp,C:/Users/olasa/OneDrive/Desktop,no,mono,no,18,no,white,no,yes,768,legacy,59,79,C:/Users/olasa/OneDrive/Desktop/OL-subject-1.csv,legacy,Lentiform Loewenfeld,3.3.12,0,h,space,NA,NA,h,NA,NA,h,NA,NA,147,1235,NA,NA,7477,NA,NA,147,NA,NA,NA,NA,2,legacy,1024,2,48000,-16,experiment,HHHHH,1,odd,3515,150531,NA,2276,245240,2272,215571,NA,250889,NA,143053,NA,NA,249840,250991,251140,NA,250886,NA,250991,NA,Flanker Task,100,55948,140,yes,1024
71.63120567,71.63120567,397.9574468,397.9574468,black,legacy,legacy,legacy,0,incongruent,uniform,1,undefined,1,h,0,0,0,0,140,0,140,0,140,NA,0,NA,0,140,140,140,NA,140,NA,140,NA,9/18/2022 22:33,600,The main experiment item,yes,FlankerTask.osexp,C:/Users/olasa/OneDrive/Desktop,no,mono,no,18,no,white,no,yes,768,legacy,60,79,C:/Users/olasa/OneDrive/Desktop/OL-subject-1.csv,legacy,Lentiform Loewenfeld,3.3.12,0,h,space,NA,NA,h,NA,NA,h,NA,NA,164,1235,NA,NA,7477,NA,NA,164,NA,NA,NA,NA,2,legacy,1024,2,48000,-16,experiment,SSHSS,1,odd,3515,150531,NA,2276,245240,2272,215571,NA,252220,NA,143053,NA,NA,251169,252322,252488,NA,252217,NA,252322,NA,Flanker Task,101,56112,141,yes,1024
71.12676056,71.12676056,396.1901408,396.1901408,black,legacy,legacy,legacy,0,incongruent,uniform,0,undefined,0,s,0,0,0,0,141,0,141,0,141,NA,0,NA,0,141,141,141,NA,141,NA,141,NA,9/18/2022 22:33,600,The main experiment item,yes,FlankerTask.osexp,C:/Users/olasa/OneDrive/Desktop,no,mono,no,18,no,white,no,yes,768,legacy,61,79,C:/Users/olasa/OneDrive/Desktop/OL-subject-1.csv,legacy,Lentiform Loewenfeld,3.3.12,0,h,space,NA,NA,h,NA,NA,h,NA,NA,147,1235,NA,NA,7477,NA,NA,147,NA,NA,NA,NA,2,legacy,1024,2,48000,-16,experiment,HHSHH,1,odd,3515,150531,NA,2276,245240,2272,215571,NA,253545,NA,143053,NA,NA,252496,253647,253795,NA,253543,NA,253646,NA,Flanker Task,101,56259,142,yes,1024
71.32867133,71.32867133,394.6013986,394.6013986,black,legacy,legacy,legacy,0,incongruent,uniform,1,undefined,1,h,0,0,0,0,142,0,142,0,142,NA,0,NA,0,142,142,142,NA,142,NA,142,NA,9/18/2022 22:33,600,The main experiment item,yes,FlankerTask.osexp,C:/Users/olasa/OneDrive/Desktop,no,mono,no,18,no,white,no,yes,768,legacy,62,79,C:/Users/olasa/OneDrive/Desktop/OL-subject-1.csv,legacy,Lentiform Loewenfeld,3.3.12,0,h,space,NA,NA,h,NA,NA,h,NA,NA,169,1235,NA,NA,7477,NA,NA,169,NA,NA,NA,NA,2,legacy,1024,2,48000,-16,experiment,SSHSS,1,odd,3515,150531,NA,2276,253805,2272,215571,NA,255357,NA,143053,NA,NA,254306,255459,255630,NA,255355,NA,255459,NA,Flanker Task,102,56428,143,yes,1024
71.52777778,71.52777778,392.5555556,392.5555556,black,legacy,legacy,legacy,0,incongruent,uniform,1,undefined,1,h,0,0,0,0,143,0,143,0,143,NA,0,NA,0,143,143,143,NA,143,NA,143,NA,9/18/2022 22:33,600,The main experiment item,yes,FlankerTask.osexp,C:/Users/olasa/OneDrive/Desktop,no,mono,no,18,no,white,no,yes,768,legacy,63,79,C:/Users/olasa/OneDrive/Desktop/OL-subject-1.csv,legacy,Lentiform Loewenfeld,3.3.12,0,h,space,NA,NA,h,NA,NA,h,NA,NA,100,1235,NA,NA,7477,NA,NA,100,NA,NA,NA,NA,2,legacy,1024,2,48000,-16,experiment,SSHSS,1,odd,3515,150531,NA,2276,253805,2272,215571,NA,256704,NA,143053,NA,NA,255658,256805,256907,NA,256702,NA,256805,NA,Flanker Task,103,56528,144,yes,1024
71.03448276,71.03448276,390.7034483,390.7034483,black,legacy,legacy,legacy,0,congruent,uniform,0,undefined,0,s,0,0,0,0,144,0,144,0,144,NA,0,NA,0,144,144,144,NA,144,NA,144,NA,9/18/2022 22:33,600,The main experiment item,yes,FlankerTask.osexp,C:/Users/olasa/OneDrive/Desktop,no,mono,no,18,no,white,no,yes,768,legacy,64,79,C:/Users/olasa/OneDrive/Desktop/OL-subject-1.csv,legacy,Lentiform Loewenfeld,3.3.12,0,h,space,NA,NA,h,NA,NA,h,NA,NA,124,1235,NA,NA,7477,NA,NA,124,NA,NA,NA,NA,2,legacy,1024,2,48000,-16,experiment,SSSSS,1,odd,3515,150531,NA,2276,253805,2272,215571,NA,257985,NA,143053,NA,NA,256936,258087,258212,NA,257982,NA,258087,NA,Flanker Task,103,56652,145,yes,1024
70.54794521,70.54794521,389.0890411,389.0890411,black,legacy,legacy,legacy,0,incongruent,uniform,0,undefined,0,s,0,0,0,0,145,0,145,0,145,NA,0,NA,0,145,145,145,NA,145,NA,145,NA,9/18/2022 22:33,600,The main experiment item,yes,FlankerTask.osexp,C:/Users/olasa/OneDrive/Desktop,no,mono,no,18,no,white,no,yes,768,legacy,65,79,C:/Users/olasa/OneDrive/Desktop/OL-subject-1.csv,legacy,Lentiform Loewenfeld,3.3.12,0,h,space,NA,NA,h,NA,NA,h,NA,NA,155,1235,NA,NA,7477,NA,NA,155,NA,NA,NA,NA,2,legacy,1024,2,48000,-16,experiment,HHSHH,1,odd,3515,150531,NA,2276,258240,2272,215571,NA,259789,NA,143053,NA,NA,258741,259891,260047,NA,259786,NA,259891,NA,Flanker Task,103,56807,146,yes,1024
70.06802721,70.06802721,386.707483,386.707483,black,legacy,legacy,legacy,0,congruent,uniform,0,undefined,0,s,0,0,0,0,146,0,146,0,146,NA,0,NA,0,146,146,146,NA,146,NA,146,NA,9/18/2022 22:33,600,The main experiment item,yes,FlankerTask.osexp,C:/Users/olasa/OneDrive/Desktop,no,mono,no,18,no,white,no,yes,768,legacy,66,79,C:/Users/olasa/OneDrive/Desktop/OL-subject-1.csv,legacy,Lentiform Loewenfeld,3.3.12,0,h,space,NA,NA,h,NA,NA,h,NA,NA,39,1235,NA,NA,7477,NA,NA,39,NA,NA,NA,NA,2,legacy,1024,2,48000,-16,experiment,SSSSS,1,odd,3515,150531,NA,2276,260075,2272,215571,NA,261621,NA,143053,NA,NA,260576,261722,261764,NA,261619,NA,261722,NA,Flanker Task,103,56846,147,yes,1024
69.59459459,69.59459459,388.0337838,388.0337838,black,legacy,legacy,legacy,0,congruent,uniform,0,undefined,0,s,0,0,0,0,147,0,147,0,147,NA,0,NA,0,147,147,147,NA,147,NA,147,NA,9/18/2022 22:33,600,The main experiment item,yes,FlankerTask.osexp,C:/Users/olasa/OneDrive/Desktop,no,mono,no,18,no,white,no,yes,768,legacy,67,79,C:/Users/olasa/OneDrive/Desktop/OL-subject-1.csv,legacy,Lentiform Loewenfeld,3.3.12,0,h,space,NA,NA,h,NA,NA,h,NA,NA,583,1235,NA,NA,7477,NA,NA,583,NA,NA,NA,NA,2,legacy,1024,2,48000,-16,experiment,SSSSS,1,odd,3515,150531,NA,2276,261771,2272,215571,NA,263332,NA,143053,NA,NA,262272,263434,264019,NA,263330,NA,263434,NA,Flanker Task,103,57429,148,yes,1024
69.79865772,69.79865772,385.8389262,385.8389262,black,legacy,legacy,legacy,0,congruent,uniform,1,undefined,1,h,0,0,0,0,148,0,148,0,148,NA,0,NA,0,148,148,148,NA,148,NA,148,NA,9/18/2022 22:33,600,The main experiment item,yes,FlankerTask.osexp,C:/Users/olasa/OneDrive/Desktop,no,mono,no,18,no,white,no,yes,768,legacy,68,79,C:/Users/olasa/OneDrive/Desktop/OL-subject-1.csv,legacy,Lentiform Loewenfeld,3.3.12,0,h,space,NA,NA,h,NA,NA,h,NA,NA,61,1235,NA,NA,7477,NA,NA,61,NA,NA,NA,NA,2,legacy,1024,2,48000,-16,experiment,HHHHH,1,odd,3515,150531,NA,2276,264026,2272,215571,NA,265579,NA,143053,NA,NA,264527,265680,265743,NA,265577,NA,265680,NA,Flanker Task,104,57490,149,yes,1024
70,70,384.9733333,384.9733333,black,legacy,legacy,legacy,0,congruent,uniform,1,undefined,1,h,0,0,0,0,149,0,149,0,149,NA,0,NA,0,149,149,149,NA,149,NA,149,NA,9/18/2022 22:33,600,The main experiment item,yes,FlankerTask.osexp,C:/Users/olasa/OneDrive/Desktop,no,mono,no,18,no,white,no,yes,768,legacy,69,79,C:/Users/olasa/OneDrive/Desktop/OL-subject-1.csv,legacy,Lentiform Loewenfeld,3.3.12,0,h,space,NA,NA,h,NA,NA,h,NA,NA,256,1235,NA,NA,7477,NA,NA,256,NA,NA,NA,NA,2,legacy,1024,2,48000,-16,experiment,HHHHH,1,odd,3515,150531,NA,2276,264026,2272,215571,NA,266797,NA,143053,NA,NA,265751,266900,267158,NA,266795,NA,266900,NA,Flanker Task,105,57746,150,yes,1024
