condition,Deadline,Stimulus,acc,accuracy,average_response_time,avg_rt,background,canvas_backend,clock_backend,color_backend,compensation,coordinates,correct,correct_Instructions1,correct_keyboard_response,correct_response,count_Block1,count_Block2,count_Block3,count_Finish,count_Fixation,count_ISI,count_Instructions1,count_Instructions2,count_Instructions3,count_Sequence,count_Stimulus,count_errorFeedback,count_experiment,count_faster,count_keyboard_response,count_logger,datetime,description,disable_garbage_collection,experiment_file,experiment_path,font_bold,font_family,font_italic,font_size,font_underline,foreground,form_clicks,fullscreen,height,keyboard_backend,live_row,live_row_Block1,logfile,mouse_backend,opensesame_codename,opensesame_version,repeat_cycle,response,response_Finish,response_Instructions1,response_Instructions2,response_Instructions3,response_keyboard_response,response_time,response_time_Finish,response_time_Instructions1,response_time_Instructions2,response_time_Instructions3,response_time_keyboard_response,round_decimals,sampler_backend,sound_buf_size,sound_channels,sound_freq,sound_sample_size,start,subject_nr,subject_parity,time_Block1,time_Block2,time_Block3,time_Finish,time_Fixation,time_ISI,time_Instructions1,time_Instructions2,time_Instructions3,time_Sequence,time_Stimulus,time_errorFeedback,time_experiment,time_faster,time_keyboard_response,time_logger,title,total_correct,total_response_time,total_responses,uniform_coordinates,width
Incongruent,1500,HHSHH,0,0,1500,1500,black,legacy,legacy,legacy,0,uniform,0,undefined,0,s,0,0,0,0,0,0,0,0,0,0,0,0,0,0,0,0,Sun Sep 26 18:46:48 2021,The main experiment item,yes,FlankerTask.osexp,/Users/samonemarks/Downloads,no,mono,no,18,no,white,no,yes,768,legacy,0,0,/Users/samonemarks/Downloads/CM-subject-3.csv,legacy,Lentiform Loewenfeld,3.3.9,0,None,NA,s,NA,NA,None,1500,NA,121334,NA,NA,1500,2,legacy,1024,2,48000,-16,experiment,3,odd,125806,NA,NA,NA,125869,NA,4464,NA,NA,125865,125972,NA,4426,NA,125972,127472,Flanker Task,0,1500,1,yes,1024
Congruent,1500,SSSSS,50,50,1252,1252,black,legacy,legacy,legacy,0,uniform,1,undefined,1,s,0,0,0,0,1,1,0,0,0,1,1,1,0,1,1,1,Sun Sep 26 18:46:48 2021,The main experiment item,yes,FlankerTask.osexp,/Users/samonemarks/Downloads,no,mono,no,18,no,white,no,yes,768,legacy,1,1,/Users/samonemarks/Downloads/CM-subject-3.csv,legacy,Lentiform Loewenfeld,3.3.9,0,s,NA,s,NA,NA,s,1004,NA,121334,NA,NA,1004,2,legacy,1024,2,48000,-16,experiment,3,odd,125806,NA,NA,NA,129050,127982,4464,NA,NA,129048,129153,127478,4426,NA,129153,130160,Flanker Task,1,2504,2,yes,1024
Congruent,1500,SSSSS,66.66666667,66.66666667,1307.333333,1307.333333,black,legacy,legacy,legacy,0,uniform,1,undefined,1,s,0,0,0,0,2,2,0,0,0,2,2,2,0,2,2,2,Sun Sep 26 18:46:48 2021,The main experiment item,yes,FlankerTask.osexp,/Users/samonemarks/Downloads,no,mono,no,18,no,white,no,yes,768,legacy,2,2,/Users/samonemarks/Downloads/CM-subject-3.csv,legacy,Lentiform Loewenfeld,3.3.9,0,s,NA,s,NA,NA,s,1418,NA,121334,NA,NA,1418,2,legacy,1024,2,48000,-16,experiment,3,odd,125806,NA,NA,NA,131226,130164,4464,NA,NA,131223,131330,127478,4426,NA,131330,132748,Flanker Task,2,3922,3,yes,1024
Incongruent,1500,SSHSS,50,50,1355.5,1355.5,black,legacy,legacy,legacy,0,uniform,0,undefined,0,h,0,0,0,0,3,3,0,0,0,3,3,3,0,3,3,3,Sun Sep 26 18:46:48 2021,The main experiment item,yes,FlankerTask.osexp,/Users/samonemarks/Downloads,no,mono,no,18,no,white,no,yes,768,legacy,3,3,/Users/samonemarks/Downloads/CM-subject-3.csv,legacy,Lentiform Loewenfeld,3.3.9,0,None,NA,s,NA,NA,None,1500,NA,121334,NA,NA,1500,2,legacy,1024,2,48000,-16,experiment,3,odd,125806,NA,NA,NA,133816,132753,4464,NA,NA,133814,133918,127478,4426,NA,133918,135418,Flanker Task,2,5422,4,yes,1024
Incongruent,1500,HHSHH,40,40,1384.6,1384.6,black,legacy,legacy,legacy,0,uniform,0,undefined,0,s,0,0,0,0,4,4,0,0,0,4,4,4,0,4,4,4,Sun Sep 26 18:46:48 2021,The main experiment item,yes,FlankerTask.osexp,/Users/samonemarks/Downloads,no,mono,no,18,no,white,no,yes,768,legacy,4,4,/Users/samonemarks/Downloads/CM-subject-3.csv,legacy,Lentiform Loewenfeld,3.3.9,0,None,NA,s,NA,NA,None,1501,NA,121334,NA,NA,1501,2,legacy,1024,2,48000,-16,experiment,3,odd,125806,NA,NA,NA,136989,135927,4464,NA,NA,136987,137091,135422,4426,NA,137091,138592,Flanker Task,2,6923,5,yes,1024
Incongruent,1500,HHSHH,33.33333333,33.33333333,1403.833333,1403.833333,black,legacy,legacy,legacy,0,uniform,0,undefined,0,s,0,0,0,0,5,5,0,0,0,5,5,5,0,5,5,5,Sun Sep 26 18:46:48 2021,The main experiment item,yes,FlankerTask.osexp,/Users/samonemarks/Downloads,no,mono,no,18,no,white,no,yes,768,legacy,5,5,/Users/samonemarks/Downloads/CM-subject-3.csv,legacy,Lentiform Loewenfeld,3.3.9,0,None,NA,s,NA,NA,None,1500,NA,121334,NA,NA,1500,2,legacy,1024,2,48000,-16,experiment,3,odd,125806,NA,NA,NA,140664,139602,4464,NA,NA,140662,140766,138596,4426,139099,140766,142266,Flanker Task,2,8423,6,yes,1024
Incongruent,1500,SSHSS,42.85714286,42.85714286,1338.714286,1338.714286,black,legacy,legacy,legacy,0,uniform,1,undefined,1,h,0,0,0,0,6,6,0,0,0,6,6,6,0,6,6,6,Sun Sep 26 18:46:48 2021,The main experiment item,yes,FlankerTask.osexp,/Users/samonemarks/Downloads,no,mono,no,18,no,white,no,yes,768,legacy,6,6,/Users/samonemarks/Downloads/CM-subject-3.csv,legacy,Lentiform Loewenfeld,3.3.9,0,h,NA,s,NA,NA,h,948,NA,121334,NA,NA,948,2,legacy,1024,2,48000,-16,experiment,3,odd,125806,NA,NA,NA,143836,142774,4464,NA,NA,143834,143939,142270,4426,139099,143939,144888,Flanker Task,3,9371,7,yes,1024
Congruent,1500,HHHHH,50,50,1274.5,1274.5,black,legacy,legacy,legacy,0,uniform,1,undefined,1,h,0,0,0,0,7,7,0,0,0,7,7,7,0,7,7,7,Sun Sep 26 18:46:48 2021,The main experiment item,yes,FlankerTask.osexp,/Users/samonemarks/Downloads,no,mono,no,18,no,white,no,yes,768,legacy,7,7,/Users/samonemarks/Downloads/CM-subject-3.csv,legacy,Lentiform Loewenfeld,3.3.9,0,h,NA,s,NA,NA,h,825,NA,121334,NA,NA,825,2,legacy,1024,2,48000,-16,experiment,3,odd,125806,NA,NA,NA,145955,144893,4464,NA,NA,145953,146057,142270,4426,139099,146057,146883,Flanker Task,4,10196,8,yes,1024
Congruent,1500,SSSSS,55.55555556,55.55555556,1224.222222,1224.222222,black,legacy,legacy,legacy,0,uniform,1,undefined,1,s,0,0,0,0,8,8,0,0,0,8,8,8,0,8,8,8,Sun Sep 26 18:46:48 2021,The main experiment item,yes,FlankerTask.osexp,/Users/samonemarks/Downloads,no,mono,no,18,no,white,no,yes,768,legacy,8,8,/Users/samonemarks/Downloads/CM-subject-3.csv,legacy,Lentiform Loewenfeld,3.3.9,0,s,NA,s,NA,NA,s,822,NA,121334,NA,NA,822,2,legacy,1024,2,48000,-16,experiment,3,odd,125806,NA,NA,NA,147949,146887,4464,NA,NA,147947,148051,142270,4426,139099,148052,148875,Flanker Task,5,11018,9,yes,1024
Incongruent,1500,HHSHH,60,60,1187.9,1187.9,black,legacy,legacy,legacy,0,uniform,1,undefined,1,s,0,0,0,0,9,9,0,0,0,9,9,9,0,9,9,9,Sun Sep 26 18:46:48 2021,The main experiment item,yes,FlankerTask.osexp,/Users/samonemarks/Downloads,no,mono,no,18,no,white,no,yes,768,legacy,9,9,/Users/samonemarks/Downloads/CM-subject-3.csv,legacy,Lentiform Loewenfeld,3.3.9,0,s,NA,s,NA,NA,s,861,NA,121334,NA,NA,861,2,legacy,1024,2,48000,-16,experiment,3,odd,125806,NA,NA,NA,149941,148879,4464,NA,NA,149939,150043,142270,4426,139099,150043,150904,Flanker Task,6,11879,10,yes,1024
Congruent,1500,HHHHH,63.63636364,63.63636364,1157,1157,black,legacy,legacy,legacy,0,uniform,1,undefined,1,h,0,0,0,0,10,10,0,0,0,10,10,10,0,10,10,10,Sun Sep 26 18:46:48 2021,The main experiment item,yes,FlankerTask.osexp,/Users/samonemarks/Downloads,no,mono,no,18,no,white,no,yes,768,legacy,10,10,/Users/samonemarks/Downloads/CM-subject-3.csv,legacy,Lentiform Loewenfeld,3.3.9,0,h,NA,s,NA,NA,h,848,NA,121334,NA,NA,848,2,legacy,1024,2,48000,-16,experiment,3,odd,125806,NA,NA,NA,151972,150909,4464,NA,NA,151970,152074,142270,4426,139099,152074,152922,Flanker Task,7,12727,11,yes,1024
Incongruent,1500,HHSHH,66.66666667,66.66666667,1159.916667,1159.916667,black,legacy,legacy,legacy,0,uniform,1,undefined,1,s,0,0,0,0,11,11,0,0,0,11,11,11,0,11,11,11,Sun Sep 26 18:46:48 2021,The main experiment item,yes,FlankerTask.osexp,/Users/samonemarks/Downloads,no,mono,no,18,no,white,no,yes,768,legacy,11,11,/Users/samonemarks/Downloads/CM-subject-3.csv,legacy,Lentiform Loewenfeld,3.3.9,0,s,NA,s,NA,NA,s,1192,NA,121334,NA,NA,1192,2,legacy,1024,2,48000,-16,experiment,3,odd,125806,NA,NA,NA,153990,152927,4464,NA,NA,153987,154092,142270,4426,139099,154092,155284,Flanker Task,8,13919,12,yes,1024
Incongruent,1500,SSHSS,69.23076923,69.23076923,1138.692308,1138.692308,black,legacy,legacy,legacy,0,uniform,1,undefined,1,h,0,0,0,0,12,12,0,0,0,12,12,12,0,12,12,12,Sun Sep 26 18:46:48 2021,The main experiment item,yes,FlankerTask.osexp,/Users/samonemarks/Downloads,no,mono,no,18,no,white,no,yes,768,legacy,12,12,/Users/samonemarks/Downloads/CM-subject-3.csv,legacy,Lentiform Loewenfeld,3.3.9,0,h,NA,s,NA,NA,h,884,NA,121334,NA,NA,884,2,legacy,1024,2,48000,-16,experiment,3,odd,125806,NA,NA,NA,156351,155289,4464,NA,NA,156349,156453,142270,4426,139099,156453,157337,Flanker Task,9,14803,13,yes,1024
Congruent,1500,SSSSS,71.42857143,71.42857143,1129.714286,1129.714286,black,legacy,legacy,legacy,0,uniform,1,undefined,1,s,0,0,0,0,13,13,0,0,0,13,13,13,0,13,13,13,Sun Sep 26 18:46:48 2021,The main experiment item,yes,FlankerTask.osexp,/Users/samonemarks/Downloads,no,mono,no,18,no,white,no,yes,768,legacy,13,13,/Users/samonemarks/Downloads/CM-subject-3.csv,legacy,Lentiform Loewenfeld,3.3.9,0,s,NA,s,NA,NA,s,1013,NA,121334,NA,NA,1013,2,legacy,1024,2,48000,-16,experiment,3,odd,125806,NA,NA,NA,158403,157342,4464,NA,NA,158401,158506,142270,4426,139099,158506,159519,Flanker Task,10,15816,14,yes,1024
Incongruent,1500,SSHSS,73.33333333,73.33333333,1120.533333,1120.533333,black,legacy,legacy,legacy,0,uniform,1,undefined,1,h,0,0,0,0,14,14,0,0,0,14,14,14,0,14,14,14,Sun Sep 26 18:46:48 2021,The main experiment item,yes,FlankerTask.osexp,/Users/samonemarks/Downloads,no,mono,no,18,no,white,no,yes,768,legacy,14,14,/Users/samonemarks/Downloads/CM-subject-3.csv,legacy,Lentiform Loewenfeld,3.3.9,0,h,NA,s,NA,NA,h,992,NA,121334,NA,NA,992,2,legacy,1024,2,48000,-16,experiment,3,odd,125806,NA,NA,NA,160586,159524,4464,NA,NA,160583,160688,142270,4426,139099,160688,161680,Flanker Task,11,16808,15,yes,1024
Incongruent,1500,SSHSS,75,75,1110.75,1110.75,black,legacy,legacy,legacy,0,uniform,1,undefined,1,h,0,0,0,0,15,15,0,0,0,15,15,15,0,15,15,15,Sun Sep 26 18:46:48 2021,The main experiment item,yes,FlankerTask.osexp,/Users/samonemarks/Downloads,no,mono,no,18,no,white,no,yes,768,legacy,15,15,/Users/samonemarks/Downloads/CM-subject-3.csv,legacy,Lentiform Loewenfeld,3.3.9,0,h,NA,s,NA,NA,h,964,NA,121334,NA,NA,964,2,legacy,1024,2,48000,-16,experiment,3,odd,125806,NA,NA,NA,162745,161684,4464,NA,NA,162743,162847,142270,4426,139099,162847,163812,Flanker Task,12,17772,16,yes,1024
Incongruent,1500,SSHSS,76.47058824,76.47058824,1101.588235,1101.588235,black,legacy,legacy,legacy,0,uniform,1,undefined,1,h,0,0,0,0,16,16,0,0,0,16,16,16,0,16,16,16,Sun Sep 26 18:46:48 2021,The main experiment item,yes,FlankerTask.osexp,/Users/samonemarks/Downloads,no,mono,no,18,no,white,no,yes,768,legacy,16,16,/Users/samonemarks/Downloads/CM-subject-3.csv,legacy,Lentiform Loewenfeld,3.3.9,0,h,NA,s,NA,NA,h,955,NA,121334,NA,NA,955,2,legacy,1024,2,48000,-16,experiment,3,odd,125806,NA,NA,NA,164878,163816,4464,NA,NA,164875,164980,142270,4426,139099,164981,165937,Flanker Task,13,18727,17,yes,1024
Congruent,1500,HHHHH,77.77777778,77.77777778,1086.944444,1086.944444,black,legacy,legacy,legacy,0,uniform,1,undefined,1,h,0,0,0,0,17,17,0,0,0,17,17,17,0,17,17,17,Sun Sep 26 18:46:48 2021,The main experiment item,yes,FlankerTask.osexp,/Users/samonemarks/Downloads,no,mono,no,18,no,white,no,yes,768,legacy,17,17,/Users/samonemarks/Downloads/CM-subject-3.csv,legacy,Lentiform Loewenfeld,3.3.9,0,h,NA,s,NA,NA,h,838,NA,121334,NA,NA,838,2,legacy,1024,2,48000,-16,experiment,3,odd,125806,NA,NA,NA,167024,165942,4464,NA,NA,167021,167127,142270,4426,139099,167127,167966,Flanker Task,14,19565,18,yes,1024
Congruent,1500,SSSSS,78.94736842,78.94736842,1067.421053,1067.421053,black,legacy,legacy,legacy,0,uniform,1,undefined,1,s,0,0,0,0,18,18,0,0,0,18,18,18,0,18,18,18,Sun Sep 26 18:46:48 2021,The main experiment item,yes,FlankerTask.osexp,/Users/samonemarks/Downloads,no,mono,no,18,no,white,no,yes,768,legacy,18,18,/Users/samonemarks/Downloads/CM-subject-3.csv,legacy,Lentiform Loewenfeld,3.3.9,0,s,NA,s,NA,NA,s,716,NA,121334,NA,NA,716,2,legacy,1024,2,48000,-16,experiment,3,odd,125806,NA,NA,NA,169034,167971,4464,NA,NA,169031,169136,142270,4426,139099,169136,169853,Flanker Task,15,20281,19,yes,1024
Congruent,1500,SSSSS,80,80,1057.25,1057.25,black,legacy,legacy,legacy,0,uniform,1,undefined,1,s,0,0,0,0,19,19,0,0,0,19,19,19,0,19,19,19,Sun Sep 26 18:46:48 2021,The main experiment item,yes,FlankerTask.osexp,/Users/samonemarks/Downloads,no,mono,no,18,no,white,no,yes,768,legacy,19,19,/Users/samonemarks/Downloads/CM-subject-3.csv,legacy,Lentiform Loewenfeld,3.3.9,0,s,NA,s,NA,NA,s,864,NA,121334,NA,NA,864,2,legacy,1024,2,48000,-16,experiment,3,odd,125806,NA,NA,NA,170921,169858,4464,NA,NA,170919,171023,142270,4426,139099,171023,171888,Flanker Task,16,21145,20,yes,1024
Congruent,1500,HHHHH,80.95238095,80.95238095,1049.142857,1049.142857,black,legacy,legacy,legacy,0,uniform,1,undefined,1,h,0,0,0,0,20,20,0,0,0,20,20,20,0,20,20,20,Sun Sep 26 18:46:48 2021,The main experiment item,yes,FlankerTask.osexp,/Users/samonemarks/Downloads,no,mono,no,18,no,white,no,yes,768,legacy,20,20,/Users/samonemarks/Downloads/CM-subject-3.csv,legacy,Lentiform Loewenfeld,3.3.9,0,h,NA,s,NA,NA,h,887,NA,121334,NA,NA,887,2,legacy,1024,2,48000,-16,experiment,3,odd,125806,NA,NA,NA,172954,171892,4464,NA,NA,172951,173056,142270,4426,139099,173056,173944,Flanker Task,17,22032,21,yes,1024
Congruent,1500,SSSSS,81.81818182,81.81818182,1053.409091,1053.409091,black,legacy,legacy,legacy,0,uniform,1,undefined,1,s,0,0,0,0,21,21,0,0,0,21,21,21,0,21,21,21,Sun Sep 26 18:46:48 2021,The main experiment item,yes,FlankerTask.osexp,/Users/samonemarks/Downloads,no,mono,no,18,no,white,no,yes,768,legacy,21,21,/Users/samonemarks/Downloads/CM-subject-3.csv,legacy,Lentiform Loewenfeld,3.3.9,0,s,NA,s,NA,NA,s,1143,NA,121334,NA,NA,1143,2,legacy,1024,2,48000,-16,experiment,3,odd,125806,NA,NA,NA,175012,173949,4464,NA,NA,175009,175114,142270,4426,139099,175114,176258,Flanker Task,18,23175,22,yes,1024
Incongruent,1500,SSHSS,82.60869565,82.60869565,1040.826087,1040.826087,black,legacy,legacy,legacy,0,uniform,1,undefined,1,h,0,0,0,0,22,22,0,0,0,22,22,22,0,22,22,22,Sun Sep 26 18:46:48 2021,The main experiment item,yes,FlankerTask.osexp,/Users/samonemarks/Downloads,no,mono,no,18,no,white,no,yes,768,legacy,22,22,/Users/samonemarks/Downloads/CM-subject-3.csv,legacy,Lentiform Loewenfeld,3.3.9,0,h,NA,s,NA,NA,h,764,NA,121334,NA,NA,764,2,legacy,1024,2,48000,-16,experiment,3,odd,125806,NA,NA,NA,177325,176263,4464,NA,NA,177323,177428,142270,4426,139099,177428,178193,Flanker Task,19,23939,23,yes,1024
Congruent,1500,HHHHH,83.33333333,83.33333333,1027.375,1027.375,black,legacy,legacy,legacy,0,uniform,1,undefined,1,h,0,0,0,0,23,23,0,0,0,23,23,23,0,23,23,23,Sun Sep 26 18:46:48 2021,The main experiment item,yes,FlankerTask.osexp,/Users/samonemarks/Downloads,no,mono,no,18,no,white,no,yes,768,legacy,23,23,/Users/samonemarks/Downloads/CM-subject-3.csv,legacy,Lentiform Loewenfeld,3.3.9,0,h,NA,s,NA,NA,h,718,NA,121334,NA,NA,718,2,legacy,1024,2,48000,-16,experiment,3,odd,125806,NA,NA,NA,179260,178198,4464,NA,NA,179258,179362,142270,4426,139099,179362,180080,Flanker Task,20,24657,24,yes,1024
Congruent,1500,SSSSS,84,84,1014.28,1014.28,black,legacy,legacy,legacy,0,uniform,1,undefined,1,s,0,0,0,0,24,24,0,0,0,24,24,24,0,24,24,24,Sun Sep 26 18:46:48 2021,The main experiment item,yes,FlankerTask.osexp,/Users/samonemarks/Downloads,no,mono,no,18,no,white,no,yes,768,legacy,24,24,/Users/samonemarks/Downloads/CM-subject-3.csv,legacy,Lentiform Loewenfeld,3.3.9,0,s,NA,s,NA,NA,s,700,NA,121334,NA,NA,700,2,legacy,1024,2,48000,-16,experiment,3,odd,125806,NA,NA,NA,181147,180085,4464,NA,NA,181145,181249,142270,4426,139099,181249,181949,Flanker Task,21,25357,25,yes,1024
Congruent,1500,SSSSS,84.61538462,84.61538462,1001.807692,1001.807692,black,legacy,legacy,legacy,0,uniform,1,undefined,1,s,0,0,0,0,25,25,0,0,0,25,25,25,0,25,25,25,Sun Sep 26 18:46:48 2021,The main experiment item,yes,FlankerTask.osexp,/Users/samonemarks/Downloads,no,mono,no,18,no,white,no,yes,768,legacy,25,25,/Users/samonemarks/Downloads/CM-subject-3.csv,legacy,Lentiform Loewenfeld,3.3.9,0,s,NA,s,NA,NA,s,690,NA,121334,NA,NA,690,2,legacy,1024,2,48000,-16,experiment,3,odd,125806,NA,NA,NA,183017,181955,4464,NA,NA,183015,183119,142270,4426,139099,183119,183809,Flanker Task,22,26047,26,yes,1024
Incongruent,1500,SSHSS,85.18518519,85.18518519,1002.185185,1002.185185,black,legacy,legacy,legacy,0,uniform,1,undefined,1,h,0,0,0,0,26,26,0,0,0,26,26,26,0,26,26,26,Sun Sep 26 18:46:48 2021,The main experiment item,yes,FlankerTask.osexp,/Users/samonemarks/Downloads,no,mono,no,18,no,white,no,yes,768,legacy,26,26,/Users/samonemarks/Downloads/CM-subject-3.csv,legacy,Lentiform Loewenfeld,3.3.9,0,h,NA,s,NA,NA,h,1012,NA,121334,NA,NA,1012,2,legacy,1024,2,48000,-16,experiment,3,odd,125806,NA,NA,NA,184876,183814,4464,NA,NA,184874,184978,142270,4426,139099,184978,185990,Flanker Task,23,27059,27,yes,1024
Congruent,1500,SSSSS,85.71428571,85.71428571,989.3571429,989.3571429,black,legacy,legacy,legacy,0,uniform,1,undefined,1,s,0,0,0,0,27,27,0,0,0,27,27,27,0,27,27,27,Sun Sep 26 18:46:48 2021,The main experiment item,yes,FlankerTask.osexp,/Users/samonemarks/Downloads,no,mono,no,18,no,white,no,yes,768,legacy,27,27,/Users/samonemarks/Downloads/CM-subject-3.csv,legacy,Lentiform Loewenfeld,3.3.9,0,s,NA,s,NA,NA,s,643,NA,121334,NA,NA,643,2,legacy,1024,2,48000,-16,experiment,3,odd,125806,NA,NA,NA,187057,185995,4464,NA,NA,187054,187159,142270,4426,139099,187159,187802,Flanker Task,24,27702,28,yes,1024
Congruent,1500,HHHHH,86.20689655,86.20689655,982.7586207,982.7586207,black,legacy,legacy,legacy,0,uniform,1,undefined,1,h,0,0,0,0,28,28,0,0,0,28,28,28,0,28,28,28,Sun Sep 26 18:46:48 2021,The main experiment item,yes,FlankerTask.osexp,/Users/samonemarks/Downloads,no,mono,no,18,no,white,no,yes,768,legacy,28,28,/Users/samonemarks/Downloads/CM-subject-3.csv,legacy,Lentiform Loewenfeld,3.3.9,0,h,NA,s,NA,NA,h,798,NA,121334,NA,NA,798,2,legacy,1024,2,48000,-16,experiment,3,odd,125806,NA,NA,NA,188870,187807,4464,NA,NA,188868,188972,142270,4426,139099,188973,189771,Flanker Task,25,28500,29,yes,1024
Incongruent,1500,SSHSS,86.66666667,86.66666667,974.8,974.8,black,legacy,legacy,legacy,0,uniform,1,undefined,1,h,0,0,0,0,29,29,0,0,0,29,29,29,0,29,29,29,Sun Sep 26 18:46:48 2021,The main experiment item,yes,FlankerTask.osexp,/Users/samonemarks/Downloads,no,mono,no,18,no,white,no,yes,768,legacy,29,29,/Users/samonemarks/Downloads/CM-subject-3.csv,legacy,Lentiform Loewenfeld,3.3.9,0,h,NA,s,NA,NA,h,744,NA,121334,NA,NA,744,2,legacy,1024,2,48000,-16,experiment,3,odd,125806,NA,NA,NA,190839,189777,4464,NA,NA,190837,190941,142270,4426,139099,190941,191685,Flanker Task,26,29244,30,yes,1024
Congruent,1500,HHHHH,87.09677419,87.09677419,971.9354839,971.9354839,black,legacy,legacy,legacy,0,uniform,1,undefined,1,h,0,0,0,0,30,30,0,0,0,30,30,30,0,30,30,30,Sun Sep 26 18:46:48 2021,The main experiment item,yes,FlankerTask.osexp,/Users/samonemarks/Downloads,no,mono,no,18,no,white,no,yes,768,legacy,30,30,/Users/samonemarks/Downloads/CM-subject-3.csv,legacy,Lentiform Loewenfeld,3.3.9,0,h,NA,s,NA,NA,h,886,NA,121334,NA,NA,886,2,legacy,1024,2,48000,-16,experiment,3,odd,125806,NA,NA,NA,192752,191691,4464,NA,NA,192750,192854,142270,4426,139099,192854,193741,Flanker Task,27,30130,31,yes,1024
Incongruent,1500,HHSHH,87.5,87.5,969.65625,969.65625,black,legacy,legacy,legacy,0,uniform,1,undefined,1,s,0,0,0,0,31,31,0,0,0,31,31,31,0,31,31,31,Sun Sep 26 18:46:48 2021,The main experiment item,yes,FlankerTask.osexp,/Users/samonemarks/Downloads,no,mono,no,18,no,white,no,yes,768,legacy,31,31,/Users/samonemarks/Downloads/CM-subject-3.csv,legacy,Lentiform Loewenfeld,3.3.9,0,s,NA,s,NA,NA,s,899,NA,121334,NA,NA,899,2,legacy,1024,2,48000,-16,experiment,3,odd,125806,NA,NA,NA,194808,193746,4464,NA,NA,194806,194911,142270,4426,139099,194912,195812,Flanker Task,28,31029,32,yes,1024
Incongruent,1500,HHSHH,87.87878788,87.87878788,959.030303,959.030303,black,legacy,legacy,legacy,0,uniform,1,undefined,1,s,0,0,0,0,32,32,0,0,0,32,32,32,0,32,32,32,Sun Sep 26 18:46:48 2021,The main experiment item,yes,FlankerTask.osexp,/Users/samonemarks/Downloads,no,mono,no,18,no,white,no,yes,768,legacy,32,32,/Users/samonemarks/Downloads/CM-subject-3.csv,legacy,Lentiform Loewenfeld,3.3.9,0,s,NA,s,NA,NA,s,619,NA,121334,NA,NA,619,2,legacy,1024,2,48000,-16,experiment,3,odd,125806,NA,NA,NA,196878,195816,4464,NA,NA,196875,196980,142270,4426,139099,196980,197600,Flanker Task,29,31648,33,yes,1024
Congruent,1500,HHHHH,88.23529412,88.23529412,953.1470588,953.1470588,black,legacy,legacy,legacy,0,uniform,1,undefined,1,h,0,0,0,0,33,33,0,0,0,33,33,33,0,33,33,33,Sun Sep 26 18:46:48 2021,The main experiment item,yes,FlankerTask.osexp,/Users/samonemarks/Downloads,no,mono,no,18,no,white,no,yes,768,legacy,33,33,/Users/samonemarks/Downloads/CM-subject-3.csv,legacy,Lentiform Loewenfeld,3.3.9,0,h,NA,s,NA,NA,h,759,NA,121334,NA,NA,759,2,legacy,1024,2,48000,-16,experiment,3,odd,125806,NA,NA,NA,198666,197605,4464,NA,NA,198664,198768,142270,4426,139099,198769,199529,Flanker Task,30,32407,34,yes,1024
Incongruent,1500,SSHSS,88.57142857,88.57142857,951.6571429,951.6571429,black,legacy,legacy,legacy,0,uniform,1,undefined,1,h,0,0,0,0,34,34,0,0,0,34,34,34,0,34,34,34,Sun Sep 26 18:46:48 2021,The main experiment item,yes,FlankerTask.osexp,/Users/samonemarks/Downloads,no,mono,no,18,no,white,no,yes,768,legacy,34,34,/Users/samonemarks/Downloads/CM-subject-3.csv,legacy,Lentiform Loewenfeld,3.3.9,0,h,NA,s,NA,NA,h,901,NA,121334,NA,NA,901,2,legacy,1024,2,48000,-16,experiment,3,odd,125806,NA,NA,NA,200597,199534,4464,NA,NA,200594,200699,142270,4426,139099,200699,201601,Flanker Task,31,33308,35,yes,1024
Congruent,1500,HHHHH,88.88888889,88.88888889,949.0277778,949.0277778,black,legacy,legacy,legacy,0,uniform,1,undefined,1,h,0,0,0,0,35,35,0,0,0,35,35,35,0,35,35,35,Sun Sep 26 18:46:48 2021,The main experiment item,yes,FlankerTask.osexp,/Users/samonemarks/Downloads,no,mono,no,18,no,white,no,yes,768,legacy,35,35,/Users/samonemarks/Downloads/CM-subject-3.csv,legacy,Lentiform Loewenfeld,3.3.9,0,h,NA,s,NA,NA,h,857,NA,121334,NA,NA,857,2,legacy,1024,2,48000,-16,experiment,3,odd,125806,NA,NA,NA,202672,201606,4464,NA,NA,202669,202774,142270,4426,139099,202775,203633,Flanker Task,32,34165,36,yes,1024
Congruent,1500,SSSSS,89.18918919,89.18918919,942.1351351,942.1351351,black,legacy,legacy,legacy,0,uniform,1,undefined,1,s,0,0,0,0,36,36,0,0,0,36,36,36,0,36,36,36,Sun Sep 26 18:46:48 2021,The main experiment item,yes,FlankerTask.osexp,/Users/samonemarks/Downloads,no,mono,no,18,no,white,no,yes,768,legacy,36,36,/Users/samonemarks/Downloads/CM-subject-3.csv,legacy,Lentiform Loewenfeld,3.3.9,0,s,NA,s,NA,NA,s,694,NA,121334,NA,NA,694,2,legacy,1024,2,48000,-16,experiment,3,odd,125806,NA,NA,NA,204700,203638,4464,NA,NA,204697,204802,142270,4426,139099,204803,205498,Flanker Task,33,34859,37,yes,1024
Incongruent,1500,HHSHH,89.47368421,89.47368421,945.3421053,945.3421053,black,legacy,legacy,legacy,0,uniform,1,undefined,1,s,0,0,0,0,37,37,0,0,0,37,37,37,0,37,37,37,Sun Sep 26 18:46:48 2021,The main experiment item,yes,FlankerTask.osexp,/Users/samonemarks/Downloads,no,mono,no,18,no,white,no,yes,768,legacy,37,37,/Users/samonemarks/Downloads/CM-subject-3.csv,legacy,Lentiform Loewenfeld,3.3.9,0,s,NA,s,NA,NA,s,1064,NA,121334,NA,NA,1064,2,legacy,1024,2,48000,-16,experiment,3,odd,125806,NA,NA,NA,206564,205503,4464,NA,NA,206562,206667,142270,4426,139099,206667,207732,Flanker Task,34,35923,38,yes,1024
Incongruent,1500,SSHSS,89.74358974,89.74358974,943.7179487,943.7179487,black,legacy,legacy,legacy,0,uniform,1,undefined,1,h,0,0,0,0,38,38,0,0,0,38,38,38,0,38,38,38,Sun Sep 26 18:46:48 2021,The main experiment item,yes,FlankerTask.osexp,/Users/samonemarks/Downloads,no,mono,no,18,no,white,no,yes,768,legacy,38,38,/Users/samonemarks/Downloads/CM-subject-3.csv,legacy,Lentiform Loewenfeld,3.3.9,0,h,NA,s,NA,NA,h,882,NA,121334,NA,NA,882,2,legacy,1024,2,48000,-16,experiment,3,odd,125806,NA,NA,NA,208799,207736,4464,NA,NA,208796,208901,142270,4426,139099,208902,209785,Flanker Task,35,36805,39,yes,1024
Incongruent,1500,HHSHH,90,90,938.55,938.55,black,legacy,legacy,legacy,0,uniform,1,undefined,1,s,0,0,0,0,39,39,0,0,0,39,39,39,0,39,39,39,Sun Sep 26 18:46:48 2021,The main experiment item,yes,FlankerTask.osexp,/Users/samonemarks/Downloads,no,mono,no,18,no,white,no,yes,768,legacy,39,39,/Users/samonemarks/Downloads/CM-subject-3.csv,legacy,Lentiform Loewenfeld,3.3.9,0,s,NA,s,NA,NA,s,737,NA,121334,NA,NA,737,2,legacy,1024,2,48000,-16,experiment,3,odd,125806,NA,NA,NA,210853,209790,4464,NA,NA,210851,210955,142270,4426,139099,210955,211692,Flanker Task,36,37542,40,yes,1024
Incongruent,1500,HHSHH,90.24390244,90.24390244,933.3414634,933.3414634,black,legacy,legacy,legacy,0,uniform,1,undefined,1,s,0,0,0,0,40,40,0,0,0,40,40,40,0,40,40,40,Sun Sep 26 18:46:48 2021,The main experiment item,yes,FlankerTask.osexp,/Users/samonemarks/Downloads,no,mono,no,18,no,white,no,yes,768,legacy,40,40,/Users/samonemarks/Downloads/CM-subject-3.csv,legacy,Lentiform Loewenfeld,3.3.9,0,s,NA,s,NA,NA,s,725,NA,121334,NA,NA,725,2,legacy,1024,2,48000,-16,experiment,3,odd,125806,NA,NA,NA,212760,211697,4464,NA,NA,212757,212862,142270,4426,139099,212863,213588,Flanker Task,37,38267,41,yes,1024
Incongruent,1500,SSHSS,90.47619048,90.47619048,930.9285714,930.9285714,black,legacy,legacy,legacy,0,uniform,1,undefined,1,h,0,0,0,0,41,41,0,0,0,41,41,41,0,41,41,41,Sun Sep 26 18:46:48 2021,The main experiment item,yes,FlankerTask.osexp,/Users/samonemarks/Downloads,no,mono,no,18,no,white,no,yes,768,legacy,41,41,/Users/samonemarks/Downloads/CM-subject-3.csv,legacy,Lentiform Loewenfeld,3.3.9,0,h,NA,s,NA,NA,h,832,NA,121334,NA,NA,832,2,legacy,1024,2,48000,-16,experiment,3,odd,125806,NA,NA,NA,214656,213593,4464,NA,NA,214653,214758,142270,4426,139099,214758,215590,Flanker Task,38,39099,42,yes,1024
Congruent,1500,SSSSS,90.69767442,90.69767442,922.5813953,922.5813953,black,legacy,legacy,legacy,0,uniform,1,undefined,1,s,0,0,0,0,42,42,0,0,0,42,42,42,0,42,42,42,Sun Sep 26 18:46:48 2021,The main experiment item,yes,FlankerTask.osexp,/Users/samonemarks/Downloads,no,mono,no,18,no,white,no,yes,768,legacy,42,42,/Users/samonemarks/Downloads/CM-subject-3.csv,legacy,Lentiform Loewenfeld,3.3.9,0,s,NA,s,NA,NA,s,572,NA,121334,NA,NA,572,2,legacy,1024,2,48000,-16,experiment,3,odd,125806,NA,NA,NA,216658,215595,4464,NA,NA,216655,216760,142270,4426,139099,216761,217333,Flanker Task,39,39671,43,yes,1024
Congruent,1500,HHHHH,90.90909091,90.90909091,924.2045455,924.2045455,black,legacy,legacy,legacy,0,uniform,1,undefined,1,h,0,0,0,0,43,43,0,0,0,43,43,43,0,43,43,43,Sun Sep 26 18:46:48 2021,The main experiment item,yes,FlankerTask.osexp,/Users/samonemarks/Downloads,no,mono,no,18,no,white,no,yes,768,legacy,43,43,/Users/samonemarks/Downloads/CM-subject-3.csv,legacy,Lentiform Loewenfeld,3.3.9,0,h,NA,s,NA,NA,h,994,NA,121334,NA,NA,994,2,legacy,1024,2,48000,-16,experiment,3,odd,125806,NA,NA,NA,218400,217338,4464,NA,NA,218397,218502,142270,4426,139099,218503,219497,Flanker Task,40,40665,44,yes,1024
Incongruent,1500,HHSHH,91.11111111,91.11111111,918.8444444,918.8444444,black,legacy,legacy,legacy,0,uniform,1,undefined,1,s,0,0,0,0,44,44,0,0,0,44,44,44,0,44,44,44,Sun Sep 26 18:46:48 2021,The main experiment item,yes,FlankerTask.osexp,/Users/samonemarks/Downloads,no,mono,no,18,no,white,no,yes,768,legacy,44,44,/Users/samonemarks/Downloads/CM-subject-3.csv,legacy,Lentiform Loewenfeld,3.3.9,0,s,NA,s,NA,NA,s,683,NA,121334,NA,NA,683,2,legacy,1024,2,48000,-16,experiment,3,odd,125806,NA,NA,NA,220564,219502,4464,NA,NA,220561,220666,142270,4426,139099,220666,221350,Flanker Task,41,41348,45,yes,1024
Congruent,1500,SSSSS,91.30434783,91.30434783,919.2391304,919.2391304,black,legacy,legacy,legacy,0,uniform,1,undefined,1,s,0,0,0,0,45,45,0,0,0,45,45,45,0,45,45,45,Sun Sep 26 18:46:48 2021,The main experiment item,yes,FlankerTask.osexp,/Users/samonemarks/Downloads,no,mono,no,18,no,white,no,yes,768,legacy,45,45,/Users/samonemarks/Downloads/CM-subject-3.csv,legacy,Lentiform Loewenfeld,3.3.9,0,s,NA,s,NA,NA,s,937,NA,121334,NA,NA,937,2,legacy,1024,2,48000,-16,experiment,3,odd,125806,NA,NA,NA,222416,221354,4464,NA,NA,222414,222518,142270,4426,139099,222518,223456,Flanker Task,42,42285,46,yes,1024
Congruent,1500,HHHHH,91.4893617,91.4893617,919.4893617,919.4893617,black,legacy,legacy,legacy,0,uniform,1,undefined,1,h,0,0,0,0,46,46,0,0,0,46,46,46,0,46,46,46,Sun Sep 26 18:46:48 2021,The main experiment item,yes,FlankerTask.osexp,/Users/samonemarks/Downloads,no,mono,no,18,no,white,no,yes,768,legacy,46,46,/Users/samonemarks/Downloads/CM-subject-3.csv,legacy,Lentiform Loewenfeld,3.3.9,0,h,NA,s,NA,NA,h,931,NA,121334,NA,NA,931,2,legacy,1024,2,48000,-16,experiment,3,odd,125806,NA,NA,NA,224523,223461,4464,NA,NA,224521,224625,142270,4426,139099,224626,225558,Flanker Task,43,43216,47,yes,1024
Congruent,1500,HHHHH,89.58333333,89.58333333,912.875,912.875,black,legacy,legacy,legacy,0,uniform,0,undefined,0,h,0,0,0,0,47,47,0,0,0,47,47,47,0,47,47,47,Sun Sep 26 18:46:48 2021,The main experiment item,yes,FlankerTask.osexp,/Users/samonemarks/Downloads,no,mono,no,18,no,white,no,yes,768,legacy,47,47,/Users/samonemarks/Downloads/CM-subject-3.csv,legacy,Lentiform Loewenfeld,3.3.9,0,s,NA,s,NA,NA,s,602,NA,121334,NA,NA,602,2,legacy,1024,2,48000,-16,experiment,3,odd,125806,NA,NA,NA,226624,225563,4464,NA,NA,226622,226726,142270,4426,139099,226726,227329,Flanker Task,43,43818,48,yes,1024
Congruent,1500,SSSSS,89.79591837,89.79591837,911.8163265,911.8163265,black,legacy,legacy,legacy,0,uniform,1,undefined,1,s,0,0,0,0,48,48,0,0,0,48,48,48,0,48,48,48,Sun Sep 26 18:46:48 2021,The main experiment item,yes,FlankerTask.osexp,/Users/samonemarks/Downloads,no,mono,no,18,no,white,no,yes,768,legacy,48,48,/Users/samonemarks/Downloads/CM-subject-3.csv,legacy,Lentiform Loewenfeld,3.3.9,0,s,NA,s,NA,NA,s,861,NA,121334,NA,NA,861,2,legacy,1024,2,48000,-16,experiment,3,odd,125806,NA,NA,NA,228898,227837,4464,NA,NA,228896,229000,227334,4426,139099,229001,229863,Flanker Task,44,44679,49,yes,1024
Congruent,1500,SSSSS,90,90,902.38,902.38,black,legacy,legacy,legacy,0,uniform,1,undefined,1,s,0,0,0,0,49,49,0,0,0,49,49,49,0,49,49,49,Sun Sep 26 18:46:48 2021,The main experiment item,yes,FlankerTask.osexp,/Users/samonemarks/Downloads,no,mono,no,18,no,white,no,yes,768,legacy,49,49,/Users/samonemarks/Downloads/CM-subject-3.csv,legacy,Lentiform Loewenfeld,3.3.9,0,s,NA,s,NA,NA,s,440,NA,121334,NA,NA,440,2,legacy,1024,2,48000,-16,experiment,3,odd,125806,NA,NA,NA,230930,229868,4464,NA,NA,230928,231033,227334,4426,139099,231033,231474,Flanker Task,45,45119,50,yes,1024
Incongruent,1500,HHSHH,90.19607843,90.19607843,898.6078431,898.6078431,black,legacy,legacy,legacy,0,uniform,1,undefined,1,s,0,0,0,0,50,50,0,0,0,50,50,50,0,50,50,50,Sun Sep 26 18:46:48 2021,The main experiment item,yes,FlankerTask.osexp,/Users/samonemarks/Downloads,no,mono,no,18,no,white,no,yes,768,legacy,50,50,/Users/samonemarks/Downloads/CM-subject-3.csv,legacy,Lentiform Loewenfeld,3.3.9,0,s,NA,s,NA,NA,s,710,NA,121334,NA,NA,710,2,legacy,1024,2,48000,-16,experiment,3,odd,125806,NA,NA,NA,232540,231478,4464,NA,NA,232538,232642,227334,4426,139099,232642,233353,Flanker Task,46,45829,51,yes,1024
Incongruent,1500,HHSHH,90.38461538,90.38461538,897.9615385,897.9615385,black,legacy,legacy,legacy,0,uniform,1,undefined,1,s,0,0,0,0,51,51,0,0,0,51,51,51,0,51,51,51,Sun Sep 26 18:46:48 2021,The main experiment item,yes,FlankerTask.osexp,/Users/samonemarks/Downloads,no,mono,no,18,no,white,no,yes,768,legacy,51,51,/Users/samonemarks/Downloads/CM-subject-3.csv,legacy,Lentiform Loewenfeld,3.3.9,0,s,NA,s,NA,NA,s,865,NA,121334,NA,NA,865,2,legacy,1024,2,48000,-16,experiment,3,odd,125806,NA,NA,NA,234421,233358,4464,NA,NA,234418,234523,227334,4426,139099,234523,235389,Flanker Task,47,46694,52,yes,1024
Incongruent,1500,HHSHH,90.56603774,90.56603774,894.7358491,894.7358491,black,legacy,legacy,legacy,0,uniform,1,undefined,1,s,0,0,0,0,52,52,0,0,0,52,52,52,0,52,52,52,Sun Sep 26 18:46:48 2021,The main experiment item,yes,FlankerTask.osexp,/Users/samonemarks/Downloads,no,mono,no,18,no,white,no,yes,768,legacy,52,52,/Users/samonemarks/Downloads/CM-subject-3.csv,legacy,Lentiform Loewenfeld,3.3.9,0,s,NA,s,NA,NA,s,727,NA,121334,NA,NA,727,2,legacy,1024,2,48000,-16,experiment,3,odd,125806,NA,NA,NA,236455,235393,4464,NA,NA,236452,236557,227334,4426,139099,236558,237286,Flanker Task,48,47421,53,yes,1024
Congruent,1500,HHHHH,90.74074074,90.74074074,894.0925926,894.0925926,black,legacy,legacy,legacy,0,uniform,1,undefined,1,h,0,0,0,0,53,53,0,0,0,53,53,53,0,53,53,53,Sun Sep 26 18:46:48 2021,The main experiment item,yes,FlankerTask.osexp,/Users/samonemarks/Downloads,no,mono,no,18,no,white,no,yes,768,legacy,53,53,/Users/samonemarks/Downloads/CM-subject-3.csv,legacy,Lentiform Loewenfeld,3.3.9,0,h,NA,s,NA,NA,h,860,NA,121334,NA,NA,860,2,legacy,1024,2,48000,-16,experiment,3,odd,125806,NA,NA,NA,238352,237290,4464,NA,NA,238350,238454,227334,4426,139099,238454,239315,Flanker Task,49,48281,54,yes,1024
Incongruent,1500,SSHSS,90.90909091,90.90909091,896.9818182,896.9818182,black,legacy,legacy,legacy,0,uniform,1,undefined,1,h,0,0,0,0,54,54,0,0,0,54,54,54,0,54,54,54,Sun Sep 26 18:46:48 2021,The main experiment item,yes,FlankerTask.osexp,/Users/samonemarks/Downloads,no,mono,no,18,no,white,no,yes,768,legacy,54,54,/Users/samonemarks/Downloads/CM-subject-3.csv,legacy,Lentiform Loewenfeld,3.3.9,0,h,NA,s,NA,NA,h,1053,NA,121334,NA,NA,1053,2,legacy,1024,2,48000,-16,experiment,3,odd,125806,NA,NA,NA,240381,239319,4464,NA,NA,240379,240483,227334,4426,139099,240483,241537,Flanker Task,50,49334,55,yes,1024
Incongruent,1500,SSHSS,91.07142857,91.07142857,897.9642857,897.9642857,black,legacy,legacy,legacy,0,uniform,1,undefined,1,h,0,0,0,0,55,55,0,0,0,55,55,55,0,55,55,55,Sun Sep 26 18:46:48 2021,The main experiment item,yes,FlankerTask.osexp,/Users/samonemarks/Downloads,no,mono,no,18,no,white,no,yes,768,legacy,55,55,/Users/samonemarks/Downloads/CM-subject-3.csv,legacy,Lentiform Loewenfeld,3.3.9,0,h,NA,s,NA,NA,h,952,NA,121334,NA,NA,952,2,legacy,1024,2,48000,-16,experiment,3,odd,125806,NA,NA,NA,242604,241541,4464,NA,NA,242601,242706,227334,4426,139099,242706,243658,Flanker Task,51,50286,56,yes,1024
Congruent,1500,HHHHH,91.22807018,91.22807018,899.7192982,899.7192982,black,legacy,legacy,legacy,0,uniform,1,undefined,1,h,0,0,0,0,56,56,0,0,0,56,56,56,0,56,56,56,Sun Sep 26 18:46:48 2021,The main experiment item,yes,FlankerTask.osexp,/Users/samonemarks/Downloads,no,mono,no,18,no,white,no,yes,768,legacy,56,56,/Users/samonemarks/Downloads/CM-subject-3.csv,legacy,Lentiform Loewenfeld,3.3.9,0,h,NA,s,NA,NA,h,998,NA,121334,NA,NA,998,2,legacy,1024,2,48000,-16,experiment,3,odd,125806,NA,NA,NA,244724,243663,4464,NA,NA,244722,244826,227334,4426,139099,244826,245824,Flanker Task,52,51284,57,yes,1024
Congruent,1500,SSSSS,91.37931034,91.37931034,891.7068966,891.7068966,black,legacy,legacy,legacy,0,uniform,1,undefined,1,s,0,0,0,0,57,57,0,0,0,57,57,57,0,57,57,57,Sun Sep 26 18:46:48 2021,The main experiment item,yes,FlankerTask.osexp,/Users/samonemarks/Downloads,no,mono,no,18,no,white,no,yes,768,legacy,57,57,/Users/samonemarks/Downloads/CM-subject-3.csv,legacy,Lentiform Loewenfeld,3.3.9,0,s,NA,s,NA,NA,s,435,NA,121334,NA,NA,435,2,legacy,1024,2,48000,-16,experiment,3,odd,125806,NA,NA,NA,246891,245829,4464,NA,NA,246889,246993,227334,4426,139099,246994,247430,Flanker Task,53,51719,58,yes,1024
Incongruent,1500,SSHSS,91.52542373,91.52542373,891.6779661,891.6779661,black,legacy,legacy,legacy,0,uniform,1,undefined,1,h,0,0,0,0,58,58,0,0,0,58,58,58,0,58,58,58,Sun Sep 26 18:46:48 2021,The main experiment item,yes,FlankerTask.osexp,/Users/samonemarks/Downloads,no,mono,no,18,no,white,no,yes,768,legacy,58,58,/Users/samonemarks/Downloads/CM-subject-3.csv,legacy,Lentiform Loewenfeld,3.3.9,0,h,NA,s,NA,NA,h,890,NA,121334,NA,NA,890,2,legacy,1024,2,48000,-16,experiment,3,odd,125806,NA,NA,NA,248497,247435,4464,NA,NA,248494,248599,227334,4426,139099,248599,249489,Flanker Task,54,52609,59,yes,1024
Congruent,1500,SSSSS,91.66666667,91.66666667,885.6166667,885.6166667,black,legacy,legacy,legacy,0,uniform,1,undefined,1,s,0,0,0,0,59,59,0,0,0,59,59,59,0,59,59,59,Sun Sep 26 18:46:48 2021,The main experiment item,yes,FlankerTask.osexp,/Users/samonemarks/Downloads,no,mono,no,18,no,white,no,yes,768,legacy,59,59,/Users/samonemarks/Downloads/CM-subject-3.csv,legacy,Lentiform Loewenfeld,3.3.9,0,s,NA,s,NA,NA,s,528,NA,121334,NA,NA,528,2,legacy,1024,2,48000,-16,experiment,3,odd,125806,NA,NA,NA,250557,249494,4464,NA,NA,250554,250659,227334,4426,139099,250659,251188,Flanker Task,55,53137,60,yes,1024
Incongruent,1500,SSHSS,91.80327869,91.80327869,885.1311475,885.1311475,black,legacy,legacy,legacy,0,uniform,1,undefined,1,h,0,0,0,0,60,60,0,0,0,60,60,60,0,60,60,60,Sun Sep 26 18:46:48 2021,The main experiment item,yes,FlankerTask.osexp,/Users/samonemarks/Downloads,no,mono,no,18,no,white,no,yes,768,legacy,60,60,/Users/samonemarks/Downloads/CM-subject-3.csv,legacy,Lentiform Loewenfeld,3.3.9,0,h,NA,s,NA,NA,h,856,NA,121334,NA,NA,856,2,legacy,1024,2,48000,-16,experiment,3,odd,125806,NA,NA,NA,252256,251194,4464,NA,NA,252254,252358,227334,4426,139099,252358,253215,Flanker Task,56,53993,61,yes,1024
Incongruent,1500,SSHSS,91.93548387,91.93548387,884.6935484,884.6935484,black,legacy,legacy,legacy,0,uniform,1,undefined,1,h,0,0,0,0,61,61,0,0,0,61,61,61,0,61,61,61,Sun Sep 26 18:46:48 2021,The main experiment item,yes,FlankerTask.osexp,/Users/samonemarks/Downloads,no,mono,no,18,no,white,no,yes,768,legacy,61,61,/Users/samonemarks/Downloads/CM-subject-3.csv,legacy,Lentiform Loewenfeld,3.3.9,0,h,NA,s,NA,NA,h,858,NA,121334,NA,NA,858,2,legacy,1024,2,48000,-16,experiment,3,odd,125806,NA,NA,NA,254282,253220,4464,NA,NA,254279,254384,227334,4426,139099,254384,255243,Flanker Task,57,54851,62,yes,1024
Incongruent,1500,SSHSS,92.06349206,92.06349206,883,883,black,legacy,legacy,legacy,0,uniform,1,undefined,1,h,0,0,0,0,62,62,0,0,0,62,62,62,0,62,62,62,Sun Sep 26 18:46:48 2021,The main experiment item,yes,FlankerTask.osexp,/Users/samonemarks/Downloads,no,mono,no,18,no,white,no,yes,768,legacy,62,62,/Users/samonemarks/Downloads/CM-subject-3.csv,legacy,Lentiform Loewenfeld,3.3.9,0,h,NA,s,NA,NA,h,778,NA,121334,NA,NA,778,2,legacy,1024,2,48000,-16,experiment,3,odd,125806,NA,NA,NA,256310,255248,4464,NA,NA,256307,256412,227334,4426,139099,256412,257191,Flanker Task,58,55629,63,yes,1024
Congruent,1500,HHHHH,92.1875,92.1875,881.3125,881.3125,black,legacy,legacy,legacy,0,uniform,1,undefined,1,h,0,0,0,0,63,63,0,0,0,63,63,63,0,63,63,63,Sun Sep 26 18:46:48 2021,The main experiment item,yes,FlankerTask.osexp,/Users/samonemarks/Downloads,no,mono,no,18,no,white,no,yes,768,legacy,63,63,/Users/samonemarks/Downloads/CM-subject-3.csv,legacy,Lentiform Loewenfeld,3.3.9,0,h,NA,s,NA,NA,h,775,NA,121334,NA,NA,775,2,legacy,1024,2,48000,-16,experiment,3,odd,125806,NA,NA,NA,258257,257196,4464,NA,NA,258255,258359,227334,4426,139099,258360,259136,Flanker Task,59,56404,64,yes,1024
Incongruent,1500,HHSHH,92.30769231,92.30769231,881.0769231,881.0769231,black,legacy,legacy,legacy,0,uniform,1,undefined,1,s,0,0,0,0,64,64,0,0,0,64,64,64,0,64,64,64,Sun Sep 26 18:46:48 2021,The main experiment item,yes,FlankerTask.osexp,/Users/samonemarks/Downloads,no,mono,no,18,no,white,no,yes,768,legacy,64,64,/Users/samonemarks/Downloads/CM-subject-3.csv,legacy,Lentiform Loewenfeld,3.3.9,0,s,NA,s,NA,NA,s,866,NA,121334,NA,NA,866,2,legacy,1024,2,48000,-16,experiment,3,odd,125806,NA,NA,NA,260203,259141,4464,NA,NA,260200,260305,227334,4426,139099,260305,261172,Flanker Task,60,57270,65,yes,1024
Congruent,1500,HHHHH,92.42424242,92.42424242,877.8181818,877.8181818,black,legacy,legacy,legacy,0,uniform,1,undefined,1,h,0,0,0,0,65,65,0,0,0,65,65,65,0,65,65,65,Sun Sep 26 18:46:48 2021,The main experiment item,yes,FlankerTask.osexp,/Users/samonemarks/Downloads,no,mono,no,18,no,white,no,yes,768,legacy,65,65,/Users/samonemarks/Downloads/CM-subject-3.csv,legacy,Lentiform Loewenfeld,3.3.9,0,h,NA,s,NA,NA,h,666,NA,121334,NA,NA,666,2,legacy,1024,2,48000,-16,experiment,3,odd,125806,NA,NA,NA,262239,261177,4464,NA,NA,262236,262341,227334,4426,139099,262341,263008,Flanker Task,61,57936,66,yes,1024
Congruent,1500,HHHHH,92.53731343,92.53731343,875.880597,875.880597,black,legacy,legacy,legacy,0,uniform,1,undefined,1,h,0,0,0,0,66,66,0,0,0,66,66,66,0,66,66,66,Sun Sep 26 18:46:48 2021,The main experiment item,yes,FlankerTask.osexp,/Users/samonemarks/Downloads,no,mono,no,18,no,white,no,yes,768,legacy,66,66,/Users/samonemarks/Downloads/CM-subject-3.csv,legacy,Lentiform Loewenfeld,3.3.9,0,h,NA,s,NA,NA,h,748,NA,121334,NA,NA,748,2,legacy,1024,2,48000,-16,experiment,3,odd,125806,NA,NA,NA,264073,263012,4464,NA,NA,264071,264175,227334,4426,139099,264176,264925,Flanker Task,62,58684,67,yes,1024
Congruent,1500,HHHHH,92.64705882,92.64705882,874.4411765,874.4411765,black,legacy,legacy,legacy,0,uniform,1,undefined,1,h,0,0,0,0,67,67,0,0,0,67,67,67,0,67,67,67,Sun Sep 26 18:46:48 2021,The main experiment item,yes,FlankerTask.osexp,/Users/samonemarks/Downloads,no,mono,no,18,no,white,no,yes,768,legacy,67,67,/Users/samonemarks/Downloads/CM-subject-3.csv,legacy,Lentiform Loewenfeld,3.3.9,0,h,NA,s,NA,NA,h,778,NA,121334,NA,NA,778,2,legacy,1024,2,48000,-16,experiment,3,odd,125806,NA,NA,NA,265991,264930,4464,NA,NA,265989,266093,227334,4426,139099,266093,266872,Flanker Task,63,59462,68,yes,1024
Congruent,1500,SSSSS,92.75362319,92.75362319,870.7536232,870.7536232,black,legacy,legacy,legacy,0,uniform,1,undefined,1,s,0,0,0,0,68,68,0,0,0,68,68,68,0,68,68,68,Sun Sep 26 18:46:48 2021,The main experiment item,yes,FlankerTask.osexp,/Users/samonemarks/Downloads,no,mono,no,18,no,white,no,yes,768,legacy,68,68,/Users/samonemarks/Downloads/CM-subject-3.csv,legacy,Lentiform Loewenfeld,3.3.9,0,s,NA,s,NA,NA,s,620,NA,121334,NA,NA,620,2,legacy,1024,2,48000,-16,experiment,3,odd,125806,NA,NA,NA,267938,266876,4464,NA,NA,267936,268040,227334,4426,139099,268040,268661,Flanker Task,64,60082,69,yes,1024
Incongruent,1500,SSHSS,92.85714286,92.85714286,871.2428571,871.2428571,black,legacy,legacy,legacy,0,uniform,1,undefined,1,h,0,0,0,0,69,69,0,0,0,69,69,69,0,69,69,69,Sun Sep 26 18:46:48 2021,The main experiment item,yes,FlankerTask.osexp,/Users/samonemarks/Downloads,no,mono,no,18,no,white,no,yes,768,legacy,69,69,/Users/samonemarks/Downloads/CM-subject-3.csv,legacy,Lentiform Loewenfeld,3.3.9,0,h,NA,s,NA,NA,h,905,NA,121334,NA,NA,905,2,legacy,1024,2,48000,-16,experiment,3,odd,125806,NA,NA,NA,269727,268666,4464,NA,NA,269725,269830,227334,4426,139099,269830,270736,Flanker Task,65,60987,70,yes,1024
Incongruent,1500,HHSHH,92.95774648,92.95774648,870.2394366,870.2394366,black,legacy,legacy,legacy,0,uniform,1,undefined,1,s,0,0,0,0,70,70,0,0,0,70,70,70,0,70,70,70,Sun Sep 26 18:46:48 2021,The main experiment item,yes,FlankerTask.osexp,/Users/samonemarks/Downloads,no,mono,no,18,no,white,no,yes,768,legacy,70,70,/Users/samonemarks/Downloads/CM-subject-3.csv,legacy,Lentiform Loewenfeld,3.3.9,0,s,NA,s,NA,NA,s,800,NA,121334,NA,NA,800,2,legacy,1024,2,48000,-16,experiment,3,odd,125806,NA,NA,NA,271804,270740,4464,NA,NA,271802,271906,227334,4426,139099,271906,272707,Flanker Task,66,61787,71,yes,1024
Congruent,1500,HHHHH,93.05555556,93.05555556,869.3888889,869.3888889,black,legacy,legacy,legacy,0,uniform,1,undefined,1,h,0,0,0,0,71,71,0,0,0,71,71,71,0,71,71,71,Sun Sep 26 18:46:48 2021,The main experiment item,yes,FlankerTask.osexp,/Users/samonemarks/Downloads,no,mono,no,18,no,white,no,yes,768,legacy,71,71,/Users/samonemarks/Downloads/CM-subject-3.csv,legacy,Lentiform Loewenfeld,3.3.9,0,h,NA,s,NA,NA,h,809,NA,121334,NA,NA,809,2,legacy,1024,2,48000,-16,experiment,3,odd,125806,NA,NA,NA,273773,272711,4464,NA,NA,273771,273875,227334,4426,139099,273875,274685,Flanker Task,67,62596,72,yes,1024
Incongruent,1500,HHSHH,93.15068493,93.15068493,866.8767123,866.8767123,black,legacy,legacy,legacy,0,uniform,1,undefined,1,s,0,0,0,0,72,72,0,0,0,72,72,72,0,72,72,72,Sun Sep 26 18:46:48 2021,The main experiment item,yes,FlankerTask.osexp,/Users/samonemarks/Downloads,no,mono,no,18,no,white,no,yes,768,legacy,72,72,/Users/samonemarks/Downloads/CM-subject-3.csv,legacy,Lentiform Loewenfeld,3.3.9,0,s,NA,s,NA,NA,s,686,NA,121334,NA,NA,686,2,legacy,1024,2,48000,-16,experiment,3,odd,125806,NA,NA,NA,275752,274690,4464,NA,NA,275749,275854,227334,4426,139099,275855,276541,Flanker Task,68,63282,73,yes,1024
Incongruent,1500,SSHSS,93.24324324,93.24324324,864.9054054,864.9054054,black,legacy,legacy,legacy,0,uniform,1,undefined,1,h,0,0,0,0,73,73,0,0,0,73,73,73,0,73,73,73,Sun Sep 26 18:46:48 2021,The main experiment item,yes,FlankerTask.osexp,/Users/samonemarks/Downloads,no,mono,no,18,no,white,no,yes,768,legacy,73,73,/Users/samonemarks/Downloads/CM-subject-3.csv,legacy,Lentiform Loewenfeld,3.3.9,0,h,NA,s,NA,NA,h,721,NA,121334,NA,NA,721,2,legacy,1024,2,48000,-16,experiment,3,odd,125806,NA,NA,NA,277609,276546,4464,NA,NA,277606,277711,227334,4426,139099,277711,278433,Flanker Task,69,64003,74,yes,1024
Incongruent,1500,HHSHH,93.33333333,93.33333333,864.0133333,864.0133333,black,legacy,legacy,legacy,0,uniform,1,undefined,1,s,0,0,0,0,74,74,0,0,0,74,74,74,0,74,74,74,Sun Sep 26 18:46:48 2021,The main experiment item,yes,FlankerTask.osexp,/Users/samonemarks/Downloads,no,mono,no,18,no,white,no,yes,768,legacy,74,74,/Users/samonemarks/Downloads/CM-subject-3.csv,legacy,Lentiform Loewenfeld,3.3.9,0,s,NA,s,NA,NA,s,798,NA,121334,NA,NA,798,2,legacy,1024,2,48000,-16,experiment,3,odd,125806,NA,NA,NA,279499,278437,4464,NA,NA,279497,279601,227334,4426,139099,279601,280400,Flanker Task,70,64801,75,yes,1024
Incongruent,1500,HHSHH,93.42105263,93.42105263,864.4605263,864.4605263,black,legacy,legacy,legacy,0,uniform,1,undefined,1,s,0,0,0,0,75,75,0,0,0,75,75,75,0,75,75,75,Sun Sep 26 18:46:48 2021,The main experiment item,yes,FlankerTask.osexp,/Users/samonemarks/Downloads,no,mono,no,18,no,white,no,yes,768,legacy,75,75,/Users/samonemarks/Downloads/CM-subject-3.csv,legacy,Lentiform Loewenfeld,3.3.9,0,s,NA,s,NA,NA,s,898,NA,121334,NA,NA,898,2,legacy,1024,2,48000,-16,experiment,3,odd,125806,NA,NA,NA,281468,280405,4464,NA,NA,281465,281570,227334,4426,139099,281570,282469,Flanker Task,71,65699,76,yes,1024
Congruent,1500,HHHHH,93.50649351,93.50649351,862.3766234,862.3766234,black,legacy,legacy,legacy,0,uniform,1,undefined,1,h,0,0,0,0,76,76,0,0,0,76,76,76,0,76,76,76,Sun Sep 26 18:46:48 2021,The main experiment item,yes,FlankerTask.osexp,/Users/samonemarks/Downloads,no,mono,no,18,no,white,no,yes,768,legacy,76,76,/Users/samonemarks/Downloads/CM-subject-3.csv,legacy,Lentiform Loewenfeld,3.3.9,0,h,NA,s,NA,NA,h,704,NA,121334,NA,NA,704,2,legacy,1024,2,48000,-16,experiment,3,odd,125806,NA,NA,NA,283536,282474,4464,NA,NA,283534,283638,227334,4426,139099,283638,284343,Flanker Task,72,66403,77,yes,1024
Incongruent,1500,HHSHH,93.58974359,93.58974359,860.8589744,860.8589744,black,legacy,legacy,legacy,0,uniform,1,undefined,1,s,0,0,0,0,77,77,0,0,0,77,77,77,0,77,77,77,Sun Sep 26 18:46:48 2021,The main experiment item,yes,FlankerTask.osexp,/Users/samonemarks/Downloads,no,mono,no,18,no,white,no,yes,768,legacy,77,77,/Users/samonemarks/Downloads/CM-subject-3.csv,legacy,Lentiform Loewenfeld,3.3.9,0,s,NA,s,NA,NA,s,744,NA,121334,NA,NA,744,2,legacy,1024,2,48000,-16,experiment,3,odd,125806,NA,NA,NA,285410,284347,4464,NA,NA,285408,285512,227334,4426,139099,285512,286257,Flanker Task,73,67147,78,yes,1024
Congruent,1500,SSSSS,93.67088608,93.67088608,859.4177215,859.4177215,black,legacy,legacy,legacy,0,uniform,1,undefined,1,s,0,0,0,0,78,78,0,0,0,78,78,78,0,78,78,78,Sun Sep 26 18:46:48 2021,The main experiment item,yes,FlankerTask.osexp,/Users/samonemarks/Downloads,no,mono,no,18,no,white,no,yes,768,legacy,78,78,/Users/samonemarks/Downloads/CM-subject-3.csv,legacy,Lentiform Loewenfeld,3.3.9,0,s,NA,s,NA,NA,s,747,NA,121334,NA,NA,747,2,legacy,1024,2,48000,-16,experiment,3,odd,125806,NA,NA,NA,287324,286262,4464,NA,NA,287321,287426,227334,4426,139099,287426,288174,Flanker Task,74,67894,79,yes,1024
Congruent,1500,SSSSS,93.75,93.75,858.9125,858.9125,black,legacy,legacy,legacy,0,uniform,1,undefined,1,s,0,0,0,0,79,79,0,0,0,79,79,79,0,79,79,79,Sun Sep 26 18:46:48 2021,The main experiment item,yes,FlankerTask.osexp,/Users/samonemarks/Downloads,no,mono,no,18,no,white,no,yes,768,legacy,79,79,/Users/samonemarks/Downloads/CM-subject-3.csv,legacy,Lentiform Loewenfeld,3.3.9,0,s,NA,s,NA,NA,s,819,NA,121334,NA,NA,819,2,legacy,1024,2,48000,-16,experiment,3,odd,125806,NA,NA,NA,289242,288178,4464,NA,NA,289239,289344,227334,4426,139099,289344,290164,Flanker Task,75,68713,80,yes,1024
Incongruent,600,SSHSS,93.82716049,93.82716049,864.0987654,864.0987654,black,legacy,legacy,legacy,0,uniform,1,undefined,1,h,0,0,0,0,80,80,0,0,0,80,80,80,0,80,80,80,Sun Sep 26 18:46:48 2021,The main experiment item,yes,FlankerTask.osexp,/Users/samonemarks/Downloads,no,mono,no,18,no,white,no,yes,768,legacy,0,79,/Users/samonemarks/Downloads/CM-subject-3.csv,legacy,Lentiform Loewenfeld,3.3.9,0,h,NA,s,h,NA,h,1279,NA,121334,24834,NA,1279,2,legacy,1024,2,48000,-16,experiment,3,odd,125806,316027,NA,NA,316072,290168,4464,291192,NA,316069,316175,227334,4426,139099,316175,317455,Flanker Task,76,69992,81,yes,1024
Congruent,600,HHHHH,93.90243902,93.90243902,861.6829268,861.6829268,black,legacy,legacy,legacy,0,uniform,1,undefined,1,h,0,0,0,0,81,81,0,0,0,81,81,81,0,81,81,81,Sun Sep 26 18:46:48 2021,The main experiment item,yes,FlankerTask.osexp,/Users/samonemarks/Downloads,no,mono,no,18,no,white,no,yes,768,legacy,1,79,/Users/samonemarks/Downloads/CM-subject-3.csv,legacy,Lentiform Loewenfeld,3.3.9,0,h,NA,s,h,NA,h,666,NA,121334,24834,NA,666,2,legacy,1024,2,48000,-16,experiment,3,odd,125806,316027,NA,NA,319025,317962,4464,291192,NA,319023,319127,227334,4426,317459,319127,319794,Flanker Task,77,70658,82,yes,1024
Congruent,600,HHHHH,93.97590361,93.97590361,858.4939759,858.4939759,black,legacy,legacy,legacy,0,uniform,1,undefined,1,h,0,0,0,0,82,82,0,0,0,82,82,82,0,82,82,82,Sun Sep 26 18:46:48 2021,The main experiment item,yes,FlankerTask.osexp,/Users/samonemarks/Downloads,no,mono,no,18,no,white,no,yes,768,legacy,2,79,/Users/samonemarks/Downloads/CM-subject-3.csv,legacy,Lentiform Loewenfeld,3.3.9,0,h,NA,s,h,NA,h,597,NA,121334,24834,NA,597,2,legacy,1024,2,48000,-16,experiment,3,odd,125806,316027,NA,NA,321365,320302,4464,291192,NA,321363,321467,227334,4426,319799,321467,322065,Flanker Task,78,71255,83,yes,1024
Incongruent,600,HHSHH,94.04761905,94.04761905,855.2380952,855.2380952,black,legacy,legacy,legacy,0,uniform,1,undefined,1,s,0,0,0,0,83,83,0,0,0,83,83,83,0,83,83,83,Sun Sep 26 18:46:48 2021,The main experiment item,yes,FlankerTask.osexp,/Users/samonemarks/Downloads,no,mono,no,18,no,white,no,yes,768,legacy,3,79,/Users/samonemarks/Downloads/CM-subject-3.csv,legacy,Lentiform Loewenfeld,3.3.9,0,s,NA,s,h,NA,s,585,NA,121334,24834,NA,585,2,legacy,1024,2,48000,-16,experiment,3,odd,125806,316027,NA,NA,323134,322070,4464,291192,NA,323131,323236,227334,4426,319799,323236,323822,Flanker Task,79,71840,84,yes,1024
Congruent,600,HHHHH,94.11764706,94.11764706,849.8823529,849.8823529,black,legacy,legacy,legacy,0,uniform,1,undefined,1,h,0,0,0,0,84,84,0,0,0,84,84,84,0,84,84,84,Sun Sep 26 18:46:48 2021,The main experiment item,yes,FlankerTask.osexp,/Users/samonemarks/Downloads,no,mono,no,18,no,white,no,yes,768,legacy,4,79,/Users/samonemarks/Downloads/CM-subject-3.csv,legacy,Lentiform Loewenfeld,3.3.9,0,h,NA,s,h,NA,h,400,NA,121334,24834,NA,400,2,legacy,1024,2,48000,-16,experiment,3,odd,125806,316027,NA,NA,324889,323826,4464,291192,NA,324887,324991,227334,4426,319799,324991,325392,Flanker Task,80,72240,85,yes,1024
Congruent,600,SSSSS,94.18604651,94.18604651,844.4883721,844.4883721,black,legacy,legacy,legacy,0,uniform,1,undefined,1,s,0,0,0,0,85,85,0,0,0,85,85,85,0,85,85,85,Sun Sep 26 18:46:48 2021,The main experiment item,yes,FlankerTask.osexp,/Users/samonemarks/Downloads,no,mono,no,18,no,white,no,yes,768,legacy,5,79,/Users/samonemarks/Downloads/CM-subject-3.csv,legacy,Lentiform Loewenfeld,3.3.9,0,s,NA,s,h,NA,s,386,NA,121334,24834,NA,386,2,legacy,1024,2,48000,-16,experiment,3,odd,125806,316027,NA,NA,326458,325397,4464,291192,NA,326456,326560,227334,4426,319799,326560,326947,Flanker Task,81,72626,86,yes,1024
Congruent,600,HHHHH,94.25287356,94.25287356,838.8390805,838.8390805,black,legacy,legacy,legacy,0,uniform,1,undefined,1,h,0,0,0,0,86,86,0,0,0,86,86,86,0,86,86,86,Sun Sep 26 18:46:48 2021,The main experiment item,yes,FlankerTask.osexp,/Users/samonemarks/Downloads,no,mono,no,18,no,white,no,yes,768,legacy,6,79,/Users/samonemarks/Downloads/CM-subject-3.csv,legacy,Lentiform Loewenfeld,3.3.9,0,h,NA,s,h,NA,h,353,NA,121334,24834,NA,353,2,legacy,1024,2,48000,-16,experiment,3,odd,125806,316027,NA,NA,328013,326951,4464,291192,NA,328011,328115,227334,4426,319799,328115,328469,Flanker Task,82,72979,87,yes,1024
Incongruent,600,HHSHH,94.31818182,94.31818182,835.5113636,835.5113636,black,legacy,legacy,legacy,0,uniform,1,undefined,1,s,0,0,0,0,87,87,0,0,0,87,87,87,0,87,87,87,Sun Sep 26 18:46:48 2021,The main experiment item,yes,FlankerTask.osexp,/Users/samonemarks/Downloads,no,mono,no,18,no,white,no,yes,768,legacy,7,79,/Users/samonemarks/Downloads/CM-subject-3.csv,legacy,Lentiform Loewenfeld,3.3.9,0,s,NA,s,h,NA,s,546,NA,121334,24834,NA,546,2,legacy,1024,2,48000,-16,experiment,3,odd,125806,316027,NA,NA,329536,328473,4464,291192,NA,329534,329638,227334,4426,319799,329638,330185,Flanker Task,83,73525,88,yes,1024
Congruent,600,SSSSS,94.38202247,94.38202247,830.7752809,830.7752809,black,legacy,legacy,legacy,0,uniform,1,undefined,1,s,0,0,0,0,88,88,0,0,0,88,88,88,0,88,88,88,Sun Sep 26 18:46:48 2021,The main experiment item,yes,FlankerTask.osexp,/Users/samonemarks/Downloads,no,mono,no,18,no,white,no,yes,768,legacy,8,79,/Users/samonemarks/Downloads/CM-subject-3.csv,legacy,Lentiform Loewenfeld,3.3.9,0,s,NA,s,h,NA,s,414,NA,121334,24834,NA,414,2,legacy,1024,2,48000,-16,experiment,3,odd,125806,316027,NA,NA,331251,330189,4464,291192,NA,331249,331354,227334,4426,319799,331354,331769,Flanker Task,84,73939,89,yes,1024
Incongruent,600,HHSHH,94.44444444,94.44444444,829.2222222,829.2222222,black,legacy,legacy,legacy,0,uniform,1,undefined,1,s,0,0,0,0,89,89,0,0,0,89,89,89,0,89,89,89,Sun Sep 26 18:46:48 2021,The main experiment item,yes,FlankerTask.osexp,/Users/samonemarks/Downloads,no,mono,no,18,no,white,no,yes,768,legacy,9,79,/Users/samonemarks/Downloads/CM-subject-3.csv,legacy,Lentiform Loewenfeld,3.3.9,0,s,NA,s,h,NA,s,691,NA,121334,24834,NA,691,2,legacy,1024,2,48000,-16,experiment,3,odd,125806,316027,NA,NA,332835,331773,4464,291192,NA,332833,332937,227334,4426,319799,332937,333629,Flanker Task,85,74630,90,yes,1024
Incongruent,600,SSHSS,94.50549451,94.50549451,827.8241758,827.8241758,black,legacy,legacy,legacy,0,uniform,1,undefined,1,h,0,0,0,0,90,90,0,0,0,90,90,90,0,90,90,90,Sun Sep 26 18:46:48 2021,The main experiment item,yes,FlankerTask.osexp,/Users/samonemarks/Downloads,no,mono,no,18,no,white,no,yes,768,legacy,10,79,/Users/samonemarks/Downloads/CM-subject-3.csv,legacy,Lentiform Loewenfeld,3.3.9,0,h,NA,s,h,NA,h,702,NA,121334,24834,NA,702,2,legacy,1024,2,48000,-16,experiment,3,odd,125806,316027,NA,NA,335199,334136,4464,291192,NA,335197,335302,227334,4426,333634,335302,336004,Flanker Task,86,75332,91,yes,1024
Congruent,600,HHHHH,94.56521739,94.56521739,822.9130435,822.9130435,black,legacy,legacy,legacy,0,uniform,1,undefined,1,h,0,0,0,0,91,91,0,0,0,91,91,91,0,91,91,91,Sun Sep 26 18:46:48 2021,The main experiment item,yes,FlankerTask.osexp,/Users/samonemarks/Downloads,no,mono,no,18,no,white,no,yes,768,legacy,11,79,/Users/samonemarks/Downloads/CM-subject-3.csv,legacy,Lentiform Loewenfeld,3.3.9,0,h,NA,s,h,NA,h,376,NA,121334,24834,NA,376,2,legacy,1024,2,48000,-16,experiment,3,odd,125806,316027,NA,NA,337574,336511,4464,291192,NA,337572,337676,227334,4426,336009,337676,338052,Flanker Task,87,75708,92,yes,1024
Congruent,600,SSSSS,94.62365591,94.62365591,817.1505376,817.1505376,black,legacy,legacy,legacy,0,uniform,1,undefined,1,s,0,0,0,0,92,92,0,0,0,92,92,92,0,92,92,92,Sun Sep 26 18:46:48 2021,The main experiment item,yes,FlankerTask.osexp,/Users/samonemarks/Downloads,no,mono,no,18,no,white,no,yes,768,legacy,12,79,/Users/samonemarks/Downloads/CM-subject-3.csv,legacy,Lentiform Loewenfeld,3.3.9,0,s,NA,s,h,NA,s,287,NA,121334,24834,NA,287,2,legacy,1024,2,48000,-16,experiment,3,odd,125806,316027,NA,NA,339119,338058,4464,291192,NA,339117,339221,227334,4426,336009,339221,339509,Flanker Task,88,75995,93,yes,1024
Congruent,600,SSSSS,94.68085106,94.68085106,812.0638298,812.0638298,black,legacy,legacy,legacy,0,uniform,1,undefined,1,s,0,0,0,0,93,93,0,0,0,93,93,93,0,93,93,93,Sun Sep 26 18:46:48 2021,The main experiment item,yes,FlankerTask.osexp,/Users/samonemarks/Downloads,no,mono,no,18,no,white,no,yes,768,legacy,13,79,/Users/samonemarks/Downloads/CM-subject-3.csv,legacy,Lentiform Loewenfeld,3.3.9,0,s,NA,s,h,NA,s,339,NA,121334,24834,NA,339,2,legacy,1024,2,48000,-16,experiment,3,odd,125806,316027,NA,NA,340575,339514,4464,291192,NA,340573,340677,227334,4426,336009,340677,341018,Flanker Task,89,76334,94,yes,1024
Congruent,600,HHHHH,94.73684211,94.73684211,807.9789474,807.9789474,black,legacy,legacy,legacy,0,uniform,1,undefined,1,h,0,0,0,0,94,94,0,0,0,94,94,94,0,94,94,94,Sun Sep 26 18:46:48 2021,The main experiment item,yes,FlankerTask.osexp,/Users/samonemarks/Downloads,no,mono,no,18,no,white,no,yes,768,legacy,14,79,/Users/samonemarks/Downloads/CM-subject-3.csv,legacy,Lentiform Loewenfeld,3.3.9,0,h,NA,s,h,NA,h,424,NA,121334,24834,NA,424,2,legacy,1024,2,48000,-16,experiment,3,odd,125806,316027,NA,NA,342085,341023,4464,291192,NA,342083,342187,227334,4426,336009,342187,342612,Flanker Task,90,76758,95,yes,1024
Congruent,600,SSSSS,94.79166667,94.79166667,802.3541667,802.3541667,black,legacy,legacy,legacy,0,uniform,1,undefined,1,s,0,0,0,0,95,95,0,0,0,95,95,95,0,95,95,95,Sun Sep 26 18:46:48 2021,The main experiment item,yes,FlankerTask.osexp,/Users/samonemarks/Downloads,no,mono,no,18,no,white,no,yes,768,legacy,15,79,/Users/samonemarks/Downloads/CM-subject-3.csv,legacy,Lentiform Loewenfeld,3.3.9,0,s,NA,s,h,NA,s,268,NA,121334,24834,NA,268,2,legacy,1024,2,48000,-16,experiment,3,odd,125806,316027,NA,NA,343679,342617,4464,291192,NA,343677,343781,227334,4426,336009,343782,344051,Flanker Task,91,77026,96,yes,1024
Incongruent,600,HHSHH,94.84536082,94.84536082,800.3092784,800.3092784,black,legacy,legacy,legacy,0,uniform,1,undefined,1,s,0,0,0,0,96,96,0,0,0,96,96,96,0,96,96,96,Sun Sep 26 18:46:48 2021,The main experiment item,yes,FlankerTask.osexp,/Users/samonemarks/Downloads,no,mono,no,18,no,white,no,yes,768,legacy,16,79,/Users/samonemarks/Downloads/CM-subject-3.csv,legacy,Lentiform Loewenfeld,3.3.9,0,s,NA,s,h,NA,s,604,NA,121334,24834,NA,604,2,legacy,1024,2,48000,-16,experiment,3,odd,125806,316027,NA,NA,345117,344056,4464,291192,NA,345115,345219,227334,4426,336009,345219,345824,Flanker Task,92,77630,97,yes,1024
Congruent,600,SSSSS,94.89795918,94.89795918,796.1122449,796.1122449,black,legacy,legacy,legacy,0,uniform,1,undefined,1,s,0,0,0,0,97,97,0,0,0,97,97,97,0,97,97,97,Sun Sep 26 18:46:48 2021,The main experiment item,yes,FlankerTask.osexp,/Users/samonemarks/Downloads,no,mono,no,18,no,white,no,yes,768,legacy,17,79,/Users/samonemarks/Downloads/CM-subject-3.csv,legacy,Lentiform Loewenfeld,3.3.9,0,s,NA,s,h,NA,s,389,NA,121334,24834,NA,389,2,legacy,1024,2,48000,-16,experiment,3,odd,125806,316027,NA,NA,347393,346332,4464,291192,NA,347391,347496,227334,4426,345829,347496,347886,Flanker Task,93,78019,98,yes,1024
Congruent,600,SSSSS,94.94949495,94.94949495,791.8080808,791.8080808,black,legacy,legacy,legacy,0,uniform,1,undefined,1,s,0,0,0,0,98,98,0,0,0,98,98,98,0,98,98,98,Sun Sep 26 18:46:48 2021,The main experiment item,yes,FlankerTask.osexp,/Users/samonemarks/Downloads,no,mono,no,18,no,white,no,yes,768,legacy,18,79,/Users/samonemarks/Downloads/CM-subject-3.csv,legacy,Lentiform Loewenfeld,3.3.9,0,s,NA,s,h,NA,s,370,NA,121334,24834,NA,370,2,legacy,1024,2,48000,-16,experiment,3,odd,125806,316027,NA,NA,348954,347891,4464,291192,NA,348952,349056,227334,4426,345829,349057,349428,Flanker Task,94,78389,99,yes,1024
Congruent,600,SSSSS,95,95,786.92,786.92,black,legacy,legacy,legacy,0,uniform,1,undefined,1,s,0,0,0,0,99,99,0,0,0,99,99,99,0,99,99,99,Sun Sep 26 18:46:48 2021,The main experiment item,yes,FlankerTask.osexp,/Users/samonemarks/Downloads,no,mono,no,18,no,white,no,yes,768,legacy,19,79,/Users/samonemarks/Downloads/CM-subject-3.csv,legacy,Lentiform Loewenfeld,3.3.9,0,s,NA,s,h,NA,s,303,NA,121334,24834,NA,303,2,legacy,1024,2,48000,-16,experiment,3,odd,125806,316027,NA,NA,350495,349432,4464,291192,NA,350493,350597,227334,4426,345829,350597,350901,Flanker Task,95,78692,100,yes,1024
Congruent,600,SSSSS,95.04950495,95.04950495,782.2970297,782.2970297,black,legacy,legacy,legacy,0,uniform,1,undefined,1,s,0,0,0,0,100,100,0,0,0,100,100,100,0,100,100,100,Sun Sep 26 18:46:48 2021,The main experiment item,yes,FlankerTask.osexp,/Users/samonemarks/Downloads,no,mono,no,18,no,white,no,yes,768,legacy,20,79,/Users/samonemarks/Downloads/CM-subject-3.csv,legacy,Lentiform Loewenfeld,3.3.9,0,s,NA,s,h,NA,s,320,NA,121334,24834,NA,320,2,legacy,1024,2,48000,-16,experiment,3,odd,125806,316027,NA,NA,351967,350905,4464,291192,NA,351965,352070,227334,4426,345829,352070,352391,Flanker Task,96,79012,101,yes,1024
Congruent,600,SSSSS,95.09803922,95.09803922,777.0784314,777.0784314,black,legacy,legacy,legacy,0,uniform,1,undefined,1,s,0,0,0,0,101,101,0,0,0,101,101,101,0,101,101,101,Sun Sep 26 18:46:48 2021,The main experiment item,yes,FlankerTask.osexp,/Users/samonemarks/Downloads,no,mono,no,18,no,white,no,yes,768,legacy,21,79,/Users/samonemarks/Downloads/CM-subject-3.csv,legacy,Lentiform Loewenfeld,3.3.9,0,s,NA,s,h,NA,s,250,NA,121334,24834,NA,250,2,legacy,1024,2,48000,-16,experiment,3,odd,125806,316027,NA,NA,353457,352396,4464,291192,NA,353455,353559,227334,4426,345829,353559,353810,Flanker Task,97,79262,102,yes,1024
Incongruent,600,SSHSS,95.14563107,95.14563107,774.407767,774.407767,black,legacy,legacy,legacy,0,uniform,1,undefined,1,h,0,0,0,0,102,102,0,0,0,102,102,102,0,102,102,102,Sun Sep 26 18:46:48 2021,The main experiment item,yes,FlankerTask.osexp,/Users/samonemarks/Downloads,no,mono,no,18,no,white,no,yes,768,legacy,22,79,/Users/samonemarks/Downloads/CM-subject-3.csv,legacy,Lentiform Loewenfeld,3.3.9,0,h,NA,s,h,NA,h,502,NA,121334,24834,NA,502,2,legacy,1024,2,48000,-16,experiment,3,odd,125806,316027,NA,NA,354878,353815,4464,291192,NA,354876,354980,227334,4426,345829,354980,355483,Flanker Task,98,79764,103,yes,1024
Congruent,600,HHHHH,94.23076923,94.23076923,771.7019231,771.7019231,black,legacy,legacy,legacy,0,uniform,0,undefined,0,h,0,0,0,0,103,103,0,0,0,103,103,103,0,103,103,103,Sun Sep 26 18:46:48 2021,The main experiment item,yes,FlankerTask.osexp,/Users/samonemarks/Downloads,no,mono,no,18,no,white,no,yes,768,legacy,23,79,/Users/samonemarks/Downloads/CM-subject-3.csv,legacy,Lentiform Loewenfeld,3.3.9,0,s,NA,s,h,NA,s,493,NA,121334,24834,NA,493,2,legacy,1024,2,48000,-16,experiment,3,odd,125806,316027,NA,NA,356550,355488,4464,291192,NA,356548,356652,227334,4426,345829,356653,357147,Flanker Task,98,80257,104,yes,1024
Incongruent,600,SSHSS,94.28571429,94.28571429,770.9142857,770.9142857,black,legacy,legacy,legacy,0,uniform,1,undefined,1,h,0,0,0,0,104,104,0,0,0,104,104,104,0,104,104,104,Sun Sep 26 18:46:48 2021,The main experiment item,yes,FlankerTask.osexp,/Users/samonemarks/Downloads,no,mono,no,18,no,white,no,yes,768,legacy,24,79,/Users/samonemarks/Downloads/CM-subject-3.csv,legacy,Lentiform Loewenfeld,3.3.9,0,h,NA,s,h,NA,h,689,NA,121334,24834,NA,689,2,legacy,1024,2,48000,-16,experiment,3,odd,125806,316027,NA,NA,358718,357654,4464,291192,NA,358716,358820,357151,4426,345829,358821,359511,Flanker Task,99,80946,105,yes,1024
Incongruent,600,HHSHH,94.33962264,94.33962264,767.8867925,767.8867925,black,legacy,legacy,legacy,0,uniform,1,undefined,1,s,0,0,0,0,105,105,0,0,0,105,105,105,0,105,105,105,Sun Sep 26 18:46:48 2021,The main experiment item,yes,FlankerTask.osexp,/Users/samonemarks/Downloads,no,mono,no,18,no,white,no,yes,768,legacy,25,79,/Users/samonemarks/Downloads/CM-subject-3.csv,legacy,Lentiform Loewenfeld,3.3.9,0,s,NA,s,h,NA,s,450,NA,121334,24834,NA,450,2,legacy,1024,2,48000,-16,experiment,3,odd,125806,316027,NA,NA,361081,360019,4464,291192,NA,361079,361183,357151,4426,359516,361183,361634,Flanker Task,100,81396,106,yes,1024
Incongruent,600,SSHSS,94.39252336,94.39252336,765.4018692,765.4018692,black,legacy,legacy,legacy,0,uniform,1,undefined,1,h,0,0,0,0,106,106,0,0,0,106,106,106,0,106,106,106,Sun Sep 26 18:46:48 2021,The main experiment item,yes,FlankerTask.osexp,/Users/samonemarks/Downloads,no,mono,no,18,no,white,no,yes,768,legacy,26,79,/Users/samonemarks/Downloads/CM-subject-3.csv,legacy,Lentiform Loewenfeld,3.3.9,0,h,NA,s,h,NA,h,502,NA,121334,24834,NA,502,2,legacy,1024,2,48000,-16,experiment,3,odd,125806,316027,NA,NA,362703,361639,4464,291192,NA,362701,362805,357151,4426,359516,362805,363308,Flanker Task,101,81898,107,yes,1024
Incongruent,600,HHSHH,94.44444444,94.44444444,760.787037,760.787037,black,legacy,legacy,legacy,0,uniform,1,undefined,1,s,0,0,0,0,107,107,0,0,0,107,107,107,0,107,107,107,Sun Sep 26 18:46:48 2021,The main experiment item,yes,FlankerTask.osexp,/Users/samonemarks/Downloads,no,mono,no,18,no,white,no,yes,768,legacy,27,79,/Users/samonemarks/Downloads/CM-subject-3.csv,legacy,Lentiform Loewenfeld,3.3.9,0,s,NA,s,h,NA,s,267,NA,121334,24834,NA,267,2,legacy,1024,2,48000,-16,experiment,3,odd,125806,316027,NA,NA,364375,363313,4464,291192,NA,364372,364477,357151,4426,359516,364477,364745,Flanker Task,102,82165,108,yes,1024
Congruent,600,HHHHH,94.49541284,94.49541284,756.6880734,756.6880734,black,legacy,legacy,legacy,0,uniform,1,undefined,1,h,0,0,0,0,108,108,0,0,0,108,108,108,0,108,108,108,Sun Sep 26 18:46:48 2021,The main experiment item,yes,FlankerTask.osexp,/Users/samonemarks/Downloads,no,mono,no,18,no,white,no,yes,768,legacy,28,79,/Users/samonemarks/Downloads/CM-subject-3.csv,legacy,Lentiform Loewenfeld,3.3.9,0,h,NA,s,h,NA,h,314,NA,121334,24834,NA,314,2,legacy,1024,2,48000,-16,experiment,3,odd,125806,316027,NA,NA,365811,364749,4464,291192,NA,365809,365913,357151,4426,359516,365914,366229,Flanker Task,103,82479,109,yes,1024
Congruent,600,HHHHH,93.63636364,93.63636364,753.1727273,753.1727273,black,legacy,legacy,legacy,0,uniform,0,undefined,0,h,0,0,0,0,109,109,0,0,0,109,109,109,0,109,109,109,Sun Sep 26 18:46:48 2021,The main experiment item,yes,FlankerTask.osexp,/Users/samonemarks/Downloads,no,mono,no,18,no,white,no,yes,768,legacy,29,79,/Users/samonemarks/Downloads/CM-subject-3.csv,legacy,Lentiform Loewenfeld,3.3.9,0,s,NA,s,h,NA,s,370,NA,121334,24834,NA,370,2,legacy,1024,2,48000,-16,experiment,3,odd,125806,316027,NA,NA,367296,366234,4464,291192,NA,367294,367399,357151,4426,359516,367399,367770,Flanker Task,103,82849,110,yes,1024
Congruent,600,HHHHH,93.69369369,93.69369369,752.6216216,752.6216216,black,legacy,legacy,legacy,0,uniform,1,undefined,1,h,0,0,0,0,110,110,0,0,0,110,110,110,0,110,110,110,Sun Sep 26 18:46:48 2021,The main experiment item,yes,FlankerTask.osexp,/Users/samonemarks/Downloads,no,mono,no,18,no,white,no,yes,768,legacy,30,79,/Users/samonemarks/Downloads/CM-subject-3.csv,legacy,Lentiform Loewenfeld,3.3.9,0,h,NA,s,h,NA,h,692,NA,121334,24834,NA,692,2,legacy,1024,2,48000,-16,experiment,3,odd,125806,316027,NA,NA,369341,368278,4464,291192,NA,369339,369444,367774,4426,359516,369445,370138,Flanker Task,104,83541,111,yes,1024
Incongruent,600,SSHSS,93.75,93.75,751.5267857,751.5267857,black,legacy,legacy,legacy,0,uniform,1,undefined,1,h,0,0,0,0,111,111,0,0,0,111,111,111,0,111,111,111,Sun Sep 26 18:46:48 2021,The main experiment item,yes,FlankerTask.osexp,/Users/samonemarks/Downloads,no,mono,no,18,no,white,no,yes,768,legacy,31,79,/Users/samonemarks/Downloads/CM-subject-3.csv,legacy,Lentiform Loewenfeld,3.3.9,0,h,NA,s,h,NA,h,630,NA,121334,24834,NA,630,2,legacy,1024,2,48000,-16,experiment,3,odd,125806,316027,NA,NA,371708,370646,4464,291192,NA,371706,371810,367774,4426,370143,371810,372441,Flanker Task,105,84171,112,yes,1024
Congruent,600,SSSSS,93.80530973,93.80530973,747.1946903,747.1946903,black,legacy,legacy,legacy,0,uniform,1,undefined,1,s,0,0,0,0,112,112,0,0,0,112,112,112,0,112,112,112,Sun Sep 26 18:46:48 2021,The main experiment item,yes,FlankerTask.osexp,/Users/samonemarks/Downloads,no,mono,no,18,no,white,no,yes,768,legacy,32,79,/Users/samonemarks/Downloads/CM-subject-3.csv,legacy,Lentiform Loewenfeld,3.3.9,0,s,NA,s,h,NA,s,262,NA,121334,24834,NA,262,2,legacy,1024,2,48000,-16,experiment,3,odd,125806,316027,NA,NA,374012,372951,4464,291192,NA,374010,374115,367774,4426,372447,374116,374379,Flanker Task,106,84433,113,yes,1024
Congruent,600,HHHHH,93.85964912,93.85964912,743.0087719,743.0087719,black,legacy,legacy,legacy,0,uniform,1,undefined,1,h,0,0,0,0,113,113,0,0,0,113,113,113,0,113,113,113,Sun Sep 26 18:46:48 2021,The main experiment item,yes,FlankerTask.osexp,/Users/samonemarks/Downloads,no,mono,no,18,no,white,no,yes,768,legacy,33,79,/Users/samonemarks/Downloads/CM-subject-3.csv,legacy,Lentiform Loewenfeld,3.3.9,0,h,NA,s,h,NA,h,270,NA,121334,24834,NA,270,2,legacy,1024,2,48000,-16,experiment,3,odd,125806,316027,NA,NA,375446,374384,4464,291192,NA,375444,375548,367774,4426,372447,375548,375819,Flanker Task,107,84703,114,yes,1024
Congruent,600,SSSSS,93.91304348,93.91304348,740.5826087,740.5826087,black,legacy,legacy,legacy,0,uniform,1,undefined,1,s,0,0,0,0,114,114,0,0,0,114,114,114,0,114,114,114,Sun Sep 26 18:46:48 2021,The main experiment item,yes,FlankerTask.osexp,/Users/samonemarks/Downloads,no,mono,no,18,no,white,no,yes,768,legacy,34,79,/Users/samonemarks/Downloads/CM-subject-3.csv,legacy,Lentiform Loewenfeld,3.3.9,0,s,NA,s,h,NA,s,464,NA,121334,24834,NA,464,2,legacy,1024,2,48000,-16,experiment,3,odd,125806,316027,NA,NA,376886,375824,4464,291192,NA,376884,376988,367774,4426,372447,376988,377453,Flanker Task,108,85167,115,yes,1024
Incongruent,600,SSHSS,93.10344828,93.10344828,737.612069,737.612069,black,legacy,legacy,legacy,0,uniform,0,undefined,0,h,0,0,0,0,115,115,0,0,0,115,115,115,0,115,115,115,Sun Sep 26 18:46:48 2021,The main experiment item,yes,FlankerTask.osexp,/Users/samonemarks/Downloads,no,mono,no,18,no,white,no,yes,768,legacy,35,79,/Users/samonemarks/Downloads/CM-subject-3.csv,legacy,Lentiform Loewenfeld,3.3.9,0,s,NA,s,h,NA,s,396,NA,121334,24834,NA,396,2,legacy,1024,2,48000,-16,experiment,3,odd,125806,316027,NA,NA,378520,377458,4464,291192,NA,378518,378622,367774,4426,372447,378622,379019,Flanker Task,108,85563,116,yes,1024
Congruent,600,HHHHH,93.16239316,93.16239316,734.6752137,734.6752137,black,legacy,legacy,legacy,0,uniform,1,undefined,1,h,0,0,0,0,116,116,0,0,0,116,116,116,0,116,116,116,Sun Sep 26 18:46:48 2021,The main experiment item,yes,FlankerTask.osexp,/Users/samonemarks/Downloads,no,mono,no,18,no,white,no,yes,768,legacy,36,79,/Users/samonemarks/Downloads/CM-subject-3.csv,legacy,Lentiform Loewenfeld,3.3.9,0,h,NA,s,h,NA,h,394,NA,121334,24834,NA,394,2,legacy,1024,2,48000,-16,experiment,3,odd,125806,316027,NA,NA,380590,379528,4464,291192,NA,380588,380692,379024,4426,372447,380692,381087,Flanker Task,109,85957,117,yes,1024
Congruent,600,HHHHH,93.22033898,93.22033898,731.4576271,731.4576271,black,legacy,legacy,legacy,0,uniform,1,undefined,1,h,0,0,0,0,117,117,0,0,0,117,117,117,0,117,117,117,Sun Sep 26 18:46:48 2021,The main experiment item,yes,FlankerTask.osexp,/Users/samonemarks/Downloads,no,mono,no,18,no,white,no,yes,768,legacy,37,79,/Users/samonemarks/Downloads/CM-subject-3.csv,legacy,Lentiform Loewenfeld,3.3.9,0,h,NA,s,h,NA,h,355,NA,121334,24834,NA,355,2,legacy,1024,2,48000,-16,experiment,3,odd,125806,316027,NA,NA,382156,381092,4464,291192,NA,382153,382258,379024,4426,372447,382259,382615,Flanker Task,110,86312,118,yes,1024
Congruent,600,SSSSS,93.27731092,93.27731092,727.7563025,727.7563025,black,legacy,legacy,legacy,0,uniform,1,undefined,1,s,0,0,0,0,118,118,0,0,0,118,118,118,0,118,118,118,Sun Sep 26 18:46:48 2021,The main experiment item,yes,FlankerTask.osexp,/Users/samonemarks/Downloads,no,mono,no,18,no,white,no,yes,768,legacy,38,79,/Users/samonemarks/Downloads/CM-subject-3.csv,legacy,Lentiform Loewenfeld,3.3.9,0,s,NA,s,h,NA,s,291,NA,121334,24834,NA,291,2,legacy,1024,2,48000,-16,experiment,3,odd,125806,316027,NA,NA,383681,382620,4464,291192,NA,383679,383783,379024,4426,372447,383783,384075,Flanker Task,111,86603,119,yes,1024
Congruent,600,SSSSS,93.33333333,93.33333333,725.1166667,725.1166667,black,legacy,legacy,legacy,0,uniform,1,undefined,1,s,0,0,0,0,119,119,0,0,0,119,119,119,0,119,119,119,Sun Sep 26 18:46:48 2021,The main experiment item,yes,FlankerTask.osexp,/Users/samonemarks/Downloads,no,mono,no,18,no,white,no,yes,768,legacy,39,79,/Users/samonemarks/Downloads/CM-subject-3.csv,legacy,Lentiform Loewenfeld,3.3.9,0,s,NA,s,h,NA,s,411,NA,121334,24834,NA,411,2,legacy,1024,2,48000,-16,experiment,3,odd,125806,316027,NA,NA,385141,384079,4464,291192,NA,385138,385243,379024,4426,372447,385243,385655,Flanker Task,112,87014,120,yes,1024
Congruent,600,HHHHH,93.38842975,93.38842975,721.553719,721.553719,black,legacy,legacy,legacy,0,uniform,1,undefined,1,h,0,0,0,0,120,120,0,0,0,120,120,120,0,120,120,120,Sun Sep 26 18:46:48 2021,The main experiment item,yes,FlankerTask.osexp,/Users/samonemarks/Downloads,no,mono,no,18,no,white,no,yes,768,legacy,40,79,/Users/samonemarks/Downloads/CM-subject-3.csv,legacy,Lentiform Loewenfeld,3.3.9,0,h,NA,s,h,NA,h,294,NA,121334,24834,NA,294,2,legacy,1024,2,48000,-16,experiment,3,odd,125806,316027,NA,NA,386722,385660,4464,291192,NA,386719,386824,379024,4426,372447,386825,387120,Flanker Task,113,87308,121,yes,1024
Congruent,600,HHHHH,92.62295082,92.62295082,717.9098361,717.9098361,black,legacy,legacy,legacy,0,uniform,0,undefined,0,h,0,0,0,0,121,121,0,0,0,121,121,121,0,121,121,121,Sun Sep 26 18:46:48 2021,The main experiment item,yes,FlankerTask.osexp,/Users/samonemarks/Downloads,no,mono,no,18,no,white,no,yes,768,legacy,41,79,/Users/samonemarks/Downloads/CM-subject-3.csv,legacy,Lentiform Loewenfeld,3.3.9,0,s,NA,s,h,NA,s,277,NA,121334,24834,NA,277,2,legacy,1024,2,48000,-16,experiment,3,odd,125806,316027,NA,NA,388186,387125,4464,291192,NA,388184,388288,379024,4426,372447,388288,388566,Flanker Task,113,87585,122,yes,1024
Incongruent,600,HHSHH,92.68292683,92.68292683,716.5691057,716.5691057,black,legacy,legacy,legacy,0,uniform,1,undefined,1,s,0,0,0,0,122,122,0,0,0,122,122,122,0,122,122,122,Sun Sep 26 18:46:48 2021,The main experiment item,yes,FlankerTask.osexp,/Users/samonemarks/Downloads,no,mono,no,18,no,white,no,yes,768,legacy,42,79,/Users/samonemarks/Downloads/CM-subject-3.csv,legacy,Lentiform Loewenfeld,3.3.9,0,s,NA,s,h,NA,s,553,NA,121334,24834,NA,553,2,legacy,1024,2,48000,-16,experiment,3,odd,125806,316027,NA,NA,390137,389072,4464,291192,NA,390132,390239,388569,4426,372447,390239,390794,Flanker Task,114,88138,123,yes,1024
Incongruent,600,SSHSS,92.74193548,92.74193548,714.2741935,714.2741935,black,legacy,legacy,legacy,0,uniform,1,undefined,1,h,0,0,0,0,123,123,0,0,0,123,123,123,0,123,123,123,Sun Sep 26 18:46:48 2021,The main experiment item,yes,FlankerTask.osexp,/Users/samonemarks/Downloads,no,mono,no,18,no,white,no,yes,768,legacy,43,79,/Users/samonemarks/Downloads/CM-subject-3.csv,legacy,Lentiform Loewenfeld,3.3.9,0,h,NA,s,h,NA,h,432,NA,121334,24834,NA,432,2,legacy,1024,2,48000,-16,experiment,3,odd,125806,316027,NA,NA,391864,390799,4464,291192,NA,391861,391966,388569,4426,372447,391966,392399,Flanker Task,115,88570,124,yes,1024
Incongruent,600,SSHSS,92,92,711.016,711.016,black,legacy,legacy,legacy,0,uniform,0,undefined,0,h,0,0,0,0,124,124,0,0,0,124,124,124,0,124,124,124,Sun Sep 26 18:46:48 2021,The main experiment item,yes,FlankerTask.osexp,/Users/samonemarks/Downloads,no,mono,no,18,no,white,no,yes,768,legacy,44,79,/Users/samonemarks/Downloads/CM-subject-3.csv,legacy,Lentiform Loewenfeld,3.3.9,0,s,NA,s,h,NA,s,307,NA,121334,24834,NA,307,2,legacy,1024,2,48000,-16,experiment,3,odd,125806,316027,NA,NA,393467,392403,4464,291192,NA,393465,393569,388569,4426,372447,393569,393877,Flanker Task,115,88877,125,yes,1024
Incongruent,600,SSHSS,92.06349206,92.06349206,710.0873016,710.0873016,black,legacy,legacy,legacy,0,uniform,1,undefined,1,h,0,0,0,0,125,125,0,0,0,125,125,125,0,125,125,125,Sun Sep 26 18:46:48 2021,The main experiment item,yes,FlankerTask.osexp,/Users/samonemarks/Downloads,no,mono,no,18,no,white,no,yes,768,legacy,45,79,/Users/samonemarks/Downloads/CM-subject-3.csv,legacy,Lentiform Loewenfeld,3.3.9,0,h,NA,s,h,NA,h,594,NA,121334,24834,NA,594,2,legacy,1024,2,48000,-16,experiment,3,odd,125806,316027,NA,NA,395448,394386,4464,291192,NA,395446,395550,393882,4426,372447,395550,396145,Flanker Task,116,89471,126,yes,1024
Incongruent,600,HHSHH,92.12598425,92.12598425,708.7637795,708.7637795,black,legacy,legacy,legacy,0,uniform,1,undefined,1,s,0,0,0,0,126,126,0,0,0,126,126,126,0,126,126,126,Sun Sep 26 18:46:48 2021,The main experiment item,yes,FlankerTask.osexp,/Users/samonemarks/Downloads,no,mono,no,18,no,white,no,yes,768,legacy,46,79,/Users/samonemarks/Downloads/CM-subject-3.csv,legacy,Lentiform Loewenfeld,3.3.9,0,s,NA,s,h,NA,s,542,NA,121334,24834,NA,542,2,legacy,1024,2,48000,-16,experiment,3,odd,125806,316027,NA,NA,397211,396149,4464,291192,NA,397209,397313,393882,4426,372447,397313,397857,Flanker Task,117,90013,127,yes,1024
Incongruent,600,HHSHH,92.1875,92.1875,707.6484375,707.6484375,black,legacy,legacy,legacy,0,uniform,1,undefined,1,s,0,0,0,0,127,127,0,0,0,127,127,127,0,127,127,127,Sun Sep 26 18:46:48 2021,The main experiment item,yes,FlankerTask.osexp,/Users/samonemarks/Downloads,no,mono,no,18,no,white,no,yes,768,legacy,47,79,/Users/samonemarks/Downloads/CM-subject-3.csv,legacy,Lentiform Loewenfeld,3.3.9,0,s,NA,s,h,NA,s,566,NA,121334,24834,NA,566,2,legacy,1024,2,48000,-16,experiment,3,odd,125806,316027,NA,NA,398923,397861,4464,291192,NA,398921,399025,393882,4426,372447,399025,399592,Flanker Task,118,90579,128,yes,1024
Congruent,600,HHHHH,92.24806202,92.24806202,705.0775194,705.0775194,black,legacy,legacy,legacy,0,uniform,1,undefined,1,h,0,0,0,0,128,128,0,0,0,128,128,128,0,128,128,128,Sun Sep 26 18:46:48 2021,The main experiment item,yes,FlankerTask.osexp,/Users/samonemarks/Downloads,no,mono,no,18,no,white,no,yes,768,legacy,48,79,/Users/samonemarks/Downloads/CM-subject-3.csv,legacy,Lentiform Loewenfeld,3.3.9,0,h,NA,s,h,NA,h,376,NA,121334,24834,NA,376,2,legacy,1024,2,48000,-16,experiment,3,odd,125806,316027,NA,NA,400660,399597,4464,291192,NA,400657,400762,393882,4426,372447,400762,401140,Flanker Task,119,90955,129,yes,1024
Congruent,600,HHHHH,92.30769231,92.30769231,702.9461538,702.9461538,black,legacy,legacy,legacy,0,uniform,1,undefined,1,h,0,0,0,0,129,129,0,0,0,129,129,129,0,129,129,129,Sun Sep 26 18:46:48 2021,The main experiment item,yes,FlankerTask.osexp,/Users/samonemarks/Downloads,no,mono,no,18,no,white,no,yes,768,legacy,49,79,/Users/samonemarks/Downloads/CM-subject-3.csv,legacy,Lentiform Loewenfeld,3.3.9,0,h,NA,s,h,NA,h,428,NA,121334,24834,NA,428,2,legacy,1024,2,48000,-16,experiment,3,odd,125806,316027,NA,NA,402208,401144,4464,291192,NA,402205,402310,393882,4426,372447,402310,402740,Flanker Task,120,91383,130,yes,1024
Incongruent,600,HHSHH,91.60305344,91.60305344,700.6870229,700.6870229,black,legacy,legacy,legacy,0,uniform,0,undefined,0,s,0,0,0,0,130,130,0,0,0,130,130,130,0,130,130,130,Sun Sep 26 18:46:48 2021,The main experiment item,yes,FlankerTask.osexp,/Users/samonemarks/Downloads,no,mono,no,18,no,white,no,yes,768,legacy,50,79,/Users/samonemarks/Downloads/CM-subject-3.csv,legacy,Lentiform Loewenfeld,3.3.9,0,h,NA,s,h,NA,h,407,NA,121334,24834,NA,407,2,legacy,1024,2,48000,-16,experiment,3,odd,125806,316027,NA,NA,403806,402744,4464,291192,NA,403803,403908,393882,4426,372447,403908,404316,Flanker Task,120,91790,131,yes,1024
Incongruent,600,HHSHH,91.66666667,91.66666667,699.8106061,699.8106061,black,legacy,legacy,legacy,0,uniform,1,undefined,1,s,0,0,0,0,131,131,0,0,0,131,131,131,0,131,131,131,Sun Sep 26 18:46:48 2021,The main experiment item,yes,FlankerTask.osexp,/Users/samonemarks/Downloads,no,mono,no,18,no,white,no,yes,768,legacy,51,79,/Users/samonemarks/Downloads/CM-subject-3.csv,legacy,Lentiform Loewenfeld,3.3.9,0,s,NA,s,h,NA,s,585,NA,121334,24834,NA,585,2,legacy,1024,2,48000,-16,experiment,3,odd,125806,316027,NA,NA,405886,404823,4464,291192,NA,405884,405988,404321,4426,372447,405988,406575,Flanker Task,121,92375,132,yes,1024
Incongruent,600,HHSHH,91.72932331,91.72932331,697.9323308,697.9323308,black,legacy,legacy,legacy,0,uniform,1,undefined,1,s,0,0,0,0,132,132,0,0,0,132,132,132,0,132,132,132,Sun Sep 26 18:46:48 2021,The main experiment item,yes,FlankerTask.osexp,/Users/samonemarks/Downloads,no,mono,no,18,no,white,no,yes,768,legacy,52,79,/Users/samonemarks/Downloads/CM-subject-3.csv,legacy,Lentiform Loewenfeld,3.3.9,0,s,NA,s,h,NA,s,450,NA,121334,24834,NA,450,2,legacy,1024,2,48000,-16,experiment,3,odd,125806,316027,NA,NA,407642,406579,4464,291192,NA,407640,407744,404321,4426,372447,407744,408195,Flanker Task,122,92825,133,yes,1024
Incongruent,600,HHSHH,91.79104478,91.79104478,696.6268657,696.6268657,black,legacy,legacy,legacy,0,uniform,1,undefined,1,s,0,0,0,0,133,133,0,0,0,133,133,133,0,133,133,133,Sun Sep 26 18:46:48 2021,The main experiment item,yes,FlankerTask.osexp,/Users/samonemarks/Downloads,no,mono,no,18,no,white,no,yes,768,legacy,53,79,/Users/samonemarks/Downloads/CM-subject-3.csv,legacy,Lentiform Loewenfeld,3.3.9,0,s,NA,s,h,NA,s,523,NA,121334,24834,NA,523,2,legacy,1024,2,48000,-16,experiment,3,odd,125806,316027,NA,NA,409262,408200,4464,291192,NA,409260,409364,404321,4426,372447,409364,409888,Flanker Task,123,93348,134,yes,1024
Incongruent,600,HHSHH,91.85185185,91.85185185,694.4740741,694.4740741,black,legacy,legacy,legacy,0,uniform,1,undefined,1,s,0,0,0,0,134,134,0,0,0,134,134,134,0,134,134,134,Sun Sep 26 18:46:48 2021,The main experiment item,yes,FlankerTask.osexp,/Users/samonemarks/Downloads,no,mono,no,18,no,white,no,yes,768,legacy,54,79,/Users/samonemarks/Downloads/CM-subject-3.csv,legacy,Lentiform Loewenfeld,3.3.9,0,s,NA,s,h,NA,s,406,NA,121334,24834,NA,406,2,legacy,1024,2,48000,-16,experiment,3,odd,125806,316027,NA,NA,410955,409893,4464,291192,NA,410953,411057,404321,4426,372447,411057,411464,Flanker Task,124,93754,135,yes,1024
Incongruent,600,SSHSS,91.17647059,91.17647059,692.1470588,692.1470588,black,legacy,legacy,legacy,0,uniform,0,undefined,0,h,0,0,0,0,135,135,0,0,0,135,135,135,0,135,135,135,Sun Sep 26 18:46:48 2021,The main experiment item,yes,FlankerTask.osexp,/Users/samonemarks/Downloads,no,mono,no,18,no,white,no,yes,768,legacy,55,79,/Users/samonemarks/Downloads/CM-subject-3.csv,legacy,Lentiform Loewenfeld,3.3.9,0,s,NA,s,h,NA,s,378,NA,121334,24834,NA,378,2,legacy,1024,2,48000,-16,experiment,3,odd,125806,316027,NA,NA,412530,411469,4464,291192,NA,412528,412632,404321,4426,372447,412632,413011,Flanker Task,124,94132,136,yes,1024
Congruent,600,HHHHH,91.24087591,91.24087591,689.6715328,689.6715328,black,legacy,legacy,legacy,0,uniform,1,undefined,1,h,0,0,0,0,136,136,0,0,0,136,136,136,0,136,136,136,Sun Sep 26 18:46:48 2021,The main experiment item,yes,FlankerTask.osexp,/Users/samonemarks/Downloads,no,mono,no,18,no,white,no,yes,768,legacy,56,79,/Users/samonemarks/Downloads/CM-subject-3.csv,legacy,Lentiform Loewenfeld,3.3.9,0,h,NA,s,h,NA,h,353,NA,121334,24834,NA,353,2,legacy,1024,2,48000,-16,experiment,3,odd,125806,316027,NA,NA,414581,413518,4464,291192,NA,414579,414683,413015,4426,372447,414683,415037,Flanker Task,125,94485,137,yes,1024
Incongruent,600,SSHSS,90.57971014,90.57971014,688.4347826,688.4347826,black,legacy,legacy,legacy,0,uniform,0,undefined,0,h,0,0,0,0,137,137,0,0,0,137,137,137,0,137,137,137,Sun Sep 26 18:46:48 2021,The main experiment item,yes,FlankerTask.osexp,/Users/samonemarks/Downloads,no,mono,no,18,no,white,no,yes,768,legacy,57,79,/Users/samonemarks/Downloads/CM-subject-3.csv,legacy,Lentiform Loewenfeld,3.3.9,0,s,NA,s,h,NA,s,519,NA,121334,24834,NA,519,2,legacy,1024,2,48000,-16,experiment,3,odd,125806,316027,NA,NA,416105,415042,4464,291192,NA,416102,416208,413015,4426,372447,416208,416728,Flanker Task,125,95004,138,yes,1024
Incongruent,600,SSHSS,90.64748201,90.64748201,686.9136691,686.9136691,black,legacy,legacy,legacy,0,uniform,1,undefined,1,h,0,0,0,0,138,138,0,0,0,138,138,138,0,138,138,138,Sun Sep 26 18:46:48 2021,The main experiment item,yes,FlankerTask.osexp,/Users/samonemarks/Downloads,no,mono,no,18,no,white,no,yes,768,legacy,58,79,/Users/samonemarks/Downloads/CM-subject-3.csv,legacy,Lentiform Loewenfeld,3.3.9,0,h,NA,s,h,NA,h,477,NA,121334,24834,NA,477,2,legacy,1024,2,48000,-16,experiment,3,odd,125806,316027,NA,NA,418299,417236,4464,291192,NA,418297,418401,416733,4426,372447,418401,418879,Flanker Task,126,95481,139,yes,1024
Incongruent,600,SSHSS,90.71428571,90.71428571,685.4857143,685.4857143,black,legacy,legacy,legacy,0,uniform,1,undefined,1,h,0,0,0,0,139,139,0,0,0,139,139,139,0,139,139,139,Sun Sep 26 18:46:48 2021,The main experiment item,yes,FlankerTask.osexp,/Users/samonemarks/Downloads,no,mono,no,18,no,white,no,yes,768,legacy,59,79,/Users/samonemarks/Downloads/CM-subject-3.csv,legacy,Lentiform Loewenfeld,3.3.9,0,h,NA,s,h,NA,h,487,NA,121334,24834,NA,487,2,legacy,1024,2,48000,-16,experiment,3,odd,125806,316027,NA,NA,419947,418884,4464,291192,NA,419944,420049,416733,4426,372447,420049,420537,Flanker Task,127,95968,140,yes,1024
Incongruent,600,HHSHH,90.78014184,90.78014184,683.9787234,683.9787234,black,legacy,legacy,legacy,0,uniform,1,undefined,1,s,0,0,0,0,140,140,0,0,0,140,140,140,0,140,140,140,Sun Sep 26 18:46:48 2021,The main experiment item,yes,FlankerTask.osexp,/Users/samonemarks/Downloads,no,mono,no,18,no,white,no,yes,768,legacy,60,79,/Users/samonemarks/Downloads/CM-subject-3.csv,legacy,Lentiform Loewenfeld,3.3.9,0,s,NA,s,h,NA,s,473,NA,121334,24834,NA,473,2,legacy,1024,2,48000,-16,experiment,3,odd,125806,316027,NA,NA,421603,420541,4464,291192,NA,421601,421705,416733,4426,372447,421705,422179,Flanker Task,128,96441,141,yes,1024
Incongruent,600,SSHSS,90.14084507,90.14084507,682.5422535,682.5422535,black,legacy,legacy,legacy,0,uniform,0,undefined,0,h,0,0,0,0,141,141,0,0,0,141,141,141,0,141,141,141,Sun Sep 26 18:46:48 2021,The main experiment item,yes,FlankerTask.osexp,/Users/samonemarks/Downloads,no,mono,no,18,no,white,no,yes,768,legacy,61,79,/Users/samonemarks/Downloads/CM-subject-3.csv,legacy,Lentiform Loewenfeld,3.3.9,0,s,NA,s,h,NA,s,480,NA,121334,24834,NA,480,2,legacy,1024,2,48000,-16,experiment,3,odd,125806,316027,NA,NA,423245,422183,4464,291192,NA,423243,423347,416733,4426,372447,423347,423828,Flanker Task,128,96921,142,yes,1024
Congruent,600,SSSSS,90.20979021,90.20979021,681.4755245,681.4755245,black,legacy,legacy,legacy,0,uniform,1,undefined,1,s,0,0,0,0,142,142,0,0,0,142,142,142,0,142,142,142,Sun Sep 26 18:46:48 2021,The main experiment item,yes,FlankerTask.osexp,/Users/samonemarks/Downloads,no,mono,no,18,no,white,no,yes,768,legacy,62,79,/Users/samonemarks/Downloads/CM-subject-3.csv,legacy,Lentiform Loewenfeld,3.3.9,0,s,NA,s,h,NA,s,530,NA,121334,24834,NA,530,2,legacy,1024,2,48000,-16,experiment,3,odd,125806,316027,NA,NA,425398,424336,4464,291192,NA,425396,425500,423833,4426,372447,425500,426031,Flanker Task,129,97451,143,yes,1024
Congruent,600,SSSSS,90.27777778,90.27777778,679.4444444,679.4444444,black,legacy,legacy,legacy,0,uniform,1,undefined,1,s,0,0,0,0,143,143,0,0,0,143,143,143,0,143,143,143,Sun Sep 26 18:46:48 2021,The main experiment item,yes,FlankerTask.osexp,/Users/samonemarks/Downloads,no,mono,no,18,no,white,no,yes,768,legacy,63,79,/Users/samonemarks/Downloads/CM-subject-3.csv,legacy,Lentiform Loewenfeld,3.3.9,0,s,NA,s,h,NA,s,389,NA,121334,24834,NA,389,2,legacy,1024,2,48000,-16,experiment,3,odd,125806,316027,NA,NA,427100,426035,4464,291192,NA,427097,427202,423833,4426,372447,427202,427592,Flanker Task,130,97840,144,yes,1024
Incongruent,600,SSHSS,90.34482759,90.34482759,678.0827586,678.0827586,black,legacy,legacy,legacy,0,uniform,1,undefined,1,h,0,0,0,0,144,144,0,0,0,144,144,144,0,144,144,144,Sun Sep 26 18:46:48 2021,The main experiment item,yes,FlankerTask.osexp,/Users/samonemarks/Downloads,no,mono,no,18,no,white,no,yes,768,legacy,64,79,/Users/samonemarks/Downloads/CM-subject-3.csv,legacy,Lentiform Loewenfeld,3.3.9,0,h,NA,s,h,NA,h,482,NA,121334,24834,NA,482,2,legacy,1024,2,48000,-16,experiment,3,odd,125806,316027,NA,NA,428663,427596,4464,291192,NA,428658,428765,423833,4426,372447,428765,429248,Flanker Task,131,98322,145,yes,1024
Congruent,600,HHHHH,90.4109589,90.4109589,677.2054795,677.2054795,black,legacy,legacy,legacy,0,uniform,1,undefined,1,h,0,0,0,0,145,145,0,0,0,145,145,145,0,145,145,145,Sun Sep 26 18:46:48 2021,The main experiment item,yes,FlankerTask.osexp,/Users/samonemarks/Downloads,no,mono,no,18,no,white,no,yes,768,legacy,65,79,/Users/samonemarks/Downloads/CM-subject-3.csv,legacy,Lentiform Loewenfeld,3.3.9,0,h,NA,s,h,NA,h,550,NA,121334,24834,NA,550,2,legacy,1024,2,48000,-16,experiment,3,odd,125806,316027,NA,NA,430316,429253,4464,291192,NA,430313,430418,423833,4426,372447,430418,430969,Flanker Task,132,98872,146,yes,1024
Incongruent,600,HHSHH,90.47619048,90.47619048,675.829932,675.829932,black,legacy,legacy,legacy,0,uniform,1,undefined,1,s,0,0,0,0,146,146,0,0,0,146,146,146,0,146,146,146,Sun Sep 26 18:46:48 2021,The main experiment item,yes,FlankerTask.osexp,/Users/samonemarks/Downloads,no,mono,no,18,no,white,no,yes,768,legacy,66,79,/Users/samonemarks/Downloads/CM-subject-3.csv,legacy,Lentiform Loewenfeld,3.3.9,0,s,NA,s,h,NA,s,475,NA,121334,24834,NA,475,2,legacy,1024,2,48000,-16,experiment,3,odd,125806,316027,NA,NA,432035,430973,4464,291192,NA,432033,432138,423833,4426,372447,432138,432615,Flanker Task,133,99347,147,yes,1024
Incongruent,600,SSHSS,90.54054054,90.54054054,674.2905405,674.2905405,black,legacy,legacy,legacy,0,uniform,1,undefined,1,h,0,0,0,0,147,147,0,0,0,147,147,147,0,147,147,147,Sun Sep 26 18:46:48 2021,The main experiment item,yes,FlankerTask.osexp,/Users/samonemarks/Downloads,no,mono,no,18,no,white,no,yes,768,legacy,67,79,/Users/samonemarks/Downloads/CM-subject-3.csv,legacy,Lentiform Loewenfeld,3.3.9,0,h,NA,s,h,NA,h,448,NA,121334,24834,NA,448,2,legacy,1024,2,48000,-16,experiment,3,odd,125806,316027,NA,NA,433681,432619,4464,291192,NA,433679,433783,423833,4426,372447,433783,434232,Flanker Task,134,99795,148,yes,1024
Incongruent,600,HHSHH,90.60402685,90.60402685,673.8724832,673.8724832,black,legacy,legacy,legacy,0,uniform,1,undefined,1,s,0,0,0,0,148,148,0,0,0,148,148,148,0,148,148,148,Sun Sep 26 18:46:48 2021,The main experiment item,yes,FlankerTask.osexp,/Users/samonemarks/Downloads,no,mono,no,18,no,white,no,yes,768,legacy,68,79,/Users/samonemarks/Downloads/CM-subject-3.csv,legacy,Lentiform Loewenfeld,3.3.9,0,s,NA,s,h,NA,s,612,NA,121334,24834,NA,612,2,legacy,1024,2,48000,-16,experiment,3,odd,125806,316027,NA,NA,435301,434238,4464,291192,NA,435298,435403,423833,4426,372447,435403,436016,Flanker Task,135,100407,149,yes,1024
Congruent,600,HHHHH,90.66666667,90.66666667,672.0666667,672.0666667,black,legacy,legacy,legacy,0,uniform,1,undefined,1,h,0,0,0,0,149,149,0,0,0,149,149,149,0,149,149,149,Sun Sep 26 18:46:48 2021,The main experiment item,yes,FlankerTask.osexp,/Users/samonemarks/Downloads,no,mono,no,18,no,white,no,yes,768,legacy,69,79,/Users/samonemarks/Downloads/CM-subject-3.csv,legacy,Lentiform Loewenfeld,3.3.9,0,h,NA,s,h,NA,h,403,NA,121334,24834,NA,403,2,legacy,1024,2,48000,-16,experiment,3,odd,125806,316027,NA,NA,437591,436525,4464,291192,NA,437589,437693,423833,4426,436021,437693,438098,Flanker Task,136,100810,150,yes,1024
Incongruent,600,HHSHH,90.72847682,90.72847682,673.013245,673.013245,black,legacy,legacy,legacy,0,uniform,1,undefined,1,s,0,0,0,0,150,150,0,0,0,150,150,150,0,150,150,150,Sun Sep 26 18:46:48 2021,The main experiment item,yes,FlankerTask.osexp,/Users/samonemarks/Downloads,no,mono,no,18,no,white,no,yes,768,legacy,70,79,/Users/samonemarks/Downloads/CM-subject-3.csv,legacy,Lentiform Loewenfeld,3.3.9,0,s,NA,s,h,NA,s,815,NA,121334,24834,NA,815,2,legacy,1024,2,48000,-16,experiment,3,odd,125806,316027,NA,NA,439164,438103,4464,291192,NA,439162,439266,423833,4426,436021,439267,440083,Flanker Task,137,101625,151,yes,1024
Incongruent,600,SSHSS,90.78947368,90.78947368,671.9539474,671.9539474,black,legacy,legacy,legacy,0,uniform,1,undefined,1,h,0,0,0,0,151,151,0,0,0,151,151,151,0,151,151,151,Sun Sep 26 18:46:48 2021,The main experiment item,yes,FlankerTask.osexp,/Users/samonemarks/Downloads,no,mono,no,18,no,white,no,yes,768,legacy,71,79,/Users/samonemarks/Downloads/CM-subject-3.csv,legacy,Lentiform Loewenfeld,3.3.9,0,h,NA,s,h,NA,h,512,NA,121334,24834,NA,512,2,legacy,1024,2,48000,-16,experiment,3,odd,125806,316027,NA,NA,441651,440589,4464,291192,NA,441648,441753,423833,4426,440087,441753,442266,Flanker Task,138,102137,152,yes,1024
Congruent,600,SSSSS,90.8496732,90.8496732,669.9607843,669.9607843,black,legacy,legacy,legacy,0,uniform,1,undefined,1,s,0,0,0,0,152,152,0,0,0,152,152,152,0,152,152,152,Sun Sep 26 18:46:48 2021,The main experiment item,yes,FlankerTask.osexp,/Users/samonemarks/Downloads,no,mono,no,18,no,white,no,yes,768,legacy,72,79,/Users/samonemarks/Downloads/CM-subject-3.csv,legacy,Lentiform Loewenfeld,3.3.9,0,s,NA,s,h,NA,s,367,NA,121334,24834,NA,367,2,legacy,1024,2,48000,-16,experiment,3,odd,125806,316027,NA,NA,443333,442271,4464,291192,NA,443331,443436,423833,4426,440087,443436,443804,Flanker Task,139,102504,153,yes,1024
Congruent,600,SSSSS,90.90909091,90.90909091,668.8051948,668.8051948,black,legacy,legacy,legacy,0,uniform,1,undefined,1,s,0,0,0,0,153,153,0,0,0,153,153,153,0,153,153,153,Sun Sep 26 18:46:48 2021,The main experiment item,yes,FlankerTask.osexp,/Users/samonemarks/Downloads,no,mono,no,18,no,white,no,yes,768,legacy,73,79,/Users/samonemarks/Downloads/CM-subject-3.csv,legacy,Lentiform Loewenfeld,3.3.9,0,s,NA,s,h,NA,s,492,NA,121334,24834,NA,492,2,legacy,1024,2,48000,-16,experiment,3,odd,125806,316027,NA,NA,444870,443808,4464,291192,NA,444868,444972,423833,4426,440087,444973,445466,Flanker Task,140,102996,154,yes,1024
Incongruent,600,SSHSS,90.96774194,90.96774194,667.2903226,667.2903226,black,legacy,legacy,legacy,0,uniform,1,undefined,1,h,0,0,0,0,154,154,0,0,0,154,154,154,0,154,154,154,Sun Sep 26 18:46:48 2021,The main experiment item,yes,FlankerTask.osexp,/Users/samonemarks/Downloads,no,mono,no,18,no,white,no,yes,768,legacy,74,79,/Users/samonemarks/Downloads/CM-subject-3.csv,legacy,Lentiform Loewenfeld,3.3.9,0,h,NA,s,h,NA,h,434,NA,121334,24834,NA,434,2,legacy,1024,2,48000,-16,experiment,3,odd,125806,316027,NA,NA,446534,445470,4464,291192,NA,446531,446636,423833,4426,440087,446636,447071,Flanker Task,141,103430,155,yes,1024
Incongruent,600,HHSHH,91.02564103,91.02564103,666.6538462,666.6538462,black,legacy,legacy,legacy,0,uniform,1,undefined,1,s,0,0,0,0,155,155,0,0,0,155,155,155,0,155,155,155,Sun Sep 26 18:46:48 2021,The main experiment item,yes,FlankerTask.osexp,/Users/samonemarks/Downloads,no,mono,no,18,no,white,no,yes,768,legacy,75,79,/Users/samonemarks/Downloads/CM-subject-3.csv,legacy,Lentiform Loewenfeld,3.3.9,0,s,NA,s,h,NA,s,568,NA,121334,24834,NA,568,2,legacy,1024,2,48000,-16,experiment,3,odd,125806,316027,NA,NA,448139,447076,4464,291192,NA,448136,448241,423833,4426,440087,448241,448810,Flanker Task,142,103998,156,yes,1024
Incongruent,600,SSHSS,91.08280255,91.08280255,665.2993631,665.2993631,black,legacy,legacy,legacy,0,uniform,1,undefined,1,h,0,0,0,0,156,156,0,0,0,156,156,156,0,156,156,156,Sun Sep 26 18:46:48 2021,The main experiment item,yes,FlankerTask.osexp,/Users/samonemarks/Downloads,no,mono,no,18,no,white,no,yes,768,legacy,76,79,/Users/samonemarks/Downloads/CM-subject-3.csv,legacy,Lentiform Loewenfeld,3.3.9,0,h,NA,s,h,NA,h,454,NA,121334,24834,NA,454,2,legacy,1024,2,48000,-16,experiment,3,odd,125806,316027,NA,NA,449878,448816,4464,291192,NA,449876,449980,423833,4426,440087,449981,450436,Flanker Task,143,104452,157,yes,1024
Congruent,600,SSSSS,91.13924051,91.13924051,663.3417722,663.3417722,black,legacy,legacy,legacy,0,uniform,1,undefined,1,s,0,0,0,0,157,157,0,0,0,157,157,157,0,157,157,157,Sun Sep 26 18:46:48 2021,The main experiment item,yes,FlankerTask.osexp,/Users/samonemarks/Downloads,no,mono,no,18,no,white,no,yes,768,legacy,77,79,/Users/samonemarks/Downloads/CM-subject-3.csv,legacy,Lentiform Loewenfeld,3.3.9,0,s,NA,s,h,NA,s,356,NA,121334,24834,NA,356,2,legacy,1024,2,48000,-16,experiment,3,odd,125806,316027,NA,NA,451504,450441,4464,291192,NA,451501,451606,423833,4426,440087,451606,451963,Flanker Task,144,104808,158,yes,1024
Congruent,600,SSSSS,91.19496855,91.19496855,662.3396226,662.3396226,black,legacy,legacy,legacy,0,uniform,1,undefined,1,s,0,0,0,0,158,158,0,0,0,158,158,158,0,158,158,158,Sun Sep 26 18:46:48 2021,The main experiment item,yes,FlankerTask.osexp,/Users/samonemarks/Downloads,no,mono,no,18,no,white,no,yes,768,legacy,78,79,/Users/samonemarks/Downloads/CM-subject-3.csv,legacy,Lentiform Loewenfeld,3.3.9,0,s,NA,s,h,NA,s,504,NA,121334,24834,NA,504,2,legacy,1024,2,48000,-16,experiment,3,odd,125806,316027,NA,NA,453029,451967,4464,291192,NA,453027,453131,423833,4426,440087,453131,453636,Flanker Task,145,105312,159,yes,1024
Incongruent,600,HHSHH,91.25,91.25,661.75,661.75,black,legacy,legacy,legacy,0,uniform,1,undefined,1,s,0,0,0,0,159,159,0,0,0,159,159,159,0,159,159,159,Sun Sep 26 18:46:48 2021,The main experiment item,yes,FlankerTask.osexp,/Users/samonemarks/Downloads,no,mono,no,18,no,white,no,yes,768,legacy,79,79,/Users/samonemarks/Downloads/CM-subject-3.csv,legacy,Lentiform Loewenfeld,3.3.9,0,s,NA,s,h,NA,s,568,NA,121334,24834,NA,568,2,legacy,1024,2,48000,-16,experiment,3,odd,125806,316027,NA,NA,454703,453640,4464,291192,NA,454700,454805,423833,4426,440087,454805,455374,Flanker Task,146,105880,160,yes,1024
Congruent,300,SSSSS,91.30434783,91.30434783,663.4906832,663.4906832,black,legacy,legacy,legacy,0,uniform,1,undefined,1,s,0,0,0,0,160,160,0,0,0,160,160,160,0,160,160,160,Sun Sep 26 18:46:48 2021,The main experiment item,yes,FlankerTask.osexp,/Users/samonemarks/Downloads,no,mono,no,18,no,white,no,yes,768,legacy,0,79,/Users/samonemarks/Downloads/CM-subject-3.csv,legacy,Lentiform Loewenfeld,3.3.9,0,s,NA,s,h,return,s,942,NA,121334,24834,23072,942,2,legacy,1024,2,48000,-16,experiment,3,odd,125806,316027,479478,NA,479523,455379,4464,291192,456405,479520,479626,423833,4426,440087,479626,480569,Flanker Task,147,106822,161,yes,1024
Incongruent,300,HHSHH,91.35802469,91.35802469,663.3209877,663.3209877,black,legacy,legacy,legacy,0,uniform,1,undefined,1,s,0,0,0,0,161,161,0,0,0,161,161,161,0,161,161,161,Sun Sep 26 18:46:48 2021,The main experiment item,yes,FlankerTask.osexp,/Users/samonemarks/Downloads,no,mono,no,18,no,white,no,yes,768,legacy,1,79,/Users/samonemarks/Downloads/CM-subject-3.csv,legacy,Lentiform Loewenfeld,3.3.9,0,s,NA,s,h,return,s,636,NA,121334,24834,23072,636,2,legacy,1024,2,48000,-16,experiment,3,odd,125806,316027,479478,NA,482141,481078,4464,291192,456405,482139,482243,423833,4426,480574,482243,482880,Flanker Task,148,107458,162,yes,1024
Congruent,300,HHHHH,91.41104294,91.41104294,661.7668712,661.7668712,black,legacy,legacy,legacy,0,uniform,1,undefined,1,h,0,0,0,0,162,162,0,0,0,162,162,162,0,162,162,162,Sun Sep 26 18:46:48 2021,The main experiment item,yes,FlankerTask.osexp,/Users/samonemarks/Downloads,no,mono,no,18,no,white,no,yes,768,legacy,2,79,/Users/samonemarks/Downloads/CM-subject-3.csv,legacy,Lentiform Loewenfeld,3.3.9,0,h,NA,s,h,return,h,410,NA,121334,24834,23072,410,2,legacy,1024,2,48000,-16,experiment,3,odd,125806,316027,479478,NA,484451,483388,4464,291192,456405,484448,484554,423833,4426,482885,484554,484965,Flanker Task,149,107868,163,yes,1024
