"acc","accuracy","average_response_time","avg_rt","background","canvas_backend","clock_backend","color_backend","condition","correct","correct_instructions","correct_keyboard_response","correct_response","count_Block1","count_Block2","count_Block3","count_Faster","count_Finish","count_ISI","count_errorFeedback","count_experiment","count_fixation","count_instruction3","count_instructions","count_instructions2","count_keyboard_response","count_new_logger","count_new_sequence","count_stimulus","datetime","deadline","description","disable_garbage_collection","experiment_file","experiment_path","font_bold","font_family","font_italic","font_size","font_underline","foreground","form_clicks","fullscreen","height","keyboard_backend","live_row","live_row_Block1","logfile","mouse_backend","opensesame_codename","opensesame_version","repeat_cycle","response","response_Finish","response_instruction3","response_instructions","response_instructions2","response_keyboard_response","response_time","response_time_Finish","response_time_instruction3","response_time_instructions","response_time_instructions2","response_time_keyboard_response","round_decimals","sampler_backend","sound_buf_size","sound_channels","sound_freq","sound_sample_size","start","stimulus","subject_nr","subject_parity","time_Block1","time_Block2","time_Block3","time_Faster","time_Finish","time_ISI","time_errorFeedback","time_experiment","time_fixation","time_instruction3","time_instructions","time_instructions2","time_keyboard_response","time_new_logger","time_new_sequence","time_stimulus","title","total_correct","total_response_time","total_responses","width"
"0","0","139","139","#3d3846","legacy","legacy","legacy","congruent","0","undefined","0","s","0","0","0","0","0","0","0","0","0","0","0","0","0","0","0","0","Wed Sep 20 17:49:35 2023","1500","The main experiment item","True","ewm FlankerTask3.edited .osexp","/Users/izzymcgibbon/Desktop/College/Tarleton State /2023 /Fall /Stats /2.1 ","False","mono","False","18","no","white","no","yes","768","legacy","0","0","/Users/izzymcgibbon/Desktop/College/Tarleton State /2023 /Fall /Stats /2.1 /EWM- subject-4.csv","legacy","Melodramatic Milgram","4.0.5","0","h","NA","NA","s","NA","h","139.0","NA","NA","1071","NA","139","2","legacy","1024","2","48000","-16","experiment","HHSHH","4","even","3313","NA","NA","NA","NA","NA","NA","2124","3363","NA","2233","NA","3467","3607","3360","3467","FlankerTask.3","0","139.0","1","1024"
"0","0","244","244","#3d3846","legacy","legacy","legacy","congruent","0","undefined","0","s","0","0","0","1","0","1","1","0","1","0","0","0","1","1","1","1","Wed Sep 20 17:49:35 2023","1500","The main experiment item","True","ewm FlankerTask3.edited .osexp","/Users/izzymcgibbon/Desktop/College/Tarleton State /2023 /Fall /Stats /2.1 ","False","mono","False","18","no","white","no","yes","768","legacy","1","1","/Users/izzymcgibbon/Desktop/College/Tarleton State /2023 /Fall /Stats /2.1 /EWM- subject-4.csv","legacy","Melodramatic Milgram","4.0.5","0","h","NA","NA","s","NA","h","349.0","NA","NA","1071","NA","349","2","legacy","1024","2","48000","-16","experiment","HHSHH","4","even","3313","NA","NA","NA","NA","4116","3613","2124","5163","NA","2233","NA","5266","5616","5155","5266","FlankerTask.3","0","488.0","2","1024"
"0","0","163","163","#3d3846","legacy","legacy","legacy","congruent","0","undefined","0","s","0","0","0","2","0","2","2","0","2","0","0","0","2","2","2","2","Wed Sep 20 17:49:35 2023","1500","The main experiment item","True","ewm FlankerTask3.edited .osexp","/Users/izzymcgibbon/Desktop/College/Tarleton State /2023 /Fall /Stats /2.1 ","False","mono","False","18","no","white","no","yes","768","legacy","2","2","/Users/izzymcgibbon/Desktop/College/Tarleton State /2023 /Fall /Stats /2.1 /EWM- subject-4.csv","legacy","Melodramatic Milgram","4.0.5","0","h","NA","NA","s","NA","h","1.0","NA","NA","1071","NA","1","2","legacy","1024","2","48000","-16","experiment","SSSSS","4","even","3313","NA","NA","NA","NA","6122","5619","2124","7161","NA","2233","NA","7264","7266","7156","7264","FlankerTask.3","0","489.0","3","1024"
"25","25","146","146","#3d3846","legacy","legacy","legacy","congruent","1","undefined","1","s","0","0","0","3","0","3","3","0","3","0","0","0","3","3","3","3","Wed Sep 20 17:49:35 2023","1500","The main experiment item","True","ewm FlankerTask3.edited .osexp","/Users/izzymcgibbon/Desktop/College/Tarleton State /2023 /Fall /Stats /2.1 ","False","mono","False","18","no","white","no","yes","768","legacy","3","3","/Users/izzymcgibbon/Desktop/College/Tarleton State /2023 /Fall /Stats /2.1 /EWM- subject-4.csv","legacy","Melodramatic Milgram","4.0.5","0","s","NA","NA","s","NA","s","96.0","NA","NA","1071","NA","96","2","legacy","1024","2","48000","-16","experiment","HHSHH","4","even","3313","NA","NA","NA","NA","7774","7270","2124","8818","NA","2233","NA","8921","9018","8813","8920","FlankerTask.3","1","585.0","4","1024"
"40","40","123","123","#3d3846","legacy","legacy","legacy","incongruent","1","undefined","1","h","0","0","0","4","0","4","4","0","4","0","0","0","4","4","4","4","Wed Sep 20 17:49:35 2023","1500","The main experiment item","True","ewm FlankerTask3.edited .osexp","/Users/izzymcgibbon/Desktop/College/Tarleton State /2023 /Fall /Stats /2.1 ","False","mono","False","18","no","white","no","yes","768","legacy","4","4","/Users/izzymcgibbon/Desktop/College/Tarleton State /2023 /Fall /Stats /2.1 /EWM- subject-4.csv","legacy","Melodramatic Milgram","4.0.5","0","h","NA","NA","s","NA","h","32.0","NA","NA","1071","NA","32","2","legacy","1024","2","48000","-16","experiment","HHHHH","4","even","3313","NA","NA","NA","NA","9021","7270","2124","10065","NA","2233","NA","10168","10201","10060","10168","FlankerTask.3","2","617.0","5","1024"
"33","33","109","109","#3d3846","legacy","legacy","legacy","incongruent","0","undefined","0","h","0","0","0","5","0","5","5","0","5","0","0","0","5","5","5","5","Wed Sep 20 17:49:35 2023","1500","The main experiment item","True","ewm FlankerTask3.edited .osexp","/Users/izzymcgibbon/Desktop/College/Tarleton State /2023 /Fall /Stats /2.1 ","False","mono","False","18","no","white","no","yes","768","legacy","5","5","/Users/izzymcgibbon/Desktop/College/Tarleton State /2023 /Fall /Stats /2.1 /EWM- subject-4.csv","legacy","Melodramatic Milgram","4.0.5","0","s","NA","NA","s","NA","s","42.0","NA","NA","1071","NA","42","2","legacy","1024","2","48000","-16","experiment","HHHHH","4","even","3313","NA","NA","NA","NA","10204","7270","2124","11248","NA","2233","NA","11351","11394","11243","11351","FlankerTask.3","2","659.0","6","1024"
"42","42","110","110","#3d3846","legacy","legacy","legacy","congruent","1","undefined","1","s","0","0","0","6","0","6","6","0","6","0","0","0","6","6","6","6","Wed Sep 20 17:49:35 2023","1500","The main experiment item","True","ewm FlankerTask3.edited .osexp","/Users/izzymcgibbon/Desktop/College/Tarleton State /2023 /Fall /Stats /2.1 ","False","mono","False","18","no","white","no","yes","768","legacy","6","6","/Users/izzymcgibbon/Desktop/College/Tarleton State /2023 /Fall /Stats /2.1 /EWM- subject-4.csv","legacy","Melodramatic Milgram","4.0.5","0","s","NA","NA","s","NA","s","113.0","NA","NA","1071","NA","113","2","legacy","1024","2","48000","-16","experiment","SSSSS","4","even","3313","NA","NA","NA","NA","11901","11397","2124","12947","NA","2233","NA","13050","13164","12942","13050","FlankerTask.3","3","772.0","7","1024"
"50","50","97","97","#3d3846","legacy","legacy","legacy","incongruent","1","undefined","1","h","0","0","0","7","0","7","7","0","7","0","0","0","7","7","7","7","Wed Sep 20 17:49:35 2023","1500","The main experiment item","True","ewm FlankerTask3.edited .osexp","/Users/izzymcgibbon/Desktop/College/Tarleton State /2023 /Fall /Stats /2.1 ","False","mono","False","18","no","white","no","yes","768","legacy","7","7","/Users/izzymcgibbon/Desktop/College/Tarleton State /2023 /Fall /Stats /2.1 /EWM- subject-4.csv","legacy","Melodramatic Milgram","4.0.5","0","h","NA","NA","s","NA","h","7.0","NA","NA","1071","NA","7","2","legacy","1024","2","48000","-16","experiment","SSHSS","4","even","3313","NA","NA","NA","NA","13167","11397","2124","14212","NA","2233","NA","14315","14322","14207","14315","FlankerTask.3","4","779.0","8","1024"
"44","44","96","96","#3d3846","legacy","legacy","legacy","incongruent","0","undefined","0","h","0","0","0","8","0","8","8","0","8","0","0","0","8","8","8","8","Wed Sep 20 17:49:35 2023","1500","The main experiment item","True","ewm FlankerTask3.edited .osexp","/Users/izzymcgibbon/Desktop/College/Tarleton State /2023 /Fall /Stats /2.1 ","False","mono","False","18","no","white","no","yes","768","legacy","8","8","/Users/izzymcgibbon/Desktop/College/Tarleton State /2023 /Fall /Stats /2.1 /EWM- subject-4.csv","legacy","Melodramatic Milgram","4.0.5","0","s","NA","NA","s","NA","s","88.0","NA","NA","1071","NA","88","2","legacy","1024","2","48000","-16","experiment","SSHSS","4","even","3313","NA","NA","NA","NA","14326","11397","2124","15371","NA","2233","NA","15474","15563","15367","15474","FlankerTask.3","4","867.0","9","1024"
"50","50","99","99","#3d3846","legacy","legacy","legacy","congruent","1","undefined","1","s","0","0","0","9","0","9","9","0","9","0","0","0","9","9","9","9","Wed Sep 20 17:49:35 2023","1500","The main experiment item","True","ewm FlankerTask3.edited .osexp","/Users/izzymcgibbon/Desktop/College/Tarleton State /2023 /Fall /Stats /2.1 ","False","mono","False","18","no","white","no","yes","768","legacy","9","9","/Users/izzymcgibbon/Desktop/College/Tarleton State /2023 /Fall /Stats /2.1 /EWM- subject-4.csv","legacy","Melodramatic Milgram","4.0.5","0","s","NA","NA","s","NA","s","132.0","NA","NA","1071","NA","132","2","legacy","1024","2","48000","-16","experiment","HHSHH","4","even","3313","NA","NA","NA","NA","16071","15566","2124","17119","NA","2233","NA","17222","17355","17114","17221","FlankerTask.3","5","999.0","10","1024"
"45","45","92","92","#3d3846","legacy","legacy","legacy","congruent","0","undefined","0","s","0","0","0","10","0","10","10","0","10","0","0","0","10","10","10","10","Wed Sep 20 17:49:35 2023","1500","The main experiment item","True","ewm FlankerTask3.edited .osexp","/Users/izzymcgibbon/Desktop/College/Tarleton State /2023 /Fall /Stats /2.1 ","False","mono","False","18","no","white","no","yes","768","legacy","10","10","/Users/izzymcgibbon/Desktop/College/Tarleton State /2023 /Fall /Stats /2.1 /EWM- subject-4.csv","legacy","Melodramatic Milgram","4.0.5","0","h","NA","NA","s","NA","h","18.0","NA","NA","1071","NA","18","2","legacy","1024","2","48000","-16","experiment","SSSSS","4","even","3313","NA","NA","NA","NA","17358","15566","2124","18393","NA","2233","NA","18496","18514","18388","18496","FlankerTask.3","5","1017.0","11","1024"
"41","41","91","91","#3d3846","legacy","legacy","legacy","incongruent","0","undefined","0","h","0","0","0","11","0","11","11","0","11","0","0","0","11","11","11","11","Wed Sep 20 17:49:35 2023","1500","The main experiment item","True","ewm FlankerTask3.edited .osexp","/Users/izzymcgibbon/Desktop/College/Tarleton State /2023 /Fall /Stats /2.1 ","False","mono","False","18","no","white","no","yes","768","legacy","11","11","/Users/izzymcgibbon/Desktop/College/Tarleton State /2023 /Fall /Stats /2.1 /EWM- subject-4.csv","legacy","Melodramatic Milgram","4.0.5","0","s","NA","NA","s","NA","s","84.0","NA","NA","1071","NA","84","2","legacy","1024","2","48000","-16","experiment","SSHSS","4","even","3313","NA","NA","NA","NA","19020","18516","2124","20060","NA","2233","NA","20164","20248","20054","20164","FlankerTask.3","5","1101.0","12","1024"
"38","38","88","88","#3d3846","legacy","legacy","legacy","incongruent","0","undefined","0","h","0","0","0","12","0","12","12","0","12","0","0","0","12","12","12","12","Wed Sep 20 17:49:35 2023","1500","The main experiment item","True","ewm FlankerTask3.edited .osexp","/Users/izzymcgibbon/Desktop/College/Tarleton State /2023 /Fall /Stats /2.1 ","False","mono","False","18","no","white","no","yes","768","legacy","12","12","/Users/izzymcgibbon/Desktop/College/Tarleton State /2023 /Fall /Stats /2.1 /EWM- subject-4.csv","legacy","Melodramatic Milgram","4.0.5","0","s","NA","NA","s","NA","s","54.0","NA","NA","1071","NA","54","2","legacy","1024","2","48000","-16","experiment","HHHHH","4","even","3313","NA","NA","NA","NA","20759","20252","2124","21806","NA","2233","NA","21911","21966","21795","21911","FlankerTask.3","5","1155.0","13","1024"
"42","42","94","94","#3d3846","legacy","legacy","legacy","incongruent","1","undefined","1","h","0","0","0","13","0","13","13","0","13","0","0","0","13","13","13","13","Wed Sep 20 17:49:35 2023","1500","The main experiment item","True","ewm FlankerTask3.edited .osexp","/Users/izzymcgibbon/Desktop/College/Tarleton State /2023 /Fall /Stats /2.1 ","False","mono","False","18","no","white","no","yes","768","legacy","13","13","/Users/izzymcgibbon/Desktop/College/Tarleton State /2023 /Fall /Stats /2.1 /EWM- subject-4.csv","legacy","Melodramatic Milgram","4.0.5","0","h","NA","NA","s","NA","h","174.0","NA","NA","1071","NA","174","2","legacy","1024","2","48000","-16","experiment","SSHSS","4","even","3313","NA","NA","NA","NA","22475","21969","2124","23519","NA","2233","NA","23622","23796","23514","23622","FlankerTask.3","6","1329.0","14","1024"
"46","46","89","89","#3d3846","legacy","legacy","legacy","congruent","1","undefined","1","s","0","0","0","14","0","14","14","0","14","0","0","0","14","14","14","14","Wed Sep 20 17:49:35 2023","1500","The main experiment item","True","ewm FlankerTask3.edited .osexp","/Users/izzymcgibbon/Desktop/College/Tarleton State /2023 /Fall /Stats /2.1 ","False","mono","False","18","no","white","no","yes","768","legacy","14","14","/Users/izzymcgibbon/Desktop/College/Tarleton State /2023 /Fall /Stats /2.1 /EWM- subject-4.csv","legacy","Melodramatic Milgram","4.0.5","0","s","NA","NA","s","NA","s","12.0","NA","NA","1071","NA","12","2","legacy","1024","2","48000","-16","experiment","SSSSS","4","even","3313","NA","NA","NA","NA","23799","21969","2124","24844","NA","2233","NA","24947","24959","24839","24947","FlankerTask.3","7","1341.0","15","1024"
"50","50","85","85","#3d3846","legacy","legacy","legacy","congruent","1","undefined","1","s","0","0","0","15","0","15","15","0","15","0","0","0","15","15","15","15","Wed Sep 20 17:49:35 2023","1500","The main experiment item","True","ewm FlankerTask3.edited .osexp","/Users/izzymcgibbon/Desktop/College/Tarleton State /2023 /Fall /Stats /2.1 ","False","mono","False","18","no","white","no","yes","768","legacy","15","15","/Users/izzymcgibbon/Desktop/College/Tarleton State /2023 /Fall /Stats /2.1 /EWM- subject-4.csv","legacy","Melodramatic Milgram","4.0.5","0","s","NA","NA","s","NA","s","21.0","NA","NA","1071","NA","21","2","legacy","1024","2","48000","-16","experiment","HHSHH","4","even","3313","NA","NA","NA","NA","24963","21969","2124","26010","NA","2233","NA","26114","26135","26005","26114","FlankerTask.3","8","1362.0","16","1024"
"52","52","81","81","#3d3846","legacy","legacy","legacy","congruent","1","undefined","1","s","0","0","0","16","0","16","16","0","16","0","0","0","16","16","16","16","Wed Sep 20 17:49:35 2023","1500","The main experiment item","True","ewm FlankerTask3.edited .osexp","/Users/izzymcgibbon/Desktop/College/Tarleton State /2023 /Fall /Stats /2.1 ","False","mono","False","18","no","white","no","yes","768","legacy","16","16","/Users/izzymcgibbon/Desktop/College/Tarleton State /2023 /Fall /Stats /2.1 /EWM- subject-4.csv","legacy","Melodramatic Milgram","4.0.5","0","s","NA","NA","s","NA","s","27.0","NA","NA","1071","NA","27","2","legacy","1024","2","48000","-16","experiment","HHSHH","4","even","3313","NA","NA","NA","NA","26138","21969","2124","27185","NA","2233","NA","27287","27314","27180","27287","FlankerTask.3","9","1389.0","17","1024"
"50","50","85","85","#3d3846","legacy","legacy","legacy","incongruent","0","undefined","0","h","0","0","0","17","0","17","17","0","17","0","0","0","17","17","17","17","Wed Sep 20 17:49:35 2023","1500","The main experiment item","True","ewm FlankerTask3.edited .osexp","/Users/izzymcgibbon/Desktop/College/Tarleton State /2023 /Fall /Stats /2.1 ","False","mono","False","18","no","white","no","yes","768","legacy","17","17","/Users/izzymcgibbon/Desktop/College/Tarleton State /2023 /Fall /Stats /2.1 /EWM- subject-4.csv","legacy","Melodramatic Milgram","4.0.5","0","s","NA","NA","s","NA","s","142.0","NA","NA","1071","NA","142","2","legacy","1024","2","48000","-16","experiment","HHHHH","4","even","3313","NA","NA","NA","NA","27317","21969","2124","28352","NA","2233","NA","28455","28598","28348","28455","FlankerTask.3","9","1531.0","18","1024"
"47","47","84","84","#3d3846","legacy","legacy","legacy","incongruent","0","undefined","0","h","0","0","0","18","0","18","18","0","18","0","0","0","18","18","18","18","Wed Sep 20 17:49:35 2023","1500","The main experiment item","True","ewm FlankerTask3.edited .osexp","/Users/izzymcgibbon/Desktop/College/Tarleton State /2023 /Fall /Stats /2.1 ","False","mono","False","18","no","white","no","yes","768","legacy","18","18","/Users/izzymcgibbon/Desktop/College/Tarleton State /2023 /Fall /Stats /2.1 /EWM- subject-4.csv","legacy","Melodramatic Milgram","4.0.5","0","s","NA","NA","s","NA","s","78.0","NA","NA","1071","NA","78","2","legacy","1024","2","48000","-16","experiment","SSHSS","4","even","3313","NA","NA","NA","NA","29105","28601","2124","30144","NA","2233","NA","30246","30324","30139","30246","FlankerTask.3","9","1609.0","19","1024"
"45","45","86","86","#3d3846","legacy","legacy","legacy","incongruent","0","undefined","0","h","0","0","0","19","0","19","19","0","19","0","0","0","19","19","19","19","Wed Sep 20 17:49:35 2023","1500","The main experiment item","True","ewm FlankerTask3.edited .osexp","/Users/izzymcgibbon/Desktop/College/Tarleton State /2023 /Fall /Stats /2.1 ","False","mono","False","18","no","white","no","yes","768","legacy","19","19","/Users/izzymcgibbon/Desktop/College/Tarleton State /2023 /Fall /Stats /2.1 /EWM- subject-4.csv","legacy","Melodramatic Milgram","4.0.5","0","s","NA","NA","s","NA","s","126.0","NA","NA","1071","NA","126","2","legacy","1024","2","48000","-16","experiment","HHHHH","4","even","3313","NA","NA","NA","NA","30832","30327","2124","31875","NA","2233","NA","31978","32104","31871","31978","FlankerTask.3","9","1735.0","20","1024"
"47","47","86","86","#3d3846","legacy","legacy","legacy","congruent","1","undefined","1","s","0","0","0","20","0","20","20","0","20","0","0","0","20","20","20","20","Wed Sep 20 17:49:35 2023","1500","The main experiment item","True","ewm FlankerTask3.edited .osexp","/Users/izzymcgibbon/Desktop/College/Tarleton State /2023 /Fall /Stats /2.1 ","False","mono","False","18","no","white","no","yes","768","legacy","20","20","/Users/izzymcgibbon/Desktop/College/Tarleton State /2023 /Fall /Stats /2.1 /EWM- subject-4.csv","legacy","Melodramatic Milgram","4.0.5","0","s","NA","NA","s","NA","s","71.0","NA","NA","1071","NA","71","2","legacy","1024","2","48000","-16","experiment","SSSSS","4","even","3313","NA","NA","NA","NA","32611","32107","2124","33654","NA","2233","NA","33756","33828","33649","33756","FlankerTask.3","10","1806.0","21","1024"
"45","45","85","85","#3d3846","legacy","legacy","legacy","congruent","0","undefined","0","s","0","0","0","21","0","21","21","0","21","0","0","0","21","21","21","21","Wed Sep 20 17:49:35 2023","1500","The main experiment item","True","ewm FlankerTask3.edited .osexp","/Users/izzymcgibbon/Desktop/College/Tarleton State /2023 /Fall /Stats /2.1 ","False","mono","False","18","no","white","no","yes","768","legacy","21","21","/Users/izzymcgibbon/Desktop/College/Tarleton State /2023 /Fall /Stats /2.1 /EWM- subject-4.csv","legacy","Melodramatic Milgram","4.0.5","0","h","NA","NA","s","NA","h","68.0","NA","NA","1071","NA","68","2","legacy","1024","2","48000","-16","experiment","SSSSS","4","even","3313","NA","NA","NA","NA","33831","32107","2124","34874","NA","2233","NA","34976","35045","34870","34976","FlankerTask.3","10","1874.0","22","1024"
"47","47","82","82","#3d3846","legacy","legacy","legacy","congruent","1","undefined","1","s","0","0","0","22","0","22","22","0","22","0","0","0","22","22","22","22","Wed Sep 20 17:49:35 2023","1500","The main experiment item","True","ewm FlankerTask3.edited .osexp","/Users/izzymcgibbon/Desktop/College/Tarleton State /2023 /Fall /Stats /2.1 ","False","mono","False","18","no","white","no","yes","768","legacy","22","22","/Users/izzymcgibbon/Desktop/College/Tarleton State /2023 /Fall /Stats /2.1 /EWM- subject-4.csv","legacy","Melodramatic Milgram","4.0.5","0","s","NA","NA","s","NA","s","33.0","NA","NA","1071","NA","33","2","legacy","1024","2","48000","-16","experiment","HHSHH","4","even","3313","NA","NA","NA","NA","35552","35048","2124","36595","NA","2233","NA","36698","36732","36592","36698","FlankerTask.3","11","1907.0","23","1024"
"45","45","83","83","#3d3846","legacy","legacy","legacy","incongruent","0","undefined","0","h","0","0","0","23","0","23","23","0","23","0","0","0","23","23","23","23","Wed Sep 20 17:49:35 2023","1500","The main experiment item","True","ewm FlankerTask3.edited .osexp","/Users/izzymcgibbon/Desktop/College/Tarleton State /2023 /Fall /Stats /2.1 ","False","mono","False","18","no","white","no","yes","768","legacy","23","23","/Users/izzymcgibbon/Desktop/College/Tarleton State /2023 /Fall /Stats /2.1 /EWM- subject-4.csv","legacy","Melodramatic Milgram","4.0.5","0","s","NA","NA","s","NA","s","88.0","NA","NA","1071","NA","88","2","legacy","1024","2","48000","-16","experiment","SSHSS","4","even","3313","NA","NA","NA","NA","36734","35048","2124","37782","NA","2233","NA","37885","37974","37778","37885","FlankerTask.3","11","1995.0","24","1024"
"48","48","85","85","#3d3846","legacy","legacy","legacy","congruent","1","undefined","1","s","0","0","0","24","0","24","24","0","24","0","0","0","24","24","24","24","Wed Sep 20 17:49:35 2023","1500","The main experiment item","True","ewm FlankerTask3.edited .osexp","/Users/izzymcgibbon/Desktop/College/Tarleton State /2023 /Fall /Stats /2.1 ","False","mono","False","18","no","white","no","yes","768","legacy","24","24","/Users/izzymcgibbon/Desktop/College/Tarleton State /2023 /Fall /Stats /2.1 /EWM- subject-4.csv","legacy","Melodramatic Milgram","4.0.5","0","s","NA","NA","s","NA","s","131.0","NA","NA","1071","NA","131","2","legacy","1024","2","48000","-16","experiment","HHSHH","4","even","3313","NA","NA","NA","NA","38481","37977","2124","39517","NA","2233","NA","39620","39752","39512","39620","FlankerTask.3","12","2126.0","25","1024"
"46","46","83","83","#3d3846","legacy","legacy","legacy","congruent","0","undefined","0","s","0","0","0","25","0","25","25","0","25","0","0","0","25","25","25","25","Wed Sep 20 17:49:35 2023","1500","The main experiment item","True","ewm FlankerTask3.edited .osexp","/Users/izzymcgibbon/Desktop/College/Tarleton State /2023 /Fall /Stats /2.1 ","False","mono","False","18","no","white","no","yes","768","legacy","25","25","/Users/izzymcgibbon/Desktop/College/Tarleton State /2023 /Fall /Stats /2.1 /EWM- subject-4.csv","legacy","Melodramatic Milgram","4.0.5","0","h","NA","NA","s","NA","h","45.0","NA","NA","1071","NA","45","2","legacy","1024","2","48000","-16","experiment","SSSSS","4","even","3313","NA","NA","NA","NA","39755","37977","2124","40794","NA","2233","NA","40896","40942","40789","40896","FlankerTask.3","12","2171.0","26","1024"
"44","44","86","86","#3d3846","legacy","legacy","legacy","incongruent","0","undefined","0","h","0","0","0","26","0","26","26","0","26","0","0","0","26","26","26","26","Wed Sep 20 17:49:35 2023","1500","The main experiment item","True","ewm FlankerTask3.edited .osexp","/Users/izzymcgibbon/Desktop/College/Tarleton State /2023 /Fall /Stats /2.1 ","False","mono","False","18","no","white","no","yes","768","legacy","26","26","/Users/izzymcgibbon/Desktop/College/Tarleton State /2023 /Fall /Stats /2.1 /EWM- subject-4.csv","legacy","Melodramatic Milgram","4.0.5","0","s","NA","NA","s","NA","s","169.0","NA","NA","1071","NA","169","2","legacy","1024","2","48000","-16","experiment","HHHHH","4","even","3313","NA","NA","NA","NA","41449","40945","2124","42491","NA","2233","NA","42594","42764","42487","42593","FlankerTask.3","12","2340.0","27","1024"
"42","42","84","84","#3d3846","legacy","legacy","legacy","incongruent","0","undefined","0","h","0","0","0","27","0","27","27","0","27","0","0","0","27","27","27","27","Wed Sep 20 17:49:35 2023","1500","The main experiment item","True","ewm FlankerTask3.edited .osexp","/Users/izzymcgibbon/Desktop/College/Tarleton State /2023 /Fall /Stats /2.1 ","False","mono","False","18","no","white","no","yes","768","legacy","27","27","/Users/izzymcgibbon/Desktop/College/Tarleton State /2023 /Fall /Stats /2.1 /EWM- subject-4.csv","legacy","Melodramatic Milgram","4.0.5","0","s","NA","NA","s","NA","s","18.0","NA","NA","1071","NA","18","2","legacy","1024","2","48000","-16","experiment","SSHSS","4","even","3313","NA","NA","NA","NA","43271","42767","2124","44314","NA","2233","NA","44415","44433","44309","44415","FlankerTask.3","12","2358.0","28","1024"
"44","44","83","83","#3d3846","legacy","legacy","legacy","incongruent","1","undefined","1","h","0","0","0","28","0","28","28","0","28","0","0","0","28","28","28","28","Wed Sep 20 17:49:35 2023","1500","The main experiment item","True","ewm FlankerTask3.edited .osexp","/Users/izzymcgibbon/Desktop/College/Tarleton State /2023 /Fall /Stats /2.1 ","False","mono","False","18","no","white","no","yes","768","legacy","28","28","/Users/izzymcgibbon/Desktop/College/Tarleton State /2023 /Fall /Stats /2.1 /EWM- subject-4.csv","legacy","Melodramatic Milgram","4.0.5","0","h","NA","NA","s","NA","h","52.0","NA","NA","1071","NA","52","2","legacy","1024","2","48000","-16","experiment","SSHSS","4","even","3313","NA","NA","NA","NA","44939","44435","2124","45982","NA","2233","NA","46085","46138","45978","46085","FlankerTask.3","13","2410.0","29","1024"
"46","46","82","82","#3d3846","legacy","legacy","legacy","congruent","1","undefined","1","s","0","0","0","29","0","29","29","0","29","0","0","0","29","29","29","29","Wed Sep 20 17:49:35 2023","1500","The main experiment item","True","ewm FlankerTask3.edited .osexp","/Users/izzymcgibbon/Desktop/College/Tarleton State /2023 /Fall /Stats /2.1 ","False","mono","False","18","no","white","no","yes","768","legacy","29","29","/Users/izzymcgibbon/Desktop/College/Tarleton State /2023 /Fall /Stats /2.1 /EWM- subject-4.csv","legacy","Melodramatic Milgram","4.0.5","0","s","NA","NA","s","NA","s","60.0","NA","NA","1071","NA","60","2","legacy","1024","2","48000","-16","experiment","HHSHH","4","even","3313","NA","NA","NA","NA","46140","44435","2124","47182","NA","2233","NA","47285","47346","47178","47285","FlankerTask.3","14","2470.0","30","1024"
"45","45","85","85","#3d3846","legacy","legacy","legacy","incongruent","0","undefined","0","h","0","0","0","30","0","30","30","0","30","0","0","0","30","30","30","30","Wed Sep 20 17:49:35 2023","1500","The main experiment item","True","ewm FlankerTask3.edited .osexp","/Users/izzymcgibbon/Desktop/College/Tarleton State /2023 /Fall /Stats /2.1 ","False","mono","False","18","no","white","no","yes","768","legacy","30","30","/Users/izzymcgibbon/Desktop/College/Tarleton State /2023 /Fall /Stats /2.1 /EWM- subject-4.csv","legacy","Melodramatic Milgram","4.0.5","0","s","NA","NA","s","NA","s","184.0","NA","NA","1071","NA","184","2","legacy","1024","2","48000","-16","experiment","SSHSS","4","even","3313","NA","NA","NA","NA","47349","44435","2124","48396","NA","2233","NA","48499","48683","48392","48499","FlankerTask.3","14","2654.0","31","1024"
"46","46","83","83","#3d3846","legacy","legacy","legacy","incongruent","1","undefined","1","h","0","0","0","31","0","31","31","0","31","0","0","0","31","31","31","31","Wed Sep 20 17:49:35 2023","1500","The main experiment item","True","ewm FlankerTask3.edited .osexp","/Users/izzymcgibbon/Desktop/College/Tarleton State /2023 /Fall /Stats /2.1 ","False","mono","False","18","no","white","no","yes","768","legacy","31","31","/Users/izzymcgibbon/Desktop/College/Tarleton State /2023 /Fall /Stats /2.1 /EWM- subject-4.csv","legacy","Melodramatic Milgram","4.0.5","0","h","NA","NA","s","NA","h","30.0","NA","NA","1071","NA","30","2","legacy","1024","2","48000","-16","experiment","SSHSS","4","even","3313","NA","NA","NA","NA","49193","48689","2124","50228","NA","2233","NA","50331","50362","50224","50331","FlankerTask.3","15","2684.0","32","1024"
"48","48","82","82","#3d3846","legacy","legacy","legacy","incongruent","1","undefined","1","h","0","0","0","32","0","32","32","0","32","0","0","0","32","32","32","32","Wed Sep 20 17:49:35 2023","1500","The main experiment item","True","ewm FlankerTask3.edited .osexp","/Users/izzymcgibbon/Desktop/College/Tarleton State /2023 /Fall /Stats /2.1 ","False","mono","False","18","no","white","no","yes","768","legacy","32","32","/Users/izzymcgibbon/Desktop/College/Tarleton State /2023 /Fall /Stats /2.1 /EWM- subject-4.csv","legacy","Melodramatic Milgram","4.0.5","0","h","NA","NA","s","NA","h","40.0","NA","NA","1071","NA","40","2","legacy","1024","2","48000","-16","experiment","HHHHH","4","even","3313","NA","NA","NA","NA","50364","48689","2124","51403","NA","2233","NA","51505","51545","51398","51505","FlankerTask.3","16","2724.0","33","1024"
"47","47","82","82","#3d3846","legacy","legacy","legacy","incongruent","0","undefined","0","h","0","0","0","33","0","33","33","0","33","0","0","0","33","33","33","33","Wed Sep 20 17:49:35 2023","1500","The main experiment item","True","ewm FlankerTask3.edited .osexp","/Users/izzymcgibbon/Desktop/College/Tarleton State /2023 /Fall /Stats /2.1 ","False","mono","False","18","no","white","no","yes","768","legacy","33","33","/Users/izzymcgibbon/Desktop/College/Tarleton State /2023 /Fall /Stats /2.1 /EWM- subject-4.csv","legacy","Melodramatic Milgram","4.0.5","0","s","NA","NA","s","NA","s","95.0","NA","NA","1071","NA","95","2","legacy","1024","2","48000","-16","experiment","HHHHH","4","even","3313","NA","NA","NA","NA","51548","48689","2124","52590","NA","2233","NA","52692","52787","52586","52692","FlankerTask.3","16","2819.0","34","1024"
"48","48","83","83","#3d3846","legacy","legacy","legacy","congruent","1","undefined","1","s","0","0","0","34","0","34","34","0","34","0","0","0","34","34","34","34","Wed Sep 20 17:49:35 2023","1500","The main experiment item","True","ewm FlankerTask3.edited .osexp","/Users/izzymcgibbon/Desktop/College/Tarleton State /2023 /Fall /Stats /2.1 ","False","mono","False","18","no","white","no","yes","768","legacy","34","34","/Users/izzymcgibbon/Desktop/College/Tarleton State /2023 /Fall /Stats /2.1 /EWM- subject-4.csv","legacy","Melodramatic Milgram","4.0.5","0","s","NA","NA","s","NA","s","101.0","NA","NA","1071","NA","101","2","legacy","1024","2","48000","-16","experiment","HHSHH","4","even","3313","NA","NA","NA","NA","53294","52790","2124","54337","NA","2233","NA","54440","54542","54333","54440","FlankerTask.3","17","2920.0","35","1024"
"50","50","81","81","#3d3846","legacy","legacy","legacy","congruent","1","undefined","1","s","0","0","0","35","0","35","35","0","35","0","0","0","35","35","35","35","Wed Sep 20 17:49:35 2023","1500","The main experiment item","True","ewm FlankerTask3.edited .osexp","/Users/izzymcgibbon/Desktop/College/Tarleton State /2023 /Fall /Stats /2.1 ","False","mono","False","18","no","white","no","yes","768","legacy","35","35","/Users/izzymcgibbon/Desktop/College/Tarleton State /2023 /Fall /Stats /2.1 /EWM- subject-4.csv","legacy","Melodramatic Milgram","4.0.5","0","s","NA","NA","s","NA","s","14.0","NA","NA","1071","NA","14","2","legacy","1024","2","48000","-16","experiment","SSSSS","4","even","3313","NA","NA","NA","NA","54546","52790","2124","55589","NA","2233","NA","55692","55707","55585","55691","FlankerTask.3","18","2934.0","36","1024"
"48","48","85","85","#3d3846","legacy","legacy","legacy","incongruent","0","undefined","0","h","0","0","0","36","0","36","36","0","36","0","0","0","36","36","36","36","Wed Sep 20 17:49:35 2023","1500","The main experiment item","True","ewm FlankerTask3.edited .osexp","/Users/izzymcgibbon/Desktop/College/Tarleton State /2023 /Fall /Stats /2.1 ","False","mono","False","18","no","white","no","yes","768","legacy","36","36","/Users/izzymcgibbon/Desktop/College/Tarleton State /2023 /Fall /Stats /2.1 /EWM- subject-4.csv","legacy","Melodramatic Milgram","4.0.5","0","s","NA","NA","s","NA","s","215.0","NA","NA","1071","NA","215","2","legacy","1024","2","48000","-16","experiment","SSHSS","4","even","3313","NA","NA","NA","NA","55710","52790","2124","56756","NA","2233","NA","56859","57074","56750","56859","FlankerTask.3","18","3149.0","37","1024"
"50","50","84","84","#3d3846","legacy","legacy","legacy","congruent","1","undefined","1","s","0","0","0","37","0","37","37","0","37","0","0","0","37","37","37","37","Wed Sep 20 17:49:35 2023","1500","The main experiment item","True","ewm FlankerTask3.edited .osexp","/Users/izzymcgibbon/Desktop/College/Tarleton State /2023 /Fall /Stats /2.1 ","False","mono","False","18","no","white","no","yes","768","legacy","37","37","/Users/izzymcgibbon/Desktop/College/Tarleton State /2023 /Fall /Stats /2.1 /EWM- subject-4.csv","legacy","Melodramatic Milgram","4.0.5","0","s","NA","NA","s","NA","s","52.0","NA","NA","1071","NA","52","2","legacy","1024","2","48000","-16","experiment","SSSSS","4","even","3313","NA","NA","NA","NA","57580","57076","2124","58626","NA","2233","NA","58730","58783","58622","58729","FlankerTask.3","19","3201.0","38","1024"
"48","48","83","83","#3d3846","legacy","legacy","legacy","incongruent","0","undefined","0","h","0","0","0","38","0","38","38","0","38","0","0","0","38","38","38","38","Wed Sep 20 17:49:35 2023","1500","The main experiment item","True","ewm FlankerTask3.edited .osexp","/Users/izzymcgibbon/Desktop/College/Tarleton State /2023 /Fall /Stats /2.1 ","False","mono","False","18","no","white","no","yes","768","legacy","38","38","/Users/izzymcgibbon/Desktop/College/Tarleton State /2023 /Fall /Stats /2.1 /EWM- subject-4.csv","legacy","Melodramatic Milgram","4.0.5","0","s","NA","NA","s","NA","s","39.0","NA","NA","1071","NA","39","2","legacy","1024","2","48000","-16","experiment","SSHSS","4","even","3313","NA","NA","NA","NA","58786","57076","2124","59822","NA","2233","NA","59924","59964","59818","59924","FlankerTask.3","19","3240.0","39","1024"
"50","50","85","85","#3d3846","legacy","legacy","legacy","congruent","1","undefined","1","s","0","0","0","39","0","39","39","0","39","0","0","0","39","39","39","39","Wed Sep 20 17:49:35 2023","1500","The main experiment item","True","ewm FlankerTask3.edited .osexp","/Users/izzymcgibbon/Desktop/College/Tarleton State /2023 /Fall /Stats /2.1 ","False","mono","False","18","no","white","no","yes","768","legacy","39","39","/Users/izzymcgibbon/Desktop/College/Tarleton State /2023 /Fall /Stats /2.1 /EWM- subject-4.csv","legacy","Melodramatic Milgram","4.0.5","0","s","NA","NA","s","NA","s","173.0","NA","NA","1071","NA","173","2","legacy","1024","2","48000","-16","experiment","HHSHH","4","even","3313","NA","NA","NA","NA","60471","59967","2124","61509","NA","2233","NA","61612","61786","61505","61611","FlankerTask.3","20","3413.0","40","1024"
"51","51","86","86","#3d3846","legacy","legacy","legacy","congruent","1","undefined","1","s","0","0","0","40","0","40","40","0","40","0","0","0","40","40","40","40","Wed Sep 20 17:49:35 2023","1500","The main experiment item","True","ewm FlankerTask3.edited .osexp","/Users/izzymcgibbon/Desktop/College/Tarleton State /2023 /Fall /Stats /2.1 ","False","mono","False","18","no","white","no","yes","768","legacy","40","40","/Users/izzymcgibbon/Desktop/College/Tarleton State /2023 /Fall /Stats /2.1 /EWM- subject-4.csv","legacy","Melodramatic Milgram","4.0.5","0","s","NA","NA","s","NA","s","121.0","NA","NA","1071","NA","121","2","legacy","1024","2","48000","-16","experiment","HHSHH","4","even","3313","NA","NA","NA","NA","61789","59967","2124","62831","NA","2233","NA","62934","63056","62828","62933","FlankerTask.3","21","3534.0","41","1024"
"52","52","85","85","#3d3846","legacy","legacy","legacy","incongruent","1","undefined","1","h","0","0","0","41","0","41","41","0","41","0","0","0","41","41","41","41","Wed Sep 20 17:49:35 2023","1500","The main experiment item","True","ewm FlankerTask3.edited .osexp","/Users/izzymcgibbon/Desktop/College/Tarleton State /2023 /Fall /Stats /2.1 ","False","mono","False","18","no","white","no","yes","768","legacy","41","41","/Users/izzymcgibbon/Desktop/College/Tarleton State /2023 /Fall /Stats /2.1 /EWM- subject-4.csv","legacy","Melodramatic Milgram","4.0.5","0","h","NA","NA","s","NA","h","65.0","NA","NA","1071","NA","65","2","legacy","1024","2","48000","-16","experiment","HHHHH","4","even","3313","NA","NA","NA","NA","63059","59967","2124","64103","NA","2233","NA","64206","64272","64098","64206","FlankerTask.3","22","3599.0","42","1024"
"51","51","86","86","#3d3846","legacy","legacy","legacy","incongruent","0","undefined","0","h","0","0","0","42","0","42","42","0","42","0","0","0","42","42","42","42","Wed Sep 20 17:49:35 2023","1500","The main experiment item","True","ewm FlankerTask3.edited .osexp","/Users/izzymcgibbon/Desktop/College/Tarleton State /2023 /Fall /Stats /2.1 ","False","mono","False","18","no","white","no","yes","768","legacy","42","42","/Users/izzymcgibbon/Desktop/College/Tarleton State /2023 /Fall /Stats /2.1 /EWM- subject-4.csv","legacy","Melodramatic Milgram","4.0.5","0","s","NA","NA","s","NA","s","120.0","NA","NA","1071","NA","120","2","legacy","1024","2","48000","-16","experiment","HHHHH","4","even","3313","NA","NA","NA","NA","64275","59967","2124","65316","NA","2233","NA","65419","65540","65313","65419","FlankerTask.3","22","3719.0","43","1024"
"50","50","90","90","#3d3846","legacy","legacy","legacy","congruent","0","undefined","0","s","0","0","0","43","0","43","43","0","43","0","0","0","43","43","43","43","Wed Sep 20 17:49:35 2023","1500","The main experiment item","True","ewm FlankerTask3.edited .osexp","/Users/izzymcgibbon/Desktop/College/Tarleton State /2023 /Fall /Stats /2.1 ","False","mono","False","18","no","white","no","yes","768","legacy","43","43","/Users/izzymcgibbon/Desktop/College/Tarleton State /2023 /Fall /Stats /2.1 /EWM- subject-4.csv","legacy","Melodramatic Milgram","4.0.5","0","h","NA","NA","s","NA","h","266.0","NA","NA","1071","NA","266","2","legacy","1024","2","48000","-16","experiment","SSSSS","4","even","3313","NA","NA","NA","NA","66045","65543","2124","67088","NA","2233","NA","67190","67457","67084","67190","FlankerTask.3","22","3985.0","44","1024"
"51","51","89","89","#3d3846","legacy","legacy","legacy","incongruent","1","undefined","1","h","0","0","0","44","0","44","44","0","44","0","0","0","44","44","44","44","Wed Sep 20 17:49:35 2023","1500","The main experiment item","True","ewm FlankerTask3.edited .osexp","/Users/izzymcgibbon/Desktop/College/Tarleton State /2023 /Fall /Stats /2.1 ","False","mono","False","18","no","white","no","yes","768","legacy","44","44","/Users/izzymcgibbon/Desktop/College/Tarleton State /2023 /Fall /Stats /2.1 /EWM- subject-4.csv","legacy","Melodramatic Milgram","4.0.5","0","h","NA","NA","s","NA","h","23.0","NA","NA","1071","NA","23","2","legacy","1024","2","48000","-16","experiment","SSHSS","4","even","3313","NA","NA","NA","NA","67963","67460","2124","69031","NA","2233","NA","69133","69157","69028","69133","FlankerTask.3","23","4008.0","45","1024"
"52","52","93","93","#3d3846","legacy","legacy","legacy","incongruent","1","undefined","1","h","0","0","0","45","0","45","45","0","45","0","0","0","45","45","45","45","Wed Sep 20 17:49:35 2023","1500","The main experiment item","True","ewm FlankerTask3.edited .osexp","/Users/izzymcgibbon/Desktop/College/Tarleton State /2023 /Fall /Stats /2.1 ","False","mono","False","18","no","white","no","yes","768","legacy","45","45","/Users/izzymcgibbon/Desktop/College/Tarleton State /2023 /Fall /Stats /2.1 /EWM- subject-4.csv","legacy","Melodramatic Milgram","4.0.5","0","h","NA","NA","s","NA","h","277.0","NA","NA","1071","NA","277","2","legacy","1024","2","48000","-16","experiment","SSHSS","4","even","3313","NA","NA","NA","NA","69160","67460","2124","70193","NA","2233","NA","70296","70574","70190","70295","FlankerTask.3","24","4285.0","46","1024"
"51","51","94","94","#3d3846","legacy","legacy","legacy","incongruent","0","undefined","0","h","0","0","0","46","0","46","46","0","46","0","0","0","46","46","46","46","Wed Sep 20 17:49:35 2023","1500","The main experiment item","True","ewm FlankerTask3.edited .osexp","/Users/izzymcgibbon/Desktop/College/Tarleton State /2023 /Fall /Stats /2.1 ","False","mono","False","18","no","white","no","yes","768","legacy","46","46","/Users/izzymcgibbon/Desktop/College/Tarleton State /2023 /Fall /Stats /2.1 /EWM- subject-4.csv","legacy","Melodramatic Milgram","4.0.5","0","s","NA","NA","s","NA","s","169.0","NA","NA","1071","NA","169","2","legacy","1024","2","48000","-16","experiment","SSHSS","4","even","3313","NA","NA","NA","NA","70577","67460","2124","71614","NA","2233","NA","71718","71888","71609","71717","FlankerTask.3","24","4454.0","47","1024"
"52","52","110","110","#3d3846","legacy","legacy","legacy","congruent","1","undefined","1","s","0","0","0","47","0","47","47","0","47","0","0","0","47","47","47","47","Wed Sep 20 17:49:35 2023","1500","The main experiment item","True","ewm FlankerTask3.edited .osexp","/Users/izzymcgibbon/Desktop/College/Tarleton State /2023 /Fall /Stats /2.1 ","False","mono","False","18","no","white","no","yes","768","legacy","47","47","/Users/izzymcgibbon/Desktop/College/Tarleton State /2023 /Fall /Stats /2.1 /EWM- subject-4.csv","legacy","Melodramatic Milgram","4.0.5","0","s","NA","NA","s","NA","s","847.0","NA","NA","1071","NA","847","2","legacy","1024","2","48000","-16","experiment","SSSSS","4","even","3313","NA","NA","NA","NA","72395","71891","2124","73434","NA","2233","NA","73536","74384","73432","73536","FlankerTask.3","25","5301.0","48","1024"
"51","51","112","112","#3d3846","legacy","legacy","legacy","incongruent","0","undefined","0","h","0","0","0","48","0","48","48","0","48","0","0","0","48","48","48","48","Wed Sep 20 17:49:35 2023","1500","The main experiment item","True","ewm FlankerTask3.edited .osexp","/Users/izzymcgibbon/Desktop/College/Tarleton State /2023 /Fall /Stats /2.1 ","False","mono","False","18","no","white","no","yes","768","legacy","48","48","/Users/izzymcgibbon/Desktop/College/Tarleton State /2023 /Fall /Stats /2.1 /EWM- subject-4.csv","legacy","Melodramatic Milgram","4.0.5","0","s","NA","NA","s","NA","s","187.0","NA","NA","1071","NA","187","2","legacy","1024","2","48000","-16","experiment","HHHHH","4","even","3313","NA","NA","NA","NA","74387","71891","2124","75430","NA","2233","NA","75533","75721","75425","75533","FlankerTask.3","25","5488.0","49","1024"
"52","52","113","113","#3d3846","legacy","legacy","legacy","congruent","1","undefined","1","s","0","0","0","49","0","49","49","0","49","0","0","0","49","49","49","49","Wed Sep 20 17:49:35 2023","1500","The main experiment item","True","ewm FlankerTask3.edited .osexp","/Users/izzymcgibbon/Desktop/College/Tarleton State /2023 /Fall /Stats /2.1 ","False","mono","False","18","no","white","no","yes","768","legacy","49","49","/Users/izzymcgibbon/Desktop/College/Tarleton State /2023 /Fall /Stats /2.1 /EWM- subject-4.csv","legacy","Melodramatic Milgram","4.0.5","0","s","NA","NA","s","NA","s","186.0","NA","NA","1071","NA","186","2","legacy","1024","2","48000","-16","experiment","SSSSS","4","even","3313","NA","NA","NA","NA","76228","75723","2124","77272","NA","2233","NA","77375","77562","77267","77375","FlankerTask.3","26","5674.0","50","1024"
"50","50","131","131","#3d3846","legacy","legacy","legacy","congruent","0","undefined","0","s","0","0","0","50","0","50","50","0","50","0","0","0","50","50","50","50","Wed Sep 20 17:49:35 2023","1500","The main experiment item","True","ewm FlankerTask3.edited .osexp","/Users/izzymcgibbon/Desktop/College/Tarleton State /2023 /Fall /Stats /2.1 ","False","mono","False","18","no","white","no","yes","768","legacy","50","50","/Users/izzymcgibbon/Desktop/College/Tarleton State /2023 /Fall /Stats /2.1 /EWM- subject-4.csv","legacy","Melodramatic Milgram","4.0.5","0","h","NA","NA","s","NA","h","1043.0","NA","NA","1071","NA","1043","2","legacy","1024","2","48000","-16","experiment","HHSHH","4","even","3313","NA","NA","NA","NA","77564","75723","2124","78607","NA","2233","NA","78710","79754","78603","78709","FlankerTask.3","26","6717.0","51","1024"
"51","51","133","133","#3d3846","legacy","legacy","legacy","congruent","1","undefined","1","s","0","0","0","51","0","51","51","0","51","0","0","0","51","51","51","51","Wed Sep 20 17:49:35 2023","1500","The main experiment item","True","ewm FlankerTask3.edited .osexp","/Users/izzymcgibbon/Desktop/College/Tarleton State /2023 /Fall /Stats /2.1 ","False","mono","False","18","no","white","no","yes","768","legacy","51","51","/Users/izzymcgibbon/Desktop/College/Tarleton State /2023 /Fall /Stats /2.1 /EWM- subject-4.csv","legacy","Melodramatic Milgram","4.0.5","0","s","NA","NA","s","NA","s","215.0","NA","NA","1071","NA","215","2","legacy","1024","2","48000","-16","experiment","HHSHH","4","even","3313","NA","NA","NA","NA","80261","79757","2124","81302","NA","2233","NA","81405","81636","81298","81404","FlankerTask.3","27","6932.0","52","1024"
"52","52","155","155","#3d3846","legacy","legacy","legacy","congruent","1","undefined","1","s","0","0","0","52","0","52","52","0","52","0","0","0","52","52","52","52","Wed Sep 20 17:49:35 2023","1500","The main experiment item","True","ewm FlankerTask3.edited .osexp","/Users/izzymcgibbon/Desktop/College/Tarleton State /2023 /Fall /Stats /2.1 ","False","mono","False","18","no","white","no","yes","768","legacy","52","52","/Users/izzymcgibbon/Desktop/College/Tarleton State /2023 /Fall /Stats /2.1 /EWM- subject-4.csv","legacy","Melodramatic Milgram","4.0.5","0","s","NA","NA","s","NA","s","1329.0","NA","NA","1071","NA","1329","2","legacy","1024","2","48000","-16","experiment","HHSHH","4","even","3313","NA","NA","NA","NA","81638","79757","2124","82673","NA","2233","NA","82776","84106","82669","82775","FlankerTask.3","28","8261.0","53","1024"
"53","53","162","162","#3d3846","legacy","legacy","legacy","congruent","1","undefined","1","s","0","0","0","53","0","53","53","0","53","0","0","0","53","53","53","53","Wed Sep 20 17:49:35 2023","1500","The main experiment item","True","ewm FlankerTask3.edited .osexp","/Users/izzymcgibbon/Desktop/College/Tarleton State /2023 /Fall /Stats /2.1 ","False","mono","False","18","no","white","no","yes","768","legacy","53","53","/Users/izzymcgibbon/Desktop/College/Tarleton State /2023 /Fall /Stats /2.1 /EWM- subject-4.csv","legacy","Melodramatic Milgram","4.0.5","0","s","NA","NA","s","NA","s","522.0","NA","NA","1071","NA","522","2","legacy","1024","2","48000","-16","experiment","SSSSS","4","even","3313","NA","NA","NA","NA","84108","79757","2124","85144","NA","2233","NA","85247","85769","85140","85247","FlankerTask.3","29","8783.0","54","1024"
"52","52","186","186","#3d3846","legacy","legacy","legacy","congruent","0","undefined","0","s","0","0","0","54","0","54","54","0","54","0","0","0","54","54","54","54","Wed Sep 20 17:49:35 2023","1500","The main experiment item","True","ewm FlankerTask3.edited .osexp","/Users/izzymcgibbon/Desktop/College/Tarleton State /2023 /Fall /Stats /2.1 ","False","mono","False","18","no","white","no","yes","768","legacy","54","54","/Users/izzymcgibbon/Desktop/College/Tarleton State /2023 /Fall /Stats /2.1 /EWM- subject-4.csv","legacy","Melodramatic Milgram","4.0.5","0","None","NA","NA","s","NA","None","1500.0","NA","NA","1071","NA","1500","2","legacy","1024","2","48000","-16","experiment","HHSHH","4","even","3313","NA","NA","NA","NA","85772","79757","2124","86810","NA","2233","NA","86912","88412","86806","86912","FlankerTask.3","29","10283.0","55","1024"
"51","51","194","194","#3d3846","legacy","legacy","legacy","incongruent","0","undefined","0","h","0","0","0","55","0","55","55","0","55","0","0","0","55","55","55","55","Wed Sep 20 17:49:35 2023","1500","The main experiment item","True","ewm FlankerTask3.edited .osexp","/Users/izzymcgibbon/Desktop/College/Tarleton State /2023 /Fall /Stats /2.1 ","False","mono","False","18","no","white","no","yes","768","legacy","55","55","/Users/izzymcgibbon/Desktop/College/Tarleton State /2023 /Fall /Stats /2.1 /EWM- subject-4.csv","legacy","Melodramatic Milgram","4.0.5","0","s","NA","NA","s","NA","s","607.0","NA","NA","1071","NA","607","2","legacy","1024","2","48000","-16","experiment","HHHHH","4","even","3313","NA","NA","NA","NA","88917","88415","2124","89959","NA","2233","NA","90062","90670","89955","90062","FlankerTask.3","29","10890.0","56","1024"
"50","50","217","217","#3d3846","legacy","legacy","legacy","congruent","0","undefined","0","s","0","0","0","56","0","56","56","0","56","0","0","0","56","56","56","56","Wed Sep 20 17:49:35 2023","1500","The main experiment item","True","ewm FlankerTask3.edited .osexp","/Users/izzymcgibbon/Desktop/College/Tarleton State /2023 /Fall /Stats /2.1 ","False","mono","False","18","no","white","no","yes","768","legacy","56","56","/Users/izzymcgibbon/Desktop/College/Tarleton State /2023 /Fall /Stats /2.1 /EWM- subject-4.csv","legacy","Melodramatic Milgram","4.0.5","0","None","NA","NA","s","NA","None","1500.0","NA","NA","1071","NA","1500","2","legacy","1024","2","48000","-16","experiment","HHSHH","4","even","3313","NA","NA","NA","NA","91176","90673","2124","92213","NA","2233","NA","92316","93816","92211","92315","FlankerTask.3","29","12390.0","57","1024"
"50","50","239","239","#3d3846","legacy","legacy","legacy","congruent","0","undefined","0","s","0","0","0","57","0","57","57","0","57","0","0","0","57","57","57","57","Wed Sep 20 17:49:35 2023","1500","The main experiment item","True","ewm FlankerTask3.edited .osexp","/Users/izzymcgibbon/Desktop/College/Tarleton State /2023 /Fall /Stats /2.1 ","False","mono","False","18","no","white","no","yes","768","legacy","57","57","/Users/izzymcgibbon/Desktop/College/Tarleton State /2023 /Fall /Stats /2.1 /EWM- subject-4.csv","legacy","Melodramatic Milgram","4.0.5","0","None","NA","NA","s","NA","None","1500.0","NA","NA","1071","NA","1500","2","legacy","1024","2","48000","-16","experiment","SSSSS","4","even","3313","NA","NA","NA","NA","94321","93819","2124","95364","NA","2233","NA","95466","96966","95360","95466","FlankerTask.3","29","13890.0","58","1024"
"49","49","237","237","#3d3846","legacy","legacy","legacy","congruent","0","undefined","0","s","0","0","0","58","0","58","58","0","58","0","0","0","58","58","58","58","Wed Sep 20 17:49:35 2023","1500","The main experiment item","True","ewm FlankerTask3.edited .osexp","/Users/izzymcgibbon/Desktop/College/Tarleton State /2023 /Fall /Stats /2.1 ","False","mono","False","18","no","white","no","yes","768","legacy","58","58","/Users/izzymcgibbon/Desktop/College/Tarleton State /2023 /Fall /Stats /2.1 /EWM- subject-4.csv","legacy","Melodramatic Milgram","4.0.5","0","h","NA","NA","s","NA","h","109.0","NA","NA","1071","NA","109","2","legacy","1024","2","48000","-16","experiment","SSSSS","4","even","3313","NA","NA","NA","NA","97472","96969","2124","98515","NA","2233","NA","98619","98729","98511","98618","FlankerTask.3","29","13999.0","59","1024"
"50","50","236","236","#3d3846","legacy","legacy","legacy","congruent","1","undefined","1","s","0","0","0","59","0","59","59","0","59","0","0","0","59","59","59","59","Wed Sep 20 17:49:35 2023","1500","The main experiment item","True","ewm FlankerTask3.edited .osexp","/Users/izzymcgibbon/Desktop/College/Tarleton State /2023 /Fall /Stats /2.1 ","False","mono","False","18","no","white","no","yes","768","legacy","59","59","/Users/izzymcgibbon/Desktop/College/Tarleton State /2023 /Fall /Stats /2.1 /EWM- subject-4.csv","legacy","Melodramatic Milgram","4.0.5","0","s","NA","NA","s","NA","s","175.0","NA","NA","1071","NA","175","2","legacy","1024","2","48000","-16","experiment","HHSHH","4","even","3313","NA","NA","NA","NA","99236","98732","2124","100290","NA","2233","NA","100393","100569","100285","100392","FlankerTask.3","30","14174.0","60","1024"
"50","50","234","234","#3d3846","legacy","legacy","legacy","incongruent","1","undefined","1","h","0","0","0","60","0","60","60","0","60","0","0","0","60","60","60","60","Wed Sep 20 17:49:35 2023","1500","The main experiment item","True","ewm FlankerTask3.edited .osexp","/Users/izzymcgibbon/Desktop/College/Tarleton State /2023 /Fall /Stats /2.1 ","False","mono","False","18","no","white","no","yes","768","legacy","60","60","/Users/izzymcgibbon/Desktop/College/Tarleton State /2023 /Fall /Stats /2.1 /EWM- subject-4.csv","legacy","Melodramatic Milgram","4.0.5","0","h","NA","NA","s","NA","h","123.0","NA","NA","1071","NA","123","2","legacy","1024","2","48000","-16","experiment","HHHHH","4","even","3313","NA","NA","NA","NA","100572","98732","2124","101611","NA","2233","NA","101714","101838","101604","101714","FlankerTask.3","31","14297.0","61","1024"
"50","50","232","232","#3d3846","legacy","legacy","legacy","incongruent","0","undefined","0","h","0","0","0","61","0","61","61","0","61","0","0","0","61","61","61","61","Wed Sep 20 17:49:35 2023","1500","The main experiment item","True","ewm FlankerTask3.edited .osexp","/Users/izzymcgibbon/Desktop/College/Tarleton State /2023 /Fall /Stats /2.1 ","False","mono","False","18","no","white","no","yes","768","legacy","61","61","/Users/izzymcgibbon/Desktop/College/Tarleton State /2023 /Fall /Stats /2.1 /EWM- subject-4.csv","legacy","Melodramatic Milgram","4.0.5","0","s","NA","NA","s","NA","s","91.0","NA","NA","1071","NA","91","2","legacy","1024","2","48000","-16","experiment","SSHSS","4","even","3313","NA","NA","NA","NA","101840","98732","2124","102877","NA","2233","NA","102981","103072","102873","102981","FlankerTask.3","31","14388.0","62","1024"
"49","49","228","228","#3d3846","legacy","legacy","legacy","incongruent","0","undefined","0","h","0","0","0","62","0","62","62","0","62","0","0","0","62","62","62","62","Wed Sep 20 17:49:35 2023","1500","The main experiment item","True","ewm FlankerTask3.edited .osexp","/Users/izzymcgibbon/Desktop/College/Tarleton State /2023 /Fall /Stats /2.1 ","False","mono","False","18","no","white","no","yes","768","legacy","62","62","/Users/izzymcgibbon/Desktop/College/Tarleton State /2023 /Fall /Stats /2.1 /EWM- subject-4.csv","legacy","Melodramatic Milgram","4.0.5","0","s","NA","NA","s","NA","s","18.0","NA","NA","1071","NA","18","2","legacy","1024","2","48000","-16","experiment","HHHHH","4","even","3313","NA","NA","NA","NA","103580","103076","2124","104625","NA","2233","NA","104728","104747","104619","104727","FlankerTask.3","31","14406.0","63","1024"
"48","48","227","227","#3d3846","legacy","legacy","legacy","congruent","0","undefined","0","s","0","0","0","63","0","63","63","0","63","0","0","0","63","63","63","63","Wed Sep 20 17:49:35 2023","1500","The main experiment item","True","ewm FlankerTask3.edited .osexp","/Users/izzymcgibbon/Desktop/College/Tarleton State /2023 /Fall /Stats /2.1 ","False","mono","False","18","no","white","no","yes","768","legacy","63","63","/Users/izzymcgibbon/Desktop/College/Tarleton State /2023 /Fall /Stats /2.1 /EWM- subject-4.csv","legacy","Melodramatic Milgram","4.0.5","0","h","NA","NA","s","NA","h","185.0","NA","NA","1071","NA","185","2","legacy","1024","2","48000","-16","experiment","SSSSS","4","even","3313","NA","NA","NA","NA","105253","104749","2124","106295","NA","2233","NA","106398","106583","106291","106398","FlankerTask.3","31","14591.0","64","1024"
"49","49","225","225","#3d3846","legacy","legacy","legacy","incongruent","1","undefined","1","h","0","0","0","64","0","64","64","0","64","0","0","0","64","64","64","64","Wed Sep 20 17:49:35 2023","1500","The main experiment item","True","ewm FlankerTask3.edited .osexp","/Users/izzymcgibbon/Desktop/College/Tarleton State /2023 /Fall /Stats /2.1 ","False","mono","False","18","no","white","no","yes","768","legacy","64","64","/Users/izzymcgibbon/Desktop/College/Tarleton State /2023 /Fall /Stats /2.1 /EWM- subject-4.csv","legacy","Melodramatic Milgram","4.0.5","0","h","NA","NA","s","NA","h","44.0","NA","NA","1071","NA","44","2","legacy","1024","2","48000","-16","experiment","HHHHH","4","even","3313","NA","NA","NA","NA","107090","106586","2124","108133","NA","2233","NA","108236","108281","108129","108236","FlankerTask.3","32","14635.0","65","1024"
"50","50","225","225","#3d3846","legacy","legacy","legacy","incongruent","1","undefined","1","h","0","0","0","65","0","65","65","0","65","0","0","0","65","65","65","65","Wed Sep 20 17:49:35 2023","1500","The main experiment item","True","ewm FlankerTask3.edited .osexp","/Users/izzymcgibbon/Desktop/College/Tarleton State /2023 /Fall /Stats /2.1 ","False","mono","False","18","no","white","no","yes","768","legacy","65","65","/Users/izzymcgibbon/Desktop/College/Tarleton State /2023 /Fall /Stats /2.1 /EWM- subject-4.csv","legacy","Melodramatic Milgram","4.0.5","0","h","NA","NA","s","NA","h","228.0","NA","NA","1071","NA","228","2","legacy","1024","2","48000","-16","experiment","HHHHH","4","even","3313","NA","NA","NA","NA","108284","106586","2124","109327","NA","2233","NA","109430","109659","109323","109430","FlankerTask.3","33","14863.0","66","1024"
"50","50","222","222","#3d3846","legacy","legacy","legacy","incongruent","1","undefined","1","h","0","0","0","66","0","66","66","0","66","0","0","0","66","66","66","66","Wed Sep 20 17:49:35 2023","1500","The main experiment item","True","ewm FlankerTask3.edited .osexp","/Users/izzymcgibbon/Desktop/College/Tarleton State /2023 /Fall /Stats /2.1 ","False","mono","False","18","no","white","no","yes","768","legacy","66","66","/Users/izzymcgibbon/Desktop/College/Tarleton State /2023 /Fall /Stats /2.1 /EWM- subject-4.csv","legacy","Melodramatic Milgram","4.0.5","0","h","NA","NA","s","NA","h","31.0","NA","NA","1071","NA","31","2","legacy","1024","2","48000","-16","experiment","SSHSS","4","even","3313","NA","NA","NA","NA","109662","106586","2124","110709","NA","2233","NA","110813","110862","110703","110813","FlankerTask.3","34","14894.0","67","1024"
"50","50","220","220","#3d3846","legacy","legacy","legacy","incongruent","0","undefined","0","h","0","0","0","67","0","67","67","0","67","0","0","0","67","67","67","67","Wed Sep 20 17:49:35 2023","1500","The main experiment item","True","ewm FlankerTask3.edited .osexp","/Users/izzymcgibbon/Desktop/College/Tarleton State /2023 /Fall /Stats /2.1 ","False","mono","False","18","no","white","no","yes","768","legacy","67","67","/Users/izzymcgibbon/Desktop/College/Tarleton State /2023 /Fall /Stats /2.1 /EWM- subject-4.csv","legacy","Melodramatic Milgram","4.0.5","0","s","NA","NA","s","NA","s","107.0","NA","NA","1071","NA","107","2","legacy","1024","2","48000","-16","experiment","SSHSS","4","even","3313","NA","NA","NA","NA","110865","106586","2124","111899","NA","2233","NA","112001","112109","111894","112001","FlankerTask.3","34","15001.0","68","1024"
"50","50","218","218","#3d3846","legacy","legacy","legacy","incongruent","1","undefined","1","h","0","0","0","68","0","68","68","0","68","0","0","0","68","68","68","68","Wed Sep 20 17:49:35 2023","1500","The main experiment item","True","ewm FlankerTask3.edited .osexp","/Users/izzymcgibbon/Desktop/College/Tarleton State /2023 /Fall /Stats /2.1 ","False","mono","False","18","no","white","no","yes","768","legacy","68","68","/Users/izzymcgibbon/Desktop/College/Tarleton State /2023 /Fall /Stats /2.1 /EWM- subject-4.csv","legacy","Melodramatic Milgram","4.0.5","0","h","NA","NA","s","NA","h","82.0","NA","NA","1071","NA","82","2","legacy","1024","2","48000","-16","experiment","SSHSS","4","even","3313","NA","NA","NA","NA","112614","112111","2124","113650","NA","2233","NA","113752","113835","113645","113752","FlankerTask.3","35","15083.0","69","1024"
"51","51","217","217","#3d3846","legacy","legacy","legacy","incongruent","1","undefined","1","h","0","0","0","69","0","69","69","0","69","0","0","0","69","69","69","69","Wed Sep 20 17:49:35 2023","1500","The main experiment item","True","ewm FlankerTask3.edited .osexp","/Users/izzymcgibbon/Desktop/College/Tarleton State /2023 /Fall /Stats /2.1 ","False","mono","False","18","no","white","no","yes","768","legacy","69","69","/Users/izzymcgibbon/Desktop/College/Tarleton State /2023 /Fall /Stats /2.1 /EWM- subject-4.csv","legacy","Melodramatic Milgram","4.0.5","0","h","NA","NA","s","NA","h","123.0","NA","NA","1071","NA","123","2","legacy","1024","2","48000","-16","experiment","SSHSS","4","even","3313","NA","NA","NA","NA","113838","112111","2124","114877","NA","2233","NA","114980","115104","114873","114980","FlankerTask.3","36","15206.0","70","1024"
"50","50","215","215","#3d3846","legacy","legacy","legacy","incongruent","0","undefined","0","h","0","0","0","70","0","70","70","0","70","0","0","0","70","70","70","70","Wed Sep 20 17:49:35 2023","1500","The main experiment item","True","ewm FlankerTask3.edited .osexp","/Users/izzymcgibbon/Desktop/College/Tarleton State /2023 /Fall /Stats /2.1 ","False","mono","False","18","no","white","no","yes","768","legacy","70","70","/Users/izzymcgibbon/Desktop/College/Tarleton State /2023 /Fall /Stats /2.1 /EWM- subject-4.csv","legacy","Melodramatic Milgram","4.0.5","0","s","NA","NA","s","NA","s","84.0","NA","NA","1071","NA","84","2","legacy","1024","2","48000","-16","experiment","HHHHH","4","even","3313","NA","NA","NA","NA","115107","112111","2124","116150","NA","2233","NA","116253","116338","116146","116253","FlankerTask.3","36","15290.0","71","1024"
"51","51","212","212","#3d3846","legacy","legacy","legacy","congruent","1","undefined","1","s","0","0","0","71","0","71","71","0","71","0","0","0","71","71","71","71","Wed Sep 20 17:49:35 2023","1500","The main experiment item","True","ewm FlankerTask3.edited .osexp","/Users/izzymcgibbon/Desktop/College/Tarleton State /2023 /Fall /Stats /2.1 ","False","mono","False","18","no","white","no","yes","768","legacy","71","71","/Users/izzymcgibbon/Desktop/College/Tarleton State /2023 /Fall /Stats /2.1 /EWM- subject-4.csv","legacy","Melodramatic Milgram","4.0.5","0","s","NA","NA","s","NA","s","41.0","NA","NA","1071","NA","41","2","legacy","1024","2","48000","-16","experiment","SSSSS","4","even","3313","NA","NA","NA","NA","116846","116341","2124","117889","NA","2233","NA","117991","118033","117885","117991","FlankerTask.3","37","15331.0","72","1024"
"50","50","213","213","#3d3846","legacy","legacy","legacy","congruent","0","undefined","0","s","0","0","0","72","0","72","72","0","72","0","0","0","72","72","72","72","Wed Sep 20 17:49:35 2023","1500","The main experiment item","True","ewm FlankerTask3.edited .osexp","/Users/izzymcgibbon/Desktop/College/Tarleton State /2023 /Fall /Stats /2.1 ","False","mono","False","18","no","white","no","yes","768","legacy","72","72","/Users/izzymcgibbon/Desktop/College/Tarleton State /2023 /Fall /Stats /2.1 /EWM- subject-4.csv","legacy","Melodramatic Milgram","4.0.5","0","h","NA","NA","s","NA","h","222.0","NA","NA","1071","NA","222","2","legacy","1024","2","48000","-16","experiment","HHSHH","4","even","3313","NA","NA","NA","NA","118036","116341","2124","119080","NA","2233","NA","119184","119407","119076","119184","FlankerTask.3","37","15553.0","73","1024"
"50","50","210","210","#3d3846","legacy","legacy","legacy","incongruent","0","undefined","0","h","0","0","0","73","0","73","73","0","73","0","0","0","73","73","73","73","Wed Sep 20 17:49:35 2023","1500","The main experiment item","True","ewm FlankerTask3.edited .osexp","/Users/izzymcgibbon/Desktop/College/Tarleton State /2023 /Fall /Stats /2.1 ","False","mono","False","18","no","white","no","yes","768","legacy","73","73","/Users/izzymcgibbon/Desktop/College/Tarleton State /2023 /Fall /Stats /2.1 /EWM- subject-4.csv","legacy","Melodramatic Milgram","4.0.5","0","s","NA","NA","s","NA","s","58.0","NA","NA","1071","NA","58","2","legacy","1024","2","48000","-16","experiment","HHHHH","4","even","3313","NA","NA","NA","NA","119915","119410","2124","120958","NA","2233","NA","121061","121120","120954","121061","FlankerTask.3","37","15611.0","74","1024"
"49","49","209","209","#3d3846","legacy","legacy","legacy","congruent","0","undefined","0","s","0","0","0","74","0","74","74","0","74","0","0","0","74","74","74","74","Wed Sep 20 17:49:35 2023","1500","The main experiment item","True","ewm FlankerTask3.edited .osexp","/Users/izzymcgibbon/Desktop/College/Tarleton State /2023 /Fall /Stats /2.1 ","False","mono","False","18","no","white","no","yes","768","legacy","74","74","/Users/izzymcgibbon/Desktop/College/Tarleton State /2023 /Fall /Stats /2.1 /EWM- subject-4.csv","legacy","Melodramatic Milgram","4.0.5","0","h","NA","NA","s","NA","h","87.0","NA","NA","1071","NA","87","2","legacy","1024","2","48000","-16","experiment","HHSHH","4","even","3313","NA","NA","NA","NA","121627","121123","2124","122676","NA","2233","NA","122779","122867","122671","122779","FlankerTask.3","37","15698.0","75","1024"
"48","48","206","206","#3d3846","legacy","legacy","legacy","congruent","0","undefined","0","s","0","0","0","75","0","75","75","0","75","0","0","0","75","75","75","75","Wed Sep 20 17:49:35 2023","1500","The main experiment item","True","ewm FlankerTask3.edited .osexp","/Users/izzymcgibbon/Desktop/College/Tarleton State /2023 /Fall /Stats /2.1 ","False","mono","False","18","no","white","no","yes","768","legacy","75","75","/Users/izzymcgibbon/Desktop/College/Tarleton State /2023 /Fall /Stats /2.1 /EWM- subject-4.csv","legacy","Melodramatic Milgram","4.0.5","0","h","NA","NA","s","NA","h","8.0","NA","NA","1071","NA","8","2","legacy","1024","2","48000","-16","experiment","SSSSS","4","even","3313","NA","NA","NA","NA","123374","122870","2124","124409","NA","2233","NA","124512","124521","124405","124512","FlankerTask.3","37","15706.0","76","1024"
"49","49","205","205","#3d3846","legacy","legacy","legacy","congruent","1","undefined","1","s","0","0","0","76","0","76","76","0","76","0","0","0","76","76","76","76","Wed Sep 20 17:49:35 2023","1500","The main experiment item","True","ewm FlankerTask3.edited .osexp","/Users/izzymcgibbon/Desktop/College/Tarleton State /2023 /Fall /Stats /2.1 ","False","mono","False","18","no","white","no","yes","768","legacy","76","76","/Users/izzymcgibbon/Desktop/College/Tarleton State /2023 /Fall /Stats /2.1 /EWM- subject-4.csv","legacy","Melodramatic Milgram","4.0.5","0","s","NA","NA","s","NA","s","83.0","NA","NA","1071","NA","83","2","legacy","1024","2","48000","-16","experiment","SSSSS","4","even","3313","NA","NA","NA","NA","125029","124525","2124","126068","NA","2233","NA","126171","126255","126064","126171","FlankerTask.3","38","15789.0","77","1024"
"50","50","203","203","#3d3846","legacy","legacy","legacy","incongruent","1","undefined","1","h","0","0","0","77","0","77","77","0","77","0","0","0","77","77","77","77","Wed Sep 20 17:49:35 2023","1500","The main experiment item","True","ewm FlankerTask3.edited .osexp","/Users/izzymcgibbon/Desktop/College/Tarleton State /2023 /Fall /Stats /2.1 ","False","mono","False","18","no","white","no","yes","768","legacy","77","77","/Users/izzymcgibbon/Desktop/College/Tarleton State /2023 /Fall /Stats /2.1 /EWM- subject-4.csv","legacy","Melodramatic Milgram","4.0.5","0","h","NA","NA","s","NA","h","58.0","NA","NA","1071","NA","58","2","legacy","1024","2","48000","-16","experiment","HHHHH","4","even","3313","NA","NA","NA","NA","126258","124525","2124","127299","NA","2233","NA","127401","127461","127294","127401","FlankerTask.3","39","15847.0","78","1024"
"49","49","201","201","#3d3846","legacy","legacy","legacy","congruent","0","undefined","0","s","0","0","0","78","0","78","78","0","78","0","0","0","78","78","78","78","Wed Sep 20 17:49:35 2023","1500","The main experiment item","True","ewm FlankerTask3.edited .osexp","/Users/izzymcgibbon/Desktop/College/Tarleton State /2023 /Fall /Stats /2.1 ","False","mono","False","18","no","white","no","yes","768","legacy","78","78","/Users/izzymcgibbon/Desktop/College/Tarleton State /2023 /Fall /Stats /2.1 /EWM- subject-4.csv","legacy","Melodramatic Milgram","4.0.5","0","h","NA","NA","s","NA","h","87.0","NA","NA","1071","NA","87","2","legacy","1024","2","48000","-16","experiment","SSSSS","4","even","3313","NA","NA","NA","NA","127465","124525","2124","128509","NA","2233","NA","128612","128700","128504","128612","FlankerTask.3","39","15934.0","79","1024"
"48","48","200","200","#3d3846","legacy","legacy","legacy","incongruent","0","undefined","0","h","0","0","0","79","0","79","79","0","79","0","0","0","79","79","79","79","Wed Sep 20 17:49:35 2023","1500","The main experiment item","True","ewm FlankerTask3.edited .osexp","/Users/izzymcgibbon/Desktop/College/Tarleton State /2023 /Fall /Stats /2.1 ","False","mono","False","18","no","white","no","yes","768","legacy","79","79","/Users/izzymcgibbon/Desktop/College/Tarleton State /2023 /Fall /Stats /2.1 /EWM- subject-4.csv","legacy","Melodramatic Milgram","4.0.5","0","s","NA","NA","s","NA","s","106.0","NA","NA","1071","NA","106","2","legacy","1024","2","48000","-16","experiment","HHHHH","4","even","3313","NA","NA","NA","NA","129207","128703","2124","130253","NA","2233","NA","130356","130463","130249","130355","FlankerTask.3","39","16040.0","80","1024"
"49","49","199","199","#3d3846","legacy","legacy","legacy","congruent","1","undefined","1","s","0","0","0","80","0","80","80","0","80","0","0","0","80","80","80","80","Wed Sep 20 17:49:35 2023","600","The main experiment item","True","ewm FlankerTask3.edited .osexp","/Users/izzymcgibbon/Desktop/College/Tarleton State /2023 /Fall /Stats /2.1 ","False","mono","False","18","no","white","no","yes","768","legacy","0","79","/Users/izzymcgibbon/Desktop/College/Tarleton State /2023 /Fall /Stats /2.1 /EWM- subject-4.csv","legacy","Melodramatic Milgram","4.0.5","0","s","NA","NA","s","s","s","127.0","NA","NA","1071","132","127","2","legacy","1024","2","48000","-16","experiment","SSSSS","4","even","3313","132110","NA","NA","NA","130970","130466","2124","132154","NA","2233","131977","132257","132385","132153","132257","FlankerTask.3","40","16167.0","81","1024"
"48","48","198","198","#3d3846","legacy","legacy","legacy","incongruent","0","undefined","0","h","0","0","0","81","0","81","81","0","81","0","0","0","81","81","81","81","Wed Sep 20 17:49:35 2023","600","The main experiment item","True","ewm FlankerTask3.edited .osexp","/Users/izzymcgibbon/Desktop/College/Tarleton State /2023 /Fall /Stats /2.1 ","False","mono","False","18","no","white","no","yes","768","legacy","1","79","/Users/izzymcgibbon/Desktop/College/Tarleton State /2023 /Fall /Stats /2.1 /EWM- subject-4.csv","legacy","Melodramatic Milgram","4.0.5","0","s","NA","NA","s","s","s","121.0","NA","NA","1071","132","121","2","legacy","1024","2","48000","-16","experiment","SSHSS","4","even","3313","132110","NA","NA","NA","132388","130466","2124","133420","NA","2233","131977","133523","133645","133417","133523","FlankerTask.3","40","16288.0","82","1024"
"49","49","196","196","#3d3846","legacy","legacy","legacy","incongruent","1","undefined","1","h","0","0","0","82","0","82","82","0","82","0","0","0","82","82","82","82","Wed Sep 20 17:49:35 2023","600","The main experiment item","True","ewm FlankerTask3.edited .osexp","/Users/izzymcgibbon/Desktop/College/Tarleton State /2023 /Fall /Stats /2.1 ","False","mono","False","18","no","white","no","yes","768","legacy","2","79","/Users/izzymcgibbon/Desktop/College/Tarleton State /2023 /Fall /Stats /2.1 /EWM- subject-4.csv","legacy","Melodramatic Milgram","4.0.5","0","h","NA","NA","s","s","h","6.0","NA","NA","1071","132","6","2","legacy","1024","2","48000","-16","experiment","SSHSS","4","even","3313","132110","NA","NA","NA","134153","133648","2124","135191","NA","2233","131977","135293","135300","135186","135293","FlankerTask.3","41","16294.0","83","1024"
"48","48","195","195","#3d3846","legacy","legacy","legacy","congruent","0","undefined","0","s","0","0","0","83","0","83","83","0","83","0","0","0","83","83","83","83","Wed Sep 20 17:49:35 2023","600","The main experiment item","True","ewm FlankerTask3.edited .osexp","/Users/izzymcgibbon/Desktop/College/Tarleton State /2023 /Fall /Stats /2.1 ","False","mono","False","18","no","white","no","yes","768","legacy","3","79","/Users/izzymcgibbon/Desktop/College/Tarleton State /2023 /Fall /Stats /2.1 /EWM- subject-4.csv","legacy","Melodramatic Milgram","4.0.5","0","h","NA","NA","s","s","h","115.0","NA","NA","1071","132","115","2","legacy","1024","2","48000","-16","experiment","SSSSS","4","even","3313","132110","NA","NA","NA","135304","133648","2124","136347","NA","2233","131977","136450","136566","136343","136450","FlankerTask.3","41","16409.0","84","1024"
"48","48","193","193","#3d3846","legacy","legacy","legacy","incongruent","0","undefined","0","h","0","0","0","84","0","84","84","0","84","0","0","0","84","84","84","84","Wed Sep 20 17:49:35 2023","600","The main experiment item","True","ewm FlankerTask3.edited .osexp","/Users/izzymcgibbon/Desktop/College/Tarleton State /2023 /Fall /Stats /2.1 ","False","mono","False","18","no","white","no","yes","768","legacy","4","79","/Users/izzymcgibbon/Desktop/College/Tarleton State /2023 /Fall /Stats /2.1 /EWM- subject-4.csv","legacy","Melodramatic Milgram","4.0.5","0","s","NA","NA","s","s","s","3.0","NA","NA","1071","132","3","2","legacy","1024","2","48000","-16","experiment","SSHSS","4","even","3313","132110","NA","NA","NA","137073","136569","2124","138117","NA","2233","131977","138220","138224","138112","138220","FlankerTask.3","41","16412.0","85","1024"
"47","47","191","191","#3d3846","legacy","legacy","legacy","incongruent","0","undefined","0","h","0","0","0","85","0","85","85","0","85","0","0","0","85","85","85","85","Wed Sep 20 17:49:35 2023","600","The main experiment item","True","ewm FlankerTask3.edited .osexp","/Users/izzymcgibbon/Desktop/College/Tarleton State /2023 /Fall /Stats /2.1 ","False","mono","False","18","no","white","no","yes","768","legacy","5","79","/Users/izzymcgibbon/Desktop/College/Tarleton State /2023 /Fall /Stats /2.1 /EWM- subject-4.csv","legacy","Melodramatic Milgram","4.0.5","0","s","NA","NA","s","s","s","14.0","NA","NA","1071","132","14","2","legacy","1024","2","48000","-16","experiment","SSHSS","4","even","3313","132110","NA","NA","NA","138732","138228","2124","139774","NA","2233","131977","139877","139893","139770","139877","FlankerTask.3","41","16426.0","86","1024"
"47","47","190","190","#3d3846","legacy","legacy","legacy","incongruent","0","undefined","0","h","0","0","0","86","0","86","86","0","86","0","0","0","86","86","86","86","Wed Sep 20 17:49:35 2023","600","The main experiment item","True","ewm FlankerTask3.edited .osexp","/Users/izzymcgibbon/Desktop/College/Tarleton State /2023 /Fall /Stats /2.1 ","False","mono","False","18","no","white","no","yes","768","legacy","6","79","/Users/izzymcgibbon/Desktop/College/Tarleton State /2023 /Fall /Stats /2.1 /EWM- subject-4.csv","legacy","Melodramatic Milgram","4.0.5","0","s","NA","NA","s","s","s","108.0","NA","NA","1071","132","108","2","legacy","1024","2","48000","-16","experiment","SSHSS","4","even","3313","132110","NA","NA","NA","140399","139895","2124","141449","NA","2233","131977","141553","141662","141445","141553","FlankerTask.3","41","16534.0","87","1024"
"47","47","188","188","#3d3846","legacy","legacy","legacy","incongruent","1","undefined","1","h","0","0","0","87","0","87","87","0","87","0","0","0","87","87","87","87","Wed Sep 20 17:49:35 2023","600","The main experiment item","True","ewm FlankerTask3.edited .osexp","/Users/izzymcgibbon/Desktop/College/Tarleton State /2023 /Fall /Stats /2.1 ","False","mono","False","18","no","white","no","yes","768","legacy","7","79","/Users/izzymcgibbon/Desktop/College/Tarleton State /2023 /Fall /Stats /2.1 /EWM- subject-4.csv","legacy","Melodramatic Milgram","4.0.5","0","h","NA","NA","s","s","h","33.0","NA","NA","1071","132","33","2","legacy","1024","2","48000","-16","experiment","HHHHH","4","even","3313","132110","NA","NA","NA","142169","141665","2124","143204","NA","2233","131977","143307","143341","143199","143307","FlankerTask.3","42","16567.0","88","1024"
"48","48","186","186","#3d3846","legacy","legacy","legacy","congruent","1","undefined","1","s","0","0","0","88","0","88","88","0","88","0","0","0","88","88","88","88","Wed Sep 20 17:49:35 2023","600","The main experiment item","True","ewm FlankerTask3.edited .osexp","/Users/izzymcgibbon/Desktop/College/Tarleton State /2023 /Fall /Stats /2.1 ","False","mono","False","18","no","white","no","yes","768","legacy","8","79","/Users/izzymcgibbon/Desktop/College/Tarleton State /2023 /Fall /Stats /2.1 /EWM- subject-4.csv","legacy","Melodramatic Milgram","4.0.5","0","s","NA","NA","s","s","s","13.0","NA","NA","1071","132","13","2","legacy","1024","2","48000","-16","experiment","HHSHH","4","even","3313","132110","NA","NA","NA","143344","141665","2124","144381","NA","2233","131977","144483","144497","144377","144483","FlankerTask.3","43","16580.0","89","1024"
"48","48","184","184","#3d3846","legacy","legacy","legacy","incongruent","1","undefined","1","h","0","0","0","89","0","89","89","0","89","0","0","0","89","89","89","89","Wed Sep 20 17:49:35 2023","600","The main experiment item","True","ewm FlankerTask3.edited .osexp","/Users/izzymcgibbon/Desktop/College/Tarleton State /2023 /Fall /Stats /2.1 ","False","mono","False","18","no","white","no","yes","768","legacy","9","79","/Users/izzymcgibbon/Desktop/College/Tarleton State /2023 /Fall /Stats /2.1 /EWM- subject-4.csv","legacy","Melodramatic Milgram","4.0.5","0","h","NA","NA","s","s","h","29.0","NA","NA","1071","132","29","2","legacy","1024","2","48000","-16","experiment","SSHSS","4","even","3313","132110","NA","NA","NA","144500","141665","2124","145543","NA","2233","131977","145646","145676","145538","145645","FlankerTask.3","44","16609.0","90","1024"
"49","49","183","183","#3d3846","legacy","legacy","legacy","incongruent","1","undefined","1","h","0","0","0","90","0","90","90","0","90","0","0","0","90","90","90","90","Wed Sep 20 17:49:35 2023","600","The main experiment item","True","ewm FlankerTask3.edited .osexp","/Users/izzymcgibbon/Desktop/College/Tarleton State /2023 /Fall /Stats /2.1 ","False","mono","False","18","no","white","no","yes","768","legacy","10","79","/Users/izzymcgibbon/Desktop/College/Tarleton State /2023 /Fall /Stats /2.1 /EWM- subject-4.csv","legacy","Melodramatic Milgram","4.0.5","0","h","NA","NA","s","s","h","74.0","NA","NA","1071","132","74","2","legacy","1024","2","48000","-16","experiment","HHHHH","4","even","3313","132110","NA","NA","NA","145679","141665","2124","146722","NA","2233","131977","146824","146899","146718","146824","FlankerTask.3","45","16683.0","91","1024"
"50","50","182","182","#3d3846","legacy","legacy","legacy","congruent","1","undefined","1","s","0","0","0","91","0","91","91","0","91","0","0","0","91","91","91","91","Wed Sep 20 17:49:35 2023","600","The main experiment item","True","ewm FlankerTask3.edited .osexp","/Users/izzymcgibbon/Desktop/College/Tarleton State /2023 /Fall /Stats /2.1 ","False","mono","False","18","no","white","no","yes","768","legacy","11","79","/Users/izzymcgibbon/Desktop/College/Tarleton State /2023 /Fall /Stats /2.1 /EWM- subject-4.csv","legacy","Melodramatic Milgram","4.0.5","0","s","NA","NA","s","s","s","85.0","NA","NA","1071","132","85","2","legacy","1024","2","48000","-16","experiment","HHSHH","4","even","3313","132110","NA","NA","NA","146902","141665","2124","147945","NA","2233","131977","148048","148134","147941","148048","FlankerTask.3","46","16768.0","92","1024"
"50","50","180","180","#3d3846","legacy","legacy","legacy","congruent","1","undefined","1","s","0","0","0","92","0","92","92","0","92","0","0","0","92","92","92","92","Wed Sep 20 17:49:35 2023","600","The main experiment item","True","ewm FlankerTask3.edited .osexp","/Users/izzymcgibbon/Desktop/College/Tarleton State /2023 /Fall /Stats /2.1 ","False","mono","False","18","no","white","no","yes","768","legacy","12","79","/Users/izzymcgibbon/Desktop/College/Tarleton State /2023 /Fall /Stats /2.1 /EWM- subject-4.csv","legacy","Melodramatic Milgram","4.0.5","0","s","NA","NA","s","s","s","33.0","NA","NA","1071","132","33","2","legacy","1024","2","48000","-16","experiment","HHSHH","4","even","3313","132110","NA","NA","NA","148136","141665","2124","149179","NA","2233","131977","149282","149316","149175","149281","FlankerTask.3","47","16801.0","93","1024"
"51","51","182","182","#3d3846","legacy","legacy","legacy","congruent","1","undefined","1","s","0","0","0","93","0","93","93","0","93","0","0","0","93","93","93","93","Wed Sep 20 17:49:35 2023","600","The main experiment item","True","ewm FlankerTask3.edited .osexp","/Users/izzymcgibbon/Desktop/College/Tarleton State /2023 /Fall /Stats /2.1 ","False","mono","False","18","no","white","no","yes","768","legacy","13","79","/Users/izzymcgibbon/Desktop/College/Tarleton State /2023 /Fall /Stats /2.1 /EWM- subject-4.csv","legacy","Melodramatic Milgram","4.0.5","0","s","NA","NA","s","s","s","357.0","NA","NA","1071","132","357","2","legacy","1024","2","48000","-16","experiment","SSSSS","4","even","3313","132110","NA","NA","NA","149319","141665","2124","150363","NA","2233","131977","150467","150825","150359","150466","FlankerTask.3","48","17158.0","94","1024"
"50","50","182","182","#3d3846","legacy","legacy","legacy","congruent","0","undefined","0","s","0","0","0","94","0","94","94","0","94","0","0","0","94","94","94","94","Wed Sep 20 17:49:35 2023","600","The main experiment item","True","ewm FlankerTask3.edited .osexp","/Users/izzymcgibbon/Desktop/College/Tarleton State /2023 /Fall /Stats /2.1 ","False","mono","False","18","no","white","no","yes","768","legacy","14","79","/Users/izzymcgibbon/Desktop/College/Tarleton State /2023 /Fall /Stats /2.1 /EWM- subject-4.csv","legacy","Melodramatic Milgram","4.0.5","0","h","NA","NA","s","s","h","178.0","NA","NA","1071","132","178","2","legacy","1024","2","48000","-16","experiment","SSSSS","4","even","3313","132110","NA","NA","NA","150828","141665","2124","151877","NA","2233","131977","151980","152159","151874","151980","FlankerTask.3","48","17336.0","95","1024"
"51","51","181","181","#3d3846","legacy","legacy","legacy","congruent","1","undefined","1","s","0","0","0","95","0","95","95","0","95","0","0","0","95","95","95","95","Wed Sep 20 17:49:35 2023","600","The main experiment item","True","ewm FlankerTask3.edited .osexp","/Users/izzymcgibbon/Desktop/College/Tarleton State /2023 /Fall /Stats /2.1 ","False","mono","False","18","no","white","no","yes","768","legacy","15","79","/Users/izzymcgibbon/Desktop/College/Tarleton State /2023 /Fall /Stats /2.1 /EWM- subject-4.csv","legacy","Melodramatic Milgram","4.0.5","0","s","NA","NA","s","s","s","40.0","NA","NA","1071","132","40","2","legacy","1024","2","48000","-16","experiment","SSSSS","4","even","3313","132110","NA","NA","NA","152666","152162","2124","153701","NA","2233","131977","153803","153844","153697","153803","FlankerTask.3","49","17376.0","96","1024"
"51","51","179","179","#3d3846","legacy","legacy","legacy","congruent","1","undefined","1","s","0","0","0","96","0","96","96","0","96","0","0","0","96","96","96","96","Wed Sep 20 17:49:35 2023","600","The main experiment item","True","ewm FlankerTask3.edited .osexp","/Users/izzymcgibbon/Desktop/College/Tarleton State /2023 /Fall /Stats /2.1 ","False","mono","False","18","no","white","no","yes","768","legacy","16","79","/Users/izzymcgibbon/Desktop/College/Tarleton State /2023 /Fall /Stats /2.1 /EWM- subject-4.csv","legacy","Melodramatic Milgram","4.0.5","0","s","NA","NA","s","s","s","43.0","NA","NA","1071","132","43","2","legacy","1024","2","48000","-16","experiment","SSSSS","4","even","3313","132110","NA","NA","NA","153847","152162","2124","154884","NA","2233","131977","154986","155030","154881","154986","FlankerTask.3","50","17419.0","97","1024"
"51","51","177","177","#3d3846","legacy","legacy","legacy","incongruent","0","undefined","0","h","0","0","0","97","0","97","97","0","97","0","0","0","97","97","97","97","Wed Sep 20 17:49:35 2023","600","The main experiment item","True","ewm FlankerTask3.edited .osexp","/Users/izzymcgibbon/Desktop/College/Tarleton State /2023 /Fall /Stats /2.1 ","False","mono","False","18","no","white","no","yes","768","legacy","17","79","/Users/izzymcgibbon/Desktop/College/Tarleton State /2023 /Fall /Stats /2.1 /EWM- subject-4.csv","legacy","Melodramatic Milgram","4.0.5","0","s","NA","NA","s","s","s","22.0","NA","NA","1071","132","22","2","legacy","1024","2","48000","-16","experiment","HHHHH","4","even","3313","132110","NA","NA","NA","155033","152162","2124","156075","NA","2233","131977","156179","156202","156072","156179","FlankerTask.3","50","17441.0","98","1024"
"50","50","177","177","#3d3846","legacy","legacy","legacy","congruent","0","undefined","0","s","0","0","0","98","0","98","98","0","98","0","0","0","98","98","98","98","Wed Sep 20 17:49:35 2023","600","The main experiment item","True","ewm FlankerTask3.edited .osexp","/Users/izzymcgibbon/Desktop/College/Tarleton State /2023 /Fall /Stats /2.1 ","False","mono","False","18","no","white","no","yes","768","legacy","18","79","/Users/izzymcgibbon/Desktop/College/Tarleton State /2023 /Fall /Stats /2.1 /EWM- subject-4.csv","legacy","Melodramatic Milgram","4.0.5","0","h","NA","NA","s","s","h","128.0","NA","NA","1071","132","128","2","legacy","1024","2","48000","-16","experiment","HHSHH","4","even","3313","132110","NA","NA","NA","156709","156206","2124","157754","NA","2233","131977","157857","157987","157749","157857","FlankerTask.3","50","17569.0","99","1024"
"50","50","176","176","#3d3846","legacy","legacy","legacy","congruent","0","undefined","0","s","0","0","0","99","0","99","99","0","99","0","0","0","99","99","99","99","Wed Sep 20 17:49:35 2023","600","The main experiment item","True","ewm FlankerTask3.edited .osexp","/Users/izzymcgibbon/Desktop/College/Tarleton State /2023 /Fall /Stats /2.1 ","False","mono","False","18","no","white","no","yes","768","legacy","19","79","/Users/izzymcgibbon/Desktop/College/Tarleton State /2023 /Fall /Stats /2.1 /EWM- subject-4.csv","legacy","Melodramatic Milgram","4.0.5","0","h","NA","NA","s","s","h","55.0","NA","NA","1071","132","55","2","legacy","1024","2","48000","-16","experiment","SSSSS","4","even","3313","132110","NA","NA","NA","158494","157990","2124","159535","NA","2233","131977","159637","159693","159532","159637","FlankerTask.3","50","17624.0","100","1024"
"49","49","176","176","#3d3846","legacy","legacy","legacy","congruent","0","undefined","0","s","0","0","0","100","0","100","100","0","100","0","0","0","100","100","100","100","Wed Sep 20 17:49:35 2023","600","The main experiment item","True","ewm FlankerTask3.edited .osexp","/Users/izzymcgibbon/Desktop/College/Tarleton State /2023 /Fall /Stats /2.1 ","False","mono","False","18","no","white","no","yes","768","legacy","20","79","/Users/izzymcgibbon/Desktop/College/Tarleton State /2023 /Fall /Stats /2.1 /EWM- subject-4.csv","legacy","Melodramatic Milgram","4.0.5","0","h","NA","NA","s","s","h","177.0","NA","NA","1071","132","177","2","legacy","1024","2","48000","-16","experiment","SSSSS","4","even","3313","132110","NA","NA","NA","160199","159695","2124","161241","NA","2233","131977","161344","161522","161237","161344","FlankerTask.3","50","17801.0","101","1024"
"49","49","175","175","#3d3846","legacy","legacy","legacy","congruent","0","undefined","0","s","0","0","0","101","0","101","101","0","101","0","0","0","101","101","101","101","Wed Sep 20 17:49:35 2023","600","The main experiment item","True","ewm FlankerTask3.edited .osexp","/Users/izzymcgibbon/Desktop/College/Tarleton State /2023 /Fall /Stats /2.1 ","False","mono","False","18","no","white","no","yes","768","legacy","21","79","/Users/izzymcgibbon/Desktop/College/Tarleton State /2023 /Fall /Stats /2.1 /EWM- subject-4.csv","legacy","Melodramatic Milgram","4.0.5","0","h","NA","NA","s","s","h","73.0","NA","NA","1071","132","73","2","legacy","1024","2","48000","-16","experiment","HHSHH","4","even","3313","132110","NA","NA","NA","162029","161525","2124","163077","NA","2233","131977","163180","163254","163073","163179","FlankerTask.3","50","17874.0","102","1024"
"48","48","174","174","#3d3846","legacy","legacy","legacy","incongruent","0","undefined","0","h","0","0","0","102","0","102","102","0","102","0","0","0","102","102","102","102","Wed Sep 20 17:49:35 2023","600","The main experiment item","True","ewm FlankerTask3.edited .osexp","/Users/izzymcgibbon/Desktop/College/Tarleton State /2023 /Fall /Stats /2.1 ","False","mono","False","18","no","white","no","yes","768","legacy","22","79","/Users/izzymcgibbon/Desktop/College/Tarleton State /2023 /Fall /Stats /2.1 /EWM- subject-4.csv","legacy","Melodramatic Milgram","4.0.5","0","s","NA","NA","s","s","s","134.0","NA","NA","1071","132","134","2","legacy","1024","2","48000","-16","experiment","SSHSS","4","even","3313","132110","NA","NA","NA","163761","163257","2124","164796","NA","2233","131977","164899","165035","164792","164899","FlankerTask.3","50","18008.0","103","1024"
"49","49","174","174","#3d3846","legacy","legacy","legacy","congruent","1","undefined","1","s","0","0","0","103","0","103","103","0","103","0","0","0","103","103","103","103","Wed Sep 20 17:49:35 2023","600","The main experiment item","True","ewm FlankerTask3.edited .osexp","/Users/izzymcgibbon/Desktop/College/Tarleton State /2023 /Fall /Stats /2.1 ","False","mono","False","18","no","white","no","yes","768","legacy","23","79","/Users/izzymcgibbon/Desktop/College/Tarleton State /2023 /Fall /Stats /2.1 /EWM- subject-4.csv","legacy","Melodramatic Milgram","4.0.5","0","s","NA","NA","s","s","s","187.0","NA","NA","1071","132","187","2","legacy","1024","2","48000","-16","experiment","SSSSS","4","even","3313","132110","NA","NA","NA","165541","165037","2124","166579","NA","2233","131977","166682","166871","166575","166682","FlankerTask.3","51","18195.0","104","1024"
"49","49","174","174","#3d3846","legacy","legacy","legacy","incongruent","1","undefined","1","h","0","0","0","104","0","104","104","0","104","0","0","0","104","104","104","104","Wed Sep 20 17:49:35 2023","600","The main experiment item","True","ewm FlankerTask3.edited .osexp","/Users/izzymcgibbon/Desktop/College/Tarleton State /2023 /Fall /Stats /2.1 ","False","mono","False","18","no","white","no","yes","768","legacy","24","79","/Users/izzymcgibbon/Desktop/College/Tarleton State /2023 /Fall /Stats /2.1 /EWM- subject-4.csv","legacy","Melodramatic Milgram","4.0.5","0","h","NA","NA","s","s","h","91.0","NA","NA","1071","132","91","2","legacy","1024","2","48000","-16","experiment","HHHHH","4","even","3313","132110","NA","NA","NA","166874","165037","2124","167916","NA","2233","131977","168018","168111","167913","168018","FlankerTask.3","52","18286.0","105","1024"
"49","49","172","172","#3d3846","legacy","legacy","legacy","incongruent","0","undefined","0","h","0","0","0","105","0","105","105","0","105","0","0","0","105","105","105","105","Wed Sep 20 17:49:35 2023","600","The main experiment item","True","ewm FlankerTask3.edited .osexp","/Users/izzymcgibbon/Desktop/College/Tarleton State /2023 /Fall /Stats /2.1 ","False","mono","False","18","no","white","no","yes","768","legacy","25","79","/Users/izzymcgibbon/Desktop/College/Tarleton State /2023 /Fall /Stats /2.1 /EWM- subject-4.csv","legacy","Melodramatic Milgram","4.0.5","0","s","NA","NA","s","s","s","5.0","NA","NA","1071","132","5","2","legacy","1024","2","48000","-16","experiment","SSHSS","4","even","3313","132110","NA","NA","NA","168114","165037","2124","169157","NA","2233","131977","169259","169265","169152","169259","FlankerTask.3","52","18291.0","106","1024"
"49","49","172","172","#3d3846","legacy","legacy","legacy","incongruent","1","undefined","1","h","0","0","0","106","0","106","106","0","106","0","0","0","106","106","106","106","Wed Sep 20 17:49:35 2023","600","The main experiment item","True","ewm FlankerTask3.edited .osexp","/Users/izzymcgibbon/Desktop/College/Tarleton State /2023 /Fall /Stats /2.1 ","False","mono","False","18","no","white","no","yes","768","legacy","26","79","/Users/izzymcgibbon/Desktop/College/Tarleton State /2023 /Fall /Stats /2.1 /EWM- subject-4.csv","legacy","Melodramatic Milgram","4.0.5","0","h","NA","NA","s","s","h","161.0","NA","NA","1071","132","161","2","legacy","1024","2","48000","-16","experiment","SSHSS","4","even","3313","132110","NA","NA","NA","169773","169269","2124","170816","NA","2233","131977","170919","171081","170812","170919","FlankerTask.3","53","18452.0","107","1024"
"50","50","172","172","#3d3846","legacy","legacy","legacy","congruent","1","undefined","1","s","0","0","0","107","0","107","107","0","107","0","0","0","107","107","107","107","Wed Sep 20 17:49:35 2023","600","The main experiment item","True","ewm FlankerTask3.edited .osexp","/Users/izzymcgibbon/Desktop/College/Tarleton State /2023 /Fall /Stats /2.1 ","False","mono","False","18","no","white","no","yes","768","legacy","27","79","/Users/izzymcgibbon/Desktop/College/Tarleton State /2023 /Fall /Stats /2.1 /EWM- subject-4.csv","legacy","Melodramatic Milgram","4.0.5","0","s","NA","NA","s","s","s","204.0","NA","NA","1071","132","204","2","legacy","1024","2","48000","-16","experiment","HHSHH","4","even","3313","132110","NA","NA","NA","171085","169269","2124","172127","NA","2233","131977","172230","172435","172123","172230","FlankerTask.3","54","18656.0","108","1024"
"50","50","172","172","#3d3846","legacy","legacy","legacy","incongruent","1","undefined","1","h","0","0","0","108","0","108","108","0","108","0","0","0","108","108","108","108","Wed Sep 20 17:49:35 2023","600","The main experiment item","True","ewm FlankerTask3.edited .osexp","/Users/izzymcgibbon/Desktop/College/Tarleton State /2023 /Fall /Stats /2.1 ","False","mono","False","18","no","white","no","yes","768","legacy","28","79","/Users/izzymcgibbon/Desktop/College/Tarleton State /2023 /Fall /Stats /2.1 /EWM- subject-4.csv","legacy","Melodramatic Milgram","4.0.5","0","h","NA","NA","s","s","h","109.0","NA","NA","1071","132","109","2","legacy","1024","2","48000","-16","experiment","SSHSS","4","even","3313","132110","NA","NA","NA","172438","169269","2124","173486","NA","2233","131977","173589","173699","173482","173589","FlankerTask.3","55","18765.0","109","1024"
"50","50","171","171","#3d3846","legacy","legacy","legacy","incongruent","1","undefined","1","h","0","0","0","109","0","109","109","0","109","0","0","0","109","109","109","109","Wed Sep 20 17:49:35 2023","600","The main experiment item","True","ewm FlankerTask3.edited .osexp","/Users/izzymcgibbon/Desktop/College/Tarleton State /2023 /Fall /Stats /2.1 ","False","mono","False","18","no","white","no","yes","768","legacy","29","79","/Users/izzymcgibbon/Desktop/College/Tarleton State /2023 /Fall /Stats /2.1 /EWM- subject-4.csv","legacy","Melodramatic Milgram","4.0.5","0","h","NA","NA","s","s","h","77.0","NA","NA","1071","132","77","2","legacy","1024","2","48000","-16","experiment","SSHSS","4","even","3313","132110","NA","NA","NA","173702","169269","2124","174737","NA","2233","131977","174839","174917","174733","174839","FlankerTask.3","56","18842.0","110","1024"
"51","51","170","170","#3d3846","legacy","legacy","legacy","incongruent","1","undefined","1","h","0","0","0","110","0","110","110","0","110","0","0","0","110","110","110","110","Wed Sep 20 17:49:35 2023","600","The main experiment item","True","ewm FlankerTask3.edited .osexp","/Users/izzymcgibbon/Desktop/College/Tarleton State /2023 /Fall /Stats /2.1 ","False","mono","False","18","no","white","no","yes","768","legacy","30","79","/Users/izzymcgibbon/Desktop/College/Tarleton State /2023 /Fall /Stats /2.1 /EWM- subject-4.csv","legacy","Melodramatic Milgram","4.0.5","0","h","NA","NA","s","s","h","122.0","NA","NA","1071","132","122","2","legacy","1024","2","48000","-16","experiment","HHHHH","4","even","3313","132110","NA","NA","NA","174920","169269","2124","175959","NA","2233","131977","176061","176184","175954","176061","FlankerTask.3","57","18964.0","111","1024"
"51","51","170","170","#3d3846","legacy","legacy","legacy","incongruent","1","undefined","1","h","0","0","0","111","0","111","111","0","111","0","0","0","111","111","111","111","Wed Sep 20 17:49:35 2023","600","The main experiment item","True","ewm FlankerTask3.edited .osexp","/Users/izzymcgibbon/Desktop/College/Tarleton State /2023 /Fall /Stats /2.1 ","False","mono","False","18","no","white","no","yes","768","legacy","31","79","/Users/izzymcgibbon/Desktop/College/Tarleton State /2023 /Fall /Stats /2.1 /EWM- subject-4.csv","legacy","Melodramatic Milgram","4.0.5","0","h","NA","NA","s","s","h","128.0","NA","NA","1071","132","128","2","legacy","1024","2","48000","-16","experiment","HHHHH","4","even","3313","132110","NA","NA","NA","176187","169269","2124","177230","NA","2233","131977","177333","177462","177226","177333","FlankerTask.3","58","19092.0","112","1024"
"52","52","170","170","#3d3846","legacy","legacy","legacy","congruent","1","undefined","1","s","0","0","0","112","0","112","112","0","112","0","0","0","112","112","112","112","Wed Sep 20 17:49:35 2023","600","The main experiment item","True","ewm FlankerTask3.edited .osexp","/Users/izzymcgibbon/Desktop/College/Tarleton State /2023 /Fall /Stats /2.1 ","False","mono","False","18","no","white","no","yes","768","legacy","32","79","/Users/izzymcgibbon/Desktop/College/Tarleton State /2023 /Fall /Stats /2.1 /EWM- subject-4.csv","legacy","Melodramatic Milgram","4.0.5","0","s","NA","NA","s","s","s","223.0","NA","NA","1071","132","223","2","legacy","1024","2","48000","-16","experiment","SSSSS","4","even","3313","132110","NA","NA","NA","177465","169269","2124","178506","NA","2233","131977","178609","178833","178501","178609","FlankerTask.3","59","19315.0","113","1024"
"51","51","169","169","#3d3846","legacy","legacy","legacy","incongruent","0","undefined","0","h","0","0","0","113","0","113","113","0","113","0","0","0","113","113","113","113","Wed Sep 20 17:49:35 2023","600","The main experiment item","True","ewm FlankerTask3.edited .osexp","/Users/izzymcgibbon/Desktop/College/Tarleton State /2023 /Fall /Stats /2.1 ","False","mono","False","18","no","white","no","yes","768","legacy","33","79","/Users/izzymcgibbon/Desktop/College/Tarleton State /2023 /Fall /Stats /2.1 /EWM- subject-4.csv","legacy","Melodramatic Milgram","4.0.5","0","s","NA","NA","s","s","s","48.0","NA","NA","1071","132","48","2","legacy","1024","2","48000","-16","experiment","HHHHH","4","even","3313","132110","NA","NA","NA","178836","169269","2124","179879","NA","2233","131977","179983","180032","179875","179982","FlankerTask.3","59","19363.0","114","1024"
"52","52","168","168","#3d3846","legacy","legacy","legacy","incongruent","1","undefined","1","h","0","0","0","114","0","114","114","0","114","0","0","0","114","114","114","114","Wed Sep 20 17:49:35 2023","600","The main experiment item","True","ewm FlankerTask3.edited .osexp","/Users/izzymcgibbon/Desktop/College/Tarleton State /2023 /Fall /Stats /2.1 ","False","mono","False","18","no","white","no","yes","768","legacy","34","79","/Users/izzymcgibbon/Desktop/College/Tarleton State /2023 /Fall /Stats /2.1 /EWM- subject-4.csv","legacy","Melodramatic Milgram","4.0.5","0","h","NA","NA","s","s","h","0.0","NA","NA","1071","132","0","2","legacy","1024","2","48000","-16","experiment","HHHHH","4","even","3313","132110","NA","NA","NA","180539","180035","2124","181582","NA","2233","131977","181685","181687","181578","181684","FlankerTask.3","60","19363.0","115","1024"
