acc,accuracy,average_response_time,avg_rt,background,canvas_backend,clock_backend,color_backend,compensation,condition,coordinates,correct,correct_instructions1,correct_keyboard_response,correct_response,count_ISI,count_block1,count_block2,count_block3,count_errorfeedback,count_experiment,count_faster,count_finish,count_fixation,count_instructions1,count_instructions2,count_instructions3,count_keyboard_response,count_logger,count_sequence,count_stimulus,datetime,deadline,description,disable_garbage_collection,experiment_file,experiment_path,font_bold,font_family,font_italic,font_size,font_underline,foreground,form_clicks,fullscreen,height,keyboard_backend,live_row,live_row_block1,logfile,mouse_backend,opensesame_codename,opensesame_version,repeat_cycle,response,response_finish,response_instructions1,response_instructions2,response_instructions3,response_keyboard_response,response_time,response_time_finish,response_time_instructions1,response_time_instructions2,response_time_instructions3,response_time_keyboard_response,round_decimals,sampler_backend,sound_buf_size,sound_channels,sound_freq,sound_sample_size,start,stimulus,subject_nr,subject_parity,time_ISI,time_block1,time_block2,time_block3,time_errorfeedback,time_experiment,time_faster,time_finish,time_fixation,time_instructions1,time_instructions2,time_instructions3,time_keyboard_response,time_logger,time_sequence,time_stimulus,title,total_correct,total_response_time,total_responses,uniform_coordinates,width
100,100,511,511,black,legacy,legacy,legacy,0,congruent,uniform,1,undefined,1,s,0,0,0,0,0,0,0,0,0,0,0,0,0,0,0,0,9/26/19 13:08,1500,The main experiment item,yes,FlankertaskSL.osexp,C:/Users/Sarah Linan/Desktop,no,mono,no,18,no,white,no,yes,768,legacy,0,0,C:/Users/Sarah Linan/Desktop/SL-subject-1.csv,legacy,Kafkaesque Koffka,3.2.8,0,s,NA,s,NA,NA,s,511,NA,2226,NA,NA,511,2,legacy,1024,2,48000,-16,experiment,SSSSS,1,odd,NA,4173,NA,NA,NA,1940,NA,NA,4286,1946,NA,NA,4388,4899,4283,4388,Flanker task SL,1,511,1,yes,1024
100,100,597.5,597.5,black,legacy,legacy,legacy,0,incongruent,uniform,1,undefined,1,h,1,0,0,0,1,0,1,0,1,0,0,0,1,1,1,1,9/26/19 13:08,1500,The main experiment item,yes,FlankertaskSL.osexp,C:/Users/Sarah Linan/Desktop,no,mono,no,18,no,white,no,yes,768,legacy,1,1,C:/Users/Sarah Linan/Desktop/SL-subject-1.csv,legacy,Kafkaesque Koffka,3.2.8,0,h,NA,s,NA,NA,h,684,NA,2226,NA,NA,684,2,legacy,1024,2,48000,-16,experiment,SSHSS,1,odd,5013,4173,NA,NA,NA,1940,NA,NA,6101,1946,NA,NA,6203,6888,6098,6203,Flanker task SL,2,1195,2,yes,1024
100,100,582,582,black,legacy,legacy,legacy,0,incongruent ,uniform,1,undefined,1,s,2,0,0,0,2,0,2,0,2,0,0,0,2,2,2,2,9/26/19 13:08,1500,The main experiment item,yes,FlankertaskSL.osexp,C:/Users/Sarah Linan/Desktop,no,mono,no,18,no,white,no,yes,768,legacy,2,2,C:/Users/Sarah Linan/Desktop/SL-subject-1.csv,legacy,Kafkaesque Koffka,3.2.8,0,s,NA,s,NA,NA,s,551,NA,2226,NA,NA,551,2,legacy,1024,2,48000,-16,experiment,HHSHH,1,odd,6980,4173,NA,NA,NA,1940,NA,NA,8091,1946,NA,NA,8194,8746,8088,8194,Flanker task SL,3,1746,3,yes,1024
100,100,567.25,567.25,black,legacy,legacy,legacy,0,incongruent ,uniform,1,undefined,1,s,3,0,0,0,3,0,3,0,3,0,0,0,3,3,3,3,9/26/19 13:08,1500,The main experiment item,yes,FlankertaskSL.osexp,C:/Users/Sarah Linan/Desktop,no,mono,no,18,no,white,no,yes,768,legacy,3,3,C:/Users/Sarah Linan/Desktop/SL-subject-1.csv,legacy,Kafkaesque Koffka,3.2.8,0,s,NA,s,NA,NA,s,523,NA,2226,NA,NA,523,2,legacy,1024,2,48000,-16,experiment,HHSHH,1,odd,8833,4173,NA,NA,NA,1940,NA,NA,9922,1946,NA,NA,10025,10548,9920,10025,Flanker task SL,4,2269,4,yes,1024
100,100,535.2,535.2,black,legacy,legacy,legacy,0,congruent,uniform,1,undefined,1,h,4,0,0,0,4,0,4,0,4,0,0,0,4,4,4,4,9/26/19 13:08,1500,The main experiment item,yes,FlankertaskSL.osexp,C:/Users/Sarah Linan/Desktop,no,mono,no,18,no,white,no,yes,768,legacy,4,4,C:/Users/Sarah Linan/Desktop/SL-subject-1.csv,legacy,Kafkaesque Koffka,3.2.8,0,h,NA,s,NA,NA,h,407,NA,2226,NA,NA,407,2,legacy,1024,2,48000,-16,experiment,HHHHH,1,odd,10632,4173,NA,NA,NA,1940,NA,NA,11737,1946,NA,NA,11839,12247,11734,11839,Flanker task SL,5,2676,5,yes,1024
100,100,526.8333333,526.8333333,black,legacy,legacy,legacy,0,incongruent ,uniform,1,undefined,1,s,5,0,0,0,5,0,5,0,5,0,0,0,5,5,5,5,9/26/19 13:08,1500,The main experiment item,yes,FlankertaskSL.osexp,C:/Users/Sarah Linan/Desktop,no,mono,no,18,no,white,no,yes,768,legacy,5,5,C:/Users/Sarah Linan/Desktop/SL-subject-1.csv,legacy,Kafkaesque Koffka,3.2.8,0,s,NA,s,NA,NA,s,485,NA,2226,NA,NA,485,2,legacy,1024,2,48000,-16,experiment,HHSHH,1,odd,12329,4173,NA,NA,NA,1940,NA,NA,13448,1946,NA,NA,13550,14036,13445,13550,Flanker task SL,6,3161,6,yes,1024
100,100,510.8571429,510.8571429,black,legacy,legacy,legacy,0,congruent,uniform,1,undefined,1,s,6,0,0,0,6,0,6,0,6,0,0,0,6,6,6,6,9/26/19 13:08,1500,The main experiment item,yes,FlankertaskSL.osexp,C:/Users/Sarah Linan/Desktop,no,mono,no,18,no,white,no,yes,768,legacy,6,6,C:/Users/Sarah Linan/Desktop/SL-subject-1.csv,legacy,Kafkaesque Koffka,3.2.8,0,s,NA,s,NA,NA,s,415,NA,2226,NA,NA,415,2,legacy,1024,2,48000,-16,experiment,SSSSS,1,odd,14124,4173,NA,NA,NA,1940,NA,NA,15217,1946,NA,NA,15319,15735,15214,15319,Flanker task SL,7,3576,7,yes,1024
100,100,509.75,509.75,black,legacy,legacy,legacy,0,congruent,uniform,1,undefined,1,h,7,0,0,0,7,0,7,0,7,0,0,0,7,7,7,7,9/26/19 13:08,1500,The main experiment item,yes,FlankertaskSL.osexp,C:/Users/Sarah Linan/Desktop,no,mono,no,18,no,white,no,yes,768,legacy,7,7,C:/Users/Sarah Linan/Desktop/SL-subject-1.csv,legacy,Kafkaesque Koffka,3.2.8,0,h,NA,s,NA,NA,h,502,NA,2226,NA,NA,502,2,legacy,1024,2,48000,-16,experiment,HHHHH,1,odd,15825,4173,NA,NA,NA,1940,NA,NA,16923,1946,NA,NA,17025,17528,16920,17025,Flanker task SL,8,4078,8,yes,1024
100,100,511.4444444,511.4444444,black,legacy,legacy,legacy,0,congruent,uniform,1,undefined,1,s,8,0,0,0,8,0,8,0,8,0,0,0,8,8,8,8,9/26/19 13:08,1500,The main experiment item,yes,FlankertaskSL.osexp,C:/Users/Sarah Linan/Desktop,no,mono,no,18,no,white,no,yes,768,legacy,8,8,C:/Users/Sarah Linan/Desktop/SL-subject-1.csv,legacy,Kafkaesque Koffka,3.2.8,0,s,NA,s,NA,NA,s,525,NA,2226,NA,NA,525,2,legacy,1024,2,48000,-16,experiment,SSSSS,1,odd,17610,4173,NA,NA,NA,1940,NA,NA,18704,1946,NA,NA,18806,19332,18701,18806,Flanker task SL,9,4603,9,yes,1024
100,100,511.8,511.8,black,legacy,legacy,legacy,0,incongruent,uniform,1,undefined,1,h,9,0,0,0,9,0,9,0,9,0,0,0,9,9,9,9,9/26/19 13:08,1500,The main experiment item,yes,FlankertaskSL.osexp,C:/Users/Sarah Linan/Desktop,no,mono,no,18,no,white,no,yes,768,legacy,9,9,C:/Users/Sarah Linan/Desktop/SL-subject-1.csv,legacy,Kafkaesque Koffka,3.2.8,0,h,NA,s,NA,NA,h,515,NA,2226,NA,NA,515,2,legacy,1024,2,48000,-16,experiment,SSHSS,1,odd,19382,4173,NA,NA,NA,1940,NA,NA,20468,1946,NA,NA,20570,21086,20465,20570,Flanker task SL,10,5118,10,yes,1024
100,100,517.7272727,517.7272727,black,legacy,legacy,legacy,0,incongruent,uniform,1,undefined,1,h,10,0,0,0,10,0,10,0,10,0,0,0,10,10,10,10,9/26/19 13:08,1500,The main experiment item,yes,FlankertaskSL.osexp,C:/Users/Sarah Linan/Desktop,no,mono,no,18,no,white,no,yes,768,legacy,10,10,C:/Users/Sarah Linan/Desktop/SL-subject-1.csv,legacy,Kafkaesque Koffka,3.2.8,0,h,NA,s,NA,NA,h,577,NA,2226,NA,NA,577,2,legacy,1024,2,48000,-16,experiment,SSHSS,1,odd,21171,4173,NA,NA,NA,1940,NA,NA,22270,1946,NA,NA,22372,22950,22267,22372,Flanker task SL,11,5695,11,yes,1024
100,100,518.6666667,518.6666667,black,legacy,legacy,legacy,0,incongruent,uniform,1,undefined,1,h,11,0,0,0,11,0,11,0,11,0,0,0,11,11,11,11,9/26/19 13:08,1500,The main experiment item,yes,FlankertaskSL.osexp,C:/Users/Sarah Linan/Desktop,no,mono,no,18,no,white,no,yes,768,legacy,11,11,C:/Users/Sarah Linan/Desktop/SL-subject-1.csv,legacy,Kafkaesque Koffka,3.2.8,0,h,NA,s,NA,NA,h,529,NA,2226,NA,NA,529,2,legacy,1024,2,48000,-16,experiment,SSHSS,1,odd,23036,4173,NA,NA,NA,1940,NA,NA,24130,1946,NA,NA,24232,24761,24127,24232,Flanker task SL,12,6224,12,yes,1024
100,100,517.8461538,517.8461538,black,legacy,legacy,legacy,0,incongruent,uniform,1,undefined,1,h,12,0,0,0,12,0,12,0,12,0,0,0,12,12,12,12,9/26/19 13:08,1500,The main experiment item,yes,FlankertaskSL.osexp,C:/Users/Sarah Linan/Desktop,no,mono,no,18,no,white,no,yes,768,legacy,12,12,C:/Users/Sarah Linan/Desktop/SL-subject-1.csv,legacy,Kafkaesque Koffka,3.2.8,0,h,NA,s,NA,NA,h,508,NA,2226,NA,NA,508,2,legacy,1024,2,48000,-16,experiment,SSHSS,1,odd,24845,4173,NA,NA,NA,1940,NA,NA,25950,1946,NA,NA,26052,26560,25947,26052,Flanker task SL,13,6732,13,yes,1024
100,100,519.1428571,519.1428571,black,legacy,legacy,legacy,0,congruent,uniform,1,undefined,1,h,13,0,0,0,13,0,13,0,13,0,0,0,13,13,13,13,9/26/19 13:08,1500,The main experiment item,yes,FlankertaskSL.osexp,C:/Users/Sarah Linan/Desktop,no,mono,no,18,no,white,no,yes,768,legacy,13,13,C:/Users/Sarah Linan/Desktop/SL-subject-1.csv,legacy,Kafkaesque Koffka,3.2.8,0,h,NA,s,NA,NA,h,536,NA,2226,NA,NA,536,2,legacy,1024,2,48000,-16,experiment,HHHHH,1,odd,26643,4173,NA,NA,NA,1940,NA,NA,27737,1946,NA,NA,27840,28376,27735,27840,Flanker task SL,14,7268,14,yes,1024
100,100,523.6,523.6,black,legacy,legacy,legacy,0,incongruent,uniform,1,undefined,1,h,14,0,0,0,14,0,14,0,14,0,0,0,14,14,14,14,9/26/19 13:08,1500,The main experiment item,yes,FlankertaskSL.osexp,C:/Users/Sarah Linan/Desktop,no,mono,no,18,no,white,no,yes,768,legacy,14,14,C:/Users/Sarah Linan/Desktop/SL-subject-1.csv,legacy,Kafkaesque Koffka,3.2.8,0,h,NA,s,NA,NA,h,586,NA,2226,NA,NA,586,2,legacy,1024,2,48000,-16,experiment,SSHSS,1,odd,28461,4173,NA,NA,NA,1940,NA,NA,29559,1946,NA,NA,29661,30248,29556,29661,Flanker task SL,15,7854,15,yes,1024
100,100,516.9375,516.9375,black,legacy,legacy,legacy,0,incongruent ,uniform,1,undefined,1,s,15,0,0,0,15,0,15,0,15,0,0,0,15,15,15,15,9/26/19 13:08,1500,The main experiment item,yes,FlankertaskSL.osexp,C:/Users/Sarah Linan/Desktop,no,mono,no,18,no,white,no,yes,768,legacy,15,15,C:/Users/Sarah Linan/Desktop/SL-subject-1.csv,legacy,Kafkaesque Koffka,3.2.8,0,s,NA,s,NA,NA,s,417,NA,2226,NA,NA,417,2,legacy,1024,2,48000,-16,experiment,HHSHH,1,odd,30337,4173,NA,NA,NA,1940,NA,NA,31433,1946,NA,NA,31535,31953,31430,31535,Flanker task SL,16,8271,16,yes,1024
100,100,510,510,black,legacy,legacy,legacy,0,incongruent,uniform,1,undefined,1,h,16,0,0,0,16,0,16,0,16,0,0,0,16,16,16,16,9/26/19 13:08,1500,The main experiment item,yes,FlankertaskSL.osexp,C:/Users/Sarah Linan/Desktop,no,mono,no,18,no,white,no,yes,768,legacy,16,16,C:/Users/Sarah Linan/Desktop/SL-subject-1.csv,legacy,Kafkaesque Koffka,3.2.8,0,h,NA,s,NA,NA,h,399,NA,2226,NA,NA,399,2,legacy,1024,2,48000,-16,experiment,SSHSS,1,odd,32045,4173,NA,NA,NA,1940,NA,NA,33149,1946,NA,NA,33251,33651,33146,33251,Flanker task SL,17,8670,17,yes,1024
94.44444444,94.44444444,500.3888889,500.3888889,black,legacy,legacy,legacy,0,incongruent,uniform,0,undefined,0,h,17,0,0,0,17,0,17,0,17,0,0,0,17,17,17,17,9/26/19 13:08,1500,The main experiment item,yes,FlankertaskSL.osexp,C:/Users/Sarah Linan/Desktop,no,mono,no,18,no,white,no,yes,768,legacy,17,17,C:/Users/Sarah Linan/Desktop/SL-subject-1.csv,legacy,Kafkaesque Koffka,3.2.8,0,s,NA,s,NA,NA,s,337,NA,2226,NA,NA,337,2,legacy,1024,2,48000,-16,experiment,SSHSS,1,odd,33742,4173,NA,NA,NA,1940,NA,NA,34839,1946,NA,NA,34941,35279,34836,34941,Flanker task SL,17,9007,18,yes,1024
94.73684211,94.73684211,500.6315789,500.6315789,black,legacy,legacy,legacy,0,incongruent,uniform,1,undefined,1,h,18,0,0,0,18,0,18,0,18,0,0,0,18,18,18,18,9/26/19 13:08,1500,The main experiment item,yes,FlankertaskSL.osexp,C:/Users/Sarah Linan/Desktop,no,mono,no,18,no,white,no,yes,768,legacy,18,18,C:/Users/Sarah Linan/Desktop/SL-subject-1.csv,legacy,Kafkaesque Koffka,3.2.8,0,h,NA,s,NA,NA,h,505,NA,2226,NA,NA,505,2,legacy,1024,2,48000,-16,experiment,SSHSS,1,odd,35820,4173,NA,NA,35318,1940,NA,NA,36912,1946,NA,NA,37016,37521,36909,37016,Flanker task SL,18,9512,19,yes,1024
95,95,507.55,507.55,black,legacy,legacy,legacy,0,incongruent ,uniform,1,undefined,1,s,19,0,0,0,19,0,19,0,19,0,0,0,19,19,19,19,9/26/19 13:08,1500,The main experiment item,yes,FlankertaskSL.osexp,C:/Users/Sarah Linan/Desktop,no,mono,no,18,no,white,no,yes,768,legacy,19,19,C:/Users/Sarah Linan/Desktop/SL-subject-1.csv,legacy,Kafkaesque Koffka,3.2.8,0,s,NA,s,NA,NA,s,639,NA,2226,NA,NA,639,2,legacy,1024,2,48000,-16,experiment,HHSHH,1,odd,37604,4173,NA,NA,35318,1940,NA,NA,38713,1946,NA,NA,38815,39454,38710,38815,Flanker task SL,19,10151,20,yes,1024
95.23809524,95.23809524,507.2857143,507.2857143,black,legacy,legacy,legacy,0,congruent,uniform,1,undefined,1,h,20,0,0,0,20,0,20,0,20,0,0,0,20,20,20,20,9/26/19 13:08,1500,The main experiment item,yes,FlankertaskSL.osexp,C:/Users/Sarah Linan/Desktop,no,mono,no,18,no,white,no,yes,768,legacy,20,20,C:/Users/Sarah Linan/Desktop/SL-subject-1.csv,legacy,Kafkaesque Koffka,3.2.8,0,h,NA,s,NA,NA,h,502,NA,2226,NA,NA,502,2,legacy,1024,2,48000,-16,experiment,HHHHH,1,odd,39545,4173,NA,NA,35318,1940,NA,NA,40637,1946,NA,NA,40739,41242,40634,40739,Flanker task SL,20,10653,21,yes,1024
95.45454545,95.45454545,506.0454545,506.0454545,black,legacy,legacy,legacy,0,congruent,uniform,1,undefined,1,s,21,0,0,0,21,0,21,0,21,0,0,0,21,21,21,21,9/26/19 13:08,1500,The main experiment item,yes,FlankertaskSL.osexp,C:/Users/Sarah Linan/Desktop,no,mono,no,18,no,white,no,yes,768,legacy,21,21,C:/Users/Sarah Linan/Desktop/SL-subject-1.csv,legacy,Kafkaesque Koffka,3.2.8,0,s,NA,s,NA,NA,s,480,NA,2226,NA,NA,480,2,legacy,1024,2,48000,-16,experiment,SSSSS,1,odd,41332,4173,NA,NA,35318,1940,NA,NA,42428,1946,NA,NA,42530,43011,42425,42530,Flanker task SL,21,11133,22,yes,1024
95.65217391,95.65217391,513.5652174,513.5652174,black,legacy,legacy,legacy,0,congruent,uniform,1,undefined,1,s,22,0,0,0,22,0,22,0,22,0,0,0,22,22,22,22,9/26/19 13:08,1500,The main experiment item,yes,FlankertaskSL.osexp,C:/Users/Sarah Linan/Desktop,no,mono,no,18,no,white,no,yes,768,legacy,22,22,C:/Users/Sarah Linan/Desktop/SL-subject-1.csv,legacy,Kafkaesque Koffka,3.2.8,0,s,NA,s,NA,NA,s,679,NA,2226,NA,NA,679,2,legacy,1024,2,48000,-16,experiment,SSSSS,1,odd,43038,4173,NA,NA,35318,1940,NA,NA,44130,1946,NA,NA,44232,44912,44127,44232,Flanker task SL,22,11812,23,yes,1024
95.83333333,95.83333333,517.0833333,517.0833333,black,legacy,legacy,legacy,0,incongruent ,uniform,1,undefined,1,s,23,0,0,0,23,0,23,0,23,0,0,0,23,23,23,23,9/26/19 13:08,1500,The main experiment item,yes,FlankertaskSL.osexp,C:/Users/Sarah Linan/Desktop,no,mono,no,18,no,white,no,yes,768,legacy,23,23,C:/Users/Sarah Linan/Desktop/SL-subject-1.csv,legacy,Kafkaesque Koffka,3.2.8,0,s,NA,s,NA,NA,s,598,NA,2226,NA,NA,598,2,legacy,1024,2,48000,-16,experiment,HHSHH,1,odd,45004,4173,NA,NA,35318,1940,NA,NA,46112,1946,NA,NA,46214,46813,46109,46214,Flanker task SL,23,12410,24,yes,1024
96,96,517.08,517.08,black,legacy,legacy,legacy,0,incongruent ,uniform,1,undefined,1,s,24,0,0,0,24,0,24,0,24,0,0,0,24,24,24,24,9/26/19 13:08,1500,The main experiment item,yes,FlankertaskSL.osexp,C:/Users/Sarah Linan/Desktop,no,mono,no,18,no,white,no,yes,768,legacy,24,24,C:/Users/Sarah Linan/Desktop/SL-subject-1.csv,legacy,Kafkaesque Koffka,3.2.8,0,s,NA,s,NA,NA,s,517,NA,2226,NA,NA,517,2,legacy,1024,2,48000,-16,experiment,HHSHH,1,odd,46845,4173,NA,NA,35318,1940,NA,NA,47931,1946,NA,NA,48033,48551,47928,48033,Flanker task SL,24,12927,25,yes,1024
96.15384615,96.15384615,516.5,516.5,black,legacy,legacy,legacy,0,congruent,uniform,1,undefined,1,h,25,0,0,0,25,0,25,0,25,0,0,0,25,25,25,25,9/26/19 13:08,1500,The main experiment item,yes,FlankertaskSL.osexp,C:/Users/Sarah Linan/Desktop,no,mono,no,18,no,white,no,yes,768,legacy,25,25,C:/Users/Sarah Linan/Desktop/SL-subject-1.csv,legacy,Kafkaesque Koffka,3.2.8,0,h,NA,s,NA,NA,h,502,NA,2226,NA,NA,502,2,legacy,1024,2,48000,-16,experiment,HHHHH,1,odd,48643,4173,NA,NA,35318,1940,NA,NA,49745,1946,NA,NA,49847,50349,49742,49847,Flanker task SL,25,13429,26,yes,1024
96.2962963,96.2962963,516.5185185,516.5185185,black,legacy,legacy,legacy,0,congruent,uniform,1,undefined,1,s,26,0,0,0,26,0,26,0,26,0,0,0,26,26,26,26,9/26/19 13:08,1500,The main experiment item,yes,FlankertaskSL.osexp,C:/Users/Sarah Linan/Desktop,no,mono,no,18,no,white,no,yes,768,legacy,26,26,C:/Users/Sarah Linan/Desktop/SL-subject-1.csv,legacy,Kafkaesque Koffka,3.2.8,0,s,NA,s,NA,NA,s,517,NA,2226,NA,NA,517,2,legacy,1024,2,48000,-16,experiment,SSSSS,1,odd,50441,4173,NA,NA,35318,1940,NA,NA,51539,1946,NA,NA,51641,52158,51536,51641,Flanker task SL,26,13946,27,yes,1024
96.42857143,96.42857143,518.5,518.5,black,legacy,legacy,legacy,0,congruent,uniform,1,undefined,1,s,27,0,0,0,27,0,27,0,27,0,0,0,27,27,27,27,9/26/19 13:08,1500,The main experiment item,yes,FlankertaskSL.osexp,C:/Users/Sarah Linan/Desktop,no,mono,no,18,no,white,no,yes,768,legacy,27,27,C:/Users/Sarah Linan/Desktop/SL-subject-1.csv,legacy,Kafkaesque Koffka,3.2.8,0,s,NA,s,NA,NA,s,572,NA,2226,NA,NA,572,2,legacy,1024,2,48000,-16,experiment,SSSSS,1,odd,52194,4173,NA,NA,35318,1940,NA,NA,53290,1946,NA,NA,53392,53965,53287,53392,Flanker task SL,27,14518,28,yes,1024
96.55172414,96.55172414,518.7586207,518.7586207,black,legacy,legacy,legacy,0,congruent,uniform,1,undefined,1,s,28,0,0,0,28,0,28,0,28,0,0,0,28,28,28,28,9/26/19 13:08,1500,The main experiment item,yes,FlankertaskSL.osexp,C:/Users/Sarah Linan/Desktop,no,mono,no,18,no,white,no,yes,768,legacy,28,28,C:/Users/Sarah Linan/Desktop/SL-subject-1.csv,legacy,Kafkaesque Koffka,3.2.8,0,s,NA,s,NA,NA,s,526,NA,2226,NA,NA,526,2,legacy,1024,2,48000,-16,experiment,SSSSS,1,odd,54047,4173,NA,NA,35318,1940,NA,NA,55137,1946,NA,NA,55239,55766,55135,55239,Flanker task SL,28,15044,29,yes,1024
96.66666667,96.66666667,520.6666667,520.6666667,black,legacy,legacy,legacy,0,congruent,uniform,1,undefined,1,s,29,0,0,0,29,0,29,0,29,0,0,0,29,29,29,29,9/26/19 13:08,1500,The main experiment item,yes,FlankertaskSL.osexp,C:/Users/Sarah Linan/Desktop,no,mono,no,18,no,white,no,yes,768,legacy,29,29,C:/Users/Sarah Linan/Desktop/SL-subject-1.csv,legacy,Kafkaesque Koffka,3.2.8,0,s,NA,s,NA,NA,s,576,NA,2226,NA,NA,576,2,legacy,1024,2,48000,-16,experiment,SSSSS,1,odd,55856,4173,NA,NA,35318,1940,NA,NA,56965,1946,NA,NA,57067,57644,56962,57067,Flanker task SL,29,15620,30,yes,1024
96.77419355,96.77419355,523.516129,523.516129,black,legacy,legacy,legacy,0,congruent,uniform,1,undefined,1,h,30,0,0,0,30,0,30,0,30,0,0,0,30,30,30,30,9/26/19 13:08,1500,The main experiment item,yes,FlankertaskSL.osexp,C:/Users/Sarah Linan/Desktop,no,mono,no,18,no,white,no,yes,768,legacy,30,30,C:/Users/Sarah Linan/Desktop/SL-subject-1.csv,legacy,Kafkaesque Koffka,3.2.8,0,h,NA,s,NA,NA,h,609,NA,2226,NA,NA,609,2,legacy,1024,2,48000,-16,experiment,HHHHH,1,odd,57730,4173,NA,NA,35318,1940,NA,NA,58833,1946,NA,NA,58935,59545,58830,58935,Flanker task SL,30,16229,31,yes,1024
96.875,96.875,524.78125,524.78125,black,legacy,legacy,legacy,0,congruent,uniform,1,undefined,1,h,31,0,0,0,31,0,31,0,31,0,0,0,31,31,31,31,9/26/19 13:08,1500,The main experiment item,yes,FlankertaskSL.osexp,C:/Users/Sarah Linan/Desktop,no,mono,no,18,no,white,no,yes,768,legacy,31,31,C:/Users/Sarah Linan/Desktop/SL-subject-1.csv,legacy,Kafkaesque Koffka,3.2.8,0,h,NA,s,NA,NA,h,564,NA,2226,NA,NA,564,2,legacy,1024,2,48000,-16,experiment,HHHHH,1,odd,59629,4173,NA,NA,35318,1940,NA,NA,60725,1946,NA,NA,60828,61392,60723,60828,Flanker task SL,31,16793,32,yes,1024
93.93939394,93.93939394,524.3333333,524.3333333,black,legacy,legacy,legacy,0,incongruent,uniform,0,undefined,0,h,32,0,0,0,32,0,32,0,32,0,0,0,32,32,32,32,9/26/19 13:08,1500,The main experiment item,yes,FlankertaskSL.osexp,C:/Users/Sarah Linan/Desktop,no,mono,no,18,no,white,no,yes,768,legacy,32,32,C:/Users/Sarah Linan/Desktop/SL-subject-1.csv,legacy,Kafkaesque Koffka,3.2.8,0,s,NA,s,NA,NA,s,510,NA,2226,NA,NA,510,2,legacy,1024,2,48000,-16,experiment,SSHSS,1,odd,61481,4173,NA,NA,35318,1940,NA,NA,62572,1946,NA,NA,62674,63184,62568,62674,Flanker task SL,31,17303,33,yes,1024
94.11764706,94.11764706,520.8529412,520.8529412,black,legacy,legacy,legacy,0,congruent,uniform,1,undefined,1,s,33,0,0,0,33,0,33,0,33,0,0,0,33,33,33,33,9/26/19 13:08,1500,The main experiment item,yes,FlankertaskSL.osexp,C:/Users/Sarah Linan/Desktop,no,mono,no,18,no,white,no,yes,768,legacy,33,33,C:/Users/Sarah Linan/Desktop/SL-subject-1.csv,legacy,Kafkaesque Koffka,3.2.8,0,s,NA,s,NA,NA,s,406,NA,2226,NA,NA,406,2,legacy,1024,2,48000,-16,experiment,SSSSS,1,odd,63713,4173,NA,NA,63210,1940,NA,NA,64804,1946,NA,NA,64907,65314,64801,64907,Flanker task SL,32,17709,34,yes,1024
94.28571429,94.28571429,518.5714286,518.5714286,black,legacy,legacy,legacy,0,congruent,uniform,1,undefined,1,s,34,0,0,0,34,0,34,0,34,0,0,0,34,34,34,34,9/26/19 13:08,1500,The main experiment item,yes,FlankertaskSL.osexp,C:/Users/Sarah Linan/Desktop,no,mono,no,18,no,white,no,yes,768,legacy,34,34,C:/Users/Sarah Linan/Desktop/SL-subject-1.csv,legacy,Kafkaesque Koffka,3.2.8,0,s,NA,s,NA,NA,s,441,NA,2226,NA,NA,441,2,legacy,1024,2,48000,-16,experiment,SSSSS,1,odd,65396,4173,NA,NA,63210,1940,NA,NA,66498,1946,NA,NA,66600,67042,66495,66600,Flanker task SL,33,18150,35,yes,1024
94.44444444,94.44444444,522.2777778,522.2777778,black,legacy,legacy,legacy,0,incongruent ,uniform,1,undefined,1,s,35,0,0,0,35,0,35,0,35,0,0,0,35,35,35,35,9/26/19 13:08,1500,The main experiment item,yes,FlankertaskSL.osexp,C:/Users/Sarah Linan/Desktop,no,mono,no,18,no,white,no,yes,768,legacy,35,35,C:/Users/Sarah Linan/Desktop/SL-subject-1.csv,legacy,Kafkaesque Koffka,3.2.8,0,s,NA,s,NA,NA,s,652,NA,2226,NA,NA,652,2,legacy,1024,2,48000,-16,experiment,HHSHH,1,odd,67128,4173,NA,NA,63210,1940,NA,NA,68223,1946,NA,NA,68325,68978,68220,68325,Flanker task SL,34,18802,36,yes,1024
94.59459459,94.59459459,521.7027027,521.7027027,black,legacy,legacy,legacy,0,incongruent ,uniform,1,undefined,1,s,36,0,0,0,36,0,36,0,36,0,0,0,36,36,36,36,9/26/19 13:08,1500,The main experiment item,yes,FlankertaskSL.osexp,C:/Users/Sarah Linan/Desktop,no,mono,no,18,no,white,no,yes,768,legacy,36,36,C:/Users/Sarah Linan/Desktop/SL-subject-1.csv,legacy,Kafkaesque Koffka,3.2.8,0,s,NA,s,NA,NA,s,501,NA,2226,NA,NA,501,2,legacy,1024,2,48000,-16,experiment,HHSHH,1,odd,69070,4173,NA,NA,63210,1940,NA,NA,70172,1946,NA,NA,70274,70776,70169,70274,Flanker task SL,35,19303,37,yes,1024
94.73684211,94.73684211,522,522,black,legacy,legacy,legacy,0,incongruent,uniform,1,undefined,1,h,37,0,0,0,37,0,37,0,37,0,0,0,37,37,37,37,9/26/19 13:08,1500,The main experiment item,yes,FlankertaskSL.osexp,C:/Users/Sarah Linan/Desktop,no,mono,no,18,no,white,no,yes,768,legacy,37,37,C:/Users/Sarah Linan/Desktop/SL-subject-1.csv,legacy,Kafkaesque Koffka,3.2.8,0,h,NA,s,NA,NA,h,533,NA,2226,NA,NA,533,2,legacy,1024,2,48000,-16,experiment,SSHSS,1,odd,70868,4173,NA,NA,63210,1940,NA,NA,71958,1946,NA,NA,72061,72595,71956,72061,Flanker task SL,36,19836,38,yes,1024
94.87179487,94.87179487,522.9230769,522.9230769,black,legacy,legacy,legacy,0,congruent,uniform,1,undefined,1,s,38,0,0,0,38,0,38,0,38,0,0,0,38,38,38,38,9/26/19 13:08,1500,The main experiment item,yes,FlankertaskSL.osexp,C:/Users/Sarah Linan/Desktop,no,mono,no,18,no,white,no,yes,768,legacy,38,38,C:/Users/Sarah Linan/Desktop/SL-subject-1.csv,legacy,Kafkaesque Koffka,3.2.8,0,s,NA,s,NA,NA,s,558,NA,2226,NA,NA,558,2,legacy,1024,2,48000,-16,experiment,SSSSS,1,odd,72686,4173,NA,NA,63210,1940,NA,NA,73787,1946,NA,NA,73889,74448,73784,73889,Flanker task SL,37,20394,39,yes,1024
92.5,92.5,522.6,522.6,black,legacy,legacy,legacy,0,incongruent ,uniform,0,undefined,0,s,39,0,0,0,39,0,39,0,39,0,0,0,39,39,39,39,9/26/19 13:08,1500,The main experiment item,yes,FlankertaskSL.osexp,C:/Users/Sarah Linan/Desktop,no,mono,no,18,no,white,no,yes,768,legacy,39,39,C:/Users/Sarah Linan/Desktop/SL-subject-1.csv,legacy,Kafkaesque Koffka,3.2.8,0,h,NA,s,NA,NA,h,510,NA,2226,NA,NA,510,2,legacy,1024,2,48000,-16,experiment,HHSHH,1,odd,74540,4173,NA,NA,63210,1940,NA,NA,75649,1946,NA,NA,75751,76262,75646,75751,Flanker task SL,37,20904,40,yes,1024
92.68292683,92.68292683,521.3658537,521.3658537,black,legacy,legacy,legacy,0,congruent,uniform,1,undefined,1,h,40,0,0,0,40,0,40,0,40,0,0,0,40,40,40,40,9/26/19 13:08,1500,The main experiment item,yes,FlankertaskSL.osexp,C:/Users/Sarah Linan/Desktop,no,mono,no,18,no,white,no,yes,768,legacy,40,40,C:/Users/Sarah Linan/Desktop/SL-subject-1.csv,legacy,Kafkaesque Koffka,3.2.8,0,h,NA,s,NA,NA,h,472,NA,2226,NA,NA,472,2,legacy,1024,2,48000,-16,experiment,HHHHH,1,odd,76851,4173,NA,NA,76349,1940,NA,NA,77944,1946,NA,NA,78047,78520,77942,78047,Flanker task SL,38,21376,41,yes,1024
92.85714286,92.85714286,521.8809524,521.8809524,black,legacy,legacy,legacy,0,incongruent ,uniform,1,undefined,1,s,41,0,0,0,41,0,41,0,41,0,0,0,41,41,41,41,9/26/19 13:08,1500,The main experiment item,yes,FlankertaskSL.osexp,C:/Users/Sarah Linan/Desktop,no,mono,no,18,no,white,no,yes,768,legacy,41,41,C:/Users/Sarah Linan/Desktop/SL-subject-1.csv,legacy,Kafkaesque Koffka,3.2.8,0,s,NA,s,NA,NA,s,543,NA,2226,NA,NA,543,2,legacy,1024,2,48000,-16,experiment,HHSHH,1,odd,78611,4173,NA,NA,76349,1940,NA,NA,79703,1946,NA,NA,79805,80348,79701,79805,Flanker task SL,39,21919,42,yes,1024
93.02325581,93.02325581,525.0930233,525.0930233,black,legacy,legacy,legacy,0,incongruent,uniform,1,undefined,1,h,42,0,0,0,42,0,42,0,42,0,0,0,42,42,42,42,9/26/19 13:08,1500,The main experiment item,yes,FlankertaskSL.osexp,C:/Users/Sarah Linan/Desktop,no,mono,no,18,no,white,no,yes,768,legacy,42,42,C:/Users/Sarah Linan/Desktop/SL-subject-1.csv,legacy,Kafkaesque Koffka,3.2.8,0,h,NA,s,NA,NA,h,660,NA,2226,NA,NA,660,2,legacy,1024,2,48000,-16,experiment,SSHSS,1,odd,80432,4173,NA,NA,76349,1940,NA,NA,81523,1946,NA,NA,81625,82286,81520,81625,Flanker task SL,40,22579,43,yes,1024
93.18181818,93.18181818,525.3636364,525.3636364,black,legacy,legacy,legacy,0,incongruent ,uniform,1,undefined,1,s,43,0,0,0,43,0,43,0,43,0,0,0,43,43,43,43,9/26/19 13:08,1500,The main experiment item,yes,FlankertaskSL.osexp,C:/Users/Sarah Linan/Desktop,no,mono,no,18,no,white,no,yes,768,legacy,43,43,C:/Users/Sarah Linan/Desktop/SL-subject-1.csv,legacy,Kafkaesque Koffka,3.2.8,0,s,NA,s,NA,NA,s,537,NA,2226,NA,NA,537,2,legacy,1024,2,48000,-16,experiment,HHSHH,1,odd,82373,4173,NA,NA,76349,1940,NA,NA,83498,1946,NA,NA,83600,84138,83494,83600,Flanker task SL,41,23116,44,yes,1024
93.33333333,93.33333333,525.0222222,525.0222222,black,legacy,legacy,legacy,0,congruent,uniform,1,undefined,1,h,44,0,0,0,44,0,44,0,44,0,0,0,44,44,44,44,9/26/19 13:08,1500,The main experiment item,yes,FlankertaskSL.osexp,C:/Users/Sarah Linan/Desktop,no,mono,no,18,no,white,no,yes,768,legacy,44,44,C:/Users/Sarah Linan/Desktop/SL-subject-1.csv,legacy,Kafkaesque Koffka,3.2.8,0,h,NA,s,NA,NA,h,510,NA,2226,NA,NA,510,2,legacy,1024,2,48000,-16,experiment,HHHHH,1,odd,84336,4173,NA,NA,76349,1940,NA,NA,85445,1946,NA,NA,85547,86058,85442,85547,Flanker task SL,42,23626,45,yes,1024
93.47826087,93.47826087,524.7391304,524.7391304,black,legacy,legacy,legacy,0,congruent,uniform,1,undefined,1,h,45,0,0,0,45,0,45,0,45,0,0,0,45,45,45,45,9/26/19 13:08,1500,The main experiment item,yes,FlankertaskSL.osexp,C:/Users/Sarah Linan/Desktop,no,mono,no,18,no,white,no,yes,768,legacy,45,45,C:/Users/Sarah Linan/Desktop/SL-subject-1.csv,legacy,Kafkaesque Koffka,3.2.8,0,h,NA,s,NA,NA,h,512,NA,2226,NA,NA,512,2,legacy,1024,2,48000,-16,experiment,HHHHH,1,odd,86157,4173,NA,NA,76349,1940,NA,NA,87256,1946,NA,NA,87358,87871,87253,87358,Flanker task SL,43,24138,46,yes,1024
93.61702128,93.61702128,524.106383,524.106383,black,legacy,legacy,legacy,0,incongruent ,uniform,1,undefined,1,s,46,0,0,0,46,0,46,0,46,0,0,0,46,46,46,46,9/26/19 13:08,1500,The main experiment item,yes,FlankertaskSL.osexp,C:/Users/Sarah Linan/Desktop,no,mono,no,18,no,white,no,yes,768,legacy,46,46,C:/Users/Sarah Linan/Desktop/SL-subject-1.csv,legacy,Kafkaesque Koffka,3.2.8,0,s,NA,s,NA,NA,s,495,NA,2226,NA,NA,495,2,legacy,1024,2,48000,-16,experiment,HHSHH,1,odd,87906,4173,NA,NA,76349,1940,NA,NA,89019,1946,NA,NA,89121,89617,89016,89121,Flanker task SL,44,24633,47,yes,1024
93.75,93.75,524.2083333,524.2083333,black,legacy,legacy,legacy,0,incongruent,uniform,1,undefined,1,h,47,0,0,0,47,0,47,0,47,0,0,0,47,47,47,47,9/26/19 13:08,1500,The main experiment item,yes,FlankertaskSL.osexp,C:/Users/Sarah Linan/Desktop,no,mono,no,18,no,white,no,yes,768,legacy,47,47,C:/Users/Sarah Linan/Desktop/SL-subject-1.csv,legacy,Kafkaesque Koffka,3.2.8,0,h,NA,s,NA,NA,h,529,NA,2226,NA,NA,529,2,legacy,1024,2,48000,-16,experiment,SSHSS,1,odd,89664,4173,NA,NA,76349,1940,NA,NA,90781,1946,NA,NA,90883,91413,90779,90883,Flanker task SL,45,25162,48,yes,1024
93.87755102,93.87755102,526.4081633,526.4081633,black,legacy,legacy,legacy,0,incongruent,uniform,1,undefined,1,h,48,0,0,0,48,0,48,0,48,0,0,0,48,48,48,48,9/26/19 13:08,1500,The main experiment item,yes,FlankertaskSL.osexp,C:/Users/Sarah Linan/Desktop,no,mono,no,18,no,white,no,yes,768,legacy,48,48,C:/Users/Sarah Linan/Desktop/SL-subject-1.csv,legacy,Kafkaesque Koffka,3.2.8,0,h,NA,s,NA,NA,h,632,NA,2226,NA,NA,632,2,legacy,1024,2,48000,-16,experiment,SSHSS,1,odd,91505,4173,NA,NA,76349,1940,NA,NA,92609,1946,NA,NA,92712,93345,92606,92712,Flanker task SL,46,25794,49,yes,1024
94,94,533.02,533.02,black,legacy,legacy,legacy,0,incongruent ,uniform,1,undefined,1,s,49,0,0,0,49,0,49,0,49,0,0,0,49,49,49,49,9/26/19 13:08,1500,The main experiment item,yes,FlankertaskSL.osexp,C:/Users/Sarah Linan/Desktop,no,mono,no,18,no,white,no,yes,768,legacy,49,49,C:/Users/Sarah Linan/Desktop/SL-subject-1.csv,legacy,Kafkaesque Koffka,3.2.8,0,s,NA,s,NA,NA,s,857,NA,2226,NA,NA,857,2,legacy,1024,2,48000,-16,experiment,HHSHH,1,odd,93435,4173,NA,NA,76349,1940,NA,NA,94527,1946,NA,NA,94629,95487,94524,94629,Flanker task SL,47,26651,50,yes,1024
94.11764706,94.11764706,531.6078431,531.6078431,black,legacy,legacy,legacy,0,incongruent,uniform,1,undefined,1,h,50,0,0,0,50,0,50,0,50,0,0,0,50,50,50,50,9/26/19 13:08,1500,The main experiment item,yes,FlankertaskSL.osexp,C:/Users/Sarah Linan/Desktop,no,mono,no,18,no,white,no,yes,768,legacy,50,50,C:/Users/Sarah Linan/Desktop/SL-subject-1.csv,legacy,Kafkaesque Koffka,3.2.8,0,h,NA,s,NA,NA,h,461,NA,2226,NA,NA,461,2,legacy,1024,2,48000,-16,experiment,SSHSS,1,odd,95574,4173,NA,NA,76349,1940,NA,NA,96667,1946,NA,NA,96769,97231,96664,96769,Flanker task SL,48,27112,51,yes,1024
94.23076923,94.23076923,531.7692308,531.7692308,black,legacy,legacy,legacy,0,congruent,uniform,1,undefined,1,s,51,0,0,0,51,0,51,0,51,0,0,0,51,51,51,51,9/26/19 13:08,1500,The main experiment item,yes,FlankertaskSL.osexp,C:/Users/Sarah Linan/Desktop,no,mono,no,18,no,white,no,yes,768,legacy,51,51,C:/Users/Sarah Linan/Desktop/SL-subject-1.csv,legacy,Kafkaesque Koffka,3.2.8,0,s,NA,s,NA,NA,s,540,NA,2226,NA,NA,540,2,legacy,1024,2,48000,-16,experiment,SSSSS,1,odd,97319,4173,NA,NA,76349,1940,NA,NA,98410,1946,NA,NA,98512,99053,98407,98512,Flanker task SL,49,27652,52,yes,1024
94.33962264,94.33962264,532.5849057,532.5849057,black,legacy,legacy,legacy,0,incongruent ,uniform,1,undefined,1,s,52,0,0,0,52,0,52,0,52,0,0,0,52,52,52,52,9/26/19 13:08,1500,The main experiment item,yes,FlankertaskSL.osexp,C:/Users/Sarah Linan/Desktop,no,mono,no,18,no,white,no,yes,768,legacy,52,52,C:/Users/Sarah Linan/Desktop/SL-subject-1.csv,legacy,Kafkaesque Koffka,3.2.8,0,s,NA,s,NA,NA,s,575,NA,2226,NA,NA,575,2,legacy,1024,2,48000,-16,experiment,HHSHH,1,odd,99137,4173,NA,NA,76349,1940,NA,NA,100241,1946,NA,NA,100344,100920,100239,100344,Flanker task SL,50,28227,53,yes,1024
94.44444444,94.44444444,534.2777778,534.2777778,black,legacy,legacy,legacy,0,incongruent,uniform,1,undefined,1,h,53,0,0,0,53,0,53,0,53,0,0,0,53,53,53,53,9/26/19 13:08,1500,The main experiment item,yes,FlankertaskSL.osexp,C:/Users/Sarah Linan/Desktop,no,mono,no,18,no,white,no,yes,768,legacy,53,53,C:/Users/Sarah Linan/Desktop/SL-subject-1.csv,legacy,Kafkaesque Koffka,3.2.8,0,h,NA,s,NA,NA,h,624,NA,2226,NA,NA,624,2,legacy,1024,2,48000,-16,experiment,SSHSS,1,odd,100958,4173,NA,NA,76349,1940,NA,NA,102043,1946,NA,NA,102145,102770,102041,102145,Flanker task SL,51,28851,54,yes,1024
94.54545455,94.54545455,533.9272727,533.9272727,black,legacy,legacy,legacy,0,congruent,uniform,1,undefined,1,h,54,0,0,0,54,0,54,0,54,0,0,0,54,54,54,54,9/26/19 13:08,1500,The main experiment item,yes,FlankertaskSL.osexp,C:/Users/Sarah Linan/Desktop,no,mono,no,18,no,white,no,yes,768,legacy,54,54,C:/Users/Sarah Linan/Desktop/SL-subject-1.csv,legacy,Kafkaesque Koffka,3.2.8,0,h,NA,s,NA,NA,h,515,NA,2226,NA,NA,515,2,legacy,1024,2,48000,-16,experiment,HHHHH,1,odd,102818,4173,NA,NA,76349,1940,NA,NA,103905,1946,NA,NA,104007,104523,103902,104007,Flanker task SL,52,29366,55,yes,1024
94.64285714,94.64285714,532.1607143,532.1607143,black,legacy,legacy,legacy,0,incongruent ,uniform,1,undefined,1,s,55,0,0,0,55,0,55,0,55,0,0,0,55,55,55,55,9/26/19 13:08,1500,The main experiment item,yes,FlankertaskSL.osexp,C:/Users/Sarah Linan/Desktop,no,mono,no,18,no,white,no,yes,768,legacy,55,55,C:/Users/Sarah Linan/Desktop/SL-subject-1.csv,legacy,Kafkaesque Koffka,3.2.8,0,s,NA,s,NA,NA,s,435,NA,2226,NA,NA,435,2,legacy,1024,2,48000,-16,experiment,HHSHH,1,odd,104608,4173,NA,NA,76349,1940,NA,NA,105701,1946,NA,NA,105803,106239,105698,105803,Flanker task SL,53,29801,56,yes,1024
94.73684211,94.73684211,532.9298246,532.9298246,black,legacy,legacy,legacy,0,incongruent,uniform,1,undefined,1,h,56,0,0,0,56,0,56,0,56,0,0,0,56,56,56,56,9/26/19 13:08,1500,The main experiment item,yes,FlankertaskSL.osexp,C:/Users/Sarah Linan/Desktop,no,mono,no,18,no,white,no,yes,768,legacy,56,56,C:/Users/Sarah Linan/Desktop/SL-subject-1.csv,legacy,Kafkaesque Koffka,3.2.8,0,h,NA,s,NA,NA,h,576,NA,2226,NA,NA,576,2,legacy,1024,2,48000,-16,experiment,SSHSS,1,odd,106328,4173,NA,NA,76349,1940,NA,NA,107433,1946,NA,NA,107535,108112,107430,107535,Flanker task SL,54,30377,57,yes,1024
94.82758621,94.82758621,535.9310345,535.9310345,black,legacy,legacy,legacy,0,incongruent ,uniform,1,undefined,1,s,57,0,0,0,57,0,57,0,57,0,0,0,57,57,57,57,9/26/19 13:08,1500,The main experiment item,yes,FlankertaskSL.osexp,C:/Users/Sarah Linan/Desktop,no,mono,no,18,no,white,no,yes,768,legacy,57,57,C:/Users/Sarah Linan/Desktop/SL-subject-1.csv,legacy,Kafkaesque Koffka,3.2.8,0,s,NA,s,NA,NA,s,707,NA,2226,NA,NA,707,2,legacy,1024,2,48000,-16,experiment,HHSHH,1,odd,108204,4173,NA,NA,76349,1940,NA,NA,109312,1946,NA,NA,109414,110122,109309,109414,Flanker task SL,55,31084,58,yes,1024
94.91525424,94.91525424,536.6779661,536.6779661,black,legacy,legacy,legacy,0,congruent,uniform,1,undefined,1,s,58,0,0,0,58,0,58,0,58,0,0,0,58,58,58,58,9/26/19 13:08,1500,The main experiment item,yes,FlankertaskSL.osexp,C:/Users/Sarah Linan/Desktop,no,mono,no,18,no,white,no,yes,768,legacy,58,58,C:/Users/Sarah Linan/Desktop/SL-subject-1.csv,legacy,Kafkaesque Koffka,3.2.8,0,s,NA,s,NA,NA,s,580,NA,2226,NA,NA,580,2,legacy,1024,2,48000,-16,experiment,SSSSS,1,odd,110235,4173,NA,NA,76349,1940,NA,NA,111330,1946,NA,NA,111432,112013,111327,111432,Flanker task SL,56,31664,59,yes,1024
95,95,540.0166667,540.0166667,black,legacy,legacy,legacy,0,incongruent ,uniform,1,undefined,1,s,59,0,0,0,59,0,59,0,59,0,0,0,59,59,59,59,9/26/19 13:08,1500,The main experiment item,yes,FlankertaskSL.osexp,C:/Users/Sarah Linan/Desktop,no,mono,no,18,no,white,no,yes,768,legacy,59,59,C:/Users/Sarah Linan/Desktop/SL-subject-1.csv,legacy,Kafkaesque Koffka,3.2.8,0,s,NA,s,NA,NA,s,737,NA,2226,NA,NA,737,2,legacy,1024,2,48000,-16,experiment,HHSHH,1,odd,112097,4173,NA,NA,76349,1940,NA,NA,113186,1946,NA,NA,113288,114026,113183,113288,Flanker task SL,57,32401,60,yes,1024
95.08196721,95.08196721,540.4098361,540.4098361,black,legacy,legacy,legacy,0,congruent,uniform,1,undefined,1,s,60,0,0,0,60,0,60,0,60,0,0,0,60,60,60,60,9/26/19 13:08,1500,The main experiment item,yes,FlankertaskSL.osexp,C:/Users/Sarah Linan/Desktop,no,mono,no,18,no,white,no,yes,768,legacy,60,60,C:/Users/Sarah Linan/Desktop/SL-subject-1.csv,legacy,Kafkaesque Koffka,3.2.8,0,s,NA,s,NA,NA,s,564,NA,2226,NA,NA,564,2,legacy,1024,2,48000,-16,experiment,SSSSS,1,odd,114116,4173,NA,NA,76349,1940,NA,NA,115207,1946,NA,NA,115309,115874,115204,115309,Flanker task SL,58,32965,61,yes,1024
95.16129032,95.16129032,540.516129,540.516129,black,legacy,legacy,legacy,0,congruent,uniform,1,undefined,1,h,61,0,0,0,61,0,61,0,61,0,0,0,61,61,61,61,9/26/19 13:08,1500,The main experiment item,yes,FlankertaskSL.osexp,C:/Users/Sarah Linan/Desktop,no,mono,no,18,no,white,no,yes,768,legacy,61,61,C:/Users/Sarah Linan/Desktop/SL-subject-1.csv,legacy,Kafkaesque Koffka,3.2.8,0,h,NA,s,NA,NA,h,547,NA,2226,NA,NA,547,2,legacy,1024,2,48000,-16,experiment,HHHHH,1,odd,115959,4173,NA,NA,76349,1940,NA,NA,117057,1946,NA,NA,117159,117707,117054,117159,Flanker task SL,59,33512,62,yes,1024
95.23809524,95.23809524,541.7936508,541.7936508,black,legacy,legacy,legacy,0,congruent,uniform,1,undefined,1,s,62,0,0,0,62,0,62,0,62,0,0,0,62,62,62,62,9/26/19 13:08,1500,The main experiment item,yes,FlankertaskSL.osexp,C:/Users/Sarah Linan/Desktop,no,mono,no,18,no,white,no,yes,768,legacy,62,62,C:/Users/Sarah Linan/Desktop/SL-subject-1.csv,legacy,Kafkaesque Koffka,3.2.8,0,s,NA,s,NA,NA,s,621,NA,2226,NA,NA,621,2,legacy,1024,2,48000,-16,experiment,SSSSS,1,odd,117789,4173,NA,NA,76349,1940,NA,NA,118885,1946,NA,NA,118987,119609,118882,118987,Flanker task SL,60,34133,63,yes,1024
95.3125,95.3125,541.859375,541.859375,black,legacy,legacy,legacy,0,incongruent,uniform,1,undefined,1,h,63,0,0,0,63,0,63,0,63,0,0,0,63,63,63,63,9/26/19 13:08,1500,The main experiment item,yes,FlankertaskSL.osexp,C:/Users/Sarah Linan/Desktop,no,mono,no,18,no,white,no,yes,768,legacy,63,63,C:/Users/Sarah Linan/Desktop/SL-subject-1.csv,legacy,Kafkaesque Koffka,3.2.8,0,h,NA,s,NA,NA,h,546,NA,2226,NA,NA,546,2,legacy,1024,2,48000,-16,experiment,SSHSS,1,odd,119698,4173,NA,NA,76349,1940,NA,NA,120806,1946,NA,NA,120908,121455,120803,120908,Flanker task SL,61,34679,64,yes,1024
95.38461538,95.38461538,542.3846154,542.3846154,black,legacy,legacy,legacy,0,incongruent,uniform,1,undefined,1,h,64,0,0,0,64,0,64,0,64,0,0,0,64,64,64,64,9/26/19 13:08,1500,The main experiment item,yes,FlankertaskSL.osexp,C:/Users/Sarah Linan/Desktop,no,mono,no,18,no,white,no,yes,768,legacy,64,64,C:/Users/Sarah Linan/Desktop/SL-subject-1.csv,legacy,Kafkaesque Koffka,3.2.8,0,h,NA,s,NA,NA,h,576,NA,2226,NA,NA,576,2,legacy,1024,2,48000,-16,experiment,SSHSS,1,odd,121539,4173,NA,NA,76349,1940,NA,NA,122629,1946,NA,NA,122731,123308,122626,122731,Flanker task SL,62,35255,65,yes,1024
95.45454545,95.45454545,544.4545455,544.4545455,black,legacy,legacy,legacy,0,congruent,uniform,1,undefined,1,s,65,0,0,0,65,0,65,0,65,0,0,0,65,65,65,65,9/26/19 13:08,1500,The main experiment item,yes,FlankertaskSL.osexp,C:/Users/Sarah Linan/Desktop,no,mono,no,18,no,white,no,yes,768,legacy,65,65,C:/Users/Sarah Linan/Desktop/SL-subject-1.csv,legacy,Kafkaesque Koffka,3.2.8,0,s,NA,s,NA,NA,s,679,NA,2226,NA,NA,679,2,legacy,1024,2,48000,-16,experiment,SSSSS,1,odd,123393,4173,NA,NA,76349,1940,NA,NA,124496,1946,NA,NA,124598,125278,124493,124598,Flanker task SL,63,35934,66,yes,1024
95.52238806,95.52238806,544.1492537,544.1492537,black,legacy,legacy,legacy,0,congruent,uniform,1,undefined,1,h,66,0,0,0,66,0,66,0,66,0,0,0,66,66,66,66,9/26/19 13:08,1500,The main experiment item,yes,FlankertaskSL.osexp,C:/Users/Sarah Linan/Desktop,no,mono,no,18,no,white,no,yes,768,legacy,66,66,C:/Users/Sarah Linan/Desktop/SL-subject-1.csv,legacy,Kafkaesque Koffka,3.2.8,0,h,NA,s,NA,NA,h,524,NA,2226,NA,NA,524,2,legacy,1024,2,48000,-16,experiment,HHHHH,1,odd,125367,4173,NA,NA,76349,1940,NA,NA,126467,1946,NA,NA,126569,127094,126464,126569,Flanker task SL,64,36458,67,yes,1024
95.58823529,95.58823529,544.1470588,544.1470588,black,legacy,legacy,legacy,0,congruent,uniform,1,undefined,1,h,67,0,0,0,67,0,67,0,67,0,0,0,67,67,67,67,9/26/19 13:08,1500,The main experiment item,yes,FlankertaskSL.osexp,C:/Users/Sarah Linan/Desktop,no,mono,no,18,no,white,no,yes,768,legacy,67,67,C:/Users/Sarah Linan/Desktop/SL-subject-1.csv,legacy,Kafkaesque Koffka,3.2.8,0,h,NA,s,NA,NA,h,544,NA,2226,NA,NA,544,2,legacy,1024,2,48000,-16,experiment,HHHHH,1,odd,127176,4173,NA,NA,76349,1940,NA,NA,128272,1946,NA,NA,128374,128919,128269,128374,Flanker task SL,65,37002,68,yes,1024
95.65217391,95.65217391,544.2173913,544.2173913,black,legacy,legacy,legacy,0,incongruent,uniform,1,undefined,1,h,68,0,0,0,68,0,68,0,68,0,0,0,68,68,68,68,9/26/19 13:08,1500,The main experiment item,yes,FlankertaskSL.osexp,C:/Users/Sarah Linan/Desktop,no,mono,no,18,no,white,no,yes,768,legacy,68,68,C:/Users/Sarah Linan/Desktop/SL-subject-1.csv,legacy,Kafkaesque Koffka,3.2.8,0,h,NA,s,NA,NA,h,549,NA,2226,NA,NA,549,2,legacy,1024,2,48000,-16,experiment,SSHSS,1,odd,129007,4173,NA,NA,76349,1940,NA,NA,130107,1946,NA,NA,130209,130760,130104,130209,Flanker task SL,66,37551,69,yes,1024
95.71428571,95.71428571,543.4714286,543.4714286,black,legacy,legacy,legacy,0,congruent,uniform,1,undefined,1,h,69,0,0,0,69,0,69,0,69,0,0,0,69,69,69,69,9/26/19 13:08,1500,The main experiment item,yes,FlankertaskSL.osexp,C:/Users/Sarah Linan/Desktop,no,mono,no,18,no,white,no,yes,768,legacy,69,69,C:/Users/Sarah Linan/Desktop/SL-subject-1.csv,legacy,Kafkaesque Koffka,3.2.8,0,h,NA,s,NA,NA,h,492,NA,2226,NA,NA,492,2,legacy,1024,2,48000,-16,experiment,HHHHH,1,odd,130848,4173,NA,NA,76349,1940,NA,NA,131945,1946,NA,NA,132047,132540,131943,132047,Flanker task SL,67,38043,70,yes,1024
95.77464789,95.77464789,543.056338,543.056338,black,legacy,legacy,legacy,0,congruent,uniform,1,undefined,1,h,70,0,0,0,70,0,70,0,70,0,0,0,70,70,70,70,9/26/19 13:08,1500,The main experiment item,yes,FlankertaskSL.osexp,C:/Users/Sarah Linan/Desktop,no,mono,no,18,no,white,no,yes,768,legacy,70,70,C:/Users/Sarah Linan/Desktop/SL-subject-1.csv,legacy,Kafkaesque Koffka,3.2.8,0,h,NA,s,NA,NA,h,514,NA,2226,NA,NA,514,2,legacy,1024,2,48000,-16,experiment,HHHHH,1,odd,132623,4173,NA,NA,76349,1940,NA,NA,133713,1946,NA,NA,133815,134330,133710,133815,Flanker task SL,68,38557,71,yes,1024
95.83333333,95.83333333,541.5138889,541.5138889,black,legacy,legacy,legacy,0,congruent,uniform,1,undefined,1,h,71,0,0,0,71,0,71,0,71,0,0,0,71,71,71,71,9/26/19 13:08,1500,The main experiment item,yes,FlankertaskSL.osexp,C:/Users/Sarah Linan/Desktop,no,mono,no,18,no,white,no,yes,768,legacy,71,71,C:/Users/Sarah Linan/Desktop/SL-subject-1.csv,legacy,Kafkaesque Koffka,3.2.8,0,h,NA,s,NA,NA,h,432,NA,2226,NA,NA,432,2,legacy,1024,2,48000,-16,experiment,HHHHH,1,odd,134421,4173,NA,NA,76349,1940,NA,NA,135514,1946,NA,NA,135616,136050,135511,135616,Flanker task SL,69,38989,72,yes,1024
95.89041096,95.89041096,541.6849315,541.6849315,black,legacy,legacy,legacy,0,congruent,uniform,1,undefined,1,s,72,0,0,0,72,0,72,0,72,0,0,0,72,72,72,72,9/26/19 13:08,1500,The main experiment item,yes,FlankertaskSL.osexp,C:/Users/Sarah Linan/Desktop,no,mono,no,18,no,white,no,yes,768,legacy,72,72,C:/Users/Sarah Linan/Desktop/SL-subject-1.csv,legacy,Kafkaesque Koffka,3.2.8,0,s,NA,s,NA,NA,s,554,NA,2226,NA,NA,554,2,legacy,1024,2,48000,-16,experiment,SSSSS,1,odd,136094,4173,NA,NA,76349,1940,NA,NA,137190,1946,NA,NA,137292,137847,137187,137292,Flanker task SL,70,39543,73,yes,1024
95.94594595,95.94594595,541,541,black,legacy,legacy,legacy,0,congruent,uniform,1,undefined,1,h,73,0,0,0,73,0,73,0,73,0,0,0,73,73,73,73,9/26/19 13:08,1500,The main experiment item,yes,FlankertaskSL.osexp,C:/Users/Sarah Linan/Desktop,no,mono,no,18,no,white,no,yes,768,legacy,73,73,C:/Users/Sarah Linan/Desktop/SL-subject-1.csv,legacy,Kafkaesque Koffka,3.2.8,0,h,NA,s,NA,NA,h,491,NA,2226,NA,NA,491,2,legacy,1024,2,48000,-16,experiment,HHHHH,1,odd,137939,4173,NA,NA,76349,1940,NA,NA,139046,1946,NA,NA,139148,139640,139043,139148,Flanker task SL,71,40034,74,yes,1024
96,96,544.76,544.76,black,legacy,legacy,legacy,0,congruent,uniform,1,undefined,1,h,74,0,0,0,74,0,74,0,74,0,0,0,74,74,74,74,9/26/19 13:08,1500,The main experiment item,yes,FlankertaskSL.osexp,C:/Users/Sarah Linan/Desktop,no,mono,no,18,no,white,no,yes,768,legacy,74,74,C:/Users/Sarah Linan/Desktop/SL-subject-1.csv,legacy,Kafkaesque Koffka,3.2.8,0,h,NA,s,NA,NA,h,823,NA,2226,NA,NA,823,2,legacy,1024,2,48000,-16,experiment,HHHHH,1,odd,139726,4173,NA,NA,76349,1940,NA,NA,140833,1946,NA,NA,140935,141759,140830,140935,Flanker task SL,72,40857,75,yes,1024
96.05263158,96.05263158,542.5789474,542.5789474,black,legacy,legacy,legacy,0,congruent,uniform,1,undefined,1,s,75,0,0,0,75,0,75,0,75,0,0,0,75,75,75,75,9/26/19 13:08,1500,The main experiment item,yes,FlankertaskSL.osexp,C:/Users/Sarah Linan/Desktop,no,mono,no,18,no,white,no,yes,768,legacy,75,75,C:/Users/Sarah Linan/Desktop/SL-subject-1.csv,legacy,Kafkaesque Koffka,3.2.8,0,s,NA,s,NA,NA,s,379,NA,2226,NA,NA,379,2,legacy,1024,2,48000,-16,experiment,SSSSS,1,odd,141821,4173,NA,NA,76349,1940,NA,NA,142919,1946,NA,NA,143021,143402,142916,143021,Flanker task SL,73,41236,76,yes,1024
94.80519481,94.80519481,541.7532468,541.7532468,black,legacy,legacy,legacy,0,incongruent ,uniform,0,undefined,0,s,76,0,0,0,76,0,76,0,76,0,0,0,76,76,76,76,9/26/19 13:08,1500,The main experiment item,yes,FlankertaskSL.osexp,C:/Users/Sarah Linan/Desktop,no,mono,no,18,no,white,no,yes,768,legacy,76,76,C:/Users/Sarah Linan/Desktop/SL-subject-1.csv,legacy,Kafkaesque Koffka,3.2.8,0,h,NA,s,NA,NA,h,479,NA,2226,NA,NA,479,2,legacy,1024,2,48000,-16,experiment,HHSHH,1,odd,143485,4173,NA,NA,76349,1940,NA,NA,144589,1946,NA,NA,144691,145171,144586,144691,Flanker task SL,73,41715,77,yes,1024
94.87179487,94.87179487,540.2307692,540.2307692,black,legacy,legacy,legacy,0,congruent,uniform,1,undefined,1,s,77,0,0,0,77,0,77,0,77,0,0,0,77,77,77,77,9/26/19 13:08,1500,The main experiment item,yes,FlankertaskSL.osexp,C:/Users/Sarah Linan/Desktop,no,mono,no,18,no,white,no,yes,768,legacy,77,77,C:/Users/Sarah Linan/Desktop/SL-subject-1.csv,legacy,Kafkaesque Koffka,3.2.8,0,s,NA,s,NA,NA,s,423,NA,2226,NA,NA,423,2,legacy,1024,2,48000,-16,experiment,SSSSS,1,odd,145709,4173,NA,NA,145205,1940,NA,NA,146800,1946,NA,NA,146905,147330,146797,146905,Flanker task SL,74,42138,78,yes,1024
94.93670886,94.93670886,541.6708861,541.6708861,black,legacy,legacy,legacy,0,congruent,uniform,1,undefined,1,h,78,0,0,0,78,0,78,0,78,0,0,0,78,78,78,78,9/26/19 13:08,1500,The main experiment item,yes,FlankertaskSL.osexp,C:/Users/Sarah Linan/Desktop,no,mono,no,18,no,white,no,yes,768,legacy,78,78,C:/Users/Sarah Linan/Desktop/SL-subject-1.csv,legacy,Kafkaesque Koffka,3.2.8,0,h,NA,s,NA,NA,h,654,NA,2226,NA,NA,654,2,legacy,1024,2,48000,-16,experiment,HHHHH,1,odd,147426,4173,NA,NA,145205,1940,NA,NA,148530,1946,NA,NA,148632,149288,148526,148632,Flanker task SL,75,42792,79,yes,1024
95,95,542.9625,542.9625,black,legacy,legacy,legacy,0,incongruent ,uniform,1,undefined,1,s,79,0,0,0,79,0,79,0,79,0,0,0,79,79,79,79,9/26/19 13:08,1500,The main experiment item,yes,FlankertaskSL.osexp,C:/Users/Sarah Linan/Desktop,no,mono,no,18,no,white,no,yes,768,legacy,79,79,C:/Users/Sarah Linan/Desktop/SL-subject-1.csv,legacy,Kafkaesque Koffka,3.2.8,0,s,NA,s,NA,NA,s,645,NA,2226,NA,NA,645,2,legacy,1024,2,48000,-16,experiment,HHSHH,1,odd,149381,4173,NA,NA,145205,1940,NA,NA,150473,1946,NA,NA,150575,151221,150469,150575,Flanker task SL,76,43437,80,yes,1024
95.0617284,95.0617284,544,544,black,legacy,legacy,legacy,0,congruent,uniform,1,undefined,1,h,80,0,0,0,80,0,80,0,80,0,0,0,80,80,80,80,9/26/19 13:08,600,The main experiment item,yes,FlankertaskSL.osexp,C:/Users/Sarah Linan/Desktop,no,mono,no,18,no,white,no,yes,768,legacy,0,79,C:/Users/Sarah Linan/Desktop/SL-subject-1.csv,legacy,Kafkaesque Koffka,3.2.8,0,h,NA,s,s,NA,h,627,NA,2226,1462,NA,627,2,legacy,1024,2,48000,-16,experiment,HHHHH,1,odd,151312,4173,153795,NA,145205,1940,NA,NA,153874,1946,152332,NA,153978,154607,153872,153978,Flanker task SL,77,44064,81,yes,1024
95.12195122,95.12195122,542.5365854,542.5365854,black,legacy,legacy,legacy,0,incongruent ,uniform,1,undefined,1,s,81,0,0,0,81,0,81,0,81,0,0,0,81,81,81,81,9/26/19 13:08,600,The main experiment item,yes,FlankertaskSL.osexp,C:/Users/Sarah Linan/Desktop,no,mono,no,18,no,white,no,yes,768,legacy,1,79,C:/Users/Sarah Linan/Desktop/SL-subject-1.csv,legacy,Kafkaesque Koffka,3.2.8,0,s,NA,s,s,NA,s,424,NA,2226,1462,NA,424,2,legacy,1024,2,48000,-16,experiment,HHSHH,1,odd,155146,4173,153795,NA,145205,1940,154644,NA,156228,1946,152332,NA,156330,156755,156226,156330,Flanker task SL,78,44488,82,yes,1024
95.18072289,95.18072289,543.2048193,543.2048193,black,legacy,legacy,legacy,0,incongruent ,uniform,1,undefined,1,s,82,0,0,0,82,0,82,0,82,0,0,0,82,82,82,82,9/26/19 13:08,600,The main experiment item,yes,FlankertaskSL.osexp,C:/Users/Sarah Linan/Desktop,no,mono,no,18,no,white,no,yes,768,legacy,2,79,C:/Users/Sarah Linan/Desktop/SL-subject-1.csv,legacy,Kafkaesque Koffka,3.2.8,0,s,NA,s,s,NA,s,598,NA,2226,1462,NA,598,2,legacy,1024,2,48000,-16,experiment,HHSHH,1,odd,156802,4173,153795,NA,145205,1940,154644,NA,157898,1946,152332,NA,158000,158599,157895,158000,Flanker task SL,79,45086,83,yes,1024
95.23809524,95.23809524,543.8571429,543.8571429,black,legacy,legacy,legacy,0,congruent,uniform,1,undefined,1,h,83,0,0,0,83,0,83,0,83,0,0,0,83,83,83,83,9/26/19 13:08,600,The main experiment item,yes,FlankertaskSL.osexp,C:/Users/Sarah Linan/Desktop,no,mono,no,18,no,white,no,yes,768,legacy,3,79,C:/Users/Sarah Linan/Desktop/SL-subject-1.csv,legacy,Kafkaesque Koffka,3.2.8,0,h,NA,s,s,NA,h,598,NA,2226,1462,NA,598,2,legacy,1024,2,48000,-16,experiment,HHHHH,1,odd,158690,4173,153795,NA,145205,1940,154644,NA,159787,1946,152332,NA,159889,160489,159784,159889,Flanker task SL,80,45684,84,yes,1024
95.29411765,95.29411765,543,543,black,legacy,legacy,legacy,0,congruent,uniform,1,undefined,1,s,84,0,0,0,84,0,84,0,84,0,0,0,84,84,84,84,9/26/19 13:08,600,The main experiment item,yes,FlankertaskSL.osexp,C:/Users/Sarah Linan/Desktop,no,mono,no,18,no,white,no,yes,768,legacy,4,79,C:/Users/Sarah Linan/Desktop/SL-subject-1.csv,legacy,Kafkaesque Koffka,3.2.8,0,s,NA,s,s,NA,s,471,NA,2226,1462,NA,471,2,legacy,1024,2,48000,-16,experiment,SSSSS,1,odd,160620,4173,153795,NA,145205,1940,154644,NA,161725,1946,152332,NA,161827,162300,161722,161827,Flanker task SL,81,46155,85,yes,1024
95.34883721,95.34883721,542.1860465,542.1860465,black,legacy,legacy,legacy,0,congruent,uniform,1,undefined,1,h,85,0,0,0,85,0,85,0,85,0,0,0,85,85,85,85,9/26/19 13:08,600,The main experiment item,yes,FlankertaskSL.osexp,C:/Users/Sarah Linan/Desktop,no,mono,no,18,no,white,no,yes,768,legacy,5,79,C:/Users/Sarah Linan/Desktop/SL-subject-1.csv,legacy,Kafkaesque Koffka,3.2.8,0,h,NA,s,s,NA,h,473,NA,2226,1462,NA,473,2,legacy,1024,2,48000,-16,experiment,HHHHH,1,odd,162395,4173,153795,NA,145205,1940,154644,NA,163496,1946,152332,NA,163598,164073,163493,163598,Flanker task SL,82,46628,86,yes,1024
95.40229885,95.40229885,543.8275862,543.8275862,black,legacy,legacy,legacy,0,incongruent,uniform,1,undefined,1,h,86,0,0,0,86,0,86,0,86,0,0,0,86,86,86,86,9/26/19 13:08,600,The main experiment item,yes,FlankertaskSL.osexp,C:/Users/Sarah Linan/Desktop,no,mono,no,18,no,white,no,yes,768,legacy,6,79,C:/Users/Sarah Linan/Desktop/SL-subject-1.csv,legacy,Kafkaesque Koffka,3.2.8,0,h,NA,s,s,NA,h,685,NA,2226,1462,NA,685,2,legacy,1024,2,48000,-16,experiment,SSHSS,1,odd,164158,4173,153795,NA,145205,1940,154644,NA,165252,1946,152332,NA,165354,166041,165249,165354,Flanker task SL,83,47313,87,yes,1024
95.45454545,95.45454545,543.5681818,543.5681818,black,legacy,legacy,legacy,0,incongruent ,uniform,1,undefined,1,s,87,0,0,0,87,0,87,0,87,0,0,0,87,87,87,87,9/26/19 13:08,600,The main experiment item,yes,FlankertaskSL.osexp,C:/Users/Sarah Linan/Desktop,no,mono,no,18,no,white,no,yes,768,legacy,7,79,C:/Users/Sarah Linan/Desktop/SL-subject-1.csv,legacy,Kafkaesque Koffka,3.2.8,0,s,NA,s,s,NA,s,521,NA,2226,1462,NA,521,2,legacy,1024,2,48000,-16,experiment,HHSHH,1,odd,166576,4173,153795,NA,145205,1940,166073,NA,167664,1946,152332,NA,167766,168289,167661,167766,Flanker task SL,84,47834,88,yes,1024
95.50561798,95.50561798,545.7977528,545.7977528,black,legacy,legacy,legacy,0,incongruent ,uniform,1,undefined,1,s,88,0,0,0,88,0,88,0,88,0,0,0,88,88,88,88,9/26/19 13:08,600,The main experiment item,yes,FlankertaskSL.osexp,C:/Users/Sarah Linan/Desktop,no,mono,no,18,no,white,no,yes,768,legacy,8,79,C:/Users/Sarah Linan/Desktop/SL-subject-1.csv,legacy,Kafkaesque Koffka,3.2.8,0,s,NA,s,s,NA,s,742,NA,2226,1462,NA,742,2,legacy,1024,2,48000,-16,experiment,HHSHH,1,odd,168375,4173,153795,NA,145205,1940,166073,NA,169471,1946,152332,NA,169573,170316,169468,169573,Flanker task SL,85,48576,89,yes,1024
95.55555556,95.55555556,544.7222222,544.7222222,black,legacy,legacy,legacy,0,incongruent ,uniform,1,undefined,1,s,89,0,0,0,89,0,89,0,89,0,0,0,89,89,89,89,9/26/19 13:08,600,The main experiment item,yes,FlankertaskSL.osexp,C:/Users/Sarah Linan/Desktop,no,mono,no,18,no,white,no,yes,768,legacy,9,79,C:/Users/Sarah Linan/Desktop/SL-subject-1.csv,legacy,Kafkaesque Koffka,3.2.8,0,s,NA,s,s,NA,s,449,NA,2226,1462,NA,449,2,legacy,1024,2,48000,-16,experiment,HHSHH,1,odd,170864,4173,153795,NA,145205,1940,170361,NA,171952,1946,152332,NA,172054,172504,171950,172054,Flanker task SL,86,49025,90,yes,1024
95.6043956,95.6043956,544.4505495,544.4505495,black,legacy,legacy,legacy,0,congruent,uniform,1,undefined,1,h,90,0,0,0,90,0,90,0,90,0,0,0,90,90,90,90,9/26/19 13:08,600,The main experiment item,yes,FlankertaskSL.osexp,C:/Users/Sarah Linan/Desktop,no,mono,no,18,no,white,no,yes,768,legacy,10,79,C:/Users/Sarah Linan/Desktop/SL-subject-1.csv,legacy,Kafkaesque Koffka,3.2.8,0,h,NA,s,s,NA,h,520,NA,2226,1462,NA,520,2,legacy,1024,2,48000,-16,experiment,HHHHH,1,odd,172536,4173,153795,NA,145205,1940,170361,NA,173646,1946,152332,NA,173748,174269,173643,173748,Flanker task SL,87,49545,91,yes,1024
95.65217391,95.65217391,543.3152174,543.3152174,black,legacy,legacy,legacy,0,congruent,uniform,1,undefined,1,s,91,0,0,0,91,0,91,0,91,0,0,0,91,91,91,91,9/26/19 13:08,600,The main experiment item,yes,FlankertaskSL.osexp,C:/Users/Sarah Linan/Desktop,no,mono,no,18,no,white,no,yes,768,legacy,11,79,C:/Users/Sarah Linan/Desktop/SL-subject-1.csv,legacy,Kafkaesque Koffka,3.2.8,0,s,NA,s,s,NA,s,440,NA,2226,1462,NA,440,2,legacy,1024,2,48000,-16,experiment,SSSSS,1,odd,174356,4173,153795,NA,145205,1940,170361,NA,175460,1946,152332,NA,175562,176003,175457,175562,Flanker task SL,88,49985,92,yes,1024
95.69892473,95.69892473,542.311828,542.311828,black,legacy,legacy,legacy,0,congruent,uniform,1,undefined,1,h,92,0,0,0,92,0,92,0,92,0,0,0,92,92,92,92,9/26/19 13:08,600,The main experiment item,yes,FlankertaskSL.osexp,C:/Users/Sarah Linan/Desktop,no,mono,no,18,no,white,no,yes,768,legacy,12,79,C:/Users/Sarah Linan/Desktop/SL-subject-1.csv,legacy,Kafkaesque Koffka,3.2.8,0,h,NA,s,s,NA,h,450,NA,2226,1462,NA,450,2,legacy,1024,2,48000,-16,experiment,HHHHH,1,odd,176098,4173,153795,NA,145205,1940,170361,NA,177191,1946,152332,NA,177294,177746,177189,177294,Flanker task SL,89,50435,93,yes,1024
95.74468085,95.74468085,542.3297872,542.3297872,black,legacy,legacy,legacy,0,incongruent,uniform,1,undefined,1,h,93,0,0,0,93,0,93,0,93,0,0,0,93,93,93,93,9/26/19 13:08,600,The main experiment item,yes,FlankertaskSL.osexp,C:/Users/Sarah Linan/Desktop,no,mono,no,18,no,white,no,yes,768,legacy,13,79,C:/Users/Sarah Linan/Desktop/SL-subject-1.csv,legacy,Kafkaesque Koffka,3.2.8,0,h,NA,s,s,NA,h,544,NA,2226,1462,NA,544,2,legacy,1024,2,48000,-16,experiment,SSHSS,1,odd,177840,4173,153795,NA,145205,1940,170361,NA,178933,1946,152332,NA,179035,179580,178930,179035,Flanker task SL,90,50979,94,yes,1024
94.73684211,94.73684211,543.4842105,543.4842105,black,legacy,legacy,legacy,0,incongruent ,uniform,0,undefined,0,s,94,0,0,0,94,0,94,0,94,0,0,0,94,94,94,94,9/26/19 13:08,600,The main experiment item,yes,FlankertaskSL.osexp,C:/Users/Sarah Linan/Desktop,no,mono,no,18,no,white,no,yes,768,legacy,14,79,C:/Users/Sarah Linan/Desktop/SL-subject-1.csv,legacy,Kafkaesque Koffka,3.2.8,0,h,NA,s,s,NA,h,652,NA,2226,1462,NA,652,2,legacy,1024,2,48000,-16,experiment,HHSHH,1,odd,179671,4173,153795,NA,145205,1940,170361,NA,180764,1946,152332,NA,180866,181520,180761,180866,Flanker task SL,90,51631,95,yes,1024
94.79166667,94.79166667,542.9791667,542.9791667,black,legacy,legacy,legacy,0,incongruent,uniform,1,undefined,1,h,95,0,0,0,95,0,95,0,95,0,0,0,95,95,95,95,9/26/19 13:08,600,The main experiment item,yes,FlankertaskSL.osexp,C:/Users/Sarah Linan/Desktop,no,mono,no,18,no,white,no,yes,768,legacy,15,79,C:/Users/Sarah Linan/Desktop/SL-subject-1.csv,legacy,Kafkaesque Koffka,3.2.8,0,h,NA,s,s,NA,h,495,NA,2226,1462,NA,495,2,legacy,1024,2,48000,-16,experiment,SSHSS,1,odd,182618,4173,153795,NA,181612,1940,182116,NA,183703,1946,152332,NA,183807,184303,183699,183807,Flanker task SL,91,52126,96,yes,1024
93.81443299,93.81443299,542.5773196,542.5773196,black,legacy,legacy,legacy,0,congruent,uniform,0,undefined,0,h,96,0,0,0,96,0,96,0,96,0,0,0,96,96,96,96,9/26/19 13:08,600,The main experiment item,yes,FlankertaskSL.osexp,C:/Users/Sarah Linan/Desktop,no,mono,no,18,no,white,no,yes,768,legacy,16,79,C:/Users/Sarah Linan/Desktop/SL-subject-1.csv,legacy,Kafkaesque Koffka,3.2.8,0,s,NA,s,s,NA,s,504,NA,2226,1462,NA,504,2,legacy,1024,2,48000,-16,experiment,HHHHH,1,odd,184397,4173,153795,NA,181612,1940,182116,NA,185493,1946,152332,NA,185595,186101,185490,185595,Flanker task SL,91,52630,97,yes,1024
93.87755102,93.87755102,543.3061224,543.3061224,black,legacy,legacy,legacy,0,congruent,uniform,1,undefined,1,s,97,0,0,0,97,0,97,0,97,0,0,0,97,97,97,97,9/26/19 13:08,600,The main experiment item,yes,FlankertaskSL.osexp,C:/Users/Sarah Linan/Desktop,no,mono,no,18,no,white,no,yes,768,legacy,17,79,C:/Users/Sarah Linan/Desktop/SL-subject-1.csv,legacy,Kafkaesque Koffka,3.2.8,0,s,NA,s,s,NA,s,614,NA,2226,1462,NA,614,2,legacy,1024,2,48000,-16,experiment,SSSSS,1,odd,186699,4173,153795,NA,186195,1940,182116,NA,187789,1946,152332,NA,187891,188506,187786,187891,Flanker task SL,92,53244,98,yes,1024
93.93939394,93.93939394,542.7272727,542.7272727,black,legacy,legacy,legacy,0,congruent,uniform,1,undefined,1,s,98,0,0,0,98,0,98,0,98,0,0,0,98,98,98,98,9/26/19 13:08,600,The main experiment item,yes,FlankertaskSL.osexp,C:/Users/Sarah Linan/Desktop,no,mono,no,18,no,white,no,yes,768,legacy,18,79,C:/Users/Sarah Linan/Desktop/SL-subject-1.csv,legacy,Kafkaesque Koffka,3.2.8,0,s,NA,s,s,NA,s,486,NA,2226,1462,NA,486,2,legacy,1024,2,48000,-16,experiment,SSSSS,1,odd,189095,4173,153795,NA,186195,1940,188591,NA,190186,1946,152332,NA,190290,190777,190183,190290,Flanker task SL,93,53730,99,yes,1024
94,94,543.85,543.85,black,legacy,legacy,legacy,0,incongruent ,uniform,1,undefined,1,s,99,0,0,0,99,0,99,0,99,0,0,0,99,99,99,99,9/26/19 13:08,600,The main experiment item,yes,FlankertaskSL.osexp,C:/Users/Sarah Linan/Desktop,no,mono,no,18,no,white,no,yes,768,legacy,19,79,C:/Users/Sarah Linan/Desktop/SL-subject-1.csv,legacy,Kafkaesque Koffka,3.2.8,0,s,NA,s,s,NA,s,655,NA,2226,1462,NA,655,2,legacy,1024,2,48000,-16,experiment,HHSHH,1,odd,190827,4173,153795,NA,186195,1940,188591,NA,191914,1946,152332,NA,192016,192673,191911,192016,Flanker task SL,94,54385,100,yes,1024
94.05940594,94.05940594,544.2574257,544.2574257,black,legacy,legacy,legacy,0,congruent,uniform,1,undefined,1,h,100,0,0,0,100,0,100,0,100,0,0,0,100,100,100,100,9/26/19 13:08,600,The main experiment item,yes,FlankertaskSL.osexp,C:/Users/Sarah Linan/Desktop,no,mono,no,18,no,white,no,yes,768,legacy,20,79,C:/Users/Sarah Linan/Desktop/SL-subject-1.csv,legacy,Kafkaesque Koffka,3.2.8,0,h,NA,s,s,NA,h,585,NA,2226,1462,NA,585,2,legacy,1024,2,48000,-16,experiment,HHHHH,1,odd,193334,4173,153795,NA,186195,1940,192830,NA,194429,1946,152332,NA,194533,195119,194426,194532,Flanker task SL,95,54970,101,yes,1024
94.11764706,94.11764706,543.7941176,543.7941176,black,legacy,legacy,legacy,0,incongruent ,uniform,1,undefined,1,s,101,0,0,0,101,0,101,0,101,0,0,0,101,101,101,101,9/26/19 13:08,600,The main experiment item,yes,FlankertaskSL.osexp,C:/Users/Sarah Linan/Desktop,no,mono,no,18,no,white,no,yes,768,legacy,21,79,C:/Users/Sarah Linan/Desktop/SL-subject-1.csv,legacy,Kafkaesque Koffka,3.2.8,0,s,NA,s,s,NA,s,497,NA,2226,1462,NA,497,2,legacy,1024,2,48000,-16,experiment,HHSHH,1,odd,195215,4173,153795,NA,186195,1940,192830,NA,196303,1946,152332,NA,196405,196904,196300,196405,Flanker task SL,96,55467,102,yes,1024
94.17475728,94.17475728,543.3495146,543.3495146,black,legacy,legacy,legacy,0,congruent,uniform,1,undefined,1,h,102,0,0,0,102,0,102,0,102,0,0,0,102,102,102,102,9/26/19 13:08,600,The main experiment item,yes,FlankertaskSL.osexp,C:/Users/Sarah Linan/Desktop,no,mono,no,18,no,white,no,yes,768,legacy,22,79,C:/Users/Sarah Linan/Desktop/SL-subject-1.csv,legacy,Kafkaesque Koffka,3.2.8,0,h,NA,s,s,NA,h,498,NA,2226,1462,NA,498,2,legacy,1024,2,48000,-16,experiment,HHHHH,1,odd,196990,4173,153795,NA,186195,1940,192830,NA,198092,1946,152332,NA,198195,198695,198089,198195,Flanker task SL,97,55965,103,yes,1024
94.23076923,94.23076923,542.6730769,542.6730769,black,legacy,legacy,legacy,0,incongruent ,uniform,1,undefined,1,s,103,0,0,0,103,0,103,0,103,0,0,0,103,103,103,103,9/26/19 13:08,600,The main experiment item,yes,FlankertaskSL.osexp,C:/Users/Sarah Linan/Desktop,no,mono,no,18,no,white,no,yes,768,legacy,23,79,C:/Users/Sarah Linan/Desktop/SL-subject-1.csv,legacy,Kafkaesque Koffka,3.2.8,0,s,NA,s,s,NA,s,473,NA,2226,1462,NA,473,2,legacy,1024,2,48000,-16,experiment,HHSHH,1,odd,198726,4173,153795,NA,186195,1940,192830,NA,199814,1946,152332,NA,199916,200390,199812,199916,Flanker task SL,98,56438,104,yes,1024
94.28571429,94.28571429,542.8952381,542.8952381,black,legacy,legacy,legacy,0,incongruent,uniform,1,undefined,1,h,104,0,0,0,104,0,104,0,104,0,0,0,104,104,104,104,9/26/19 13:08,600,The main experiment item,yes,FlankertaskSL.osexp,C:/Users/Sarah Linan/Desktop,no,mono,no,18,no,white,no,yes,768,legacy,24,79,C:/Users/Sarah Linan/Desktop/SL-subject-1.csv,legacy,Kafkaesque Koffka,3.2.8,0,h,NA,s,s,NA,h,566,NA,2226,1462,NA,566,2,legacy,1024,2,48000,-16,experiment,SSHSS,1,odd,200485,4173,153795,NA,186195,1940,192830,NA,201580,1946,152332,NA,201682,202249,201577,201682,Flanker task SL,99,57004,105,yes,1024
94.33962264,94.33962264,542.4811321,542.4811321,black,legacy,legacy,legacy,0,congruent,uniform,1,undefined,1,s,105,0,0,0,105,0,105,0,105,0,0,0,105,105,105,105,9/26/19 13:08,600,The main experiment item,yes,FlankertaskSL.osexp,C:/Users/Sarah Linan/Desktop,no,mono,no,18,no,white,no,yes,768,legacy,25,79,C:/Users/Sarah Linan/Desktop/SL-subject-1.csv,legacy,Kafkaesque Koffka,3.2.8,0,s,NA,s,s,NA,s,499,NA,2226,1462,NA,499,2,legacy,1024,2,48000,-16,experiment,SSSSS,1,odd,202338,4173,153795,NA,186195,1940,192830,NA,203444,1946,152332,NA,203546,204047,203441,203546,Flanker task SL,100,57503,106,yes,1024
94.39252336,94.39252336,542.0280374,542.0280374,black,legacy,legacy,legacy,0,incongruent,uniform,1,undefined,1,h,106,0,0,0,106,0,106,0,106,0,0,0,106,106,106,106,9/26/19 13:08,600,The main experiment item,yes,FlankertaskSL.osexp,C:/Users/Sarah Linan/Desktop,no,mono,no,18,no,white,no,yes,768,legacy,26,79,C:/Users/Sarah Linan/Desktop/SL-subject-1.csv,legacy,Kafkaesque Koffka,3.2.8,0,h,NA,s,s,NA,h,494,NA,2226,1462,NA,494,2,legacy,1024,2,48000,-16,experiment,SSHSS,1,odd,204134,4173,153795,NA,186195,1940,192830,NA,205247,1946,152332,NA,205349,205845,205244,205349,Flanker task SL,101,57997,107,yes,1024
94.44444444,94.44444444,543.1759259,543.1759259,black,legacy,legacy,legacy,0,incongruent,uniform,1,undefined,1,h,107,0,0,0,107,0,107,0,107,0,0,0,107,107,107,107,9/26/19 13:08,600,The main experiment item,yes,FlankertaskSL.osexp,C:/Users/Sarah Linan/Desktop,no,mono,no,18,no,white,no,yes,768,legacy,27,79,C:/Users/Sarah Linan/Desktop/SL-subject-1.csv,legacy,Kafkaesque Koffka,3.2.8,0,h,NA,s,s,NA,h,666,NA,2226,1462,NA,666,2,legacy,1024,2,48000,-16,experiment,SSHSS,1,odd,205893,4173,153795,NA,186195,1940,192830,NA,206998,1946,152332,NA,207100,207767,206995,207100,Flanker task SL,102,58663,108,yes,1024
94.49541284,94.49541284,543.9174312,543.9174312,black,legacy,legacy,legacy,0,incongruent ,uniform,1,undefined,1,s,108,0,0,0,108,0,108,0,108,0,0,0,108,108,108,108,9/26/19 13:08,600,The main experiment item,yes,FlankertaskSL.osexp,C:/Users/Sarah Linan/Desktop,no,mono,no,18,no,white,no,yes,768,legacy,28,79,C:/Users/Sarah Linan/Desktop/SL-subject-1.csv,legacy,Kafkaesque Koffka,3.2.8,0,s,NA,s,s,NA,s,624,NA,2226,1462,NA,624,2,legacy,1024,2,48000,-16,experiment,HHSHH,1,odd,208308,4173,153795,NA,186195,1940,207806,NA,209402,1946,152332,NA,209506,210132,209399,209506,Flanker task SL,103,59287,109,yes,1024
94.54545455,94.54545455,542.9181818,542.9181818,black,legacy,legacy,legacy,0,congruent,uniform,1,undefined,1,h,109,0,0,0,109,0,109,0,109,0,0,0,109,109,109,109,9/26/19 13:08,600,The main experiment item,yes,FlankertaskSL.osexp,C:/Users/Sarah Linan/Desktop,no,mono,no,18,no,white,no,yes,768,legacy,29,79,C:/Users/Sarah Linan/Desktop/SL-subject-1.csv,legacy,Kafkaesque Koffka,3.2.8,0,h,NA,s,s,NA,h,434,NA,2226,1462,NA,434,2,legacy,1024,2,48000,-16,experiment,HHHHH,1,odd,210730,4173,153795,NA,186195,1940,210228,NA,211820,1946,152332,NA,211924,212360,211817,211924,Flanker task SL,104,59721,110,yes,1024
94.59459459,94.59459459,543.0720721,543.0720721,black,legacy,legacy,legacy,0,congruent,uniform,1,undefined,1,s,110,0,0,0,110,0,110,0,110,0,0,0,110,110,110,110,9/26/19 13:08,600,The main experiment item,yes,FlankertaskSL.osexp,C:/Users/Sarah Linan/Desktop,no,mono,no,18,no,white,no,yes,768,legacy,30,79,C:/Users/Sarah Linan/Desktop/SL-subject-1.csv,legacy,Kafkaesque Koffka,3.2.8,0,s,NA,s,s,NA,s,560,NA,2226,1462,NA,560,2,legacy,1024,2,48000,-16,experiment,SSSSS,1,odd,212446,4173,153795,NA,186195,1940,210228,NA,213533,1946,152332,NA,213635,214197,213530,213635,Flanker task SL,105,60281,111,yes,1024
94.64285714,94.64285714,543.2589286,543.2589286,black,legacy,legacy,legacy,0,congruent,uniform,1,undefined,1,h,111,0,0,0,111,0,111,0,111,0,0,0,111,111,111,111,9/26/19 13:08,600,The main experiment item,yes,FlankertaskSL.osexp,C:/Users/Sarah Linan/Desktop,no,mono,no,18,no,white,no,yes,768,legacy,31,79,C:/Users/Sarah Linan/Desktop/SL-subject-1.csv,legacy,Kafkaesque Koffka,3.2.8,0,h,NA,s,s,NA,h,564,NA,2226,1462,NA,564,2,legacy,1024,2,48000,-16,experiment,HHHHH,1,odd,214288,4173,153795,NA,186195,1940,210228,NA,215383,1946,152332,NA,215485,216050,215379,215485,Flanker task SL,106,60845,112,yes,1024
94.69026549,94.69026549,542.7433628,542.7433628,black,legacy,legacy,legacy,0,congruent,uniform,1,undefined,1,s,112,0,0,0,112,0,112,0,112,0,0,0,112,112,112,112,9/26/19 13:08,600,The main experiment item,yes,FlankertaskSL.osexp,C:/Users/Sarah Linan/Desktop,no,mono,no,18,no,white,no,yes,768,legacy,32,79,C:/Users/Sarah Linan/Desktop/SL-subject-1.csv,legacy,Kafkaesque Koffka,3.2.8,0,s,NA,s,s,NA,s,485,NA,2226,1462,NA,485,2,legacy,1024,2,48000,-16,experiment,SSSSS,1,odd,216140,4173,153795,NA,186195,1940,210228,NA,217230,1946,152332,NA,217332,217819,217227,217332,Flanker task SL,107,61330,113,yes,1024
94.73684211,94.73684211,542.9561404,542.9561404,black,legacy,legacy,legacy,0,congruent,uniform,1,undefined,1,h,113,0,0,0,113,0,113,0,113,0,0,0,113,113,113,113,9/26/19 13:08,600,The main experiment item,yes,FlankertaskSL.osexp,C:/Users/Sarah Linan/Desktop,no,mono,no,18,no,white,no,yes,768,legacy,33,79,C:/Users/Sarah Linan/Desktop/SL-subject-1.csv,legacy,Kafkaesque Koffka,3.2.8,0,h,NA,s,s,NA,h,567,NA,2226,1462,NA,567,2,legacy,1024,2,48000,-16,experiment,HHHHH,1,odd,217905,4173,153795,NA,186195,1940,210228,NA,218995,1946,152332,NA,219097,219665,218992,219097,Flanker task SL,108,61897,114,yes,1024
94.7826087,94.7826087,543.0608696,543.0608696,black,legacy,legacy,legacy,0,congruent,uniform,1,undefined,1,h,114,0,0,0,114,0,114,0,114,0,0,0,114,114,114,114,9/26/19 13:08,600,The main experiment item,yes,FlankertaskSL.osexp,C:/Users/Sarah Linan/Desktop,no,mono,no,18,no,white,no,yes,768,legacy,34,79,C:/Users/Sarah Linan/Desktop/SL-subject-1.csv,legacy,Kafkaesque Koffka,3.2.8,0,h,NA,s,s,NA,h,555,NA,2226,1462,NA,555,2,legacy,1024,2,48000,-16,experiment,HHHHH,1,odd,219757,4173,153795,NA,186195,1940,210228,NA,220848,1946,152332,NA,220951,221507,220845,220951,Flanker task SL,109,62452,115,yes,1024
94.82758621,94.82758621,542.7758621,542.7758621,black,legacy,legacy,legacy,0,incongruent ,uniform,1,undefined,1,s,115,0,0,0,115,0,115,0,115,0,0,0,115,115,115,115,9/26/19 13:08,600,The main experiment item,yes,FlankertaskSL.osexp,C:/Users/Sarah Linan/Desktop,no,mono,no,18,no,white,no,yes,768,legacy,35,79,C:/Users/Sarah Linan/Desktop/SL-subject-1.csv,legacy,Kafkaesque Koffka,3.2.8,0,s,NA,s,s,NA,s,510,NA,2226,1462,NA,510,2,legacy,1024,2,48000,-16,experiment,HHSHH,1,odd,221598,4173,153795,NA,186195,1940,210228,NA,222692,1946,152332,NA,222794,223306,222689,222794,Flanker task SL,110,62962,116,yes,1024
94.87179487,94.87179487,543.8632479,543.8632479,black,legacy,legacy,legacy,0,incongruent,uniform,1,undefined,1,h,116,0,0,0,116,0,116,0,116,0,0,0,116,116,116,116,9/26/19 13:08,600,The main experiment item,yes,FlankertaskSL.osexp,C:/Users/Sarah Linan/Desktop,no,mono,no,18,no,white,no,yes,768,legacy,36,79,C:/Users/Sarah Linan/Desktop/SL-subject-1.csv,legacy,Kafkaesque Koffka,3.2.8,0,h,NA,s,s,NA,h,670,NA,2226,1462,NA,670,2,legacy,1024,2,48000,-16,experiment,SSHSS,1,odd,223396,4173,153795,NA,186195,1940,210228,NA,224494,1946,152332,NA,224597,225269,224491,224597,Flanker task SL,111,63632,117,yes,1024
94.91525424,94.91525424,545.1355932,545.1355932,black,legacy,legacy,legacy,0,congruent,uniform,1,undefined,1,s,117,0,0,0,117,0,117,0,117,0,0,0,117,117,117,117,9/26/19 13:08,600,The main experiment item,yes,FlankertaskSL.osexp,C:/Users/Sarah Linan/Desktop,no,mono,no,18,no,white,no,yes,768,legacy,37,79,C:/Users/Sarah Linan/Desktop/SL-subject-1.csv,legacy,Kafkaesque Koffka,3.2.8,0,s,NA,s,s,NA,s,694,NA,2226,1462,NA,694,2,legacy,1024,2,48000,-16,experiment,SSSSS,1,odd,225864,4173,153795,NA,186195,1940,225362,NA,226955,1946,152332,NA,227059,227754,226952,227059,Flanker task SL,112,64326,118,yes,1024
94.95798319,94.95798319,545.605042,545.605042,black,legacy,legacy,legacy,0,congruent,uniform,1,undefined,1,s,118,0,0,0,118,0,118,0,118,0,0,0,118,118,118,118,9/26/19 13:08,600,The main experiment item,yes,FlankertaskSL.osexp,C:/Users/Sarah Linan/Desktop,no,mono,no,18,no,white,no,yes,768,legacy,38,79,C:/Users/Sarah Linan/Desktop/SL-subject-1.csv,legacy,Kafkaesque Koffka,3.2.8,0,s,NA,s,s,NA,s,601,NA,2226,1462,NA,601,2,legacy,1024,2,48000,-16,experiment,SSSSS,1,odd,228347,4173,153795,NA,186195,1940,227846,NA,229442,1946,152332,NA,229544,230147,229439,229544,Flanker task SL,113,64927,119,yes,1024
95,95,546.9833333,546.9833333,black,legacy,legacy,legacy,0,incongruent ,uniform,1,undefined,1,s,119,0,0,0,119,0,119,0,119,0,0,0,119,119,119,119,9/26/19 13:08,600,The main experiment item,yes,FlankertaskSL.osexp,C:/Users/Sarah Linan/Desktop,no,mono,no,18,no,white,no,yes,768,legacy,39,79,C:/Users/Sarah Linan/Desktop/SL-subject-1.csv,legacy,Kafkaesque Koffka,3.2.8,0,s,NA,s,s,NA,s,711,NA,2226,1462,NA,711,2,legacy,1024,2,48000,-16,experiment,HHSHH,1,odd,230735,4173,153795,NA,186195,1940,230231,NA,231832,1946,152332,NA,231936,232650,231829,231936,Flanker task SL,114,65638,120,yes,1024
95.04132231,95.04132231,549.5289256,549.5289256,black,legacy,legacy,legacy,0,incongruent,uniform,1,undefined,1,h,120,0,0,0,120,0,120,0,120,0,0,0,120,120,120,120,9/26/19 13:08,600,The main experiment item,yes,FlankertaskSL.osexp,C:/Users/Sarah Linan/Desktop,no,mono,no,18,no,white,no,yes,768,legacy,40,79,C:/Users/Sarah Linan/Desktop/SL-subject-1.csv,legacy,Kafkaesque Koffka,3.2.8,0,h,NA,s,s,NA,h,855,NA,2226,1462,NA,855,2,legacy,1024,2,48000,-16,experiment,SSHSS,1,odd,233221,4173,153795,NA,186195,1940,232717,NA,234314,1946,152332,NA,234416,235273,234311,234416,Flanker task SL,115,66493,121,yes,1024
95.08196721,95.08196721,549.557377,549.557377,black,legacy,legacy,legacy,0,incongruent,uniform,1,undefined,1,h,121,0,0,0,121,0,121,0,121,0,0,0,121,121,121,121,9/26/19 13:08,600,The main experiment item,yes,FlankertaskSL.osexp,C:/Users/Sarah Linan/Desktop,no,mono,no,18,no,white,no,yes,768,legacy,41,79,C:/Users/Sarah Linan/Desktop/SL-subject-1.csv,legacy,Kafkaesque Koffka,3.2.8,0,h,NA,s,s,NA,h,553,NA,2226,1462,NA,553,2,legacy,1024,2,48000,-16,experiment,SSHSS,1,odd,235873,4173,153795,NA,186195,1940,235369,NA,236954,1946,152332,NA,237056,237611,236951,237056,Flanker task SL,116,67046,122,yes,1024
95.12195122,95.12195122,549.203252,549.203252,black,legacy,legacy,legacy,0,incongruent,uniform,1,undefined,1,h,122,0,0,0,122,0,122,0,122,0,0,0,122,122,122,122,9/26/19 13:08,600,The main experiment item,yes,FlankertaskSL.osexp,C:/Users/Sarah Linan/Desktop,no,mono,no,18,no,white,no,yes,768,legacy,42,79,C:/Users/Sarah Linan/Desktop/SL-subject-1.csv,legacy,Kafkaesque Koffka,3.2.8,0,h,NA,s,s,NA,h,506,NA,2226,1462,NA,506,2,legacy,1024,2,48000,-16,experiment,SSHSS,1,odd,237700,4173,153795,NA,186195,1940,235369,NA,238794,1946,152332,NA,238896,239404,238791,238896,Flanker task SL,117,67552,123,yes,1024
95.16129032,95.16129032,548.5080645,548.5080645,black,legacy,legacy,legacy,0,incongruent,uniform,1,undefined,1,h,123,0,0,0,123,0,123,0,123,0,0,0,123,123,123,123,9/26/19 13:08,600,The main experiment item,yes,FlankertaskSL.osexp,C:/Users/Sarah Linan/Desktop,no,mono,no,18,no,white,no,yes,768,legacy,43,79,C:/Users/Sarah Linan/Desktop/SL-subject-1.csv,legacy,Kafkaesque Koffka,3.2.8,0,h,NA,s,s,NA,h,463,NA,2226,1462,NA,463,2,legacy,1024,2,48000,-16,experiment,SSHSS,1,odd,239496,4173,153795,NA,186195,1940,235369,NA,240586,1946,152332,NA,240688,241153,240583,240688,Flanker task SL,118,68015,124,yes,1024
95.2,95.2,549.04,549.04,black,legacy,legacy,legacy,0,congruent,uniform,1,undefined,1,s,124,0,0,0,124,0,124,0,124,0,0,0,124,124,124,124,9/26/19 13:08,600,The main experiment item,yes,FlankertaskSL.osexp,C:/Users/Sarah Linan/Desktop,no,mono,no,18,no,white,no,yes,768,legacy,44,79,C:/Users/Sarah Linan/Desktop/SL-subject-1.csv,legacy,Kafkaesque Koffka,3.2.8,0,s,NA,s,s,NA,s,615,NA,2226,1462,NA,615,2,legacy,1024,2,48000,-16,experiment,SSSSS,1,odd,241249,4173,153795,NA,186195,1940,235369,NA,242342,1946,152332,NA,242444,243060,242339,242444,Flanker task SL,119,68630,125,yes,1024
95.23809524,95.23809524,548.6111111,548.6111111,black,legacy,legacy,legacy,0,congruent,uniform,1,undefined,1,h,125,0,0,0,125,0,125,0,125,0,0,0,125,125,125,125,9/26/19 13:08,600,The main experiment item,yes,FlankertaskSL.osexp,C:/Users/Sarah Linan/Desktop,no,mono,no,18,no,white,no,yes,768,legacy,45,79,C:/Users/Sarah Linan/Desktop/SL-subject-1.csv,legacy,Kafkaesque Koffka,3.2.8,0,h,NA,s,s,NA,h,495,NA,2226,1462,NA,495,2,legacy,1024,2,48000,-16,experiment,HHHHH,1,odd,243649,4173,153795,NA,186195,1940,243146,NA,244743,1946,152332,NA,244847,245344,244740,244847,Flanker task SL,120,69125,126,yes,1024
95.27559055,95.27559055,549.0787402,549.0787402,black,legacy,legacy,legacy,0,congruent,uniform,1,undefined,1,s,126,0,0,0,126,0,126,0,126,0,0,0,126,126,126,126,9/26/19 13:08,600,The main experiment item,yes,FlankertaskSL.osexp,C:/Users/Sarah Linan/Desktop,no,mono,no,18,no,white,no,yes,768,legacy,46,79,C:/Users/Sarah Linan/Desktop/SL-subject-1.csv,legacy,Kafkaesque Koffka,3.2.8,0,s,NA,s,s,NA,s,608,NA,2226,1462,NA,608,2,legacy,1024,2,48000,-16,experiment,SSSSS,1,odd,245430,4173,153795,NA,186195,1940,243146,NA,246525,1946,152332,NA,246627,247237,246522,246627,Flanker task SL,121,69733,127,yes,1024
95.3125,95.3125,549.15625,549.15625,black,legacy,legacy,legacy,0,incongruent ,uniform,1,undefined,1,s,127,0,0,0,127,0,127,0,127,0,0,0,127,127,127,127,9/26/19 13:08,600,The main experiment item,yes,FlankertaskSL.osexp,C:/Users/Sarah Linan/Desktop,no,mono,no,18,no,white,no,yes,768,legacy,47,79,C:/Users/Sarah Linan/Desktop/SL-subject-1.csv,legacy,Kafkaesque Koffka,3.2.8,0,s,NA,s,s,NA,s,559,NA,2226,1462,NA,559,2,legacy,1024,2,48000,-16,experiment,HHSHH,1,odd,247853,4173,153795,NA,186195,1940,247351,NA,248943,1946,152332,NA,249045,249606,248940,249045,Flanker task SL,122,70292,128,yes,1024
95.34883721,95.34883721,549.0775194,549.0775194,black,legacy,legacy,legacy,0,incongruent,uniform,1,undefined,1,h,128,0,0,0,128,0,128,0,128,0,0,0,128,128,128,128,9/26/19 13:08,600,The main experiment item,yes,FlankertaskSL.osexp,C:/Users/Sarah Linan/Desktop,no,mono,no,18,no,white,no,yes,768,legacy,48,79,C:/Users/Sarah Linan/Desktop/SL-subject-1.csv,legacy,Kafkaesque Koffka,3.2.8,0,h,NA,s,s,NA,h,539,NA,2226,1462,NA,539,2,legacy,1024,2,48000,-16,experiment,SSHSS,1,odd,249692,4173,153795,NA,186195,1940,247351,NA,250791,1946,152332,NA,250893,251434,250788,250893,Flanker task SL,123,70831,129,yes,1024
95.38461538,95.38461538,548.6384615,548.6384615,black,legacy,legacy,legacy,0,congruent,uniform,1,undefined,1,s,129,0,0,0,129,0,129,0,129,0,0,0,129,129,129,129,9/26/19 13:08,600,The main experiment item,yes,FlankertaskSL.osexp,C:/Users/Sarah Linan/Desktop,no,mono,no,18,no,white,no,yes,768,legacy,49,79,C:/Users/Sarah Linan/Desktop/SL-subject-1.csv,legacy,Kafkaesque Koffka,3.2.8,0,s,NA,s,s,NA,s,492,NA,2226,1462,NA,492,2,legacy,1024,2,48000,-16,experiment,SSSSS,1,odd,251523,4173,153795,NA,186195,1940,247351,NA,252619,1946,152332,NA,252721,253215,252616,252721,Flanker task SL,124,71323,130,yes,1024
95.41984733,95.41984733,548.5114504,548.5114504,black,legacy,legacy,legacy,0,congruent,uniform,1,undefined,1,s,130,0,0,0,130,0,130,0,130,0,0,0,130,130,130,130,9/26/19 13:08,600,The main experiment item,yes,FlankertaskSL.osexp,C:/Users/Sarah Linan/Desktop,no,mono,no,18,no,white,no,yes,768,legacy,50,79,C:/Users/Sarah Linan/Desktop/SL-subject-1.csv,legacy,Kafkaesque Koffka,3.2.8,0,s,NA,s,s,NA,s,532,NA,2226,1462,NA,532,2,legacy,1024,2,48000,-16,experiment,SSSSS,1,odd,253309,4173,153795,NA,186195,1940,247351,NA,254413,1946,152332,NA,254516,255049,254410,254516,Flanker task SL,125,71855,131,yes,1024
95.45454545,95.45454545,548.6363636,548.6363636,black,legacy,legacy,legacy,0,congruent,uniform,1,undefined,1,h,131,0,0,0,131,0,131,0,131,0,0,0,131,131,131,131,9/26/19 13:08,600,The main experiment item,yes,FlankertaskSL.osexp,C:/Users/Sarah Linan/Desktop,no,mono,no,18,no,white,no,yes,768,legacy,51,79,C:/Users/Sarah Linan/Desktop/SL-subject-1.csv,legacy,Kafkaesque Koffka,3.2.8,0,h,NA,s,s,NA,h,565,NA,2226,1462,NA,565,2,legacy,1024,2,48000,-16,experiment,HHHHH,1,odd,255139,4173,153795,NA,186195,1940,247351,NA,256250,1946,152332,NA,256353,256919,256247,256353,Flanker task SL,126,72420,132,yes,1024
95.4887218,95.4887218,548.4511278,548.4511278,black,legacy,legacy,legacy,0,congruent,uniform,1,undefined,1,s,132,0,0,0,132,0,132,0,132,0,0,0,132,132,132,132,9/26/19 13:08,600,The main experiment item,yes,FlankertaskSL.osexp,C:/Users/Sarah Linan/Desktop,no,mono,no,18,no,white,no,yes,768,legacy,52,79,C:/Users/Sarah Linan/Desktop/SL-subject-1.csv,legacy,Kafkaesque Koffka,3.2.8,0,s,NA,s,s,NA,s,524,NA,2226,1462,NA,524,2,legacy,1024,2,48000,-16,experiment,SSSSS,1,odd,257015,4173,153795,NA,186195,1940,247351,NA,258112,1946,152332,NA,258214,258739,258109,258214,Flanker task SL,127,72944,133,yes,1024
95.52238806,95.52238806,548.2238806,548.2238806,black,legacy,legacy,legacy,0,congruent,uniform,1,undefined,1,h,133,0,0,0,133,0,133,0,133,0,0,0,133,133,133,133,9/26/19 13:08,600,The main experiment item,yes,FlankertaskSL.osexp,C:/Users/Sarah Linan/Desktop,no,mono,no,18,no,white,no,yes,768,legacy,53,79,C:/Users/Sarah Linan/Desktop/SL-subject-1.csv,legacy,Kafkaesque Koffka,3.2.8,0,h,NA,s,s,NA,h,518,NA,2226,1462,NA,518,2,legacy,1024,2,48000,-16,experiment,HHHHH,1,odd,258835,4173,153795,NA,186195,1940,247351,NA,259928,1946,152332,NA,260030,260550,259924,260030,Flanker task SL,128,73462,134,yes,1024
95.55555556,95.55555556,548.4962963,548.4962963,black,legacy,legacy,legacy,0,incongruent ,uniform,1,undefined,1,s,134,0,0,0,134,0,134,0,134,0,0,0,134,134,134,134,9/26/19 13:08,600,The main experiment item,yes,FlankertaskSL.osexp,C:/Users/Sarah Linan/Desktop,no,mono,no,18,no,white,no,yes,768,legacy,54,79,C:/Users/Sarah Linan/Desktop/SL-subject-1.csv,legacy,Kafkaesque Koffka,3.2.8,0,s,NA,s,s,NA,s,585,NA,2226,1462,NA,585,2,legacy,1024,2,48000,-16,experiment,HHSHH,1,odd,260644,4173,153795,NA,186195,1940,247351,NA,261741,1946,152332,NA,261843,262430,261738,261843,Flanker task SL,129,74047,135,yes,1024
95.58823529,95.58823529,548.3676471,548.3676471,black,legacy,legacy,legacy,0,incongruent,uniform,1,undefined,1,h,135,0,0,0,135,0,135,0,135,0,0,0,135,135,135,135,9/26/19 13:08,600,The main experiment item,yes,FlankertaskSL.osexp,C:/Users/Sarah Linan/Desktop,no,mono,no,18,no,white,no,yes,768,legacy,55,79,C:/Users/Sarah Linan/Desktop/SL-subject-1.csv,legacy,Kafkaesque Koffka,3.2.8,0,h,NA,s,s,NA,h,531,NA,2226,1462,NA,531,2,legacy,1024,2,48000,-16,experiment,SSHSS,1,odd,262518,4173,153795,NA,186195,1940,247351,NA,263617,1946,152332,NA,263719,264252,263614,263719,Flanker task SL,130,74578,136,yes,1024
95.62043796,95.62043796,548.2919708,548.2919708,black,legacy,legacy,legacy,0,congruent,uniform,1,undefined,1,s,136,0,0,0,136,0,136,0,136,0,0,0,136,136,136,136,9/26/19 13:08,600,The main experiment item,yes,FlankertaskSL.osexp,C:/Users/Sarah Linan/Desktop,no,mono,no,18,no,white,no,yes,768,legacy,56,79,C:/Users/Sarah Linan/Desktop/SL-subject-1.csv,legacy,Kafkaesque Koffka,3.2.8,0,s,NA,s,s,NA,s,538,NA,2226,1462,NA,538,2,legacy,1024,2,48000,-16,experiment,SSSSS,1,odd,264287,4173,153795,NA,186195,1940,247351,NA,265375,1946,152332,NA,265478,266018,265372,265478,Flanker task SL,131,75116,137,yes,1024
95.65217391,95.65217391,548.5797101,548.5797101,black,legacy,legacy,legacy,0,incongruent ,uniform,1,undefined,1,s,137,0,0,0,137,0,137,0,137,0,0,0,137,137,137,137,9/26/19 13:08,600,The main experiment item,yes,FlankertaskSL.osexp,C:/Users/Sarah Linan/Desktop,no,mono,no,18,no,white,no,yes,768,legacy,57,79,C:/Users/Sarah Linan/Desktop/SL-subject-1.csv,legacy,Kafkaesque Koffka,3.2.8,0,s,NA,s,s,NA,s,588,NA,2226,1462,NA,588,2,legacy,1024,2,48000,-16,experiment,HHSHH,1,odd,266112,4173,153795,NA,186195,1940,247351,NA,267206,1946,152332,NA,267308,267897,267203,267308,Flanker task SL,132,75704,138,yes,1024
95.68345324,95.68345324,549.9928058,549.9928058,black,legacy,legacy,legacy,0,incongruent ,uniform,1,undefined,1,s,138,0,0,0,138,0,138,0,138,0,0,0,138,138,138,138,9/26/19 13:08,600,The main experiment item,yes,FlankertaskSL.osexp,C:/Users/Sarah Linan/Desktop,no,mono,no,18,no,white,no,yes,768,legacy,58,79,C:/Users/Sarah Linan/Desktop/SL-subject-1.csv,legacy,Kafkaesque Koffka,3.2.8,0,s,NA,s,s,NA,s,745,NA,2226,1462,NA,745,2,legacy,1024,2,48000,-16,experiment,HHSHH,1,odd,267988,4173,153795,NA,186195,1940,247351,NA,269090,1946,152332,NA,269192,269939,269087,269192,Flanker task SL,133,76449,139,yes,1024
95.71428571,95.71428571,550.7571429,550.7571429,black,legacy,legacy,legacy,0,incongruent,uniform,1,undefined,1,h,139,0,0,0,139,0,139,0,139,0,0,0,139,139,139,139,9/26/19 13:08,600,The main experiment item,yes,FlankertaskSL.osexp,C:/Users/Sarah Linan/Desktop,no,mono,no,18,no,white,no,yes,768,legacy,59,79,C:/Users/Sarah Linan/Desktop/SL-subject-1.csv,legacy,Kafkaesque Koffka,3.2.8,0,h,NA,s,s,NA,h,657,NA,2226,1462,NA,657,2,legacy,1024,2,48000,-16,experiment,SSHSS,1,odd,270533,4173,153795,NA,186195,1940,270030,NA,271632,1946,152332,NA,271736,272395,271629,271736,Flanker task SL,134,77106,140,yes,1024
95.74468085,95.74468085,549.9219858,549.9219858,black,legacy,legacy,legacy,0,congruent,uniform,1,undefined,1,s,140,0,0,0,140,0,140,0,140,0,0,0,140,140,140,140,9/26/19 13:08,600,The main experiment item,yes,FlankertaskSL.osexp,C:/Users/Sarah Linan/Desktop,no,mono,no,18,no,white,no,yes,768,legacy,60,79,C:/Users/Sarah Linan/Desktop/SL-subject-1.csv,legacy,Kafkaesque Koffka,3.2.8,0,s,NA,s,s,NA,s,433,NA,2226,1462,NA,433,2,legacy,1024,2,48000,-16,experiment,SSSSS,1,odd,272983,4173,153795,NA,186195,1940,272481,NA,274072,1946,152332,NA,274176,274611,274070,274175,Flanker task SL,135,77539,141,yes,1024
95.77464789,95.77464789,550.1408451,550.1408451,black,legacy,legacy,legacy,0,congruent,uniform,1,undefined,1,h,141,0,0,0,141,0,141,0,141,0,0,0,141,141,141,141,9/26/19 13:08,600,The main experiment item,yes,FlankertaskSL.osexp,C:/Users/Sarah Linan/Desktop,no,mono,no,18,no,white,no,yes,768,legacy,61,79,C:/Users/Sarah Linan/Desktop/SL-subject-1.csv,legacy,Kafkaesque Koffka,3.2.8,0,h,NA,s,s,NA,h,581,NA,2226,1462,NA,581,2,legacy,1024,2,48000,-16,experiment,HHHHH,1,odd,274701,4173,153795,NA,186195,1940,272481,NA,275802,1946,152332,NA,275904,276487,275799,275904,Flanker task SL,136,78120,142,yes,1024
95.8041958,95.8041958,548.9300699,548.9300699,black,legacy,legacy,legacy,0,incongruent ,uniform,1,undefined,1,s,142,0,0,0,142,0,142,0,142,0,0,0,142,142,142,142,9/26/19 13:08,600,The main experiment item,yes,FlankertaskSL.osexp,C:/Users/Sarah Linan/Desktop,no,mono,no,18,no,white,no,yes,768,legacy,62,79,C:/Users/Sarah Linan/Desktop/SL-subject-1.csv,legacy,Kafkaesque Koffka,3.2.8,0,s,NA,s,s,NA,s,377,NA,2226,1462,NA,377,2,legacy,1024,2,48000,-16,experiment,HHSHH,1,odd,276576,4173,153795,NA,186195,1940,272481,NA,277678,1946,152332,NA,277780,278160,277675,277780,Flanker task SL,137,78497,143,yes,1024
95.83333333,95.83333333,549.9583333,549.9583333,black,legacy,legacy,legacy,0,congruent,uniform,1,undefined,1,s,143,0,0,0,143,0,143,0,143,0,0,0,143,143,143,143,9/26/19 13:08,600,The main experiment item,yes,FlankertaskSL.osexp,C:/Users/Sarah Linan/Desktop,no,mono,no,18,no,white,no,yes,768,legacy,63,79,C:/Users/Sarah Linan/Desktop/SL-subject-1.csv,legacy,Kafkaesque Koffka,3.2.8,0,s,NA,s,s,NA,s,697,NA,2226,1462,NA,697,2,legacy,1024,2,48000,-16,experiment,SSSSS,1,odd,278252,4173,153795,NA,186195,1940,272481,NA,279355,1946,152332,NA,279457,280155,279352,279457,Flanker task SL,138,79194,144,yes,1024
95.86206897,95.86206897,549.5862069,549.5862069,black,legacy,legacy,legacy,0,incongruent,uniform,1,undefined,1,h,144,0,0,0,144,0,144,0,144,0,0,0,144,144,144,144,9/26/19 13:08,600,The main experiment item,yes,FlankertaskSL.osexp,C:/Users/Sarah Linan/Desktop,no,mono,no,18,no,white,no,yes,768,legacy,64,79,C:/Users/Sarah Linan/Desktop/SL-subject-1.csv,legacy,Kafkaesque Koffka,3.2.8,0,h,NA,s,s,NA,h,496,NA,2226,1462,NA,496,2,legacy,1024,2,48000,-16,experiment,SSHSS,1,odd,280753,4173,153795,NA,186195,1940,280248,NA,281844,1946,152332,NA,281948,282446,281841,281948,Flanker task SL,139,79690,145,yes,1024
95.89041096,95.89041096,549.4246575,549.4246575,black,legacy,legacy,legacy,0,congruent,uniform,1,undefined,1,s,145,0,0,0,145,0,145,0,145,0,0,0,145,145,145,145,9/26/19 13:08,600,The main experiment item,yes,FlankertaskSL.osexp,C:/Users/Sarah Linan/Desktop,no,mono,no,18,no,white,no,yes,768,legacy,65,79,C:/Users/Sarah Linan/Desktop/SL-subject-1.csv,legacy,Kafkaesque Koffka,3.2.8,0,s,NA,s,s,NA,s,526,NA,2226,1462,NA,526,2,legacy,1024,2,48000,-16,experiment,SSSSS,1,odd,282535,4173,153795,NA,186195,1940,280248,NA,283623,1946,152332,NA,283725,284253,283620,283725,Flanker task SL,140,80216,146,yes,1024
95.91836735,95.91836735,549.6530612,549.6530612,black,legacy,legacy,legacy,0,congruent,uniform,1,undefined,1,h,146,0,0,0,146,0,146,0,146,0,0,0,146,146,146,146,9/26/19 13:08,600,The main experiment item,yes,FlankertaskSL.osexp,C:/Users/Sarah Linan/Desktop,no,mono,no,18,no,white,no,yes,768,legacy,66,79,C:/Users/Sarah Linan/Desktop/SL-subject-1.csv,legacy,Kafkaesque Koffka,3.2.8,0,h,NA,s,s,NA,h,583,NA,2226,1462,NA,583,2,legacy,1024,2,48000,-16,experiment,HHHHH,1,odd,284344,4173,153795,NA,186195,1940,280248,NA,285432,1946,152332,NA,285534,286119,285429,285534,Flanker task SL,141,80799,147,yes,1024
95.94594595,95.94594595,549.9932432,549.9932432,black,legacy,legacy,legacy,0,incongruent,uniform,1,undefined,1,h,147,0,0,0,147,0,147,0,147,0,0,0,147,147,147,147,9/26/19 13:08,600,The main experiment item,yes,FlankertaskSL.osexp,C:/Users/Sarah Linan/Desktop,no,mono,no,18,no,white,no,yes,768,legacy,67,79,C:/Users/Sarah Linan/Desktop/SL-subject-1.csv,legacy,Kafkaesque Koffka,3.2.8,0,h,NA,s,s,NA,h,600,NA,2226,1462,NA,600,2,legacy,1024,2,48000,-16,experiment,SSHSS,1,odd,286208,4173,153795,NA,186195,1940,280248,NA,287296,1946,152332,NA,287398,288000,287293,287398,Flanker task SL,142,81399,148,yes,1024
95.97315436,95.97315436,549.8993289,549.8993289,black,legacy,legacy,legacy,0,incongruent,uniform,1,undefined,1,h,148,0,0,0,148,0,148,0,148,0,0,0,148,148,148,148,9/26/19 13:08,600,The main experiment item,yes,FlankertaskSL.osexp,C:/Users/Sarah Linan/Desktop,no,mono,no,18,no,white,no,yes,768,legacy,68,79,C:/Users/Sarah Linan/Desktop/SL-subject-1.csv,legacy,Kafkaesque Koffka,3.2.8,0,h,NA,s,s,NA,h,536,NA,2226,1462,NA,536,2,legacy,1024,2,48000,-16,experiment,SSHSS,1,odd,288041,4173,153795,NA,186195,1940,280248,NA,289143,1946,152332,NA,289245,289783,289139,289245,Flanker task SL,143,81935,149,yes,1024
96,96,550.1533333,550.1533333,black,legacy,legacy,legacy,0,congruent,uniform,1,undefined,1,s,149,0,0,0,149,0,149,0,149,0,0,0,149,149,149,149,9/26/19 13:08,600,The main experiment item,yes,FlankertaskSL.osexp,C:/Users/Sarah Linan/Desktop,no,mono,no,18,no,white,no,yes,768,legacy,69,79,C:/Users/Sarah Linan/Desktop/SL-subject-1.csv,legacy,Kafkaesque Koffka,3.2.8,0,s,NA,s,s,NA,s,588,NA,2226,1462,NA,588,2,legacy,1024,2,48000,-16,experiment,SSSSS,1,odd,289868,4173,153795,NA,186195,1940,280248,NA,290965,1946,152332,NA,291068,291658,290962,291068,Flanker task SL,144,82523,150,yes,1024
96.02649007,96.02649007,550.3708609,550.3708609,black,legacy,legacy,legacy,0,incongruent ,uniform,1,undefined,1,s,150,0,0,0,150,0,150,0,150,0,0,0,150,150,150,150,9/26/19 13:08,600,The main experiment item,yes,FlankertaskSL.osexp,C:/Users/Sarah Linan/Desktop,no,mono,no,18,no,white,no,yes,768,legacy,70,79,C:/Users/Sarah Linan/Desktop/SL-subject-1.csv,legacy,Kafkaesque Koffka,3.2.8,0,s,NA,s,s,NA,s,583,NA,2226,1462,NA,583,2,legacy,1024,2,48000,-16,experiment,HHSHH,1,odd,291743,4173,153795,NA,186195,1940,280248,NA,292835,1946,152332,NA,292937,293522,292832,292937,Flanker task SL,145,83106,151,yes,1024
96.05263158,96.05263158,550.5657895,550.5657895,black,legacy,legacy,legacy,0,incongruent,uniform,1,undefined,1,h,151,0,0,0,151,0,151,0,151,0,0,0,151,151,151,151,9/26/19 13:08,600,The main experiment item,yes,FlankertaskSL.osexp,C:/Users/Sarah Linan/Desktop,no,mono,no,18,no,white,no,yes,768,legacy,71,79,C:/Users/Sarah Linan/Desktop/SL-subject-1.csv,legacy,Kafkaesque Koffka,3.2.8,0,h,NA,s,s,NA,h,580,NA,2226,1462,NA,580,2,legacy,1024,2,48000,-16,experiment,SSHSS,1,odd,293606,4173,153795,NA,186195,1940,280248,NA,294697,1946,152332,NA,294799,295381,294694,294799,Flanker task SL,146,83686,152,yes,1024
95.4248366,95.4248366,551.8823529,551.8823529,black,legacy,legacy,legacy,0,congruent,uniform,0,undefined,0,h,152,0,0,0,152,0,152,0,152,0,0,0,152,152,152,152,9/26/19 13:08,600,The main experiment item,yes,FlankertaskSL.osexp,C:/Users/Sarah Linan/Desktop,no,mono,no,18,no,white,no,yes,768,legacy,72,79,C:/Users/Sarah Linan/Desktop/SL-subject-1.csv,legacy,Kafkaesque Koffka,3.2.8,0,s,NA,s,s,NA,s,752,NA,2226,1462,NA,752,2,legacy,1024,2,48000,-16,experiment,HHHHH,1,odd,295472,4173,153795,NA,186195,1940,280248,NA,296573,1946,152332,NA,296675,297429,296570,296675,Flanker task SL,146,84438,153,yes,1024
95.45454545,95.45454545,553.038961,553.038961,black,legacy,legacy,legacy,0,incongruent,uniform,1,undefined,1,h,153,0,0,0,153,0,153,0,153,0,0,0,153,153,153,153,9/26/19 13:08,600,The main experiment item,yes,FlankertaskSL.osexp,C:/Users/Sarah Linan/Desktop,no,mono,no,18,no,white,no,yes,768,legacy,73,79,C:/Users/Sarah Linan/Desktop/SL-subject-1.csv,legacy,Kafkaesque Koffka,3.2.8,0,h,NA,s,s,NA,h,730,NA,2226,1462,NA,730,2,legacy,1024,2,48000,-16,experiment,SSHSS,1,odd,298528,4173,153795,NA,297524,1940,298026,NA,299611,1946,152332,NA,299716,300448,299609,299715,Flanker task SL,147,85168,154,yes,1024
95.48387097,95.48387097,557.083871,557.083871,black,legacy,legacy,legacy,0,incongruent,uniform,1,undefined,1,h,154,0,0,0,154,0,154,0,154,0,0,0,154,154,154,154,9/26/19 13:08,600,The main experiment item,yes,FlankertaskSL.osexp,C:/Users/Sarah Linan/Desktop,no,mono,no,18,no,white,no,yes,768,legacy,74,79,C:/Users/Sarah Linan/Desktop/SL-subject-1.csv,legacy,Kafkaesque Koffka,3.2.8,0,h,NA,s,s,NA,h,1180,NA,2226,1462,NA,1180,2,legacy,1024,2,48000,-16,experiment,SSHSS,1,odd,301044,4173,153795,NA,297524,1940,300542,NA,302136,1946,152332,NA,302240,303422,302133,302239,Flanker task SL,148,86348,155,yes,1024
95.51282051,95.51282051,556.9679487,556.9679487,black,legacy,legacy,legacy,0,congruent,uniform,1,undefined,1,h,155,0,0,0,155,0,155,0,155,0,0,0,155,155,155,155,9/26/19 13:08,600,The main experiment item,yes,FlankertaskSL.osexp,C:/Users/Sarah Linan/Desktop,no,mono,no,18,no,white,no,yes,768,legacy,75,79,C:/Users/Sarah Linan/Desktop/SL-subject-1.csv,legacy,Kafkaesque Koffka,3.2.8,0,h,NA,s,s,NA,h,539,NA,2226,1462,NA,539,2,legacy,1024,2,48000,-16,experiment,HHHHH,1,odd,304017,4173,153795,NA,297524,1940,303515,NA,305106,1946,152332,NA,305209,305749,305103,305209,Flanker task SL,149,86887,156,yes,1024
95.54140127,95.54140127,556.1273885,556.1273885,black,legacy,legacy,legacy,0,congruent,uniform,1,undefined,1,s,156,0,0,0,156,0,156,0,156,0,0,0,156,156,156,156,9/26/19 13:08,600,The main experiment item,yes,FlankertaskSL.osexp,C:/Users/Sarah Linan/Desktop,no,mono,no,18,no,white,no,yes,768,legacy,76,79,C:/Users/Sarah Linan/Desktop/SL-subject-1.csv,legacy,Kafkaesque Koffka,3.2.8,0,s,NA,s,s,NA,s,425,NA,2226,1462,NA,425,2,legacy,1024,2,48000,-16,experiment,SSSSS,1,odd,305834,4173,153795,NA,297524,1940,303515,NA,306932,1946,152332,NA,307034,307461,306929,307034,Flanker task SL,150,87312,157,yes,1024
95.56962025,95.56962025,555.5506329,555.5506329,black,legacy,legacy,legacy,0,congruent,uniform,1,undefined,1,h,157,0,0,0,157,0,157,0,157,0,0,0,157,157,157,157,9/26/19 13:08,600,The main experiment item,yes,FlankertaskSL.osexp,C:/Users/Sarah Linan/Desktop,no,mono,no,18,no,white,no,yes,768,legacy,77,79,C:/Users/Sarah Linan/Desktop/SL-subject-1.csv,legacy,Kafkaesque Koffka,3.2.8,0,h,NA,s,s,NA,h,465,NA,2226,1462,NA,465,2,legacy,1024,2,48000,-16,experiment,HHHHH,1,odd,307553,4173,153795,NA,297524,1940,303515,NA,308650,1946,152332,NA,308752,309219,308647,308752,Flanker task SL,151,87777,158,yes,1024
95.59748428,95.59748428,554.8679245,554.8679245,black,legacy,legacy,legacy,0,incongruent ,uniform,1,undefined,1,s,158,0,0,0,158,0,158,0,158,0,0,0,158,158,158,158,9/26/19 13:08,600,The main experiment item,yes,FlankertaskSL.osexp,C:/Users/Sarah Linan/Desktop,no,mono,no,18,no,white,no,yes,768,legacy,78,79,C:/Users/Sarah Linan/Desktop/SL-subject-1.csv,legacy,Kafkaesque Koffka,3.2.8,0,s,NA,s,s,NA,s,447,NA,2226,1462,NA,447,2,legacy,1024,2,48000,-16,experiment,HHSHH,1,odd,309307,4173,153795,NA,297524,1940,303515,NA,310412,1946,152332,NA,310514,310963,310409,310514,Flanker task SL,152,88224,159,yes,1024
95.625,95.625,554.95,554.95,black,legacy,legacy,legacy,0,incongruent ,uniform,1,undefined,1,s,159,0,0,0,159,0,159,0,159,0,0,0,159,159,159,159,9/26/19 13:08,600,The main experiment item,yes,FlankertaskSL.osexp,C:/Users/Sarah Linan/Desktop,no,mono,no,18,no,white,no,yes,768,legacy,79,79,C:/Users/Sarah Linan/Desktop/SL-subject-1.csv,legacy,Kafkaesque Koffka,3.2.8,0,s,NA,s,s,NA,s,568,NA,2226,1462,NA,568,2,legacy,1024,2,48000,-16,experiment,HHSHH,1,odd,311049,4173,153795,NA,297524,1940,303515,NA,312137,1946,152332,NA,312239,312808,312134,312239,Flanker task SL,153,88792,160,yes,1024
95.65217391,95.65217391,555.5341615,555.5341615,black,legacy,legacy,legacy,0,congruent,uniform,1,undefined,1,s,160,0,0,0,160,0,160,0,160,0,0,0,160,160,160,160,9/26/19 13:08,300,The main experiment item,yes,FlankertaskSL.osexp,C:/Users/Sarah Linan/Desktop,no,mono,no,18,no,white,no,yes,768,legacy,0,79,C:/Users/Sarah Linan/Desktop/SL-subject-1.csv,legacy,Kafkaesque Koffka,3.2.8,0,s,NA,s,s,s,s,649,NA,2226,1462,6243,649,2,legacy,1024,2,48000,-16,experiment,SSSSS,1,odd,312902,4173,153795,320161,297524,1940,303515,NA,320240,1946,152332,313917,320343,320994,320238,320343,Flanker task SL,154,89441,161,yes,1024
95.67901235,95.67901235,554.9506173,554.9506173,black,legacy,legacy,legacy,0,congruent,uniform,1,undefined,1,s,161,0,0,0,161,0,161,0,161,0,0,0,161,161,161,161,9/26/19 13:08,300,The main experiment item,yes,FlankertaskSL.osexp,C:/Users/Sarah Linan/Desktop,no,mono,no,18,no,white,no,yes,768,legacy,1,79,C:/Users/Sarah Linan/Desktop/SL-subject-1.csv,legacy,Kafkaesque Koffka,3.2.8,0,s,NA,s,s,s,s,461,NA,2226,1462,6243,461,2,legacy,1024,2,48000,-16,experiment,SSSSS,1,odd,321592,4173,153795,320161,297524,1940,321090,NA,322692,1946,152332,313917,322796,323259,322689,322795,Flanker task SL,155,89902,162,yes,1024
95.70552147,95.70552147,553.3619632,553.3619632,black,legacy,legacy,legacy,0,congruent,uniform,1,undefined,1,s,162,0,0,0,162,0,162,0,162,0,0,0,162,162,162,162,9/26/19 13:08,300,The main experiment item,yes,FlankertaskSL.osexp,C:/Users/Sarah Linan/Desktop,no,mono,no,18,no,white,no,yes,768,legacy,2,79,C:/Users/Sarah Linan/Desktop/SL-subject-1.csv,legacy,Kafkaesque Koffka,3.2.8,0,s,NA,s,s,s,s,296,NA,2226,1462,6243,296,2,legacy,1024,2,48000,-16,experiment,SSSSS,1,odd,323838,4173,153795,320161,297524,1940,323335,NA,324929,1946,152332,313917,325033,325331,324926,325033,Flanker task SL,156,90198,163,yes,1024
95.12195122,95.12195122,551.6585366,551.6585366,black,legacy,legacy,legacy,0,incongruent,uniform,0,undefined,0,h,163,0,0,0,163,0,163,0,163,0,0,0,163,163,163,163,9/26/19 13:08,300,The main experiment item,yes,FlankertaskSL.osexp,C:/Users/Sarah Linan/Desktop,no,mono,no,18,no,white,no,yes,768,legacy,3,79,C:/Users/Sarah Linan/Desktop/SL-subject-1.csv,legacy,Kafkaesque Koffka,3.2.8,0,s,NA,s,s,s,s,274,NA,2226,1462,6243,274,2,legacy,1024,2,48000,-16,experiment,SSHSS,1,odd,325417,4173,153795,320161,297524,1940,323335,NA,326512,1946,152332,313917,326614,326890,326509,326614,Flanker task SL,156,90472,164,yes,1024
95.15151515,95.15151515,550.4484848,550.4484848,black,legacy,legacy,legacy,0,congruent,uniform,1,undefined,1,h,164,0,0,0,164,0,164,0,164,0,0,0,164,164,164,164,9/26/19 13:08,300,The main experiment item,yes,FlankertaskSL.osexp,C:/Users/Sarah Linan/Desktop,no,mono,no,18,no,white,no,yes,768,legacy,4,79,C:/Users/Sarah Linan/Desktop/SL-subject-1.csv,legacy,Kafkaesque Koffka,3.2.8,0,h,NA,s,s,s,h,352,NA,2226,1462,6243,352,2,legacy,1024,2,48000,-16,experiment,HHHHH,1,odd,327498,4173,153795,320161,326993,1940,323335,NA,328590,1946,152332,313917,328692,329046,328587,328691,Flanker task SL,157,90824,165,yes,1024
95.18072289,95.18072289,549.2951807,549.2951807,black,legacy,legacy,legacy,0,congruent,uniform,1,undefined,1,s,165,0,0,0,165,0,165,0,165,0,0,0,165,165,165,165,9/26/19 13:08,300,The main experiment item,yes,FlankertaskSL.osexp,C:/Users/Sarah Linan/Desktop,no,mono,no,18,no,white,no,yes,768,legacy,5,79,C:/Users/Sarah Linan/Desktop/SL-subject-1.csv,legacy,Kafkaesque Koffka,3.2.8,0,s,NA,s,s,s,s,359,NA,2226,1462,6243,359,2,legacy,1024,2,48000,-16,experiment,SSSSS,1,odd,329632,4173,153795,320161,326993,1940,329130,NA,330724,1946,152332,313917,330828,331189,330721,330828,Flanker task SL,158,91183,166,yes,1024
94.61077844,94.61077844,547.2095808,547.2095808,black,legacy,legacy,legacy,0,incongruent ,uniform,0,undefined,0,s,166,0,0,0,166,0,166,0,166,0,0,0,166,166,166,166,9/26/19 13:08,300,The main experiment item,yes,FlankertaskSL.osexp,C:/Users/Sarah Linan/Desktop,no,mono,no,18,no,white,no,yes,768,legacy,6,79,C:/Users/Sarah Linan/Desktop/SL-subject-1.csv,legacy,Kafkaesque Koffka,3.2.8,0,h,NA,s,s,s,h,201,NA,2226,1462,6243,201,2,legacy,1024,2,48000,-16,experiment,HHSHH,1,odd,331772,4173,153795,320161,326993,1940,331270,NA,332886,1946,152332,313917,332989,333193,332883,332989,Flanker task SL,158,91384,167,yes,1024
94.64285714,94.64285714,546.4166667,546.4166667,black,legacy,legacy,legacy,0,incongruent,uniform,1,undefined,1,h,167,0,0,0,167,0,167,0,167,0,0,0,167,167,167,167,9/26/19 13:08,300,The main experiment item,yes,FlankertaskSL.osexp,C:/Users/Sarah Linan/Desktop,no,mono,no,18,no,white,no,yes,768,legacy,7,79,C:/Users/Sarah Linan/Desktop/SL-subject-1.csv,legacy,Kafkaesque Koffka,3.2.8,0,h,NA,s,s,s,h,414,NA,2226,1462,6243,414,2,legacy,1024,2,48000,-16,experiment,SSHSS,1,odd,333795,4173,153795,320161,333290,1940,331270,NA,334886,1946,152332,313917,334990,335406,334883,334990,Flanker task SL,159,91798,168,yes,1024
