"acc","accuracy","average_response_time","avg_rt","background","canvas_backend","clock_backend","color_backend","compensation","condition","coordinates","correct","correct_instructions1","correct_keyboard_response","correct_response","count_Block1","count_Block2","count_Block3","count_ISI","count_errorFeedback","count_experiment","count_faster","count_finish","count_fixation","count_instructions1","count_instructions2","count_instructions3","count_keyboard_response","count_logger","count_sequence","count_stimulus","datetime","deadline","description","disable_garbage_collection","experiment_file","experiment_path","font_bold","font_family","font_italic","font_size","font_underline","foreground","form_clicks","fullscreen","height","keyboard_backend","live_row","live_row_Block1","logfile","mouse_backend","opensesame_codename","opensesame_version","repeat_cycle","response","response_finish","response_instructions1","response_instructions2","response_instructions3","response_keyboard_response","response_time","response_time_finish","response_time_instructions1","response_time_instructions2","response_time_instructions3","response_time_keyboard_response","round_decimals","sampler_backend","sound_buf_size","sound_channels","sound_freq","sound_sample_size","start","stimulus","subject_nr","subject_parity","time_Block1","time_Block2","time_Block3","time_ISI","time_errorFeedback","time_experiment","time_faster","time_finish","time_fixation","time_instructions1","time_instructions2","time_instructions3","time_keyboard_response","time_logger","time_sequence","time_stimulus","title","total_correct","total_response_time","total_responses","uniform_coordinates","width"
"100","100","865","865","#800080","legacy","legacy","legacy","0","incongruent","uniform","1","undefined","1","h","0","0","0","0","0","0","0","0","0","0","0","0","0","0","0","0","Sat Sep 26 23:07:48 2020","1500","The main experiment item","yes","FlankerTaskLab.osexp","/Users/Arianna/Desktop","no","sans","no","18","no","white","no","yes","768","legacy","0","0","/Users/Arianna/Desktop/AG-subject-4.csv","legacy","Lentiform Loewenfeld","3.3.3","0","h","NA","s","NA","NA","h","865","NA","39679","NA","NA","865","2","legacy","1024","2","48000","-16","experiment","SSHSS","4","even","43918","NA","NA","NA","NA","4196","NA","NA","43992","4211","NA","NA","44108","44974","43980","44108","Flanker Task Lab 2.1","1","865","1","yes","1024"
"50","50","790.5","790.5","#800080","legacy","legacy","legacy","0","incongruent","uniform","0","undefined","0","s","0","0","0","1","1","0","1","0","1","0","0","0","1","1","1","1","Sat Sep 26 23:07:48 2020","1500","The main experiment item","yes","FlankerTaskLab.osexp","/Users/Arianna/Desktop","no","sans","no","18","no","white","no","yes","768","legacy","1","1","/Users/Arianna/Desktop/AG-subject-4.csv","legacy","Lentiform Loewenfeld","3.3.3","0","h","NA","s","NA","NA","h","716","NA","39679","NA","NA","716","2","legacy","1024","2","48000","-16","experiment","HHSHH","4","even","43918","NA","NA","44990","NA","4196","NA","NA","46091","4211","NA","NA","46207","46924","46078","46207","Flanker Task Lab 2.1","1","1581","2","yes","1024"
"66.66666666666667","66.66666666666667","784.6666666666666","784.6666666666666","#800080","legacy","legacy","legacy","0","incongruent","uniform","1","undefined","1","h","0","0","0","2","2","0","2","0","2","0","0","0","2","2","2","2","Sat Sep 26 23:07:48 2020","1500","The main experiment item","yes","FlankerTaskLab.osexp","/Users/Arianna/Desktop","no","sans","no","18","no","white","no","yes","768","legacy","2","2","/Users/Arianna/Desktop/AG-subject-4.csv","legacy","Lentiform Loewenfeld","3.3.3","0","h","NA","s","NA","NA","h","773","NA","39679","NA","NA","773","2","legacy","1024","2","48000","-16","experiment","SSHSS","4","even","43918","NA","NA","47463","46949","4196","NA","NA","48550","4211","NA","NA","48665","49439","48536","48665","Flanker Task Lab 2.1","2","2354","3","yes","1024"
"75","75","707.5","707.5","#800080","legacy","legacy","legacy","0","congruent","uniform","1","undefined","1","s","0","0","0","3","3","0","3","0","3","0","0","0","3","3","3","3","Sat Sep 26 23:07:48 2020","1500","The main experiment item","yes","FlankerTaskLab.osexp","/Users/Arianna/Desktop","no","sans","no","18","no","white","no","yes","768","legacy","3","3","/Users/Arianna/Desktop/AG-subject-4.csv","legacy","Lentiform Loewenfeld","3.3.3","0","s","NA","s","NA","NA","s","476","NA","39679","NA","NA","476","2","legacy","1024","2","48000","-16","experiment","SSSSS","4","even","43918","NA","NA","49465","46949","4196","NA","NA","50557","4211","NA","NA","50672","51150","50545","50672","Flanker Task Lab 2.1","3","2830","4","yes","1024"
"80","80","707.2","707.2","#800080","legacy","legacy","legacy","0","incongruent","uniform","1","undefined","1","s","0","0","0","4","4","0","4","0","4","0","0","0","4","4","4","4","Sat Sep 26 23:07:48 2020","1500","The main experiment item","yes","FlankerTaskLab.osexp","/Users/Arianna/Desktop","no","sans","no","18","no","white","no","yes","768","legacy","4","4","/Users/Arianna/Desktop/AG-subject-4.csv","legacy","Lentiform Loewenfeld","3.3.3","0","s","NA","s","NA","NA","s","706","NA","39679","NA","NA","706","2","legacy","1024","2","48000","-16","experiment","HHSHH","4","even","43918","NA","NA","51176","46949","4196","NA","NA","52261","4211","NA","NA","52376","53084","52248","52376","Flanker Task Lab 2.1","4","3536","5","yes","1024"
"83.33333333333333","83.33333333333333","695.5","695.5","#800080","legacy","legacy","legacy","0","incongruent","uniform","1","undefined","1","s","0","0","0","5","5","0","5","0","5","0","0","0","5","5","5","5","Sat Sep 26 23:07:48 2020","1500","The main experiment item","yes","FlankerTaskLab.osexp","/Users/Arianna/Desktop","no","sans","no","18","no","white","no","yes","768","legacy","5","5","/Users/Arianna/Desktop/AG-subject-4.csv","legacy","Lentiform Loewenfeld","3.3.3","0","s","NA","s","NA","NA","s","637","NA","39679","NA","NA","637","2","legacy","1024","2","48000","-16","experiment","HHSHH","4","even","43918","NA","NA","53107","46949","4196","NA","NA","54192","4211","NA","NA","54307","54945","54179","54307","Flanker Task Lab 2.1","5","4173","6","yes","1024"
"85.71428571428571","85.71428571428571","670.7142857142857","670.7142857142857","#800080","legacy","legacy","legacy","0","incongruent","uniform","1","undefined","1","h","0","0","0","6","6","0","6","0","6","0","0","0","6","6","6","6","Sat Sep 26 23:07:48 2020","1500","The main experiment item","yes","FlankerTaskLab.osexp","/Users/Arianna/Desktop","no","sans","no","18","no","white","no","yes","768","legacy","6","6","/Users/Arianna/Desktop/AG-subject-4.csv","legacy","Lentiform Loewenfeld","3.3.3","0","h","NA","s","NA","NA","h","522","NA","39679","NA","NA","522","2","legacy","1024","2","48000","-16","experiment","SSHSS","4","even","43918","NA","NA","54960","46949","4196","NA","NA","56044","4211","NA","NA","56159","56683","56031","56159","Flanker Task Lab 2.1","6","4695","7","yes","1024"
"87.5","87.5","657.125","657.125","#800080","legacy","legacy","legacy","0","congruent","uniform","1","undefined","1","h","0","0","0","7","7","0","7","0","7","0","0","0","7","7","7","7","Sat Sep 26 23:07:48 2020","1500","The main experiment item","yes","FlankerTaskLab.osexp","/Users/Arianna/Desktop","no","sans","no","18","no","white","no","yes","768","legacy","7","7","/Users/Arianna/Desktop/AG-subject-4.csv","legacy","Lentiform Loewenfeld","3.3.3","0","h","NA","s","NA","NA","h","562","NA","39679","NA","NA","562","2","legacy","1024","2","48000","-16","experiment","HHHHH","4","even","43918","NA","NA","56709","46949","4196","NA","NA","57792","4211","NA","NA","57909","58473","57780","57908","Flanker Task Lab 2.1","7","5257","8","yes","1024"
"88.88888888888889","88.88888888888889","634.8888888888889","634.8888888888889","#800080","legacy","legacy","legacy","0","congruent","uniform","1","undefined","1","s","0","0","0","8","8","0","8","0","8","0","0","0","8","8","8","8","Sat Sep 26 23:07:48 2020","1500","The main experiment item","yes","FlankerTaskLab.osexp","/Users/Arianna/Desktop","no","sans","no","18","no","white","no","yes","768","legacy","8","8","/Users/Arianna/Desktop/AG-subject-4.csv","legacy","Lentiform Loewenfeld","3.3.3","0","s","NA","s","NA","NA","s","457","NA","39679","NA","NA","457","2","legacy","1024","2","48000","-16","experiment","SSSSS","4","even","43918","NA","NA","58499","46949","4196","NA","NA","59586","4211","NA","NA","59701","60159","59573","59701","Flanker Task Lab 2.1","8","5714","9","yes","1024"
"90","90","617.1","617.1","#800080","legacy","legacy","legacy","0","congruent","uniform","1","undefined","1","h","0","0","0","9","9","0","9","0","9","0","0","0","9","9","9","9","Sat Sep 26 23:07:48 2020","1500","The main experiment item","yes","FlankerTaskLab.osexp","/Users/Arianna/Desktop","no","sans","no","18","no","white","no","yes","768","legacy","9","9","/Users/Arianna/Desktop/AG-subject-4.csv","legacy","Lentiform Loewenfeld","3.3.3","0","h","NA","s","NA","NA","h","457","NA","39679","NA","NA","457","2","legacy","1024","2","48000","-16","experiment","HHHHH","4","even","43918","NA","NA","60186","46949","4196","NA","NA","61270","4211","NA","NA","61385","61843","61257","61385","Flanker Task Lab 2.1","9","6171","10","yes","1024"
"90.9090909090909","90.9090909090909","601.9090909090909","601.9090909090909","#800080","legacy","legacy","legacy","0","congruent","uniform","1","undefined","1","s","0","0","0","10","10","0","10","0","10","0","0","0","10","10","10","10","Sat Sep 26 23:07:48 2020","1500","The main experiment item","yes","FlankerTaskLab.osexp","/Users/Arianna/Desktop","no","sans","no","18","no","white","no","yes","768","legacy","10","10","/Users/Arianna/Desktop/AG-subject-4.csv","legacy","Lentiform Loewenfeld","3.3.3","0","s","NA","s","NA","NA","s","450","NA","39679","NA","NA","450","2","legacy","1024","2","48000","-16","experiment","SSSSS","4","even","43918","NA","NA","61869","46949","4196","NA","NA","62955","4211","NA","NA","63069","63520","62942","63069","Flanker Task Lab 2.1","10","6621","11","yes","1024"
"83.33333333333333","83.33333333333333","593.5","593.5","#800080","legacy","legacy","legacy","0","incongruent","uniform","0","undefined","0","h","0","0","0","11","11","0","11","0","11","0","0","0","11","11","11","11","Sat Sep 26 23:07:48 2020","1500","The main experiment item","yes","FlankerTaskLab.osexp","/Users/Arianna/Desktop","no","sans","no","18","no","white","no","yes","768","legacy","11","11","/Users/Arianna/Desktop/AG-subject-4.csv","legacy","Lentiform Loewenfeld","3.3.3","0","s","NA","s","NA","NA","s","501","NA","39679","NA","NA","501","2","legacy","1024","2","48000","-16","experiment","SSHSS","4","even","43918","NA","NA","63547","46949","4196","NA","NA","64631","4211","NA","NA","64747","65249","64618","64747","Flanker Task Lab 2.1","10","7122","12","yes","1024"
"84.61538461538461","84.61538461538461","585.3846153846154","585.3846153846154","#800080","legacy","legacy","legacy","0","congruent","uniform","1","undefined","1","h","0","0","0","12","12","0","12","0","12","0","0","0","12","12","12","12","Sat Sep 26 23:07:48 2020","1500","The main experiment item","yes","FlankerTaskLab.osexp","/Users/Arianna/Desktop","no","sans","no","18","no","white","no","yes","768","legacy","12","12","/Users/Arianna/Desktop/AG-subject-4.csv","legacy","Lentiform Loewenfeld","3.3.3","0","h","NA","s","NA","NA","h","488","NA","39679","NA","NA","488","2","legacy","1024","2","48000","-16","experiment","HHHHH","4","even","43918","NA","NA","65790","65275","4196","NA","NA","66877","4211","NA","NA","66993","67482","66864","66993","Flanker Task Lab 2.1","11","7610","13","yes","1024"
"85.71428571428571","85.71428571428571","577.2857142857143","577.2857142857143","#800080","legacy","legacy","legacy","0","congruent","uniform","1","undefined","1","s","0","0","0","13","13","0","13","0","13","0","0","0","13","13","13","13","Sat Sep 26 23:07:48 2020","1500","The main experiment item","yes","FlankerTaskLab.osexp","/Users/Arianna/Desktop","no","sans","no","18","no","white","no","yes","768","legacy","13","13","/Users/Arianna/Desktop/AG-subject-4.csv","legacy","Lentiform Loewenfeld","3.3.3","0","s","NA","s","NA","NA","s","472","NA","39679","NA","NA","472","2","legacy","1024","2","48000","-16","experiment","SSSSS","4","even","43918","NA","NA","67509","65275","4196","NA","NA","68596","4211","NA","NA","68712","69185","68584","68712","Flanker Task Lab 2.1","12","8082","14","yes","1024"
"86.66666666666667","86.66666666666667","575.2666666666667","575.2666666666667","#800080","legacy","legacy","legacy","0","incongruent","uniform","1","undefined","1","h","0","0","0","14","14","0","14","0","14","0","0","0","14","14","14","14","Sat Sep 26 23:07:48 2020","1500","The main experiment item","yes","FlankerTaskLab.osexp","/Users/Arianna/Desktop","no","sans","no","18","no","white","no","yes","768","legacy","14","14","/Users/Arianna/Desktop/AG-subject-4.csv","legacy","Lentiform Loewenfeld","3.3.3","0","h","NA","s","NA","NA","h","547","NA","39679","NA","NA","547","2","legacy","1024","2","48000","-16","experiment","SSHSS","4","even","43918","NA","NA","69212","65275","4196","NA","NA","70297","4211","NA","NA","70412","70960","70284","70412","Flanker Task Lab 2.1","13","8629","15","yes","1024"
"87.5","87.5","594.125","594.125","#800080","legacy","legacy","legacy","0","congruent","uniform","1","undefined","1","h","0","0","0","15","15","0","15","0","15","0","0","0","15","15","15","15","Sat Sep 26 23:07:48 2020","1500","The main experiment item","yes","FlankerTaskLab.osexp","/Users/Arianna/Desktop","no","sans","no","18","no","white","no","yes","768","legacy","15","15","/Users/Arianna/Desktop/AG-subject-4.csv","legacy","Lentiform Loewenfeld","3.3.3","0","h","NA","s","NA","NA","h","877","NA","39679","NA","NA","877","2","legacy","1024","2","48000","-16","experiment","HHHHH","4","even","43918","NA","NA","70985","65275","4196","NA","NA","72068","4211","NA","NA","72183","73061","72055","72183","Flanker Task Lab 2.1","14","9506","16","yes","1024"
"88.23529411764706","88.23529411764706","592.7058823529412","592.7058823529412","#800080","legacy","legacy","legacy","0","incongruent","uniform","1","undefined","1","h","0","0","0","16","16","0","16","0","16","0","0","0","16","16","16","16","Sat Sep 26 23:07:48 2020","1500","The main experiment item","yes","FlankerTaskLab.osexp","/Users/Arianna/Desktop","no","sans","no","18","no","white","no","yes","768","legacy","16","16","/Users/Arianna/Desktop/AG-subject-4.csv","legacy","Lentiform Loewenfeld","3.3.3","0","h","NA","s","NA","NA","h","570","NA","39679","NA","NA","570","2","legacy","1024","2","48000","-16","experiment","SSHSS","4","even","43918","NA","NA","73087","65275","4196","NA","NA","74171","4211","NA","NA","74286","74857","74158","74286","Flanker Task Lab 2.1","15","10076","17","yes","1024"
"88.88888888888889","88.88888888888889","587.3888888888889","587.3888888888889","#800080","legacy","legacy","legacy","0","congruent","uniform","1","undefined","1","s","0","0","0","17","17","0","17","0","17","0","0","0","17","17","17","17","Sat Sep 26 23:07:48 2020","1500","The main experiment item","yes","FlankerTaskLab.osexp","/Users/Arianna/Desktop","no","sans","no","18","no","white","no","yes","768","legacy","17","17","/Users/Arianna/Desktop/AG-subject-4.csv","legacy","Lentiform Loewenfeld","3.3.3","0","s","NA","s","NA","NA","s","497","NA","39679","NA","NA","497","2","legacy","1024","2","48000","-16","experiment","SSSSS","4","even","43918","NA","NA","74883","65275","4196","NA","NA","75972","4211","NA","NA","76087","76586","75959","76086","Flanker Task Lab 2.1","16","10573","18","yes","1024"
"89.47368421052632","89.47368421052632","593.578947368421","593.578947368421","#800080","legacy","legacy","legacy","0","incongruent","uniform","1","undefined","1","s","0","0","0","18","18","0","18","0","18","0","0","0","18","18","18","18","Sat Sep 26 23:07:48 2020","1500","The main experiment item","yes","FlankerTaskLab.osexp","/Users/Arianna/Desktop","no","sans","no","18","no","white","no","yes","768","legacy","18","18","/Users/Arianna/Desktop/AG-subject-4.csv","legacy","Lentiform Loewenfeld","3.3.3","0","s","NA","s","NA","NA","s","705","NA","39679","NA","NA","705","2","legacy","1024","2","48000","-16","experiment","HHSHH","4","even","43918","NA","NA","76612","65275","4196","NA","NA","77697","4211","NA","NA","77812","78519","77683","77812","Flanker Task Lab 2.1","17","11278","19","yes","1024"
"90","90","588.75","588.75","#800080","legacy","legacy","legacy","0","incongruent","uniform","1","undefined","1","h","0","0","0","19","19","0","19","0","19","0","0","0","19","19","19","19","Sat Sep 26 23:07:48 2020","1500","The main experiment item","yes","FlankerTaskLab.osexp","/Users/Arianna/Desktop","no","sans","no","18","no","white","no","yes","768","legacy","19","19","/Users/Arianna/Desktop/AG-subject-4.csv","legacy","Lentiform Loewenfeld","3.3.3","0","h","NA","s","NA","NA","h","497","NA","39679","NA","NA","497","2","legacy","1024","2","48000","-16","experiment","SSHSS","4","even","43918","NA","NA","78545","65275","4196","NA","NA","79632","4211","NA","NA","79747","80246","79620","79747","Flanker Task Lab 2.1","18","11775","20","yes","1024"
"90.47619047619048","90.47619047619048","585.4761904761905","585.4761904761905","#800080","legacy","legacy","legacy","0","congruent","uniform","1","undefined","1","s","0","0","0","20","20","0","20","0","20","0","0","0","20","20","20","20","Sat Sep 26 23:07:48 2020","1500","The main experiment item","yes","FlankerTaskLab.osexp","/Users/Arianna/Desktop","no","sans","no","18","no","white","no","yes","768","legacy","20","20","/Users/Arianna/Desktop/AG-subject-4.csv","legacy","Lentiform Loewenfeld","3.3.3","0","s","NA","s","NA","NA","s","520","NA","39679","NA","NA","520","2","legacy","1024","2","48000","-16","experiment","SSSSS","4","even","43918","NA","NA","80272","65275","4196","NA","NA","81357","4211","NA","NA","81472","81993","81344","81472","Flanker Task Lab 2.1","19","12295","21","yes","1024"
"90.9090909090909","90.9090909090909","582.5","582.5","#800080","legacy","legacy","legacy","0","congruent","uniform","1","undefined","1","s","0","0","0","21","21","0","21","0","21","0","0","0","21","21","21","21","Sat Sep 26 23:07:48 2020","1500","The main experiment item","yes","FlankerTaskLab.osexp","/Users/Arianna/Desktop","no","sans","no","18","no","white","no","yes","768","legacy","21","21","/Users/Arianna/Desktop/AG-subject-4.csv","legacy","Lentiform Loewenfeld","3.3.3","0","s","NA","s","NA","NA","s","520","NA","39679","NA","NA","520","2","legacy","1024","2","48000","-16","experiment","SSSSS","4","even","43918","NA","NA","82016","65275","4196","NA","NA","83100","4211","NA","NA","83215","83736","83086","83215","Flanker Task Lab 2.1","20","12815","22","yes","1024"
"91.30434782608695","91.30434782608695","579.9130434782609","579.9130434782609","#800080","legacy","legacy","legacy","0","incongruent","uniform","1","undefined","1","h","0","0","0","22","22","0","22","0","22","0","0","0","22","22","22","22","Sat Sep 26 23:07:48 2020","1500","The main experiment item","yes","FlankerTaskLab.osexp","/Users/Arianna/Desktop","no","sans","no","18","no","white","no","yes","768","legacy","22","22","/Users/Arianna/Desktop/AG-subject-4.csv","legacy","Lentiform Loewenfeld","3.3.3","0","h","NA","s","NA","NA","h","523","NA","39679","NA","NA","523","2","legacy","1024","2","48000","-16","experiment","SSHSS","4","even","43918","NA","NA","83763","65275","4196","NA","NA","84850","4211","NA","NA","84966","85490","84837","84966","Flanker Task Lab 2.1","21","13338","23","yes","1024"
"91.66666666666667","91.66666666666667","582.9166666666666","582.9166666666666","#800080","legacy","legacy","legacy","0","incongruent","uniform","1","undefined","1","h","0","0","0","23","23","0","23","0","23","0","0","0","23","23","23","23","Sat Sep 26 23:07:48 2020","1500","The main experiment item","yes","FlankerTaskLab.osexp","/Users/Arianna/Desktop","no","sans","no","18","no","white","no","yes","768","legacy","23","23","/Users/Arianna/Desktop/AG-subject-4.csv","legacy","Lentiform Loewenfeld","3.3.3","0","h","NA","s","NA","NA","h","652","NA","39679","NA","NA","652","2","legacy","1024","2","48000","-16","experiment","SSHSS","4","even","43918","NA","NA","85504","65275","4196","NA","NA","86588","4211","NA","NA","86703","87356","86576","86703","Flanker Task Lab 2.1","22","13990","24","yes","1024"
"92","92","579.36","579.36","#800080","legacy","legacy","legacy","0","congruent","uniform","1","undefined","1","s","0","0","0","24","24","0","24","0","24","0","0","0","24","24","24","24","Sat Sep 26 23:07:48 2020","1500","The main experiment item","yes","FlankerTaskLab.osexp","/Users/Arianna/Desktop","no","sans","no","18","no","white","no","yes","768","legacy","24","24","/Users/Arianna/Desktop/AG-subject-4.csv","legacy","Lentiform Loewenfeld","3.3.3","0","s","NA","s","NA","NA","s","494","NA","39679","NA","NA","494","2","legacy","1024","2","48000","-16","experiment","SSSSS","4","even","43918","NA","NA","87383","65275","4196","NA","NA","88470","4211","NA","NA","88585","89080","88456","88585","Flanker Task Lab 2.1","23","14484","25","yes","1024"
"92.3076923076923","92.3076923076923","583.0384615384615","583.0384615384615","#800080","legacy","legacy","legacy","0","congruent","uniform","1","undefined","1","s","0","0","0","25","25","0","25","0","25","0","0","0","25","25","25","25","Sat Sep 26 23:07:48 2020","1500","The main experiment item","yes","FlankerTaskLab.osexp","/Users/Arianna/Desktop","no","sans","no","18","no","white","no","yes","768","legacy","25","25","/Users/Arianna/Desktop/AG-subject-4.csv","legacy","Lentiform Loewenfeld","3.3.3","0","s","NA","s","NA","NA","s","675","NA","39679","NA","NA","675","2","legacy","1024","2","48000","-16","experiment","SSSSS","4","even","43918","NA","NA","89107","65275","4196","NA","NA","90193","4211","NA","NA","90309","90985","90180","90308","Flanker Task Lab 2.1","24","15159","26","yes","1024"
"92.5925925925926","92.5925925925926","574.2222222222222","574.2222222222222","#800080","legacy","legacy","legacy","0","congruent","uniform","1","undefined","1","h","0","0","0","26","26","0","26","0","26","0","0","0","26","26","26","26","Sat Sep 26 23:07:48 2020","1500","The main experiment item","yes","FlankerTaskLab.osexp","/Users/Arianna/Desktop","no","sans","no","18","no","white","no","yes","768","legacy","26","26","/Users/Arianna/Desktop/AG-subject-4.csv","legacy","Lentiform Loewenfeld","3.3.3","0","h","NA","s","NA","NA","h","345","NA","39679","NA","NA","345","2","legacy","1024","2","48000","-16","experiment","HHHHH","4","even","43918","NA","NA","91011","65275","4196","NA","NA","92096","4211","NA","NA","92211","92557","92083","92211","Flanker Task Lab 2.1","25","15504","27","yes","1024"
"89.28571428571429","89.28571428571429","569.1428571428571","569.1428571428571","#800080","legacy","legacy","legacy","0","incongruent","uniform","0","undefined","0","s","0","0","0","27","27","0","27","0","27","0","0","0","27","27","27","27","Sat Sep 26 23:07:48 2020","1500","The main experiment item","yes","FlankerTaskLab.osexp","/Users/Arianna/Desktop","no","sans","no","18","no","white","no","yes","768","legacy","27","27","/Users/Arianna/Desktop/AG-subject-4.csv","legacy","Lentiform Loewenfeld","3.3.3","0","h","NA","s","NA","NA","h","432","NA","39679","NA","NA","432","2","legacy","1024","2","48000","-16","experiment","HHSHH","4","even","43918","NA","NA","92571","65275","4196","NA","NA","93655","4211","NA","NA","93770","94204","93642","93770","Flanker Task Lab 2.1","25","15936","28","yes","1024"
"89.65517241379311","89.65517241379311","568.2413793103449","568.2413793103449","#800080","legacy","legacy","legacy","0","incongruent","uniform","1","undefined","1","h","0","0","0","28","28","0","28","0","28","0","0","0","28","28","28","28","Sat Sep 26 23:07:48 2020","1500","The main experiment item","yes","FlankerTaskLab.osexp","/Users/Arianna/Desktop","no","sans","no","18","no","white","no","yes","768","legacy","28","28","/Users/Arianna/Desktop/AG-subject-4.csv","legacy","Lentiform Loewenfeld","3.3.3","0","h","NA","s","NA","NA","h","543","NA","39679","NA","NA","543","2","legacy","1024","2","48000","-16","experiment","SSHSS","4","even","43918","NA","NA","94743","94229","4196","NA","NA","95830","4211","NA","NA","95946","96491","95817","95945","Flanker Task Lab 2.1","26","16479","29","yes","1024"
"90","90","571.9666666666667","571.9666666666667","#800080","legacy","legacy","legacy","0","incongruent","uniform","1","undefined","1","h","0","0","0","29","29","0","29","0","29","0","0","0","29","29","29","29","Sat Sep 26 23:07:48 2020","1500","The main experiment item","yes","FlankerTaskLab.osexp","/Users/Arianna/Desktop","no","sans","no","18","no","white","no","yes","768","legacy","29","29","/Users/Arianna/Desktop/AG-subject-4.csv","legacy","Lentiform Loewenfeld","3.3.3","0","h","NA","s","NA","NA","h","680","NA","39679","NA","NA","680","2","legacy","1024","2","48000","-16","experiment","SSHSS","4","even","43918","NA","NA","96518","94229","4196","NA","NA","97603","4211","NA","NA","97718","98400","97590","97718","Flanker Task Lab 2.1","27","17159","30","yes","1024"
"90.3225806451613","90.3225806451613","571.9032258064516","571.9032258064516","#800080","legacy","legacy","legacy","0","congruent","uniform","1","undefined","1","h","0","0","0","30","30","0","30","0","30","0","0","0","30","30","30","30","Sat Sep 26 23:07:48 2020","1500","The main experiment item","yes","FlankerTaskLab.osexp","/Users/Arianna/Desktop","no","sans","no","18","no","white","no","yes","768","legacy","30","30","/Users/Arianna/Desktop/AG-subject-4.csv","legacy","Lentiform Loewenfeld","3.3.3","0","h","NA","s","NA","NA","h","570","NA","39679","NA","NA","570","2","legacy","1024","2","48000","-16","experiment","HHHHH","4","even","43918","NA","NA","98427","94229","4196","NA","NA","99517","4211","NA","NA","99633","100204","99503","99632","Flanker Task Lab 2.1","28","17729","31","yes","1024"
"90.625","90.625","572.71875","572.71875","#800080","legacy","legacy","legacy","0","incongruent","uniform","1","undefined","1","h","0","0","0","31","31","0","31","0","31","0","0","0","31","31","31","31","Sat Sep 26 23:07:48 2020","1500","The main experiment item","yes","FlankerTaskLab.osexp","/Users/Arianna/Desktop","no","sans","no","18","no","white","no","yes","768","legacy","31","31","/Users/Arianna/Desktop/AG-subject-4.csv","legacy","Lentiform Loewenfeld","3.3.3","0","h","NA","s","NA","NA","h","598","NA","39679","NA","NA","598","2","legacy","1024","2","48000","-16","experiment","SSHSS","4","even","43918","NA","NA","100230","94229","4196","NA","NA","101314","4211","NA","NA","101429","102029","101301","101429","Flanker Task Lab 2.1","29","18327","32","yes","1024"
"90.9090909090909","90.9090909090909","570.4848484848485","570.4848484848485","#800080","legacy","legacy","legacy","0","congruent","uniform","1","undefined","1","s","0","0","0","32","32","0","32","0","32","0","0","0","32","32","32","32","Sat Sep 26 23:07:48 2020","1500","The main experiment item","yes","FlankerTaskLab.osexp","/Users/Arianna/Desktop","no","sans","no","18","no","white","no","yes","768","legacy","32","32","/Users/Arianna/Desktop/AG-subject-4.csv","legacy","Lentiform Loewenfeld","3.3.3","0","s","NA","s","NA","NA","s","499","NA","39679","NA","NA","499","2","legacy","1024","2","48000","-16","experiment","SSSSS","4","even","43918","NA","NA","102055","94229","4196","NA","NA","103139","4211","NA","NA","103255","103755","103125","103254","Flanker Task Lab 2.1","30","18826","33","yes","1024"
"91.17647058823529","91.17647058823529","569.2058823529412","569.2058823529412","#800080","legacy","legacy","legacy","0","incongruent","uniform","1","undefined","1","h","0","0","0","33","33","0","33","0","33","0","0","0","33","33","33","33","Sat Sep 26 23:07:48 2020","1500","The main experiment item","yes","FlankerTaskLab.osexp","/Users/Arianna/Desktop","no","sans","no","18","no","white","no","yes","768","legacy","33","33","/Users/Arianna/Desktop/AG-subject-4.csv","legacy","Lentiform Loewenfeld","3.3.3","0","h","NA","s","NA","NA","h","527","NA","39679","NA","NA","527","2","legacy","1024","2","48000","-16","experiment","SSHSS","4","even","43918","NA","NA","103779","94229","4196","NA","NA","104871","4211","NA","NA","104985","105514","104855","104985","Flanker Task Lab 2.1","31","19353","34","yes","1024"
"91.42857142857143","91.42857142857143","594.8857142857142","594.8857142857142","#800080","legacy","legacy","legacy","0","congruent","uniform","1","undefined","1","h","0","0","0","34","34","0","34","0","34","0","0","0","34","34","34","34","Sat Sep 26 23:07:48 2020","1500","The main experiment item","yes","FlankerTaskLab.osexp","/Users/Arianna/Desktop","no","sans","no","18","no","white","no","yes","768","legacy","34","34","/Users/Arianna/Desktop/AG-subject-4.csv","legacy","Lentiform Loewenfeld","3.3.3","0","h","NA","s","NA","NA","h","1468","NA","39679","NA","NA","1468","2","legacy","1024","2","48000","-16","experiment","HHHHH","4","even","43918","NA","NA","105534","94229","4196","NA","NA","106651","4211","NA","NA","106764","108234","106631","106764","Flanker Task Lab 2.1","32","20821","35","yes","1024"
"91.66666666666667","91.66666666666667","590.75","590.75","#800080","legacy","legacy","legacy","0","congruent","uniform","1","undefined","1","h","0","0","0","35","35","0","35","0","35","0","0","0","35","35","35","35","Sat Sep 26 23:07:48 2020","1500","The main experiment item","yes","FlankerTaskLab.osexp","/Users/Arianna/Desktop","no","sans","no","18","no","white","no","yes","768","legacy","35","35","/Users/Arianna/Desktop/AG-subject-4.csv","legacy","Lentiform Loewenfeld","3.3.3","0","h","NA","s","NA","NA","h","446","NA","39679","NA","NA","446","2","legacy","1024","2","48000","-16","experiment","HHHHH","4","even","43918","NA","NA","108250","94229","4196","NA","NA","109335","4211","NA","NA","109450","109897","109323","109450","Flanker Task Lab 2.1","33","21267","36","yes","1024"
"91.89189189189189","91.89189189189189","585.4054054054054","585.4054054054054","#800080","legacy","legacy","legacy","0","congruent","uniform","1","undefined","1","h","0","0","0","36","36","0","36","0","36","0","0","0","36","36","36","36","Sat Sep 26 23:07:48 2020","1500","The main experiment item","yes","FlankerTaskLab.osexp","/Users/Arianna/Desktop","no","sans","no","18","no","white","no","yes","768","legacy","36","36","/Users/Arianna/Desktop/AG-subject-4.csv","legacy","Lentiform Loewenfeld","3.3.3","0","h","NA","s","NA","NA","h","393","NA","39679","NA","NA","393","2","legacy","1024","2","48000","-16","experiment","HHHHH","4","even","43918","NA","NA","109912","94229","4196","NA","NA","110997","4211","NA","NA","111112","111506","110984","111112","Flanker Task Lab 2.1","34","21660","37","yes","1024"
"92.10526315789474","92.10526315789474","581.1315789473684","581.1315789473684","#800080","legacy","legacy","legacy","0","congruent","uniform","1","undefined","1","h","0","0","0","37","37","0","37","0","37","0","0","0","37","37","37","37","Sat Sep 26 23:07:48 2020","1500","The main experiment item","yes","FlankerTaskLab.osexp","/Users/Arianna/Desktop","no","sans","no","18","no","white","no","yes","768","legacy","37","37","/Users/Arianna/Desktop/AG-subject-4.csv","legacy","Lentiform Loewenfeld","3.3.3","0","h","NA","s","NA","NA","h","423","NA","39679","NA","NA","423","2","legacy","1024","2","48000","-16","experiment","HHHHH","4","even","43918","NA","NA","111532","94229","4196","NA","NA","112618","4211","NA","NA","112733","113157","112605","112733","Flanker Task Lab 2.1","35","22083","38","yes","1024"
"92.3076923076923","92.3076923076923","577.5384615384615","577.5384615384615","#800080","legacy","legacy","legacy","0","congruent","uniform","1","undefined","1","h","0","0","0","38","38","0","38","0","38","0","0","0","38","38","38","38","Sat Sep 26 23:07:48 2020","1500","The main experiment item","yes","FlankerTaskLab.osexp","/Users/Arianna/Desktop","no","sans","no","18","no","white","no","yes","768","legacy","38","38","/Users/Arianna/Desktop/AG-subject-4.csv","legacy","Lentiform Loewenfeld","3.3.3","0","h","NA","s","NA","NA","h","441","NA","39679","NA","NA","441","2","legacy","1024","2","48000","-16","experiment","HHHHH","4","even","43918","NA","NA","113179","94229","4196","NA","NA","114263","4211","NA","NA","114378","114820","114250","114378","Flanker Task Lab 2.1","36","22524","39","yes","1024"
"90","90","572.125","572.125","#800080","legacy","legacy","legacy","0","incongruent","uniform","0","undefined","0","s","0","0","0","39","39","0","39","0","39","0","0","0","39","39","39","39","Sat Sep 26 23:07:48 2020","1500","The main experiment item","yes","FlankerTaskLab.osexp","/Users/Arianna/Desktop","no","sans","no","18","no","white","no","yes","768","legacy","39","39","/Users/Arianna/Desktop/AG-subject-4.csv","legacy","Lentiform Loewenfeld","3.3.3","0","h","NA","s","NA","NA","h","361","NA","39679","NA","NA","361","2","legacy","1024","2","48000","-16","experiment","HHSHH","4","even","43918","NA","NA","114843","94229","4196","NA","NA","115927","4211","NA","NA","116042","116404","115914","116041","Flanker Task Lab 2.1","36","22885","40","yes","1024"
"90.2439024390244","90.2439024390244","571.5121951219512","571.5121951219512","#800080","legacy","legacy","legacy","0","incongruent","uniform","1","undefined","1","h","0","0","0","40","40","0","40","0","40","0","0","0","40","40","40","40","Sat Sep 26 23:07:48 2020","1500","The main experiment item","yes","FlankerTaskLab.osexp","/Users/Arianna/Desktop","no","sans","no","18","no","white","no","yes","768","legacy","40","40","/Users/Arianna/Desktop/AG-subject-4.csv","legacy","Lentiform Loewenfeld","3.3.3","0","h","NA","s","NA","NA","h","547","NA","39679","NA","NA","547","2","legacy","1024","2","48000","-16","experiment","SSHSS","4","even","43918","NA","NA","116945","116430","4196","NA","NA","118028","4211","NA","NA","118143","118692","118015","118143","Flanker Task Lab 2.1","37","23432","41","yes","1024"
"90.47619047619048","90.47619047619048","568.2857142857143","568.2857142857143","#800080","legacy","legacy","legacy","0","incongruent","uniform","1","undefined","1","s","0","0","0","41","41","0","41","0","41","0","0","0","41","41","41","41","Sat Sep 26 23:07:48 2020","1500","The main experiment item","yes","FlankerTaskLab.osexp","/Users/Arianna/Desktop","no","sans","no","18","no","white","no","yes","768","legacy","41","41","/Users/Arianna/Desktop/AG-subject-4.csv","legacy","Lentiform Loewenfeld","3.3.3","0","s","NA","s","NA","NA","s","436","NA","39679","NA","NA","436","2","legacy","1024","2","48000","-16","experiment","HHSHH","4","even","43918","NA","NA","118719","116430","4196","NA","NA","119803","4211","NA","NA","119919","120357","119790","119919","Flanker Task Lab 2.1","38","23868","42","yes","1024"
"90.69767441860465","90.69767441860465","565.4186046511628","565.4186046511628","#800080","legacy","legacy","legacy","0","congruent","uniform","1","undefined","1","h","0","0","0","42","42","0","42","0","42","0","0","0","42","42","42","42","Sat Sep 26 23:07:48 2020","1500","The main experiment item","yes","FlankerTaskLab.osexp","/Users/Arianna/Desktop","no","sans","no","18","no","white","no","yes","768","legacy","42","42","/Users/Arianna/Desktop/AG-subject-4.csv","legacy","Lentiform Loewenfeld","3.3.3","0","h","NA","s","NA","NA","h","445","NA","39679","NA","NA","445","2","legacy","1024","2","48000","-16","experiment","HHHHH","4","even","43918","NA","NA","120383","116430","4196","NA","NA","121468","4211","NA","NA","121583","122030","121455","121583","Flanker Task Lab 2.1","39","24313","43","yes","1024"
"90.9090909090909","90.9090909090909","563.2045454545455","563.2045454545455","#800080","legacy","legacy","legacy","0","incongruent","uniform","1","undefined","1","h","0","0","0","43","43","0","43","0","43","0","0","0","43","43","43","43","Sat Sep 26 23:07:48 2020","1500","The main experiment item","yes","FlankerTaskLab.osexp","/Users/Arianna/Desktop","no","sans","no","18","no","white","no","yes","768","legacy","43","43","/Users/Arianna/Desktop/AG-subject-4.csv","legacy","Lentiform Loewenfeld","3.3.3","0","h","NA","s","NA","NA","h","468","NA","39679","NA","NA","468","2","legacy","1024","2","48000","-16","experiment","SSHSS","4","even","43918","NA","NA","122046","116430","4196","NA","NA","123132","4211","NA","NA","123247","123717","123118","123247","Flanker Task Lab 2.1","40","24781","44","yes","1024"
"91.11111111111111","91.11111111111111","563.1777777777778","563.1777777777778","#800080","legacy","legacy","legacy","0","incongruent","uniform","1","undefined","1","s","0","0","0","44","44","0","44","0","44","0","0","0","44","44","44","44","Sat Sep 26 23:07:48 2020","1500","The main experiment item","yes","FlankerTaskLab.osexp","/Users/Arianna/Desktop","no","sans","no","18","no","white","no","yes","768","legacy","44","44","/Users/Arianna/Desktop/AG-subject-4.csv","legacy","Lentiform Loewenfeld","3.3.3","0","s","NA","s","NA","NA","s","562","NA","39679","NA","NA","562","2","legacy","1024","2","48000","-16","experiment","HHSHH","4","even","43918","NA","NA","123742","116430","4196","NA","NA","124827","4211","NA","NA","124943","125507","124814","124943","Flanker Task Lab 2.1","41","25343","45","yes","1024"
"91.30434782608695","91.30434782608695","558.7173913043479","558.7173913043479","#800080","legacy","legacy","legacy","0","congruent","uniform","1","undefined","1","s","0","0","0","45","45","0","45","0","45","0","0","0","45","45","45","45","Sat Sep 26 23:07:48 2020","1500","The main experiment item","yes","FlankerTaskLab.osexp","/Users/Arianna/Desktop","no","sans","no","18","no","white","no","yes","768","legacy","45","45","/Users/Arianna/Desktop/AG-subject-4.csv","legacy","Lentiform Loewenfeld","3.3.3","0","s","NA","s","NA","NA","s","358","NA","39679","NA","NA","358","2","legacy","1024","2","48000","-16","experiment","SSSSS","4","even","43918","NA","NA","125521","116430","4196","NA","NA","126609","4211","NA","NA","126725","127085","126596","126724","Flanker Task Lab 2.1","42","25701","46","yes","1024"
"91.48936170212765","91.48936170212765","555.5744680851063","555.5744680851063","#800080","legacy","legacy","legacy","0","congruent","uniform","1","undefined","1","s","0","0","0","46","46","0","46","0","46","0","0","0","46","46","46","46","Sat Sep 26 23:07:48 2020","1500","The main experiment item","yes","FlankerTaskLab.osexp","/Users/Arianna/Desktop","no","sans","no","18","no","white","no","yes","768","legacy","46","46","/Users/Arianna/Desktop/AG-subject-4.csv","legacy","Lentiform Loewenfeld","3.3.3","0","s","NA","s","NA","NA","s","411","NA","39679","NA","NA","411","2","legacy","1024","2","48000","-16","experiment","SSSSS","4","even","43918","NA","NA","127102","116430","4196","NA","NA","128187","4211","NA","NA","128303","128717","128173","128302","Flanker Task Lab 2.1","43","26112","47","yes","1024"
"91.66666666666667","91.66666666666667","552.7083333333334","552.7083333333334","#800080","legacy","legacy","legacy","0","incongruent","uniform","1","undefined","1","h","0","0","0","47","47","0","47","0","47","0","0","0","47","47","47","47","Sat Sep 26 23:07:48 2020","1500","The main experiment item","yes","FlankerTaskLab.osexp","/Users/Arianna/Desktop","no","sans","no","18","no","white","no","yes","768","legacy","47","47","/Users/Arianna/Desktop/AG-subject-4.csv","legacy","Lentiform Loewenfeld","3.3.3","0","h","NA","s","NA","NA","h","418","NA","39679","NA","NA","418","2","legacy","1024","2","48000","-16","experiment","SSHSS","4","even","43918","NA","NA","128732","116430","4196","NA","NA","129820","4211","NA","NA","129936","130356","129807","129936","Flanker Task Lab 2.1","44","26530","48","yes","1024"
"91.83673469387755","91.83673469387755","549.6326530612245","549.6326530612245","#800080","legacy","legacy","legacy","0","congruent","uniform","1","undefined","1","h","0","0","0","48","48","0","48","0","48","0","0","0","48","48","48","48","Sat Sep 26 23:07:48 2020","1500","The main experiment item","yes","FlankerTaskLab.osexp","/Users/Arianna/Desktop","no","sans","no","18","no","white","no","yes","768","legacy","48","48","/Users/Arianna/Desktop/AG-subject-4.csv","legacy","Lentiform Loewenfeld","3.3.3","0","h","NA","s","NA","NA","h","402","NA","39679","NA","NA","402","2","legacy","1024","2","48000","-16","experiment","HHHHH","4","even","43918","NA","NA","130372","116430","4196","NA","NA","131469","4211","NA","NA","131585","131989","131451","131584","Flanker Task Lab 2.1","45","26932","49","yes","1024"
"92","92","549.06","549.06","#800080","legacy","legacy","legacy","0","congruent","uniform","1","undefined","1","s","0","0","0","49","49","0","49","0","49","0","0","0","49","49","49","49","Sat Sep 26 23:07:48 2020","1500","The main experiment item","yes","FlankerTaskLab.osexp","/Users/Arianna/Desktop","no","sans","no","18","no","white","no","yes","768","legacy","49","49","/Users/Arianna/Desktop/AG-subject-4.csv","legacy","Lentiform Loewenfeld","3.3.3","0","s","NA","s","NA","NA","s","521","NA","39679","NA","NA","521","2","legacy","1024","2","48000","-16","experiment","SSSSS","4","even","43918","NA","NA","132004","116430","4196","NA","NA","133087","4211","NA","NA","133200","133722","133074","133200","Flanker Task Lab 2.1","46","27453","50","yes","1024"
"92.15686274509804","92.15686274509804","550.0588235294117","550.0588235294117","#800080","legacy","legacy","legacy","0","incongruent","uniform","1","undefined","1","s","0","0","0","50","50","0","50","0","50","0","0","0","50","50","50","50","Sat Sep 26 23:07:48 2020","1500","The main experiment item","yes","FlankerTaskLab.osexp","/Users/Arianna/Desktop","no","sans","no","18","no","white","no","yes","768","legacy","50","50","/Users/Arianna/Desktop/AG-subject-4.csv","legacy","Lentiform Loewenfeld","3.3.3","0","s","NA","s","NA","NA","s","600","NA","39679","NA","NA","600","2","legacy","1024","2","48000","-16","experiment","HHSHH","4","even","43918","NA","NA","133737","116430","4196","NA","NA","134826","4211","NA","NA","134942","135543","134813","134942","Flanker Task Lab 2.1","47","28053","51","yes","1024"
"92.3076923076923","92.3076923076923","545.1923076923077","545.1923076923077","#800080","legacy","legacy","legacy","0","congruent","uniform","1","undefined","1","h","0","0","0","51","51","0","51","0","51","0","0","0","51","51","51","51","Sat Sep 26 23:07:48 2020","1500","The main experiment item","yes","FlankerTaskLab.osexp","/Users/Arianna/Desktop","no","sans","no","18","no","white","no","yes","768","legacy","51","51","/Users/Arianna/Desktop/AG-subject-4.csv","legacy","Lentiform Loewenfeld","3.3.3","0","h","NA","s","NA","NA","h","297","NA","39679","NA","NA","297","2","legacy","1024","2","48000","-16","experiment","HHHHH","4","even","43918","NA","NA","135567","116430","4196","NA","NA","136652","4211","NA","NA","136767","137065","136639","136767","Flanker Task Lab 2.1","48","28350","52","yes","1024"
"92.45283018867924","92.45283018867924","543.377358490566","543.377358490566","#800080","legacy","legacy","legacy","0","congruent","uniform","1","undefined","1","s","0","0","0","52","52","0","52","0","52","0","0","0","52","52","52","52","Sat Sep 26 23:07:48 2020","1500","The main experiment item","yes","FlankerTaskLab.osexp","/Users/Arianna/Desktop","no","sans","no","18","no","white","no","yes","768","legacy","52","52","/Users/Arianna/Desktop/AG-subject-4.csv","legacy","Lentiform Loewenfeld","3.3.3","0","s","NA","s","NA","NA","s","449","NA","39679","NA","NA","449","2","legacy","1024","2","48000","-16","experiment","SSSSS","4","even","43918","NA","NA","137091","116430","4196","NA","NA","138178","4211","NA","NA","138293","138744","138165","138293","Flanker Task Lab 2.1","49","28799","53","yes","1024"
"90.74074074074075","90.74074074074075","538.8703703703703","538.8703703703703","#800080","legacy","legacy","legacy","0","incongruent","uniform","0","undefined","0","s","0","0","0","53","53","0","53","0","53","0","0","0","53","53","53","53","Sat Sep 26 23:07:48 2020","1500","The main experiment item","yes","FlankerTaskLab.osexp","/Users/Arianna/Desktop","no","sans","no","18","no","white","no","yes","768","legacy","53","53","/Users/Arianna/Desktop/AG-subject-4.csv","legacy","Lentiform Loewenfeld","3.3.3","0","h","NA","s","NA","NA","h","300","NA","39679","NA","NA","300","2","legacy","1024","2","48000","-16","experiment","HHSHH","4","even","43918","NA","NA","138766","116430","4196","NA","NA","139851","4211","NA","NA","139968","140269","139838","139968","Flanker Task Lab 2.1","49","29099","54","yes","1024"
"90.9090909090909","90.9090909090909","539.3272727272728","539.3272727272728","#800080","legacy","legacy","legacy","0","congruent","uniform","1","undefined","1","h","0","0","0","54","54","0","54","0","54","0","0","0","54","54","54","54","Sat Sep 26 23:07:48 2020","1500","The main experiment item","yes","FlankerTaskLab.osexp","/Users/Arianna/Desktop","no","sans","no","18","no","white","no","yes","768","legacy","54","54","/Users/Arianna/Desktop/AG-subject-4.csv","legacy","Lentiform Loewenfeld","3.3.3","0","h","NA","s","NA","NA","h","564","NA","39679","NA","NA","564","2","legacy","1024","2","48000","-16","experiment","HHHHH","4","even","43918","NA","NA","140810","140296","4196","NA","NA","141896","4211","NA","NA","142011","142577","141883","142011","Flanker Task Lab 2.1","50","29663","55","yes","1024"
"91.07142857142857","91.07142857142857","537.2857142857143","537.2857142857143","#800080","legacy","legacy","legacy","0","congruent","uniform","1","undefined","1","h","0","0","0","55","55","0","55","0","55","0","0","0","55","55","55","55","Sat Sep 26 23:07:48 2020","1500","The main experiment item","yes","FlankerTaskLab.osexp","/Users/Arianna/Desktop","no","sans","no","18","no","white","no","yes","768","legacy","55","55","/Users/Arianna/Desktop/AG-subject-4.csv","legacy","Lentiform Loewenfeld","3.3.3","0","h","NA","s","NA","NA","h","425","NA","39679","NA","NA","425","2","legacy","1024","2","48000","-16","experiment","HHHHH","4","even","43918","NA","NA","142591","140296","4196","NA","NA","143676","4211","NA","NA","143792","144219","143664","143792","Flanker Task Lab 2.1","51","30088","56","yes","1024"
"91.2280701754386","91.2280701754386","536.9473684210526","536.9473684210526","#800080","legacy","legacy","legacy","0","incongruent","uniform","1","undefined","1","s","0","0","0","56","56","0","56","0","56","0","0","0","56","56","56","56","Sat Sep 26 23:07:48 2020","1500","The main experiment item","yes","FlankerTaskLab.osexp","/Users/Arianna/Desktop","no","sans","no","18","no","white","no","yes","768","legacy","56","56","/Users/Arianna/Desktop/AG-subject-4.csv","legacy","Lentiform Loewenfeld","3.3.3","0","s","NA","s","NA","NA","s","518","NA","39679","NA","NA","518","2","legacy","1024","2","48000","-16","experiment","HHSHH","4","even","43918","NA","NA","144243","140296","4196","NA","NA","145333","4211","NA","NA","145449","145969","145320","145448","Flanker Task Lab 2.1","52","30606","57","yes","1024"
"91.37931034482759","91.37931034482759","536.5862068965517","536.5862068965517","#800080","legacy","legacy","legacy","0","incongruent","uniform","1","undefined","1","h","0","0","0","57","57","0","57","0","57","0","0","0","57","57","57","57","Sat Sep 26 23:07:48 2020","1500","The main experiment item","yes","FlankerTaskLab.osexp","/Users/Arianna/Desktop","no","sans","no","18","no","white","no","yes","768","legacy","57","57","/Users/Arianna/Desktop/AG-subject-4.csv","legacy","Lentiform Loewenfeld","3.3.3","0","h","NA","s","NA","NA","h","516","NA","39679","NA","NA","516","2","legacy","1024","2","48000","-16","experiment","SSHSS","4","even","43918","NA","NA","145993","140296","4196","NA","NA","147077","4211","NA","NA","147192","147710","147064","147192","Flanker Task Lab 2.1","53","31122","58","yes","1024"
"91.52542372881356","91.52542372881356","535.3728813559322","535.3728813559322","#800080","legacy","legacy","legacy","0","congruent","uniform","1","undefined","1","s","0","0","0","58","58","0","58","0","58","0","0","0","58","58","58","58","Sat Sep 26 23:07:48 2020","1500","The main experiment item","yes","FlankerTaskLab.osexp","/Users/Arianna/Desktop","no","sans","no","18","no","white","no","yes","768","legacy","58","58","/Users/Arianna/Desktop/AG-subject-4.csv","legacy","Lentiform Loewenfeld","3.3.3","0","s","NA","s","NA","NA","s","465","NA","39679","NA","NA","465","2","legacy","1024","2","48000","-16","experiment","SSSSS","4","even","43918","NA","NA","147737","140296","4196","NA","NA","148823","4211","NA","NA","148938","149404","148811","148938","Flanker Task Lab 2.1","54","31587","59","yes","1024"
"90","90","532.1666666666666","532.1666666666666","#800080","legacy","legacy","legacy","0","congruent","uniform","0","undefined","0","s","0","0","0","59","59","0","59","0","59","0","0","0","59","59","59","59","Sat Sep 26 23:07:48 2020","1500","The main experiment item","yes","FlankerTaskLab.osexp","/Users/Arianna/Desktop","no","sans","no","18","no","white","no","yes","768","legacy","59","59","/Users/Arianna/Desktop/AG-subject-4.csv","legacy","Lentiform Loewenfeld","3.3.3","0","h","NA","s","NA","NA","h","343","NA","39679","NA","NA","343","2","legacy","1024","2","48000","-16","experiment","SSSSS","4","even","43918","NA","NA","149430","140296","4196","NA","NA","150518","4211","NA","NA","150633","150977","150505","150633","Flanker Task Lab 2.1","54","31930","60","yes","1024"
"90.1639344262295","90.1639344262295","531.9508196721312","531.9508196721312","#800080","legacy","legacy","legacy","0","congruent","uniform","1","undefined","1","h","0","0","0","60","60","0","60","0","60","0","0","0","60","60","60","60","Sat Sep 26 23:07:48 2020","1500","The main experiment item","yes","FlankerTaskLab.osexp","/Users/Arianna/Desktop","no","sans","no","18","no","white","no","yes","768","legacy","60","60","/Users/Arianna/Desktop/AG-subject-4.csv","legacy","Lentiform Loewenfeld","3.3.3","0","h","NA","s","NA","NA","h","519","NA","39679","NA","NA","519","2","legacy","1024","2","48000","-16","experiment","HHHHH","4","even","43918","NA","NA","151517","151003","4196","NA","NA","152603","4211","NA","NA","152718","153238","152589","152718","Flanker Task Lab 2.1","55","32449","61","yes","1024"
"90.3225806451613","90.3225806451613","530.5967741935484","530.5967741935484","#800080","legacy","legacy","legacy","0","congruent","uniform","1","undefined","1","s","0","0","0","61","61","0","61","0","61","0","0","0","61","61","61","61","Sat Sep 26 23:07:48 2020","1500","The main experiment item","yes","FlankerTaskLab.osexp","/Users/Arianna/Desktop","no","sans","no","18","no","white","no","yes","768","legacy","61","61","/Users/Arianna/Desktop/AG-subject-4.csv","legacy","Lentiform Loewenfeld","3.3.3","0","s","NA","s","NA","NA","s","448","NA","39679","NA","NA","448","2","legacy","1024","2","48000","-16","experiment","SSSSS","4","even","43918","NA","NA","153260","151003","4196","NA","NA","154344","4211","NA","NA","154459","154908","154331","154459","Flanker Task Lab 2.1","56","32897","62","yes","1024"
"90.47619047619048","90.47619047619048","529.1904761904761","529.1904761904761","#800080","legacy","legacy","legacy","0","incongruent","uniform","1","undefined","1","s","0","0","0","62","62","0","62","0","62","0","0","0","62","62","62","62","Sat Sep 26 23:07:48 2020","1500","The main experiment item","yes","FlankerTaskLab.osexp","/Users/Arianna/Desktop","no","sans","no","18","no","white","no","yes","768","legacy","62","62","/Users/Arianna/Desktop/AG-subject-4.csv","legacy","Lentiform Loewenfeld","3.3.3","0","s","NA","s","NA","NA","s","442","NA","39679","NA","NA","442","2","legacy","1024","2","48000","-16","experiment","HHSHH","4","even","43918","NA","NA","154923","151003","4196","NA","NA","156006","4211","NA","NA","156121","156564","155994","156121","Flanker Task Lab 2.1","57","33339","63","yes","1024"
"90.625","90.625","529.46875","529.46875","#800080","legacy","legacy","legacy","0","incongruent","uniform","1","undefined","1","s","0","0","0","63","63","0","63","0","63","0","0","0","63","63","63","63","Sat Sep 26 23:07:48 2020","1500","The main experiment item","yes","FlankerTaskLab.osexp","/Users/Arianna/Desktop","no","sans","no","18","no","white","no","yes","768","legacy","63","63","/Users/Arianna/Desktop/AG-subject-4.csv","legacy","Lentiform Loewenfeld","3.3.3","0","s","NA","s","NA","NA","s","547","NA","39679","NA","NA","547","2","legacy","1024","2","48000","-16","experiment","HHSHH","4","even","43918","NA","NA","156591","151003","4196","NA","NA","157678","4211","NA","NA","157794","158342","157666","157794","Flanker Task Lab 2.1","58","33886","64","yes","1024"
"90.76923076923077","90.76923076923077","528.276923076923","528.276923076923","#800080","legacy","legacy","legacy","0","congruent","uniform","1","undefined","1","h","0","0","0","64","64","0","64","0","64","0","0","0","64","64","64","64","Sat Sep 26 23:07:48 2020","1500","The main experiment item","yes","FlankerTaskLab.osexp","/Users/Arianna/Desktop","no","sans","no","18","no","white","no","yes","768","legacy","64","64","/Users/Arianna/Desktop/AG-subject-4.csv","legacy","Lentiform Loewenfeld","3.3.3","0","h","NA","s","NA","NA","h","452","NA","39679","NA","NA","452","2","legacy","1024","2","48000","-16","experiment","HHHHH","4","even","43918","NA","NA","158369","151003","4196","NA","NA","159453","4211","NA","NA","159568","160021","159440","159568","Flanker Task Lab 2.1","59","34338","65","yes","1024"
"90.9090909090909","90.9090909090909","528.939393939394","528.939393939394","#800080","legacy","legacy","legacy","0","incongruent","uniform","1","undefined","1","s","0","0","0","65","65","0","65","0","65","0","0","0","65","65","65","65","Sat Sep 26 23:07:48 2020","1500","The main experiment item","yes","FlankerTaskLab.osexp","/Users/Arianna/Desktop","no","sans","no","18","no","white","no","yes","768","legacy","65","65","/Users/Arianna/Desktop/AG-subject-4.csv","legacy","Lentiform Loewenfeld","3.3.3","0","s","NA","s","NA","NA","s","572","NA","39679","NA","NA","572","2","legacy","1024","2","48000","-16","experiment","HHSHH","4","even","43918","NA","NA","160046","151003","4196","NA","NA","161134","4211","NA","NA","161249","161823","161121","161249","Flanker Task Lab 2.1","60","34910","66","yes","1024"
"91.04477611940298","91.04477611940298","529.0597014925373","529.0597014925373","#800080","legacy","legacy","legacy","0","incongruent","uniform","1","undefined","1","s","0","0","0","66","66","0","66","0","66","0","0","0","66","66","66","66","Sat Sep 26 23:07:48 2020","1500","The main experiment item","yes","FlankerTaskLab.osexp","/Users/Arianna/Desktop","no","sans","no","18","no","white","no","yes","768","legacy","66","66","/Users/Arianna/Desktop/AG-subject-4.csv","legacy","Lentiform Loewenfeld","3.3.3","0","s","NA","s","NA","NA","s","537","NA","39679","NA","NA","537","2","legacy","1024","2","48000","-16","experiment","HHSHH","4","even","43918","NA","NA","161848","151003","4196","NA","NA","162933","4211","NA","NA","163048","163587","162920","163048","Flanker Task Lab 2.1","61","35447","67","yes","1024"
"91.17647058823529","91.17647058823529","528.8382352941177","528.8382352941177","#800080","legacy","legacy","legacy","0","incongruent","uniform","1","undefined","1","h","0","0","0","67","67","0","67","0","67","0","0","0","67","67","67","67","Sat Sep 26 23:07:48 2020","1500","The main experiment item","yes","FlankerTaskLab.osexp","/Users/Arianna/Desktop","no","sans","no","18","no","white","no","yes","768","legacy","67","67","/Users/Arianna/Desktop/AG-subject-4.csv","legacy","Lentiform Loewenfeld","3.3.3","0","h","NA","s","NA","NA","h","514","NA","39679","NA","NA","514","2","legacy","1024","2","48000","-16","experiment","SSHSS","4","even","43918","NA","NA","163613","151003","4196","NA","NA","164696","4211","NA","NA","164812","165328","164684","164811","Flanker Task Lab 2.1","62","35961","68","yes","1024"
"91.30434782608695","91.30434782608695","527.2898550724638","527.2898550724638","#800080","legacy","legacy","legacy","0","incongruent","uniform","1","undefined","1","s","0","0","0","68","68","0","68","0","68","0","0","0","68","68","68","68","Sat Sep 26 23:07:48 2020","1500","The main experiment item","yes","FlankerTaskLab.osexp","/Users/Arianna/Desktop","no","sans","no","18","no","white","no","yes","768","legacy","68","68","/Users/Arianna/Desktop/AG-subject-4.csv","legacy","Lentiform Loewenfeld","3.3.3","0","s","NA","s","NA","NA","s","422","NA","39679","NA","NA","422","2","legacy","1024","2","48000","-16","experiment","HHSHH","4","even","43918","NA","NA","165354","151003","4196","NA","NA","166438","4211","NA","NA","166553","166977","166425","166553","Flanker Task Lab 2.1","63","36383","69","yes","1024"
"91.42857142857143","91.42857142857143","528.0857142857143","528.0857142857143","#800080","legacy","legacy","legacy","0","incongruent","uniform","1","undefined","1","s","0","0","0","69","69","0","69","0","69","0","0","0","69","69","69","69","Sat Sep 26 23:07:48 2020","1500","The main experiment item","yes","FlankerTaskLab.osexp","/Users/Arianna/Desktop","no","sans","no","18","no","white","no","yes","768","legacy","69","69","/Users/Arianna/Desktop/AG-subject-4.csv","legacy","Lentiform Loewenfeld","3.3.3","0","s","NA","s","NA","NA","s","583","NA","39679","NA","NA","583","2","legacy","1024","2","48000","-16","experiment","HHSHH","4","even","43918","NA","NA","167002","151003","4196","NA","NA","168085","4211","NA","NA","168198","168783","168073","168197","Flanker Task Lab 2.1","64","36966","70","yes","1024"
"91.54929577464789","91.54929577464789","528.9859154929577","528.9859154929577","#800080","legacy","legacy","legacy","0","congruent","uniform","1","undefined","1","s","0","0","0","70","70","0","70","0","70","0","0","0","70","70","70","70","Sat Sep 26 23:07:48 2020","1500","The main experiment item","yes","FlankerTaskLab.osexp","/Users/Arianna/Desktop","no","sans","no","18","no","white","no","yes","768","legacy","70","70","/Users/Arianna/Desktop/AG-subject-4.csv","legacy","Lentiform Loewenfeld","3.3.3","0","s","NA","s","NA","NA","s","592","NA","39679","NA","NA","592","2","legacy","1024","2","48000","-16","experiment","SSSSS","4","even","43918","NA","NA","168799","151003","4196","NA","NA","169886","4211","NA","NA","170001","170595","169872","170000","Flanker Task Lab 2.1","65","37558","71","yes","1024"
"91.66666666666667","91.66666666666667","528.1527777777778","528.1527777777778","#800080","legacy","legacy","legacy","0","congruent","uniform","1","undefined","1","s","0","0","0","71","71","0","71","0","71","0","0","0","71","71","71","71","Sat Sep 26 23:07:48 2020","1500","The main experiment item","yes","FlankerTaskLab.osexp","/Users/Arianna/Desktop","no","sans","no","18","no","white","no","yes","768","legacy","71","71","/Users/Arianna/Desktop/AG-subject-4.csv","legacy","Lentiform Loewenfeld","3.3.3","0","s","NA","s","NA","NA","s","469","NA","39679","NA","NA","469","2","legacy","1024","2","48000","-16","experiment","SSSSS","4","even","43918","NA","NA","170621","151003","4196","NA","NA","171704","4211","NA","NA","171820","172291","171691","171819","Flanker Task Lab 2.1","66","38027","72","yes","1024"
"91.78082191780823","91.78082191780823","527.4383561643835","527.4383561643835","#800080","legacy","legacy","legacy","0","incongruent","uniform","1","undefined","1","s","0","0","0","72","72","0","72","0","72","0","0","0","72","72","72","72","Sat Sep 26 23:07:48 2020","1500","The main experiment item","yes","FlankerTaskLab.osexp","/Users/Arianna/Desktop","no","sans","no","18","no","white","no","yes","768","legacy","72","72","/Users/Arianna/Desktop/AG-subject-4.csv","legacy","Lentiform Loewenfeld","3.3.3","0","s","NA","s","NA","NA","s","476","NA","39679","NA","NA","476","2","legacy","1024","2","48000","-16","experiment","HHSHH","4","even","43918","NA","NA","172317","151003","4196","NA","NA","173403","4211","NA","NA","173519","173997","173389","173518","Flanker Task Lab 2.1","67","38503","73","yes","1024"
"91.89189189189189","91.89189189189189","526.2162162162163","526.2162162162163","#800080","legacy","legacy","legacy","0","congruent","uniform","1","undefined","1","h","0","0","0","73","73","0","73","0","73","0","0","0","73","73","73","73","Sat Sep 26 23:07:48 2020","1500","The main experiment item","yes","FlankerTaskLab.osexp","/Users/Arianna/Desktop","no","sans","no","18","no","white","no","yes","768","legacy","73","73","/Users/Arianna/Desktop/AG-subject-4.csv","legacy","Lentiform Loewenfeld","3.3.3","0","h","NA","s","NA","NA","h","437","NA","39679","NA","NA","437","2","legacy","1024","2","48000","-16","experiment","HHHHH","4","even","43918","NA","NA","174022","151003","4196","NA","NA","175106","4211","NA","NA","175222","175660","175094","175222","Flanker Task Lab 2.1","68","38940","74","yes","1024"
"92","92","528.5866666666667","528.5866666666667","#800080","legacy","legacy","legacy","0","incongruent","uniform","1","undefined","1","h","0","0","0","74","74","0","74","0","74","0","0","0","74","74","74","74","Sat Sep 26 23:07:48 2020","1500","The main experiment item","yes","FlankerTaskLab.osexp","/Users/Arianna/Desktop","no","sans","no","18","no","white","no","yes","768","legacy","74","74","/Users/Arianna/Desktop/AG-subject-4.csv","legacy","Lentiform Loewenfeld","3.3.3","0","h","NA","s","NA","NA","h","704","NA","39679","NA","NA","704","2","legacy","1024","2","48000","-16","experiment","SSHSS","4","even","43918","NA","NA","175687","151003","4196","NA","NA","176773","4211","NA","NA","176889","177594","176760","176889","Flanker Task Lab 2.1","69","39644","75","yes","1024"
"92.10526315789474","92.10526315789474","528.2368421052631","528.2368421052631","#800080","legacy","legacy","legacy","0","congruent","uniform","1","undefined","1","h","0","0","0","75","75","0","75","0","75","0","0","0","75","75","75","75","Sat Sep 26 23:07:48 2020","1500","The main experiment item","yes","FlankerTaskLab.osexp","/Users/Arianna/Desktop","no","sans","no","18","no","white","no","yes","768","legacy","75","75","/Users/Arianna/Desktop/AG-subject-4.csv","legacy","Lentiform Loewenfeld","3.3.3","0","h","NA","s","NA","NA","h","502","NA","39679","NA","NA","502","2","legacy","1024","2","48000","-16","experiment","HHHHH","4","even","43918","NA","NA","177620","151003","4196","NA","NA","178703","4211","NA","NA","178818","179321","178691","178818","Flanker Task Lab 2.1","70","40146","76","yes","1024"
"92.20779220779221","92.20779220779221","527.2337662337662","527.2337662337662","#800080","legacy","legacy","legacy","0","congruent","uniform","1","undefined","1","s","0","0","0","76","76","0","76","0","76","0","0","0","76","76","76","76","Sat Sep 26 23:07:48 2020","1500","The main experiment item","yes","FlankerTaskLab.osexp","/Users/Arianna/Desktop","no","sans","no","18","no","white","no","yes","768","legacy","76","76","/Users/Arianna/Desktop/AG-subject-4.csv","legacy","Lentiform Loewenfeld","3.3.3","0","s","NA","s","NA","NA","s","451","NA","39679","NA","NA","451","2","legacy","1024","2","48000","-16","experiment","SSSSS","4","even","43918","NA","NA","179348","151003","4196","NA","NA","180441","4211","NA","NA","180557","181009","180426","180557","Flanker Task Lab 2.1","71","40597","77","yes","1024"
"92.3076923076923","92.3076923076923","527.9871794871794","527.9871794871794","#800080","legacy","legacy","legacy","0","incongruent","uniform","1","undefined","1","s","0","0","0","77","77","0","77","0","77","0","0","0","77","77","77","77","Sat Sep 26 23:07:48 2020","1500","The main experiment item","yes","FlankerTaskLab.osexp","/Users/Arianna/Desktop","no","sans","no","18","no","white","no","yes","768","legacy","77","77","/Users/Arianna/Desktop/AG-subject-4.csv","legacy","Lentiform Loewenfeld","3.3.3","0","s","NA","s","NA","NA","s","586","NA","39679","NA","NA","586","2","legacy","1024","2","48000","-16","experiment","HHSHH","4","even","43918","NA","NA","181034","151003","4196","NA","NA","182117","4211","NA","NA","182233","182821","182105","182232","Flanker Task Lab 2.1","72","41183","78","yes","1024"
"91.13924050632912","91.13924050632912","525.4556962025316","525.4556962025316","#800080","legacy","legacy","legacy","0","incongruent","uniform","0","undefined","0","s","0","0","0","78","78","0","78","0","78","0","0","0","78","78","78","78","Sat Sep 26 23:07:48 2020","1500","The main experiment item","yes","FlankerTaskLab.osexp","/Users/Arianna/Desktop","no","sans","no","18","no","white","no","yes","768","legacy","78","78","/Users/Arianna/Desktop/AG-subject-4.csv","legacy","Lentiform Loewenfeld","3.3.3","0","h","NA","s","NA","NA","h","328","NA","39679","NA","NA","328","2","legacy","1024","2","48000","-16","experiment","HHSHH","4","even","43918","NA","NA","182844","151003","4196","NA","NA","183933","4211","NA","NA","184048","184378","183920","184048","Flanker Task Lab 2.1","72","41511","79","yes","1024"
"91.25","91.25","525.775","525.775","#800080","legacy","legacy","legacy","0","incongruent","uniform","1","undefined","1","h","0","0","0","79","79","0","79","0","79","0","0","0","79","79","79","79","Sat Sep 26 23:07:48 2020","1500","The main experiment item","yes","FlankerTaskLab.osexp","/Users/Arianna/Desktop","no","sans","no","18","no","white","no","yes","768","legacy","79","79","/Users/Arianna/Desktop/AG-subject-4.csv","legacy","Lentiform Loewenfeld","3.3.3","0","h","NA","s","NA","NA","h","551","NA","39679","NA","NA","551","2","legacy","1024","2","48000","-16","experiment","SSHSS","4","even","43918","NA","NA","184906","184392","4196","NA","NA","185990","4211","NA","NA","186105","186658","185978","186105","Flanker Task Lab 2.1","73","42062","80","yes","1024"
"91.35802469135803","91.35802469135803","528.1481481481482","528.1481481481482","#800080","legacy","legacy","legacy","0","incongruent","uniform","1","undefined","1","h","0","0","0","80","80","0","80","0","80","0","0","0","80","80","80","80","Sat Sep 26 23:07:48 2020","600","The main experiment item","yes","FlankerTaskLab.osexp","/Users/Arianna/Desktop","no","sans","no","18","no","white","no","yes","768","legacy","0","79","/Users/Arianna/Desktop/AG-subject-4.csv","legacy","Lentiform Loewenfeld","3.3.3","0","h","NA","s","h","NA","h","718","NA","39679","18338","NA","718","2","legacy","1024","2","48000","-16","experiment","SSHSS","4","even","43918","206074","NA","186685","184392","4196","NA","NA","206132","4211","187734","NA","206247","206967","206119","206247","Flanker Task Lab 2.1","74","42780","81","yes","1024"
"91.46341463414635","91.46341463414635","527.060975609756","527.060975609756","#800080","legacy","legacy","legacy","0","congruent","uniform","1","undefined","1","s","0","0","0","81","81","0","81","0","81","0","0","0","81","81","81","81","Sat Sep 26 23:07:48 2020","600","The main experiment item","yes","FlankerTaskLab.osexp","/Users/Arianna/Desktop","no","sans","no","18","no","white","no","yes","768","legacy","1","79","/Users/Arianna/Desktop/AG-subject-4.csv","legacy","Lentiform Loewenfeld","3.3.3","0","s","NA","s","h","NA","s","439","NA","39679","18338","NA","439","2","legacy","1024","2","48000","-16","experiment","SSSSS","4","even","43918","206074","NA","207496","184392","4196","206983","NA","208582","4211","187734","NA","208698","209139","208570","208698","Flanker Task Lab 2.1","75","43219","82","yes","1024"
"91.56626506024097","91.56626506024097","524.7710843373494","524.7710843373494","#800080","legacy","legacy","legacy","0","congruent","uniform","1","undefined","1","h","0","0","0","82","82","0","82","0","82","0","0","0","82","82","82","82","Sat Sep 26 23:07:48 2020","600","The main experiment item","yes","FlankerTaskLab.osexp","/Users/Arianna/Desktop","no","sans","no","18","no","white","no","yes","768","legacy","2","79","/Users/Arianna/Desktop/AG-subject-4.csv","legacy","Lentiform Loewenfeld","3.3.3","0","h","NA","s","h","NA","h","337","NA","39679","18338","NA","337","2","legacy","1024","2","48000","-16","experiment","HHHHH","4","even","43918","206074","NA","209164","184392","4196","206983","NA","210250","4211","187734","NA","210366","210705","210238","210365","Flanker Task Lab 2.1","76","43556","83","yes","1024"
"91.66666666666667","91.66666666666667","522.8214285714286","522.8214285714286","#800080","legacy","legacy","legacy","0","congruent","uniform","1","undefined","1","h","0","0","0","83","83","0","83","0","83","0","0","0","83","83","83","83","Sat Sep 26 23:07:48 2020","600","The main experiment item","yes","FlankerTaskLab.osexp","/Users/Arianna/Desktop","no","sans","no","18","no","white","no","yes","768","legacy","3","79","/Users/Arianna/Desktop/AG-subject-4.csv","legacy","Lentiform Loewenfeld","3.3.3","0","h","NA","s","h","NA","h","361","NA","39679","18338","NA","361","2","legacy","1024","2","48000","-16","experiment","HHHHH","4","even","43918","206074","NA","210731","184392","4196","206983","NA","211817","4211","187734","NA","211932","212295","211804","211932","Flanker Task Lab 2.1","77","43917","84","yes","1024"
"90.58823529411765","90.58823529411765","520.3411764705883","520.3411764705883","#800080","legacy","legacy","legacy","0","incongruent","uniform","0","undefined","0","h","0","0","0","84","84","0","84","0","84","0","0","0","84","84","84","84","Sat Sep 26 23:07:48 2020","600","The main experiment item","yes","FlankerTaskLab.osexp","/Users/Arianna/Desktop","no","sans","no","18","no","white","no","yes","768","legacy","4","79","/Users/Arianna/Desktop/AG-subject-4.csv","legacy","Lentiform Loewenfeld","3.3.3","0","s","NA","s","h","NA","s","312","NA","39679","18338","NA","312","2","legacy","1024","2","48000","-16","experiment","SSHSS","4","even","43918","206074","NA","212321","184392","4196","206983","NA","213408","4211","187734","NA","213524","213838","213395","213524","Flanker Task Lab 2.1","77","44229","85","yes","1024"
"90.69767441860465","90.69767441860465","518.6627906976744","518.6627906976744","#800080","legacy","legacy","legacy","0","incongruent","uniform","1","undefined","1","s","0","0","0","85","85","0","85","0","85","0","0","0","85","85","85","85","Sat Sep 26 23:07:48 2020","600","The main experiment item","yes","FlankerTaskLab.osexp","/Users/Arianna/Desktop","no","sans","no","18","no","white","no","yes","768","legacy","5","79","/Users/Arianna/Desktop/AG-subject-4.csv","legacy","Lentiform Loewenfeld","3.3.3","0","s","NA","s","h","NA","s","376","NA","39679","18338","NA","376","2","legacy","1024","2","48000","-16","experiment","HHSHH","4","even","43918","206074","NA","214373","213860","4196","206983","NA","215459","4211","187734","NA","215574","215952","215445","215574","Flanker Task Lab 2.1","78","44605","86","yes","1024"
"90.80459770114942","90.80459770114942","518.9540229885057","518.9540229885057","#800080","legacy","legacy","legacy","0","incongruent","uniform","1","undefined","1","h","0","0","0","86","86","0","86","0","86","0","0","0","86","86","86","86","Sat Sep 26 23:07:48 2020","600","The main experiment item","yes","FlankerTaskLab.osexp","/Users/Arianna/Desktop","no","sans","no","18","no","white","no","yes","768","legacy","6","79","/Users/Arianna/Desktop/AG-subject-4.csv","legacy","Lentiform Loewenfeld","3.3.3","0","h","NA","s","h","NA","h","544","NA","39679","18338","NA","544","2","legacy","1024","2","48000","-16","experiment","SSHSS","4","even","43918","206074","NA","215978","213860","4196","206983","NA","217062","4211","187734","NA","217178","217724","217049","217178","Flanker Task Lab 2.1","79","45149","87","yes","1024"
"90.9090909090909","90.9090909090909","518.0227272727273","518.0227272727273","#800080","legacy","legacy","legacy","0","incongruent","uniform","1","undefined","1","s","0","0","0","87","87","0","87","0","87","0","0","0","87","87","87","87","Sat Sep 26 23:07:48 2020","600","The main experiment item","yes","FlankerTaskLab.osexp","/Users/Arianna/Desktop","no","sans","no","18","no","white","no","yes","768","legacy","7","79","/Users/Arianna/Desktop/AG-subject-4.csv","legacy","Lentiform Loewenfeld","3.3.3","0","s","NA","s","h","NA","s","437","NA","39679","18338","NA","437","2","legacy","1024","2","48000","-16","experiment","HHSHH","4","even","43918","206074","NA","217750","213860","4196","206983","NA","218835","4211","187734","NA","218950","219388","218822","218950","Flanker Task Lab 2.1","80","45586","88","yes","1024"
"91.01123595505618","91.01123595505618","517.5056179775281","517.5056179775281","#800080","legacy","legacy","legacy","0","incongruent","uniform","1","undefined","1","h","0","0","0","88","88","0","88","0","88","0","0","0","88","88","88","88","Sat Sep 26 23:07:48 2020","600","The main experiment item","yes","FlankerTaskLab.osexp","/Users/Arianna/Desktop","no","sans","no","18","no","white","no","yes","768","legacy","8","79","/Users/Arianna/Desktop/AG-subject-4.csv","legacy","Lentiform Loewenfeld","3.3.3","0","h","NA","s","h","NA","h","472","NA","39679","18338","NA","472","2","legacy","1024","2","48000","-16","experiment","SSHSS","4","even","43918","206074","NA","219415","213860","4196","206983","NA","220501","4211","187734","NA","220616","221089","220488","220616","Flanker Task Lab 2.1","81","46058","89","yes","1024"
"91.11111111111111","91.11111111111111","517.6222222222223","517.6222222222223","#800080","legacy","legacy","legacy","0","congruent","uniform","1","undefined","1","h","0","0","0","89","89","0","89","0","89","0","0","0","89","89","89","89","Sat Sep 26 23:07:48 2020","600","The main experiment item","yes","FlankerTaskLab.osexp","/Users/Arianna/Desktop","no","sans","no","18","no","white","no","yes","768","legacy","9","79","/Users/Arianna/Desktop/AG-subject-4.csv","legacy","Lentiform Loewenfeld","3.3.3","0","h","NA","s","h","NA","h","528","NA","39679","18338","NA","528","2","legacy","1024","2","48000","-16","experiment","HHHHH","4","even","43918","206074","NA","221116","213860","4196","206983","NA","222205","4211","187734","NA","222321","222850","222192","222320","Flanker Task Lab 2.1","82","46586","90","yes","1024"
"91.20879120879121","91.20879120879121","516.7692307692307","516.7692307692307","#800080","legacy","legacy","legacy","0","congruent","uniform","1","undefined","1","h","0","0","0","90","90","0","90","0","90","0","0","0","90","90","90","90","Sat Sep 26 23:07:48 2020","600","The main experiment item","yes","FlankerTaskLab.osexp","/Users/Arianna/Desktop","no","sans","no","18","no","white","no","yes","768","legacy","10","79","/Users/Arianna/Desktop/AG-subject-4.csv","legacy","Lentiform Loewenfeld","3.3.3","0","h","NA","s","h","NA","h","440","NA","39679","18338","NA","440","2","legacy","1024","2","48000","-16","experiment","HHHHH","4","even","43918","206074","NA","222876","213860","4196","206983","NA","223962","4211","187734","NA","224077","224518","223949","224077","Flanker Task Lab 2.1","83","47026","91","yes","1024"
"91.30434782608695","91.30434782608695","515.4347826086956","515.4347826086956","#800080","legacy","legacy","legacy","0","congruent","uniform","1","undefined","1","h","0","0","0","91","91","0","91","0","91","0","0","0","91","91","91","91","Sat Sep 26 23:07:48 2020","600","The main experiment item","yes","FlankerTaskLab.osexp","/Users/Arianna/Desktop","no","sans","no","18","no","white","no","yes","768","legacy","11","79","/Users/Arianna/Desktop/AG-subject-4.csv","legacy","Lentiform Loewenfeld","3.3.3","0","h","NA","s","h","NA","h","394","NA","39679","18338","NA","394","2","legacy","1024","2","48000","-16","experiment","HHHHH","4","even","43918","206074","NA","224545","213860","4196","206983","NA","225629","4211","187734","NA","225745","226141","225616","225745","Flanker Task Lab 2.1","84","47420","92","yes","1024"
"91.39784946236558","91.39784946236558","513.2043010752689","513.2043010752689","#800080","legacy","legacy","legacy","0","congruent","uniform","1","undefined","1","h","0","0","0","92","92","0","92","0","92","0","0","0","92","92","92","92","Sat Sep 26 23:07:48 2020","600","The main experiment item","yes","FlankerTaskLab.osexp","/Users/Arianna/Desktop","no","sans","no","18","no","white","no","yes","768","legacy","12","79","/Users/Arianna/Desktop/AG-subject-4.csv","legacy","Lentiform Loewenfeld","3.3.3","0","h","NA","s","h","NA","h","308","NA","39679","18338","NA","308","2","legacy","1024","2","48000","-16","experiment","HHHHH","4","even","43918","206074","NA","226167","213860","4196","206983","NA","227253","4211","187734","NA","227369","227678","227240","227369","Flanker Task Lab 2.1","85","47728","93","yes","1024"
"90.42553191489361","90.42553191489361","510.968085106383","510.968085106383","#800080","legacy","legacy","legacy","0","incongruent","uniform","0","undefined","0","h","0","0","0","93","93","0","93","0","93","0","0","0","93","93","93","93","Sat Sep 26 23:07:48 2020","600","The main experiment item","yes","FlankerTaskLab.osexp","/Users/Arianna/Desktop","no","sans","no","18","no","white","no","yes","768","legacy","13","79","/Users/Arianna/Desktop/AG-subject-4.csv","legacy","Lentiform Loewenfeld","3.3.3","0","s","NA","s","h","NA","s","303","NA","39679","18338","NA","303","2","legacy","1024","2","48000","-16","experiment","SSHSS","4","even","43918","206074","NA","227705","213860","4196","206983","NA","228790","4211","187734","NA","228906","229211","228777","228905","Flanker Task Lab 2.1","85","48031","94","yes","1024"
"90.52631578947368","90.52631578947368","509.61052631578946","509.61052631578946","#800080","legacy","legacy","legacy","0","congruent","uniform","1","undefined","1","s","0","0","0","94","94","0","94","0","94","0","0","0","94","94","94","94","Sat Sep 26 23:07:48 2020","600","The main experiment item","yes","FlankerTaskLab.osexp","/Users/Arianna/Desktop","no","sans","no","18","no","white","no","yes","768","legacy","14","79","/Users/Arianna/Desktop/AG-subject-4.csv","legacy","Lentiform Loewenfeld","3.3.3","0","s","NA","s","h","NA","s","382","NA","39679","18338","NA","382","2","legacy","1024","2","48000","-16","experiment","SSSSS","4","even","43918","206074","NA","229750","229236","4196","206983","NA","230834","4211","187734","NA","230950","231334","230821","230950","Flanker Task Lab 2.1","86","48413","95","yes","1024"
"90.625","90.625","509.3125","509.3125","#800080","legacy","legacy","legacy","0","incongruent","uniform","1","undefined","1","h","0","0","0","95","95","0","95","0","95","0","0","0","95","95","95","95","Sat Sep 26 23:07:48 2020","600","The main experiment item","yes","FlankerTaskLab.osexp","/Users/Arianna/Desktop","no","sans","no","18","no","white","no","yes","768","legacy","15","79","/Users/Arianna/Desktop/AG-subject-4.csv","legacy","Lentiform Loewenfeld","3.3.3","0","h","NA","s","h","NA","h","481","NA","39679","18338","NA","481","2","legacy","1024","2","48000","-16","experiment","SSHSS","4","even","43918","206074","NA","231361","229236","4196","206983","NA","232447","4211","187734","NA","232562","233045","232433","232561","Flanker Task Lab 2.1","87","48894","96","yes","1024"
"90.72164948453609","90.72164948453609","508.10309278350513","508.10309278350513","#800080","legacy","legacy","legacy","0","congruent","uniform","1","undefined","1","h","0","0","0","96","96","0","96","0","96","0","0","0","96","96","96","96","Sat Sep 26 23:07:48 2020","600","The main experiment item","yes","FlankerTaskLab.osexp","/Users/Arianna/Desktop","no","sans","no","18","no","white","no","yes","768","legacy","16","79","/Users/Arianna/Desktop/AG-subject-4.csv","legacy","Lentiform Loewenfeld","3.3.3","0","h","NA","s","h","NA","h","392","NA","39679","18338","NA","392","2","legacy","1024","2","48000","-16","experiment","HHHHH","4","even","43918","206074","NA","233060","229236","4196","206983","NA","234146","4211","187734","NA","234262","234656","234133","234262","Flanker Task Lab 2.1","88","49286","97","yes","1024"
"89.79591836734694","89.79591836734694","506.42857142857144","506.42857142857144","#800080","legacy","legacy","legacy","0","congruent","uniform","0","undefined","0","s","0","0","0","97","97","0","97","0","97","0","0","0","97","97","97","97","Sat Sep 26 23:07:48 2020","600","The main experiment item","yes","FlankerTaskLab.osexp","/Users/Arianna/Desktop","no","sans","no","18","no","white","no","yes","768","legacy","17","79","/Users/Arianna/Desktop/AG-subject-4.csv","legacy","Lentiform Loewenfeld","3.3.3","0","h","NA","s","h","NA","h","344","NA","39679","18338","NA","344","2","legacy","1024","2","48000","-16","experiment","SSSSS","4","even","43918","206074","NA","234682","229236","4196","206983","NA","235768","4211","187734","NA","235884","236230","235754","235884","Flanker Task Lab 2.1","88","49630","98","yes","1024"
"89.8989898989899","89.8989898989899","507.1515151515151","507.1515151515151","#800080","legacy","legacy","legacy","0","incongruent","uniform","1","undefined","1","h","0","0","0","98","98","0","98","0","98","0","0","0","98","98","98","98","Sat Sep 26 23:07:48 2020","600","The main experiment item","yes","FlankerTaskLab.osexp","/Users/Arianna/Desktop","no","sans","no","18","no","white","no","yes","768","legacy","18","79","/Users/Arianna/Desktop/AG-subject-4.csv","legacy","Lentiform Loewenfeld","3.3.3","0","h","NA","s","h","NA","h","578","NA","39679","18338","NA","578","2","legacy","1024","2","48000","-16","experiment","SSHSS","4","even","43918","206074","NA","236770","236256","4196","206983","NA","237854","4211","187734","NA","237970","238550","237841","237970","Flanker Task Lab 2.1","89","50208","99","yes","1024"
"90","90","506.16","506.16","#800080","legacy","legacy","legacy","0","incongruent","uniform","1","undefined","1","s","0","0","0","99","99","0","99","0","99","0","0","0","99","99","99","99","Sat Sep 26 23:07:48 2020","600","The main experiment item","yes","FlankerTaskLab.osexp","/Users/Arianna/Desktop","no","sans","no","18","no","white","no","yes","768","legacy","19","79","/Users/Arianna/Desktop/AG-subject-4.csv","legacy","Lentiform Loewenfeld","3.3.3","0","s","NA","s","h","NA","s","408","NA","39679","18338","NA","408","2","legacy","1024","2","48000","-16","experiment","HHSHH","4","even","43918","206074","NA","238575","236256","4196","206983","NA","239661","4211","187734","NA","239775","240185","239648","239775","Flanker Task Lab 2.1","90","50616","100","yes","1024"
"90.0990099009901","90.0990099009901","505.8712871287129","505.8712871287129","#800080","legacy","legacy","legacy","0","congruent","uniform","1","undefined","1","s","0","0","0","100","100","0","100","0","100","0","0","0","100","100","100","100","Sat Sep 26 23:07:48 2020","600","The main experiment item","yes","FlankerTaskLab.osexp","/Users/Arianna/Desktop","no","sans","no","18","no","white","no","yes","768","legacy","20","79","/Users/Arianna/Desktop/AG-subject-4.csv","legacy","Lentiform Loewenfeld","3.3.3","0","s","NA","s","h","NA","s","477","NA","39679","18338","NA","477","2","legacy","1024","2","48000","-16","experiment","SSSSS","4","even","43918","206074","NA","240211","236256","4196","206983","NA","241298","4211","187734","NA","241413","241892","241285","241413","Flanker Task Lab 2.1","91","51093","101","yes","1024"
"90.19607843137256","90.19607843137256","504.3137254901961","504.3137254901961","#800080","legacy","legacy","legacy","0","congruent","uniform","1","undefined","1","h","0","0","0","101","101","0","101","0","101","0","0","0","101","101","101","101","Sat Sep 26 23:07:48 2020","600","The main experiment item","yes","FlankerTaskLab.osexp","/Users/Arianna/Desktop","no","sans","no","18","no","white","no","yes","768","legacy","21","79","/Users/Arianna/Desktop/AG-subject-4.csv","legacy","Lentiform Loewenfeld","3.3.3","0","h","NA","s","h","NA","h","347","NA","39679","18338","NA","347","2","legacy","1024","2","48000","-16","experiment","HHHHH","4","even","43918","206074","NA","241918","236256","4196","206983","NA","243003","4211","187734","NA","243118","243466","242990","243118","Flanker Task Lab 2.1","92","51440","102","yes","1024"
"90.29126213592232","90.29126213592232","504.3009708737864","504.3009708737864","#800080","legacy","legacy","legacy","0","incongruent","uniform","1","undefined","1","s","0","0","0","102","102","0","102","0","102","0","0","0","102","102","102","102","Sat Sep 26 23:07:48 2020","600","The main experiment item","yes","FlankerTaskLab.osexp","/Users/Arianna/Desktop","no","sans","no","18","no","white","no","yes","768","legacy","22","79","/Users/Arianna/Desktop/AG-subject-4.csv","legacy","Lentiform Loewenfeld","3.3.3","0","s","NA","s","h","NA","s","503","NA","39679","18338","NA","503","2","legacy","1024","2","48000","-16","experiment","HHSHH","4","even","43918","206074","NA","243493","236256","4196","206983","NA","244577","4211","187734","NA","244693","245198","244565","244693","Flanker Task Lab 2.1","93","51943","103","yes","1024"
"90.38461538461539","90.38461538461539","502.8557692307692","502.8557692307692","#800080","legacy","legacy","legacy","0","congruent","uniform","1","undefined","1","h","0","0","0","103","103","0","103","0","103","0","0","0","103","103","103","103","Sat Sep 26 23:07:48 2020","600","The main experiment item","yes","FlankerTaskLab.osexp","/Users/Arianna/Desktop","no","sans","no","18","no","white","no","yes","768","legacy","23","79","/Users/Arianna/Desktop/AG-subject-4.csv","legacy","Lentiform Loewenfeld","3.3.3","0","h","NA","s","h","NA","h","354","NA","39679","18338","NA","354","2","legacy","1024","2","48000","-16","experiment","HHHHH","4","even","43918","206074","NA","245225","236256","4196","206983","NA","246311","4211","187734","NA","246427","246783","246298","246426","Flanker Task Lab 2.1","94","52297","104","yes","1024"
"90.47619047619048","90.47619047619048","502.26666666666665","502.26666666666665","#800080","legacy","legacy","legacy","0","incongruent","uniform","1","undefined","1","s","0","0","0","104","104","0","104","0","104","0","0","0","104","104","104","104","Sat Sep 26 23:07:48 2020","600","The main experiment item","yes","FlankerTaskLab.osexp","/Users/Arianna/Desktop","no","sans","no","18","no","white","no","yes","768","legacy","24","79","/Users/Arianna/Desktop/AG-subject-4.csv","legacy","Lentiform Loewenfeld","3.3.3","0","s","NA","s","h","NA","s","441","NA","39679","18338","NA","441","2","legacy","1024","2","48000","-16","experiment","HHSHH","4","even","43918","206074","NA","246809","236256","4196","206983","NA","247895","4211","187734","NA","248010","248453","247882","248010","Flanker Task Lab 2.1","95","52738","105","yes","1024"
"90.56603773584905","90.56603773584905","502.49056603773585","502.49056603773585","#800080","legacy","legacy","legacy","0","incongruent","uniform","1","undefined","1","s","0","0","0","105","105","0","105","0","105","0","0","0","105","105","105","105","Sat Sep 26 23:07:48 2020","600","The main experiment item","yes","FlankerTaskLab.osexp","/Users/Arianna/Desktop","no","sans","no","18","no","white","no","yes","768","legacy","25","79","/Users/Arianna/Desktop/AG-subject-4.csv","legacy","Lentiform Loewenfeld","3.3.3","0","s","NA","s","h","NA","s","526","NA","39679","18338","NA","526","2","legacy","1024","2","48000","-16","experiment","HHSHH","4","even","43918","206074","NA","248480","236256","4196","206983","NA","249565","4211","187734","NA","249680","250208","249552","249680","Flanker Task Lab 2.1","96","53264","106","yes","1024"
"89.7196261682243","89.7196261682243","500.7196261682243","500.7196261682243","#800080","legacy","legacy","legacy","0","congruent","uniform","0","undefined","0","s","0","0","0","106","106","0","106","0","106","0","0","0","106","106","106","106","Sat Sep 26 23:07:48 2020","600","The main experiment item","yes","FlankerTaskLab.osexp","/Users/Arianna/Desktop","no","sans","no","18","no","white","no","yes","768","legacy","26","79","/Users/Arianna/Desktop/AG-subject-4.csv","legacy","Lentiform Loewenfeld","3.3.3","0","h","NA","s","h","NA","h","313","NA","39679","18338","NA","313","2","legacy","1024","2","48000","-16","experiment","SSSSS","4","even","43918","206074","NA","250233","236256","4196","206983","NA","251318","4211","187734","NA","251433","251748","251305","251433","Flanker Task Lab 2.1","96","53577","107","yes","1024"
"89.81481481481481","89.81481481481481","499.6203703703704","499.6203703703704","#800080","legacy","legacy","legacy","0","congruent","uniform","1","undefined","1","h","0","0","0","107","107","0","107","0","107","0","0","0","107","107","107","107","Sat Sep 26 23:07:48 2020","600","The main experiment item","yes","FlankerTaskLab.osexp","/Users/Arianna/Desktop","no","sans","no","18","no","white","no","yes","768","legacy","27","79","/Users/Arianna/Desktop/AG-subject-4.csv","legacy","Lentiform Loewenfeld","3.3.3","0","h","NA","s","h","NA","h","382","NA","39679","18338","NA","382","2","legacy","1024","2","48000","-16","experiment","HHHHH","4","even","43918","206074","NA","252288","251774","4196","206983","NA","253373","4211","187734","NA","253488","253872","253360","253488","Flanker Task Lab 2.1","97","53959","108","yes","1024"
"89.90825688073394","89.90825688073394","499.5963302752294","499.5963302752294","#800080","legacy","legacy","legacy","0","incongruent","uniform","1","undefined","1","s","0","0","0","108","108","0","108","0","108","0","0","0","108","108","108","108","Sat Sep 26 23:07:48 2020","600","The main experiment item","yes","FlankerTaskLab.osexp","/Users/Arianna/Desktop","no","sans","no","18","no","white","no","yes","768","legacy","28","79","/Users/Arianna/Desktop/AG-subject-4.csv","legacy","Lentiform Loewenfeld","3.3.3","0","s","NA","s","h","NA","s","497","NA","39679","18338","NA","497","2","legacy","1024","2","48000","-16","experiment","HHSHH","4","even","43918","206074","NA","253900","251774","4196","206983","NA","254985","4211","187734","NA","255099","255598","254972","255099","Flanker Task Lab 2.1","98","54456","109","yes","1024"
"90","90","499.23636363636365","499.23636363636365","#800080","legacy","legacy","legacy","0","incongruent","uniform","1","undefined","1","h","0","0","0","109","109","0","109","0","109","0","0","0","109","109","109","109","Sat Sep 26 23:07:48 2020","600","The main experiment item","yes","FlankerTaskLab.osexp","/Users/Arianna/Desktop","no","sans","no","18","no","white","no","yes","768","legacy","29","79","/Users/Arianna/Desktop/AG-subject-4.csv","legacy","Lentiform Loewenfeld","3.3.3","0","h","NA","s","h","NA","h","460","NA","39679","18338","NA","460","2","legacy","1024","2","48000","-16","experiment","SSHSS","4","even","43918","206074","NA","255624","251774","4196","206983","NA","256710","4211","187734","NA","256826","257288","256696","256825","Flanker Task Lab 2.1","99","54916","110","yes","1024"
"90.09009009009009","90.09009009009009","498.990990990991","498.990990990991","#800080","legacy","legacy","legacy","0","incongruent","uniform","1","undefined","1","h","0","0","0","110","110","0","110","0","110","0","0","0","110","110","110","110","Sat Sep 26 23:07:48 2020","600","The main experiment item","yes","FlankerTaskLab.osexp","/Users/Arianna/Desktop","no","sans","no","18","no","white","no","yes","768","legacy","30","79","/Users/Arianna/Desktop/AG-subject-4.csv","legacy","Lentiform Loewenfeld","3.3.3","0","h","NA","s","h","NA","h","472","NA","39679","18338","NA","472","2","legacy","1024","2","48000","-16","experiment","SSHSS","4","even","43918","206074","NA","257314","251774","4196","206983","NA","258403","4211","187734","NA","258519","258993","258390","258519","Flanker Task Lab 2.1","100","55388","111","yes","1024"
"90.17857142857143","90.17857142857143","498.16964285714283","498.16964285714283","#800080","legacy","legacy","legacy","0","incongruent","uniform","1","undefined","1","s","0","0","0","111","111","0","111","0","111","0","0","0","111","111","111","111","Sat Sep 26 23:07:48 2020","600","The main experiment item","yes","FlankerTaskLab.osexp","/Users/Arianna/Desktop","no","sans","no","18","no","white","no","yes","768","legacy","31","79","/Users/Arianna/Desktop/AG-subject-4.csv","legacy","Lentiform Loewenfeld","3.3.3","0","s","NA","s","h","NA","s","407","NA","39679","18338","NA","407","2","legacy","1024","2","48000","-16","experiment","HHSHH","4","even","43918","206074","NA","259018","251774","4196","206983","NA","260105","4211","187734","NA","260220","260629","260092","260220","Flanker Task Lab 2.1","101","55795","112","yes","1024"
"90.26548672566372","90.26548672566372","499.04424778761063","499.04424778761063","#800080","legacy","legacy","legacy","0","incongruent","uniform","1","undefined","1","s","0","0","0","112","112","0","112","0","112","0","0","0","112","112","112","112","Sat Sep 26 23:07:48 2020","600","The main experiment item","yes","FlankerTaskLab.osexp","/Users/Arianna/Desktop","no","sans","no","18","no","white","no","yes","768","legacy","32","79","/Users/Arianna/Desktop/AG-subject-4.csv","legacy","Lentiform Loewenfeld","3.3.3","0","s","NA","s","h","NA","s","597","NA","39679","18338","NA","597","2","legacy","1024","2","48000","-16","experiment","HHSHH","4","even","43918","206074","NA","260656","251774","4196","206983","NA","261741","4211","187734","NA","261856","262455","261728","261856","Flanker Task Lab 2.1","102","56392","113","yes","1024"
"90.35087719298245","90.35087719298245","499.07894736842104","499.07894736842104","#800080","legacy","legacy","legacy","0","congruent","uniform","1","undefined","1","s","0","0","0","113","113","0","113","0","113","0","0","0","113","113","113","113","Sat Sep 26 23:07:48 2020","600","The main experiment item","yes","FlankerTaskLab.osexp","/Users/Arianna/Desktop","no","sans","no","18","no","white","no","yes","768","legacy","33","79","/Users/Arianna/Desktop/AG-subject-4.csv","legacy","Lentiform Loewenfeld","3.3.3","0","s","NA","s","h","NA","s","503","NA","39679","18338","NA","503","2","legacy","1024","2","48000","-16","experiment","SSSSS","4","even","43918","206074","NA","262478","251774","4196","206983","NA","263562","4211","187734","NA","263678","264183","263549","263678","Flanker Task Lab 2.1","103","56895","114","yes","1024"
"90.43478260869566","90.43478260869566","499.0173913043478","499.0173913043478","#800080","legacy","legacy","legacy","0","congruent","uniform","1","undefined","1","s","0","0","0","114","114","0","114","0","114","0","0","0","114","114","114","114","Sat Sep 26 23:07:48 2020","600","The main experiment item","yes","FlankerTaskLab.osexp","/Users/Arianna/Desktop","no","sans","no","18","no","white","no","yes","768","legacy","34","79","/Users/Arianna/Desktop/AG-subject-4.csv","legacy","Lentiform Loewenfeld","3.3.3","0","s","NA","s","h","NA","s","492","NA","39679","18338","NA","492","2","legacy","1024","2","48000","-16","experiment","SSSSS","4","even","43918","206074","NA","264208","251774","4196","206983","NA","265294","4211","187734","NA","265408","265901","265282","265408","Flanker Task Lab 2.1","104","57387","115","yes","1024"
"90.51724137931035","90.51724137931035","498.2241379310345","498.2241379310345","#800080","legacy","legacy","legacy","0","congruent","uniform","1","undefined","1","s","0","0","0","115","115","0","115","0","115","0","0","0","115","115","115","115","Sat Sep 26 23:07:48 2020","600","The main experiment item","yes","FlankerTaskLab.osexp","/Users/Arianna/Desktop","no","sans","no","18","no","white","no","yes","768","legacy","35","79","/Users/Arianna/Desktop/AG-subject-4.csv","legacy","Lentiform Loewenfeld","3.3.3","0","s","NA","s","h","NA","s","407","NA","39679","18338","NA","407","2","legacy","1024","2","48000","-16","experiment","SSSSS","4","even","43918","206074","NA","265927","251774","4196","206983","NA","267014","4211","187734","NA","267129","267537","267000","267129","Flanker Task Lab 2.1","105","57794","116","yes","1024"
"90.5982905982906","90.5982905982906","497.36752136752136","497.36752136752136","#800080","legacy","legacy","legacy","0","congruent","uniform","1","undefined","1","s","0","0","0","116","116","0","116","0","116","0","0","0","116","116","116","116","Sat Sep 26 23:07:48 2020","600","The main experiment item","yes","FlankerTaskLab.osexp","/Users/Arianna/Desktop","no","sans","no","18","no","white","no","yes","768","legacy","36","79","/Users/Arianna/Desktop/AG-subject-4.csv","legacy","Lentiform Loewenfeld","3.3.3","0","s","NA","s","h","NA","s","398","NA","39679","18338","NA","398","2","legacy","1024","2","48000","-16","experiment","SSSSS","4","even","43918","206074","NA","267563","251774","4196","206983","NA","268647","4211","187734","NA","268763","269163","268634","268763","Flanker Task Lab 2.1","106","58192","117","yes","1024"
"89.83050847457628","89.83050847457628","496.6694915254237","496.6694915254237","#800080","legacy","legacy","legacy","0","incongruent","uniform","0","undefined","0","h","0","0","0","117","117","0","117","0","117","0","0","0","117","117","117","117","Sat Sep 26 23:07:48 2020","600","The main experiment item","yes","FlankerTaskLab.osexp","/Users/Arianna/Desktop","no","sans","no","18","no","white","no","yes","768","legacy","37","79","/Users/Arianna/Desktop/AG-subject-4.csv","legacy","Lentiform Loewenfeld","3.3.3","0","s","NA","s","h","NA","s","415","NA","39679","18338","NA","415","2","legacy","1024","2","48000","-16","experiment","SSHSS","4","even","43918","206074","NA","269190","251774","4196","206983","NA","270274","4211","187734","NA","270389","270806","270261","270389","Flanker Task Lab 2.1","106","58607","118","yes","1024"
"89.91596638655462","89.91596638655462","496.43697478991595","496.43697478991595","#800080","legacy","legacy","legacy","0","congruent","uniform","1","undefined","1","h","0","0","0","118","118","0","118","0","118","0","0","0","118","118","118","118","Sat Sep 26 23:07:48 2020","600","The main experiment item","yes","FlankerTaskLab.osexp","/Users/Arianna/Desktop","no","sans","no","18","no","white","no","yes","768","legacy","38","79","/Users/Arianna/Desktop/AG-subject-4.csv","legacy","Lentiform Loewenfeld","3.3.3","0","h","NA","s","h","NA","h","469","NA","39679","18338","NA","469","2","legacy","1024","2","48000","-16","experiment","HHHHH","4","even","43918","206074","NA","271345","270831","4196","206983","NA","272430","4211","187734","NA","272545","273016","272417","272545","Flanker Task Lab 2.1","107","59076","119","yes","1024"
"90","90","496.73333333333335","496.73333333333335","#800080","legacy","legacy","legacy","0","incongruent","uniform","1","undefined","1","s","0","0","0","119","119","0","119","0","119","0","0","0","119","119","119","119","Sat Sep 26 23:07:48 2020","600","The main experiment item","yes","FlankerTaskLab.osexp","/Users/Arianna/Desktop","no","sans","no","18","no","white","no","yes","768","legacy","39","79","/Users/Arianna/Desktop/AG-subject-4.csv","legacy","Lentiform Loewenfeld","3.3.3","0","s","NA","s","h","NA","s","532","NA","39679","18338","NA","532","2","legacy","1024","2","48000","-16","experiment","HHSHH","4","even","43918","206074","NA","273042","270831","4196","206983","NA","274129","4211","187734","NA","274244","274778","274116","274244","Flanker Task Lab 2.1","108","59608","120","yes","1024"
"90.08264462809917","90.08264462809917","497.9586776859504","497.9586776859504","#800080","legacy","legacy","legacy","0","incongruent","uniform","1","undefined","1","h","0","0","0","120","120","0","120","0","120","0","0","0","120","120","120","120","Sat Sep 26 23:07:48 2020","600","The main experiment item","yes","FlankerTaskLab.osexp","/Users/Arianna/Desktop","no","sans","no","18","no","white","no","yes","768","legacy","40","79","/Users/Arianna/Desktop/AG-subject-4.csv","legacy","Lentiform Loewenfeld","3.3.3","0","h","NA","s","h","NA","h","645","NA","39679","18338","NA","645","2","legacy","1024","2","48000","-16","experiment","SSHSS","4","even","43918","206074","NA","274804","270831","4196","206983","NA","275892","4211","187734","NA","276007","276654","275877","276006","Flanker Task Lab 2.1","109","60253","121","yes","1024"
