acc,accuracy,average_response_time,avg_rt,background,canvas_backend,clock_backend,color_backend,compensation,condition,coordinates,correct,correct_instructions1,correct_keyboard_response,correct_response,count_ISI,count_block1,count_block2,count_block3,count_errorFeedback,count_experiment,count_faster,count_finish,count_fixation,count_instruction3,count_instructions1,count_instructions2,count_keyboard_response,count_logger,count_sequence,count_stimulus,datetime,deadline,description,disable_garbage_collection,experiment_file,experiment_path,font_bold,font_family,font_italic,font_size,font_underline,foreground,form_clicks,fullscreen,height,keyboard_backend,live_row,live_row_block1,logfile,mouse_backend,opensesame_codename,opensesame_version,repeat_cycle,response,response_finish,response_instruction3,response_instructions1,response_instructions2,response_keyboard_response,response_time,response_time_finish,response_time_instruction3,response_time_instructions1,response_time_instructions2,response_time_keyboard_response,round_decimals,sampler_backend,sound_buf_size,sound_channels,sound_freq,sound_sample_size,start,stimulus,subject_nr,subject_parity,time_ISI,time_block1,time_block2,time_block3,time_errorFeedback,time_experiment,time_faster,time_finish,time_fixation,time_instruction3,time_instructions1,time_instructions2,time_keyboard_response,time_logger,time_sequence,time_stimulus,title,total_correct,total_response_time,total_responses,uniform_coordinates,width
100,100,1058,1058,black,legacy,legacy,legacy,0,congruent,uniform,1,undefined,1,h,0,0,0,0,0,0,0,0,0,0,0,0,0,0,0,0,9/27/19 17:34,1500,The main experiment item,yes,Flankertask.osexp,C:\Users\Edgar\Documents\Edgar School\Fall 2019\Lab 2-1,no,mono,no,18,no,white,no,yes,768,legacy,0,0,C:/Users/Edgar/Documents/Edgar School/Fall 2019/Lab 2-2/JJ-subject-2.csv,legacy,Kafkaesque Koffka,3.2.8,0,h,NA,NA,s,NA,h,1058,NA,NA,40703,NA,1058,2,legacy,1024,2,48000,-16,experiment,HHHHH,2,even,NA,50900,NA,NA,NA,10167,NA,NA,51507,NA,10188,NA,51613,52672,51500,51612,Flanker task,1,1058,1,yes,1024
100,100,749,749,black,legacy,legacy,legacy,0,congruent,uniform,1,undefined,1,h,1,0,0,0,1,0,1,0,1,0,0,0,1,1,1,1,9/27/19 17:34,1500,The main experiment item,yes,Flankertask.osexp,C:\Users\Edgar\Documents\Edgar School\Fall 2019\Lab 2-1,no,mono,no,18,no,white,no,yes,768,legacy,1,1,C:/Users/Edgar/Documents/Edgar School/Fall 2019/Lab 2-2/JJ-subject-2.csv,legacy,Kafkaesque Koffka,3.2.8,0,h,NA,NA,s,NA,h,440,NA,NA,40703,NA,440,2,legacy,1024,2,48000,-16,experiment,HHHHH,2,even,52753,50900,NA,NA,NA,10167,NA,NA,53990,NA,10188,NA,54095,54541,53983,54095,Flanker task,2,1498,2,yes,1024
66.66666667,66.66666667,654.3333333,654.3333333,black,legacy,legacy,legacy,0,incongruent,uniform,0,undefined,0,s,2,0,0,0,2,0,2,0,2,0,0,0,2,2,2,2,9/27/19 17:34,1500,The main experiment item,yes,Flankertask.osexp,C:\Users\Edgar\Documents\Edgar School\Fall 2019\Lab 2-1,no,mono,no,18,no,white,no,yes,768,legacy,2,2,C:/Users/Edgar/Documents/Edgar School/Fall 2019/Lab 2-2/JJ-subject-2.csv,legacy,Kafkaesque Koffka,3.2.8,0,h,NA,NA,s,NA,h,465,NA,NA,40703,NA,465,2,legacy,1024,2,48000,-16,experiment,HHSHH,2,even,54614,50900,NA,NA,NA,10167,NA,NA,55875,NA,10188,NA,55981,56447,55867,55981,Flanker task,2,1963,3,yes,1024
75,75,668.25,668.25,black,legacy,legacy,legacy,0,congruent,uniform,1,undefined,1,s,3,0,0,0,3,0,3,0,3,0,0,0,3,3,3,3,9/27/19 17:34,1500,The main experiment item,yes,Flankertask.osexp,C:\Users\Edgar\Documents\Edgar School\Fall 2019\Lab 2-1,no,mono,no,18,no,white,no,yes,768,legacy,3,3,C:/Users/Edgar/Documents/Edgar School/Fall 2019/Lab 2-2/JJ-subject-2.csv,legacy,Kafkaesque Koffka,3.2.8,0,s,NA,NA,s,NA,s,710,NA,NA,40703,NA,710,2,legacy,1024,2,48000,-16,experiment,SSSSS,2,even,56997,50900,NA,NA,56491,10167,NA,NA,58262,NA,10188,NA,58367,59079,58254,58367,Flanker task,3,2673,4,yes,1024
80,80,658.2,658.2,black,legacy,legacy,legacy,0,congruent,uniform,1,undefined,1,h,4,0,0,0,4,0,4,0,4,0,0,0,4,4,4,4,9/27/19 17:34,1500,The main experiment item,yes,Flankertask.osexp,C:\Users\Edgar\Documents\Edgar School\Fall 2019\Lab 2-1,no,mono,no,18,no,white,no,yes,768,legacy,4,4,C:/Users/Edgar/Documents/Edgar School/Fall 2019/Lab 2-2/JJ-subject-2.csv,legacy,Kafkaesque Koffka,3.2.8,0,h,NA,NA,s,NA,h,618,NA,NA,40703,NA,618,2,legacy,1024,2,48000,-16,experiment,HHHHH,2,even,59175,50900,NA,NA,56491,10167,NA,NA,60450,NA,10188,NA,60555,61175,60442,60555,Flanker task,4,3291,5,yes,1024
83.33333333,83.33333333,659.3333333,659.3333333,black,legacy,legacy,legacy,0,incongruent,uniform,1,undefined,1,s,5,0,0,0,5,0,5,0,5,0,0,0,5,5,5,5,9/27/19 17:34,1500,The main experiment item,yes,Flankertask.osexp,C:\Users\Edgar\Documents\Edgar School\Fall 2019\Lab 2-1,no,mono,no,18,no,white,no,yes,768,legacy,5,5,C:/Users/Edgar/Documents/Edgar School/Fall 2019/Lab 2-2/JJ-subject-2.csv,legacy,Kafkaesque Koffka,3.2.8,0,s,NA,NA,s,NA,s,665,NA,NA,40703,NA,665,2,legacy,1024,2,48000,-16,experiment,HHSHH,2,even,61218,50900,NA,NA,56491,10167,NA,NA,62455,NA,10188,NA,62561,63228,62446,62560,Flanker task,5,3956,6,yes,1024
85.71428571,85.71428571,654,654,black,legacy,legacy,legacy,0,congruent,uniform,1,undefined,1,s,6,0,0,0,6,0,6,0,6,0,0,0,6,6,6,6,9/27/19 17:34,1500,The main experiment item,yes,Flankertask.osexp,C:\Users\Edgar\Documents\Edgar School\Fall 2019\Lab 2-1,no,mono,no,18,no,white,no,yes,768,legacy,6,6,C:/Users/Edgar/Documents/Edgar School/Fall 2019/Lab 2-2/JJ-subject-2.csv,legacy,Kafkaesque Koffka,3.2.8,0,s,NA,NA,s,NA,s,622,NA,NA,40703,NA,622,2,legacy,1024,2,48000,-16,experiment,SSSSS,2,even,63296,50900,NA,NA,56491,10167,NA,NA,64540,NA,10188,NA,64646,65270,64531,64646,Flanker task,6,4578,7,yes,1024
87.5,87.5,643,643,black,legacy,legacy,legacy,0,incongruent,uniform,1,undefined,1,s,7,0,0,0,7,0,7,0,7,0,0,0,7,7,7,7,9/27/19 17:34,1500,The main experiment item,yes,Flankertask.osexp,C:\Users\Edgar\Documents\Edgar School\Fall 2019\Lab 2-1,no,mono,no,18,no,white,no,yes,768,legacy,7,7,C:/Users/Edgar/Documents/Edgar School/Fall 2019/Lab 2-2/JJ-subject-2.csv,legacy,Kafkaesque Koffka,3.2.8,0,s,NA,NA,s,NA,s,566,NA,NA,40703,NA,566,2,legacy,1024,2,48000,-16,experiment,HHSHH,2,even,65322,50900,NA,NA,56491,10167,NA,NA,66551,NA,10188,NA,66657,67226,66544,66657,Flanker task,7,5144,8,yes,1024
88.88888889,88.88888889,631.6666667,631.6666667,black,legacy,legacy,legacy,0,incongruent,uniform,1,undefined,1,s,8,0,0,0,8,0,8,0,8,0,0,0,8,8,8,8,9/27/19 17:34,1500,The main experiment item,yes,Flankertask.osexp,C:\Users\Edgar\Documents\Edgar School\Fall 2019\Lab 2-1,no,mono,no,18,no,white,no,yes,768,legacy,8,8,C:/Users/Edgar/Documents/Edgar School/Fall 2019/Lab 2-2/JJ-subject-2.csv,legacy,Kafkaesque Koffka,3.2.8,0,s,NA,NA,s,NA,s,541,NA,NA,40703,NA,541,2,legacy,1024,2,48000,-16,experiment,HHSHH,2,even,67279,50900,NA,NA,56491,10167,NA,NA,68547,NA,10188,NA,68654,69196,68538,68654,Flanker task,8,5685,9,yes,1024
90,90,621.8,621.8,black,legacy,legacy,legacy,0,incongruent,uniform,1,undefined,1,s,9,0,0,0,9,0,9,0,9,0,0,0,9,9,9,9,9/27/19 17:34,1500,The main experiment item,yes,Flankertask.osexp,C:\Users\Edgar\Documents\Edgar School\Fall 2019\Lab 2-1,no,mono,no,18,no,white,no,yes,768,legacy,9,9,C:/Users/Edgar/Documents/Edgar School/Fall 2019/Lab 2-2/JJ-subject-2.csv,legacy,Kafkaesque Koffka,3.2.8,0,s,NA,NA,s,NA,s,533,NA,NA,40703,NA,533,2,legacy,1024,2,48000,-16,experiment,HHSHH,2,even,69278,50900,NA,NA,56491,10167,NA,NA,70515,NA,10188,NA,70620,71154,70508,70620,Flanker task,9,6218,10,yes,1024
90.90909091,90.90909091,627.5454545,627.5454545,black,legacy,legacy,legacy,0,incongruent,uniform,1,undefined,1,h,10,0,0,0,10,0,10,0,10,0,0,0,10,10,10,10,9/27/19 17:34,1500,The main experiment item,yes,Flankertask.osexp,C:\Users\Edgar\Documents\Edgar School\Fall 2019\Lab 2-1,no,mono,no,18,no,white,no,yes,768,legacy,10,10,C:/Users/Edgar/Documents/Edgar School/Fall 2019/Lab 2-2/JJ-subject-2.csv,legacy,Kafkaesque Koffka,3.2.8,0,h,NA,NA,s,NA,h,685,NA,NA,40703,NA,685,2,legacy,1024,2,48000,-16,experiment,SSHSS,2,even,71207,50900,NA,NA,56491,10167,NA,NA,72450,NA,10188,NA,72556,73242,72442,72556,Flanker task,10,6903,11,yes,1024
91.66666667,91.66666667,624.4166667,624.4166667,black,legacy,legacy,legacy,0,congruent,uniform,1,undefined,1,h,11,0,0,0,11,0,11,0,11,0,0,0,11,11,11,11,9/27/19 17:34,1500,The main experiment item,yes,Flankertask.osexp,C:\Users\Edgar\Documents\Edgar School\Fall 2019\Lab 2-1,no,mono,no,18,no,white,no,yes,768,legacy,11,11,C:/Users/Edgar/Documents/Edgar School/Fall 2019/Lab 2-2/JJ-subject-2.csv,legacy,Kafkaesque Koffka,3.2.8,0,h,NA,NA,s,NA,h,590,NA,NA,40703,NA,590,2,legacy,1024,2,48000,-16,experiment,HHHHH,2,even,73287,50900,NA,NA,56491,10167,NA,NA,74562,NA,10188,NA,74668,75260,74552,74668,Flanker task,11,7493,12,yes,1024
92.30769231,92.30769231,630,630,black,legacy,legacy,legacy,0,incongruent,uniform,1,undefined,1,h,12,0,0,0,12,0,12,0,12,0,0,0,12,12,12,12,9/27/19 17:34,1500,The main experiment item,yes,Flankertask.osexp,C:\Users\Edgar\Documents\Edgar School\Fall 2019\Lab 2-1,no,mono,no,18,no,white,no,yes,768,legacy,12,12,C:/Users/Edgar/Documents/Edgar School/Fall 2019/Lab 2-2/JJ-subject-2.csv,legacy,Kafkaesque Koffka,3.2.8,0,h,NA,NA,s,NA,h,697,NA,NA,40703,NA,697,2,legacy,1024,2,48000,-16,experiment,SSHSS,2,even,75322,50900,NA,NA,56491,10167,NA,NA,76554,NA,10188,NA,76660,77358,76547,76659,Flanker task,12,8190,13,yes,1024
92.85714286,92.85714286,629,629,black,legacy,legacy,legacy,0,congruent,uniform,1,undefined,1,s,13,0,0,0,13,0,13,0,13,0,0,0,13,13,13,13,9/27/19 17:34,1500,The main experiment item,yes,Flankertask.osexp,C:\Users\Edgar\Documents\Edgar School\Fall 2019\Lab 2-1,no,mono,no,18,no,white,no,yes,768,legacy,13,13,C:/Users/Edgar/Documents/Edgar School/Fall 2019/Lab 2-2/JJ-subject-2.csv,legacy,Kafkaesque Koffka,3.2.8,0,s,NA,NA,s,NA,s,616,NA,NA,40703,NA,616,2,legacy,1024,2,48000,-16,experiment,SSSSS,2,even,77419,50900,NA,NA,56491,10167,NA,NA,78650,NA,10188,NA,78755,79372,78642,78755,Flanker task,13,8806,14,yes,1024
93.33333333,93.33333333,622.4666667,622.4666667,black,legacy,legacy,legacy,0,congruent,uniform,1,undefined,1,s,14,0,0,0,14,0,14,0,14,0,0,0,14,14,14,14,9/27/19 17:34,1500,The main experiment item,yes,Flankertask.osexp,C:\Users\Edgar\Documents\Edgar School\Fall 2019\Lab 2-1,no,mono,no,18,no,white,no,yes,768,legacy,14,14,C:/Users/Edgar/Documents/Edgar School/Fall 2019/Lab 2-2/JJ-subject-2.csv,legacy,Kafkaesque Koffka,3.2.8,0,s,NA,NA,s,NA,s,531,NA,NA,40703,NA,531,2,legacy,1024,2,48000,-16,experiment,SSSSS,2,even,79427,50900,NA,NA,56491,10167,NA,NA,80663,NA,10188,NA,80769,81308,80656,80769,Flanker task,14,9337,15,yes,1024
93.75,93.75,620.125,620.125,black,legacy,legacy,legacy,0,congruent,uniform,1,undefined,1,h,15,0,0,0,15,0,15,0,15,0,0,0,15,15,15,15,9/27/19 17:34,1500,The main experiment item,yes,Flankertask.osexp,C:\Users\Edgar\Documents\Edgar School\Fall 2019\Lab 2-1,no,mono,no,18,no,white,no,yes,768,legacy,15,15,C:/Users/Edgar/Documents/Edgar School/Fall 2019/Lab 2-2/JJ-subject-2.csv,legacy,Kafkaesque Koffka,3.2.8,0,h,NA,NA,s,NA,h,585,NA,NA,40703,NA,585,2,legacy,1024,2,48000,-16,experiment,HHHHH,2,even,81402,50900,NA,NA,56491,10167,NA,NA,82654,NA,10188,NA,82759,83346,82646,82759,Flanker task,15,9922,16,yes,1024
94.11764706,94.11764706,618,618,black,legacy,legacy,legacy,0,congruent,uniform,1,undefined,1,s,16,0,0,0,16,0,16,0,16,0,0,0,16,16,16,16,9/27/19 17:34,1500,The main experiment item,yes,Flankertask.osexp,C:\Users\Edgar\Documents\Edgar School\Fall 2019\Lab 2-1,no,mono,no,18,no,white,no,yes,768,legacy,16,16,C:/Users/Edgar/Documents/Edgar School/Fall 2019/Lab 2-2/JJ-subject-2.csv,legacy,Kafkaesque Koffka,3.2.8,0,s,NA,NA,s,NA,s,584,NA,NA,40703,NA,584,2,legacy,1024,2,48000,-16,experiment,SSSSS,2,even,83394,50900,NA,NA,56491,10167,NA,NA,84637,NA,10188,NA,84746,85332,84629,84744,Flanker task,16,10506,17,yes,1024
94.44444444,94.44444444,614.6111111,614.6111111,black,legacy,legacy,legacy,0,incongruent,uniform,1,undefined,1,s,17,0,0,0,17,0,17,0,17,0,0,0,17,17,17,17,9/27/19 17:34,1500,The main experiment item,yes,Flankertask.osexp,C:\Users\Edgar\Documents\Edgar School\Fall 2019\Lab 2-1,no,mono,no,18,no,white,no,yes,768,legacy,17,17,C:/Users/Edgar/Documents/Edgar School/Fall 2019/Lab 2-2/JJ-subject-2.csv,legacy,Kafkaesque Koffka,3.2.8,0,s,NA,NA,s,NA,s,557,NA,NA,40703,NA,557,2,legacy,1024,2,48000,-16,experiment,HHSHH,2,even,85360,50900,NA,NA,56491,10167,NA,NA,86600,NA,10188,NA,86705,87266,86593,86705,Flanker task,17,11063,18,yes,1024
94.73684211,94.73684211,608.8947368,608.8947368,black,legacy,legacy,legacy,0,incongruent,uniform,1,undefined,1,h,18,0,0,0,18,0,18,0,18,0,0,0,18,18,18,18,9/27/19 17:34,1500,The main experiment item,yes,Flankertask.osexp,C:\Users\Edgar\Documents\Edgar School\Fall 2019\Lab 2-1,no,mono,no,18,no,white,no,yes,768,legacy,18,18,C:/Users/Edgar/Documents/Edgar School/Fall 2019/Lab 2-2/JJ-subject-2.csv,legacy,Kafkaesque Koffka,3.2.8,0,h,NA,NA,s,NA,h,506,NA,NA,40703,NA,506,2,legacy,1024,2,48000,-16,experiment,SSHSS,2,even,87334,50900,NA,NA,56491,10167,NA,NA,88580,NA,10188,NA,88686,89194,88571,88685,Flanker task,18,11569,19,yes,1024
95,95,609.1,609.1,black,legacy,legacy,legacy,0,incongruent,uniform,1,undefined,1,h,19,0,0,0,19,0,19,0,19,0,0,0,19,19,19,19,9/27/19 17:34,1500,The main experiment item,yes,Flankertask.osexp,C:\Users\Edgar\Documents\Edgar School\Fall 2019\Lab 2-1,no,mono,no,18,no,white,no,yes,768,legacy,19,19,C:/Users/Edgar/Documents/Edgar School/Fall 2019/Lab 2-2/JJ-subject-2.csv,legacy,Kafkaesque Koffka,3.2.8,0,h,NA,NA,s,NA,h,613,NA,NA,40703,NA,613,2,legacy,1024,2,48000,-16,experiment,SSHSS,2,even,89256,50900,NA,NA,56491,10167,NA,NA,90512,NA,10188,NA,90618,91233,90503,90617,Flanker task,19,12182,20,yes,1024
95.23809524,95.23809524,604.6666667,604.6666667,black,legacy,legacy,legacy,0,congruent,uniform,1,undefined,1,h,20,0,0,0,20,0,20,0,20,0,0,0,20,20,20,20,9/27/19 17:34,1500,The main experiment item,yes,Flankertask.osexp,C:\Users\Edgar\Documents\Edgar School\Fall 2019\Lab 2-1,no,mono,no,18,no,white,no,yes,768,legacy,20,20,C:/Users/Edgar/Documents/Edgar School/Fall 2019/Lab 2-2/JJ-subject-2.csv,legacy,Kafkaesque Koffka,3.2.8,0,h,NA,NA,s,NA,h,516,NA,NA,40703,NA,516,2,legacy,1024,2,48000,-16,experiment,HHHHH,2,even,91272,50900,NA,NA,56491,10167,NA,NA,92504,NA,10188,NA,92610,93128,92496,92609,Flanker task,20,12698,21,yes,1024
95.45454545,95.45454545,606.1363636,606.1363636,black,legacy,legacy,legacy,0,incongruent,uniform,1,undefined,1,s,21,0,0,0,21,0,21,0,21,0,0,0,21,21,21,21,9/27/19 17:34,1500,The main experiment item,yes,Flankertask.osexp,C:\Users\Edgar\Documents\Edgar School\Fall 2019\Lab 2-1,no,mono,no,18,no,white,no,yes,768,legacy,21,21,C:/Users/Edgar/Documents/Edgar School/Fall 2019/Lab 2-2/JJ-subject-2.csv,legacy,Kafkaesque Koffka,3.2.8,0,s,NA,NA,s,NA,s,637,NA,NA,40703,NA,637,2,legacy,1024,2,48000,-16,experiment,HHSHH,2,even,93191,50900,NA,NA,56491,10167,NA,NA,94435,NA,10188,NA,94543,95182,94428,94542,Flanker task,21,13335,22,yes,1024
95.65217391,95.65217391,599.0434783,599.0434783,black,legacy,legacy,legacy,0,incongruent,uniform,1,undefined,1,s,22,0,0,0,22,0,22,0,22,0,0,0,22,22,22,22,9/27/19 17:34,1500,The main experiment item,yes,Flankertask.osexp,C:\Users\Edgar\Documents\Edgar School\Fall 2019\Lab 2-1,no,mono,no,18,no,white,no,yes,768,legacy,22,22,C:/Users/Edgar/Documents/Edgar School/Fall 2019/Lab 2-2/JJ-subject-2.csv,legacy,Kafkaesque Koffka,3.2.8,0,s,NA,NA,s,NA,s,443,NA,NA,40703,NA,443,2,legacy,1024,2,48000,-16,experiment,HHSHH,2,even,95244,50900,NA,NA,56491,10167,NA,NA,96495,NA,10188,NA,96600,97046,96487,96600,Flanker task,22,13778,23,yes,1024
95.83333333,95.83333333,593.375,593.375,black,legacy,legacy,legacy,0,congruent,uniform,1,undefined,1,s,23,0,0,0,23,0,23,0,23,0,0,0,23,23,23,23,9/27/19 17:34,1500,The main experiment item,yes,Flankertask.osexp,C:\Users\Edgar\Documents\Edgar School\Fall 2019\Lab 2-1,no,mono,no,18,no,white,no,yes,768,legacy,23,23,C:/Users/Edgar/Documents/Edgar School/Fall 2019/Lab 2-2/JJ-subject-2.csv,legacy,Kafkaesque Koffka,3.2.8,0,s,NA,NA,s,NA,s,463,NA,NA,40703,NA,463,2,legacy,1024,2,48000,-16,experiment,SSSSS,2,even,97118,50900,NA,NA,56491,10167,NA,NA,98359,NA,10188,NA,98464,98929,98351,98464,Flanker task,23,14241,24,yes,1024
96,96,590.28,590.28,black,legacy,legacy,legacy,0,congruent,uniform,1,undefined,1,h,24,0,0,0,24,0,24,0,24,0,0,0,24,24,24,24,9/27/19 17:34,1500,The main experiment item,yes,Flankertask.osexp,C:\Users\Edgar\Documents\Edgar School\Fall 2019\Lab 2-1,no,mono,no,18,no,white,no,yes,768,legacy,24,24,C:/Users/Edgar/Documents/Edgar School/Fall 2019/Lab 2-2/JJ-subject-2.csv,legacy,Kafkaesque Koffka,3.2.8,0,h,NA,NA,s,NA,h,516,NA,NA,40703,NA,516,2,legacy,1024,2,48000,-16,experiment,HHHHH,2,even,98979,50900,NA,NA,56491,10167,NA,NA,100213,NA,10188,NA,100318,100835,100204,100318,Flanker task,24,14757,25,yes,1024
96.15384615,96.15384615,587.5769231,587.5769231,black,legacy,legacy,legacy,0,incongruent,uniform,1,undefined,1,h,25,0,0,0,25,0,25,0,25,0,0,0,25,25,25,25,9/27/19 17:34,1500,The main experiment item,yes,Flankertask.osexp,C:\Users\Edgar\Documents\Edgar School\Fall 2019\Lab 2-1,no,mono,no,18,no,white,no,yes,768,legacy,25,25,C:/Users/Edgar/Documents/Edgar School/Fall 2019/Lab 2-2/JJ-subject-2.csv,legacy,Kafkaesque Koffka,3.2.8,0,h,NA,NA,s,NA,h,520,NA,NA,40703,NA,520,2,legacy,1024,2,48000,-16,experiment,SSHSS,2,even,100893,50900,NA,NA,56491,10167,NA,NA,102122,NA,10188,NA,102228,102750,102113,102228,Flanker task,25,15277,26,yes,1024
96.2962963,96.2962963,583.7777778,583.7777778,black,legacy,legacy,legacy,0,incongruent,uniform,1,undefined,1,h,26,0,0,0,26,0,26,0,26,0,0,0,26,26,26,26,9/27/19 17:34,1500,The main experiment item,yes,Flankertask.osexp,C:\Users\Edgar\Documents\Edgar School\Fall 2019\Lab 2-1,no,mono,no,18,no,white,no,yes,768,legacy,26,26,C:/Users/Edgar/Documents/Edgar School/Fall 2019/Lab 2-2/JJ-subject-2.csv,legacy,Kafkaesque Koffka,3.2.8,0,h,NA,NA,s,NA,h,485,NA,NA,40703,NA,485,2,legacy,1024,2,48000,-16,experiment,SSHSS,2,even,102805,50900,NA,NA,56491,10167,NA,NA,104045,NA,10188,NA,104151,104638,104036,104150,Flanker task,26,15762,27,yes,1024
96.42857143,96.42857143,579.5714286,579.5714286,black,legacy,legacy,legacy,0,congruent,uniform,1,undefined,1,s,27,0,0,0,27,0,27,0,27,0,0,0,27,27,27,27,9/27/19 17:34,1500,The main experiment item,yes,Flankertask.osexp,C:\Users\Edgar\Documents\Edgar School\Fall 2019\Lab 2-1,no,mono,no,18,no,white,no,yes,768,legacy,27,27,C:/Users/Edgar/Documents/Edgar School/Fall 2019/Lab 2-2/JJ-subject-2.csv,legacy,Kafkaesque Koffka,3.2.8,0,s,NA,NA,s,NA,s,466,NA,NA,40703,NA,466,2,legacy,1024,2,48000,-16,experiment,SSSSS,2,even,104695,50900,NA,NA,56491,10167,NA,NA,105936,NA,10188,NA,106042,106510,105928,106041,Flanker task,27,16228,28,yes,1024
96.55172414,96.55172414,575.6896552,575.6896552,black,legacy,legacy,legacy,0,congruent,uniform,1,undefined,1,h,28,0,0,0,28,0,28,0,28,0,0,0,28,28,28,28,9/27/19 17:34,1500,The main experiment item,yes,Flankertask.osexp,C:\Users\Edgar\Documents\Edgar School\Fall 2019\Lab 2-1,no,mono,no,18,no,white,no,yes,768,legacy,28,28,C:/Users/Edgar/Documents/Edgar School/Fall 2019/Lab 2-2/JJ-subject-2.csv,legacy,Kafkaesque Koffka,3.2.8,0,h,NA,NA,s,NA,h,467,NA,NA,40703,NA,467,2,legacy,1024,2,48000,-16,experiment,HHHHH,2,even,106568,50900,NA,NA,56491,10167,NA,NA,107801,NA,10188,NA,107906,108375,107793,107906,Flanker task,28,16695,29,yes,1024
96.66666667,96.66666667,571.8333333,571.8333333,black,legacy,legacy,legacy,0,incongruent,uniform,1,undefined,1,s,29,0,0,0,29,0,29,0,29,0,0,0,29,29,29,29,9/27/19 17:34,1500,The main experiment item,yes,Flankertask.osexp,C:\Users\Edgar\Documents\Edgar School\Fall 2019\Lab 2-1,no,mono,no,18,no,white,no,yes,768,legacy,29,29,C:/Users/Edgar/Documents/Edgar School/Fall 2019/Lab 2-2/JJ-subject-2.csv,legacy,Kafkaesque Koffka,3.2.8,0,s,NA,NA,s,NA,s,460,NA,NA,40703,NA,460,2,legacy,1024,2,48000,-16,experiment,HHSHH,2,even,108424,50900,NA,NA,56491,10167,NA,NA,109678,NA,10188,NA,109785,110247,109671,109784,Flanker task,29,17155,30,yes,1024
96.77419355,96.77419355,567.6774194,567.6774194,black,legacy,legacy,legacy,0,incongruent,uniform,1,undefined,1,s,30,0,0,0,30,0,30,0,30,0,0,0,30,30,30,30,9/27/19 17:34,1500,The main experiment item,yes,Flankertask.osexp,C:\Users\Edgar\Documents\Edgar School\Fall 2019\Lab 2-1,no,mono,no,18,no,white,no,yes,768,legacy,30,30,C:/Users/Edgar/Documents/Edgar School/Fall 2019/Lab 2-2/JJ-subject-2.csv,legacy,Kafkaesque Koffka,3.2.8,0,s,NA,NA,s,NA,s,443,NA,NA,40703,NA,443,2,legacy,1024,2,48000,-16,experiment,HHSHH,2,even,110306,50900,NA,NA,56491,10167,NA,NA,111561,NA,10188,NA,111667,112112,111552,111666,Flanker task,30,17598,31,yes,1024
96.875,96.875,562.34375,562.34375,black,legacy,legacy,legacy,0,congruent,uniform,1,undefined,1,s,31,0,0,0,31,0,31,0,31,0,0,0,31,31,31,31,9/27/19 17:34,1500,The main experiment item,yes,Flankertask.osexp,C:\Users\Edgar\Documents\Edgar School\Fall 2019\Lab 2-1,no,mono,no,18,no,white,no,yes,768,legacy,31,31,C:/Users/Edgar/Documents/Edgar School/Fall 2019/Lab 2-2/JJ-subject-2.csv,legacy,Kafkaesque Koffka,3.2.8,0,s,NA,NA,s,NA,s,397,NA,NA,40703,NA,397,2,legacy,1024,2,48000,-16,experiment,SSSSS,2,even,112170,50900,NA,NA,56491,10167,NA,NA,113405,NA,10188,NA,113511,113910,113398,113511,Flanker task,31,17995,32,yes,1024
96.96969697,96.96969697,557.7272727,557.7272727,black,legacy,legacy,legacy,0,congruent,uniform,1,undefined,1,s,32,0,0,0,32,0,32,0,32,0,0,0,32,32,32,32,9/27/19 17:34,1500,The main experiment item,yes,Flankertask.osexp,C:\Users\Edgar\Documents\Edgar School\Fall 2019\Lab 2-1,no,mono,no,18,no,white,no,yes,768,legacy,32,32,C:/Users/Edgar/Documents/Edgar School/Fall 2019/Lab 2-2/JJ-subject-2.csv,legacy,Kafkaesque Koffka,3.2.8,0,s,NA,NA,s,NA,s,410,NA,NA,40703,NA,410,2,legacy,1024,2,48000,-16,experiment,SSSSS,2,even,113971,50900,NA,NA,56491,10167,NA,NA,115214,NA,10188,NA,115320,115733,115206,115319,Flanker task,32,18405,33,yes,1024
97.05882353,97.05882353,554.3235294,554.3235294,black,legacy,legacy,legacy,0,congruent,uniform,1,undefined,1,s,33,0,0,0,33,0,33,0,33,0,0,0,33,33,33,33,9/27/19 17:34,1500,The main experiment item,yes,Flankertask.osexp,C:\Users\Edgar\Documents\Edgar School\Fall 2019\Lab 2-1,no,mono,no,18,no,white,no,yes,768,legacy,33,33,C:/Users/Edgar/Documents/Edgar School/Fall 2019/Lab 2-2/JJ-subject-2.csv,legacy,Kafkaesque Koffka,3.2.8,0,s,NA,NA,s,NA,s,442,NA,NA,40703,NA,442,2,legacy,1024,2,48000,-16,experiment,SSSSS,2,even,115800,50900,NA,NA,56491,10167,NA,NA,117033,NA,10188,NA,117139,117584,117024,117138,Flanker task,33,18847,34,yes,1024
97.14285714,97.14285714,555.0857143,555.0857143,black,legacy,legacy,legacy,0,incongruent,uniform,1,undefined,1,h,34,0,0,0,34,0,34,0,34,0,0,0,34,34,34,34,9/27/19 17:34,1500,The main experiment item,yes,Flankertask.osexp,C:\Users\Edgar\Documents\Edgar School\Fall 2019\Lab 2-1,no,mono,no,18,no,white,no,yes,768,legacy,34,34,C:/Users/Edgar/Documents/Edgar School/Fall 2019/Lab 2-2/JJ-subject-2.csv,legacy,Kafkaesque Koffka,3.2.8,0,h,NA,NA,s,NA,h,581,NA,NA,40703,NA,581,2,legacy,1024,2,48000,-16,experiment,SSHSS,2,even,117642,50900,NA,NA,56491,10167,NA,NA,118878,NA,10188,NA,118985,119569,118871,118984,Flanker task,34,19428,35,yes,1024
97.22222222,97.22222222,554.3055556,554.3055556,black,legacy,legacy,legacy,0,incongruent,uniform,1,undefined,1,s,35,0,0,0,35,0,35,0,35,0,0,0,35,35,35,35,9/27/19 17:34,1500,The main experiment item,yes,Flankertask.osexp,C:\Users\Edgar\Documents\Edgar School\Fall 2019\Lab 2-1,no,mono,no,18,no,white,no,yes,768,legacy,35,35,C:/Users/Edgar/Documents/Edgar School/Fall 2019/Lab 2-2/JJ-subject-2.csv,legacy,Kafkaesque Koffka,3.2.8,0,s,NA,NA,s,NA,s,527,NA,NA,40703,NA,527,2,legacy,1024,2,48000,-16,experiment,HHSHH,2,even,119626,50900,NA,NA,56491,10167,NA,NA,120880,NA,10188,NA,120987,121517,120873,120986,Flanker task,35,19955,36,yes,1024
97.2972973,97.2972973,550.9459459,550.9459459,black,legacy,legacy,legacy,0,congruent,uniform,1,undefined,1,s,36,0,0,0,36,0,36,0,36,0,0,0,36,36,36,36,9/27/19 17:34,1500,The main experiment item,yes,Flankertask.osexp,C:\Users\Edgar\Documents\Edgar School\Fall 2019\Lab 2-1,no,mono,no,18,no,white,no,yes,768,legacy,36,36,C:/Users/Edgar/Documents/Edgar School/Fall 2019/Lab 2-2/JJ-subject-2.csv,legacy,Kafkaesque Koffka,3.2.8,0,s,NA,NA,s,NA,s,430,NA,NA,40703,NA,430,2,legacy,1024,2,48000,-16,experiment,SSSSS,2,even,121558,50900,NA,NA,56491,10167,NA,NA,122793,NA,10188,NA,122900,123332,122786,122900,Flanker task,36,20385,37,yes,1024
97.36842105,97.36842105,550.7631579,550.7631579,black,legacy,legacy,legacy,0,incongruent,uniform,1,undefined,1,h,37,0,0,0,37,0,37,0,37,0,0,0,37,37,37,37,9/27/19 17:34,1500,The main experiment item,yes,Flankertask.osexp,C:\Users\Edgar\Documents\Edgar School\Fall 2019\Lab 2-1,no,mono,no,18,no,white,no,yes,768,legacy,37,37,C:/Users/Edgar/Documents/Edgar School/Fall 2019/Lab 2-2/JJ-subject-2.csv,legacy,Kafkaesque Koffka,3.2.8,0,h,NA,NA,s,NA,h,544,NA,NA,40703,NA,544,2,legacy,1024,2,48000,-16,experiment,SSHSS,2,even,123390,50900,NA,NA,56491,10167,NA,NA,124645,NA,10188,NA,124751,125297,124637,124750,Flanker task,37,20929,38,yes,1024
97.43589744,97.43589744,549.5128205,549.5128205,black,legacy,legacy,legacy,0,incongruent,uniform,1,undefined,1,h,38,0,0,0,38,0,38,0,38,0,0,0,38,38,38,38,9/27/19 17:34,1500,The main experiment item,yes,Flankertask.osexp,C:\Users\Edgar\Documents\Edgar School\Fall 2019\Lab 2-1,no,mono,no,18,no,white,no,yes,768,legacy,38,38,C:/Users/Edgar/Documents/Edgar School/Fall 2019/Lab 2-2/JJ-subject-2.csv,legacy,Kafkaesque Koffka,3.2.8,0,h,NA,NA,s,NA,h,502,NA,NA,40703,NA,502,2,legacy,1024,2,48000,-16,experiment,SSHSS,2,even,125355,50900,NA,NA,56491,10167,NA,NA,126613,NA,10188,NA,126719,127223,126604,126718,Flanker task,38,21431,39,yes,1024
97.5,97.5,548.425,548.425,black,legacy,legacy,legacy,0,congruent,uniform,1,undefined,1,s,39,0,0,0,39,0,39,0,39,0,0,0,39,39,39,39,9/27/19 17:34,1500,The main experiment item,yes,Flankertask.osexp,C:\Users\Edgar\Documents\Edgar School\Fall 2019\Lab 2-1,no,mono,no,18,no,white,no,yes,768,legacy,39,39,C:/Users/Edgar/Documents/Edgar School/Fall 2019/Lab 2-2/JJ-subject-2.csv,legacy,Kafkaesque Koffka,3.2.8,0,s,NA,NA,s,NA,s,506,NA,NA,40703,NA,506,2,legacy,1024,2,48000,-16,experiment,SSSSS,2,even,127270,50900,NA,NA,56491,10167,NA,NA,128502,NA,10188,NA,128608,129117,128494,128607,Flanker task,39,21937,40,yes,1024
97.56097561,97.56097561,548.5609756,548.5609756,black,legacy,legacy,legacy,0,incongruent,uniform,1,undefined,1,h,40,0,0,0,40,0,40,0,40,0,0,0,40,40,40,40,9/27/19 17:34,1500,The main experiment item,yes,Flankertask.osexp,C:\Users\Edgar\Documents\Edgar School\Fall 2019\Lab 2-1,no,mono,no,18,no,white,no,yes,768,legacy,40,40,C:/Users/Edgar/Documents/Edgar School/Fall 2019/Lab 2-2/JJ-subject-2.csv,legacy,Kafkaesque Koffka,3.2.8,0,h,NA,NA,s,NA,h,554,NA,NA,40703,NA,554,2,legacy,1024,2,48000,-16,experiment,SSHSS,2,even,129170,50900,NA,NA,56491,10167,NA,NA,130406,NA,10188,NA,130512,131069,130398,130511,Flanker task,40,22491,41,yes,1024
97.61904762,97.61904762,549.3809524,549.3809524,black,legacy,legacy,legacy,0,congruent,uniform,1,undefined,1,h,41,0,0,0,41,0,41,0,41,0,0,0,41,41,41,41,9/27/19 17:34,1500,The main experiment item,yes,Flankertask.osexp,C:\Users\Edgar\Documents\Edgar School\Fall 2019\Lab 2-1,no,mono,no,18,no,white,no,yes,768,legacy,41,41,C:/Users/Edgar/Documents/Edgar School/Fall 2019/Lab 2-2/JJ-subject-2.csv,legacy,Kafkaesque Koffka,3.2.8,0,h,NA,NA,s,NA,h,583,NA,NA,40703,NA,583,2,legacy,1024,2,48000,-16,experiment,HHHHH,2,even,131130,50900,NA,NA,56491,10167,NA,NA,132374,NA,10188,NA,132481,133067,132364,132481,Flanker task,41,23074,42,yes,1024
97.6744186,97.6744186,547.8372093,547.8372093,black,legacy,legacy,legacy,0,congruent,uniform,1,undefined,1,s,42,0,0,0,42,0,42,0,42,0,0,0,42,42,42,42,9/27/19 17:34,1500,The main experiment item,yes,Flankertask.osexp,C:\Users\Edgar\Documents\Edgar School\Fall 2019\Lab 2-1,no,mono,no,18,no,white,no,yes,768,legacy,42,42,C:/Users/Edgar/Documents/Edgar School/Fall 2019/Lab 2-2/JJ-subject-2.csv,legacy,Kafkaesque Koffka,3.2.8,0,s,NA,NA,s,NA,s,483,NA,NA,40703,NA,483,2,legacy,1024,2,48000,-16,experiment,SSSSS,2,even,133130,50900,NA,NA,56491,10167,NA,NA,134367,NA,10188,NA,134472,134958,134359,134472,Flanker task,42,23557,43,yes,1024
97.72727273,97.72727273,547.8636364,547.8636364,black,legacy,legacy,legacy,0,congruent,uniform,1,undefined,1,h,43,0,0,0,43,0,43,0,43,0,0,0,43,43,43,43,9/27/19 17:34,1500,The main experiment item,yes,Flankertask.osexp,C:\Users\Edgar\Documents\Edgar School\Fall 2019\Lab 2-1,no,mono,no,18,no,white,no,yes,768,legacy,43,43,C:/Users/Edgar/Documents/Edgar School/Fall 2019/Lab 2-2/JJ-subject-2.csv,legacy,Kafkaesque Koffka,3.2.8,0,h,NA,NA,s,NA,h,549,NA,NA,40703,NA,549,2,legacy,1024,2,48000,-16,experiment,HHHHH,2,even,135029,50900,NA,NA,56491,10167,NA,NA,136283,NA,10188,NA,136388,136939,136274,136388,Flanker task,43,24106,44,yes,1024
97.77777778,97.77777778,547.6666667,547.6666667,black,legacy,legacy,legacy,0,incongruent,uniform,1,undefined,1,s,44,0,0,0,44,0,44,0,44,0,0,0,44,44,44,44,9/27/19 17:34,1500,The main experiment item,yes,Flankertask.osexp,C:\Users\Edgar\Documents\Edgar School\Fall 2019\Lab 2-1,no,mono,no,18,no,white,no,yes,768,legacy,44,44,C:/Users/Edgar/Documents/Edgar School/Fall 2019/Lab 2-2/JJ-subject-2.csv,legacy,Kafkaesque Koffka,3.2.8,0,s,NA,NA,s,NA,s,539,NA,NA,40703,NA,539,2,legacy,1024,2,48000,-16,experiment,HHSHH,2,even,136998,50900,NA,NA,56491,10167,NA,NA,138244,NA,10188,NA,138350,138892,138236,138349,Flanker task,44,24645,45,yes,1024
97.82608696,97.82608696,548.673913,548.673913,black,legacy,legacy,legacy,0,incongruent,uniform,1,undefined,1,s,45,0,0,0,45,0,45,0,45,0,0,0,45,45,45,45,9/27/19 17:34,1500,The main experiment item,yes,Flankertask.osexp,C:\Users\Edgar\Documents\Edgar School\Fall 2019\Lab 2-1,no,mono,no,18,no,white,no,yes,768,legacy,45,45,C:/Users/Edgar/Documents/Edgar School/Fall 2019/Lab 2-2/JJ-subject-2.csv,legacy,Kafkaesque Koffka,3.2.8,0,s,NA,NA,s,NA,s,594,NA,NA,40703,NA,594,2,legacy,1024,2,48000,-16,experiment,HHSHH,2,even,138944,50900,NA,NA,56491,10167,NA,NA,140182,NA,10188,NA,140287,140884,140175,140287,Flanker task,45,25239,46,yes,1024
97.87234043,97.87234043,547.9148936,547.9148936,black,legacy,legacy,legacy,0,incongruent,uniform,1,undefined,1,h,46,0,0,0,46,0,46,0,46,0,0,0,46,46,46,46,9/27/19 17:34,1500,The main experiment item,yes,Flankertask.osexp,C:\Users\Edgar\Documents\Edgar School\Fall 2019\Lab 2-1,no,mono,no,18,no,white,no,yes,768,legacy,46,46,C:/Users/Edgar/Documents/Edgar School/Fall 2019/Lab 2-2/JJ-subject-2.csv,legacy,Kafkaesque Koffka,3.2.8,0,h,NA,NA,s,NA,h,513,NA,NA,40703,NA,513,2,legacy,1024,2,48000,-16,experiment,SSHSS,2,even,140920,50900,NA,NA,56491,10167,NA,NA,142164,NA,10188,NA,142270,142786,142156,142269,Flanker task,46,25752,47,yes,1024
97.91666667,97.91666667,546.9166667,546.9166667,black,legacy,legacy,legacy,0,congruent,uniform,1,undefined,1,h,47,0,0,0,47,0,47,0,47,0,0,0,47,47,47,47,9/27/19 17:34,1500,The main experiment item,yes,Flankertask.osexp,C:\Users\Edgar\Documents\Edgar School\Fall 2019\Lab 2-1,no,mono,no,18,no,white,no,yes,768,legacy,47,47,C:/Users/Edgar/Documents/Edgar School/Fall 2019/Lab 2-2/JJ-subject-2.csv,legacy,Kafkaesque Koffka,3.2.8,0,h,NA,NA,s,NA,h,500,NA,NA,40703,NA,500,2,legacy,1024,2,48000,-16,experiment,HHHHH,2,even,142849,50900,NA,NA,56491,10167,NA,NA,144112,NA,10188,NA,144217,144721,144103,144217,Flanker task,47,26252,48,yes,1024
97.95918367,97.95918367,545.5918367,545.5918367,black,legacy,legacy,legacy,0,incongruent,uniform,1,undefined,1,h,48,0,0,0,48,0,48,0,48,0,0,0,48,48,48,48,9/27/19 17:34,1500,The main experiment item,yes,Flankertask.osexp,C:\Users\Edgar\Documents\Edgar School\Fall 2019\Lab 2-1,no,mono,no,18,no,white,no,yes,768,legacy,48,48,C:/Users/Edgar/Documents/Edgar School/Fall 2019/Lab 2-2/JJ-subject-2.csv,legacy,Kafkaesque Koffka,3.2.8,0,h,NA,NA,s,NA,h,482,NA,NA,40703,NA,482,2,legacy,1024,2,48000,-16,experiment,SSHSS,2,even,144781,50900,NA,NA,56491,10167,NA,NA,146029,NA,10188,NA,146135,146619,146019,146134,Flanker task,48,26734,49,yes,1024
98,98,543.3,543.3,black,legacy,legacy,legacy,0,congruent,uniform,1,undefined,1,h,49,0,0,0,49,0,49,0,49,0,0,0,49,49,49,49,9/27/19 17:34,1500,The main experiment item,yes,Flankertask.osexp,C:\Users\Edgar\Documents\Edgar School\Fall 2019\Lab 2-1,no,mono,no,18,no,white,no,yes,768,legacy,49,49,C:/Users/Edgar/Documents/Edgar School/Fall 2019/Lab 2-2/JJ-subject-2.csv,legacy,Kafkaesque Koffka,3.2.8,0,h,NA,NA,s,NA,h,431,NA,NA,40703,NA,431,2,legacy,1024,2,48000,-16,experiment,HHHHH,2,even,146677,50900,NA,NA,56491,10167,NA,NA,147927,NA,10188,NA,148033,148467,147918,148033,Flanker task,49,27165,50,yes,1024
98.03921569,98.03921569,542.3529412,542.3529412,black,legacy,legacy,legacy,0,congruent,uniform,1,undefined,1,s,50,0,0,0,50,0,50,0,50,0,0,0,50,50,50,50,9/27/19 17:34,1500,The main experiment item,yes,Flankertask.osexp,C:\Users\Edgar\Documents\Edgar School\Fall 2019\Lab 2-1,no,mono,no,18,no,white,no,yes,768,legacy,50,50,C:/Users/Edgar/Documents/Edgar School/Fall 2019/Lab 2-2/JJ-subject-2.csv,legacy,Kafkaesque Koffka,3.2.8,0,s,NA,NA,s,NA,s,495,NA,NA,40703,NA,495,2,legacy,1024,2,48000,-16,experiment,SSSSS,2,even,148527,50900,NA,NA,56491,10167,NA,NA,149832,NA,10188,NA,149938,150438,149824,149937,Flanker task,50,27660,51,yes,1024
98.07692308,98.07692308,543.0769231,543.0769231,black,legacy,legacy,legacy,0,incongruent,uniform,1,undefined,1,s,51,0,0,0,51,0,51,0,51,0,0,0,51,51,51,51,9/27/19 17:34,1500,The main experiment item,yes,Flankertask.osexp,C:\Users\Edgar\Documents\Edgar School\Fall 2019\Lab 2-1,no,mono,no,18,no,white,no,yes,768,legacy,51,51,C:/Users/Edgar/Documents/Edgar School/Fall 2019/Lab 2-2/JJ-subject-2.csv,legacy,Kafkaesque Koffka,3.2.8,0,s,NA,NA,s,NA,s,580,NA,NA,40703,NA,580,2,legacy,1024,2,48000,-16,experiment,HHSHH,2,even,150491,50900,NA,NA,56491,10167,NA,NA,151732,NA,10188,NA,151837,152420,151723,151837,Flanker task,51,28240,52,yes,1024
98.11320755,98.11320755,541.6792453,541.6792453,black,legacy,legacy,legacy,0,congruent,uniform,1,undefined,1,h,52,0,0,0,52,0,52,0,52,0,0,0,52,52,52,52,9/27/19 17:34,1500,The main experiment item,yes,Flankertask.osexp,C:\Users\Edgar\Documents\Edgar School\Fall 2019\Lab 2-1,no,mono,no,18,no,white,no,yes,768,legacy,52,52,C:/Users/Edgar/Documents/Edgar School/Fall 2019/Lab 2-2/JJ-subject-2.csv,legacy,Kafkaesque Koffka,3.2.8,0,h,NA,NA,s,NA,h,469,NA,NA,40703,NA,469,2,legacy,1024,2,48000,-16,experiment,HHHHH,2,even,152468,50900,NA,NA,56491,10167,NA,NA,153703,NA,10188,NA,153810,154281,153696,153809,Flanker task,52,28709,53,yes,1024
98.14814815,98.14814815,542.3333333,542.3333333,black,legacy,legacy,legacy,0,congruent,uniform,1,undefined,1,h,53,0,0,0,53,0,53,0,53,0,0,0,53,53,53,53,9/27/19 17:34,1500,The main experiment item,yes,Flankertask.osexp,C:\Users\Edgar\Documents\Edgar School\Fall 2019\Lab 2-1,no,mono,no,18,no,white,no,yes,768,legacy,53,53,C:/Users/Edgar/Documents/Edgar School/Fall 2019/Lab 2-2/JJ-subject-2.csv,legacy,Kafkaesque Koffka,3.2.8,0,h,NA,NA,s,NA,h,577,NA,NA,40703,NA,577,2,legacy,1024,2,48000,-16,experiment,HHHHH,2,even,154338,50900,NA,NA,56491,10167,NA,NA,155720,NA,10188,NA,155827,156407,155711,155826,Flanker task,53,29286,54,yes,1024
98.18181818,98.18181818,543.5454545,543.5454545,black,legacy,legacy,legacy,0,congruent,uniform,1,undefined,1,s,54,0,0,0,54,0,54,0,54,0,0,0,54,54,54,54,9/27/19 17:34,1500,The main experiment item,yes,Flankertask.osexp,C:\Users\Edgar\Documents\Edgar School\Fall 2019\Lab 2-1,no,mono,no,18,no,white,no,yes,768,legacy,54,54,C:/Users/Edgar/Documents/Edgar School/Fall 2019/Lab 2-2/JJ-subject-2.csv,legacy,Kafkaesque Koffka,3.2.8,0,s,NA,NA,s,NA,s,609,NA,NA,40703,NA,609,2,legacy,1024,2,48000,-16,experiment,SSSSS,2,even,156462,50900,NA,NA,56491,10167,NA,NA,157696,NA,10188,NA,157802,158414,157688,157802,Flanker task,54,29895,55,yes,1024
98.21428571,98.21428571,542.1071429,542.1071429,black,legacy,legacy,legacy,0,congruent,uniform,1,undefined,1,h,55,0,0,0,55,0,55,0,55,0,0,0,55,55,55,55,9/27/19 17:34,1500,The main experiment item,yes,Flankertask.osexp,C:\Users\Edgar\Documents\Edgar School\Fall 2019\Lab 2-1,no,mono,no,18,no,white,no,yes,768,legacy,55,55,C:/Users/Edgar/Documents/Edgar School/Fall 2019/Lab 2-2/JJ-subject-2.csv,legacy,Kafkaesque Koffka,3.2.8,0,h,NA,NA,s,NA,h,463,NA,NA,40703,NA,463,2,legacy,1024,2,48000,-16,experiment,HHHHH,2,even,158470,50900,NA,NA,56491,10167,NA,NA,159719,NA,10188,NA,159824,160291,159709,159824,Flanker task,55,30358,56,yes,1024
98.24561404,98.24561404,541.3508772,541.3508772,black,legacy,legacy,legacy,0,incongruent,uniform,1,undefined,1,s,56,0,0,0,56,0,56,0,56,0,0,0,56,56,56,56,9/27/19 17:34,1500,The main experiment item,yes,Flankertask.osexp,C:\Users\Edgar\Documents\Edgar School\Fall 2019\Lab 2-1,no,mono,no,18,no,white,no,yes,768,legacy,56,56,C:/Users/Edgar/Documents/Edgar School/Fall 2019/Lab 2-2/JJ-subject-2.csv,legacy,Kafkaesque Koffka,3.2.8,0,s,NA,NA,s,NA,s,499,NA,NA,40703,NA,499,2,legacy,1024,2,48000,-16,experiment,HHSHH,2,even,160320,50900,NA,NA,56491,10167,NA,NA,161571,NA,10188,NA,161676,162178,161562,161676,Flanker task,56,30857,57,yes,1024
98.27586207,98.27586207,540.6551724,540.6551724,black,legacy,legacy,legacy,0,congruent,uniform,1,undefined,1,h,57,0,0,0,57,0,57,0,57,0,0,0,57,57,57,57,9/27/19 17:34,1500,The main experiment item,yes,Flankertask.osexp,C:\Users\Edgar\Documents\Edgar School\Fall 2019\Lab 2-1,no,mono,no,18,no,white,no,yes,768,legacy,57,57,C:/Users/Edgar/Documents/Edgar School/Fall 2019/Lab 2-2/JJ-subject-2.csv,legacy,Kafkaesque Koffka,3.2.8,0,h,NA,NA,s,NA,h,501,NA,NA,40703,NA,501,2,legacy,1024,2,48000,-16,experiment,HHHHH,2,even,162242,50900,NA,NA,56491,10167,NA,NA,163493,NA,10188,NA,163598,164101,163486,163598,Flanker task,57,31358,58,yes,1024
98.30508475,98.30508475,540.2033898,540.2033898,black,legacy,legacy,legacy,0,congruent,uniform,1,undefined,1,h,58,0,0,0,58,0,58,0,58,0,0,0,58,58,58,58,9/27/19 17:34,1500,The main experiment item,yes,Flankertask.osexp,C:\Users\Edgar\Documents\Edgar School\Fall 2019\Lab 2-1,no,mono,no,18,no,white,no,yes,768,legacy,58,58,C:/Users/Edgar/Documents/Edgar School/Fall 2019/Lab 2-2/JJ-subject-2.csv,legacy,Kafkaesque Koffka,3.2.8,0,h,NA,NA,s,NA,h,514,NA,NA,40703,NA,514,2,legacy,1024,2,48000,-16,experiment,HHHHH,2,even,164139,50900,NA,NA,56491,10167,NA,NA,165383,NA,10188,NA,165490,166007,165375,165489,Flanker task,58,31872,59,yes,1024
98.33333333,98.33333333,540.7,540.7,black,legacy,legacy,legacy,0,congruent,uniform,1,undefined,1,s,59,0,0,0,59,0,59,0,59,0,0,0,59,59,59,59,9/27/19 17:34,1500,The main experiment item,yes,Flankertask.osexp,C:\Users\Edgar\Documents\Edgar School\Fall 2019\Lab 2-1,no,mono,no,18,no,white,no,yes,768,legacy,59,59,C:/Users/Edgar/Documents/Edgar School/Fall 2019/Lab 2-2/JJ-subject-2.csv,legacy,Kafkaesque Koffka,3.2.8,0,s,NA,NA,s,NA,s,570,NA,NA,40703,NA,570,2,legacy,1024,2,48000,-16,experiment,SSSSS,2,even,166072,50900,NA,NA,56491,10167,NA,NA,167330,NA,10188,NA,167435,168008,167319,167435,Flanker task,59,32442,60,yes,1024
98.36065574,98.36065574,540.6065574,540.6065574,black,legacy,legacy,legacy,0,incongruent,uniform,1,undefined,1,h,60,0,0,0,60,0,60,0,60,0,0,0,60,60,60,60,9/27/19 17:34,1500,The main experiment item,yes,Flankertask.osexp,C:\Users\Edgar\Documents\Edgar School\Fall 2019\Lab 2-1,no,mono,no,18,no,white,no,yes,768,legacy,60,60,C:/Users/Edgar/Documents/Edgar School/Fall 2019/Lab 2-2/JJ-subject-2.csv,legacy,Kafkaesque Koffka,3.2.8,0,h,NA,NA,s,NA,h,535,NA,NA,40703,NA,535,2,legacy,1024,2,48000,-16,experiment,SSHSS,2,even,168058,50900,NA,NA,56491,10167,NA,NA,169289,NA,10188,NA,169395,169933,169282,169395,Flanker task,60,32977,61,yes,1024
98.38709677,98.38709677,540.2258065,540.2258065,black,legacy,legacy,legacy,0,incongruent,uniform,1,undefined,1,s,61,0,0,0,61,0,61,0,61,0,0,0,61,61,61,61,9/27/19 17:34,1500,The main experiment item,yes,Flankertask.osexp,C:\Users\Edgar\Documents\Edgar School\Fall 2019\Lab 2-1,no,mono,no,18,no,white,no,yes,768,legacy,61,61,C:/Users/Edgar/Documents/Edgar School/Fall 2019/Lab 2-2/JJ-subject-2.csv,legacy,Kafkaesque Koffka,3.2.8,0,s,NA,NA,s,NA,s,517,NA,NA,40703,NA,517,2,legacy,1024,2,48000,-16,experiment,HHSHH,2,even,169985,50900,NA,NA,56491,10167,NA,NA,171252,NA,10188,NA,171359,171879,171244,171358,Flanker task,61,33494,62,yes,1024
98.41269841,98.41269841,538.3015873,538.3015873,black,legacy,legacy,legacy,0,congruent,uniform,1,undefined,1,h,62,0,0,0,62,0,62,0,62,0,0,0,62,62,62,62,9/27/19 17:34,1500,The main experiment item,yes,Flankertask.osexp,C:\Users\Edgar\Documents\Edgar School\Fall 2019\Lab 2-1,no,mono,no,18,no,white,no,yes,768,legacy,62,62,C:/Users/Edgar/Documents/Edgar School/Fall 2019/Lab 2-2/JJ-subject-2.csv,legacy,Kafkaesque Koffka,3.2.8,0,h,NA,NA,s,NA,h,419,NA,NA,40703,NA,419,2,legacy,1024,2,48000,-16,experiment,HHHHH,2,even,171928,50900,NA,NA,56491,10167,NA,NA,173188,NA,10188,NA,173294,173716,173180,173293,Flanker task,62,33913,63,yes,1024
98.4375,98.4375,536.78125,536.78125,black,legacy,legacy,legacy,0,incongruent,uniform,1,undefined,1,s,63,0,0,0,63,0,63,0,63,0,0,0,63,63,63,63,9/27/19 17:34,1500,The main experiment item,yes,Flankertask.osexp,C:\Users\Edgar\Documents\Edgar School\Fall 2019\Lab 2-1,no,mono,no,18,no,white,no,yes,768,legacy,63,63,C:/Users/Edgar/Documents/Edgar School/Fall 2019/Lab 2-2/JJ-subject-2.csv,legacy,Kafkaesque Koffka,3.2.8,0,s,NA,NA,s,NA,s,441,NA,NA,40703,NA,441,2,legacy,1024,2,48000,-16,experiment,HHSHH,2,even,173771,50900,NA,NA,56491,10167,NA,NA,175007,NA,10188,NA,175113,175557,174999,175112,Flanker task,63,34354,64,yes,1024
98.46153846,98.46153846,535.9846154,535.9846154,black,legacy,legacy,legacy,0,congruent,uniform,1,undefined,1,h,64,0,0,0,64,0,64,0,64,0,0,0,64,64,64,64,9/27/19 17:34,1500,The main experiment item,yes,Flankertask.osexp,C:\Users\Edgar\Documents\Edgar School\Fall 2019\Lab 2-1,no,mono,no,18,no,white,no,yes,768,legacy,64,64,C:/Users/Edgar/Documents/Edgar School/Fall 2019/Lab 2-2/JJ-subject-2.csv,legacy,Kafkaesque Koffka,3.2.8,0,h,NA,NA,s,NA,h,485,NA,NA,40703,NA,485,2,legacy,1024,2,48000,-16,experiment,HHHHH,2,even,175613,50900,NA,NA,56491,10167,NA,NA,176851,NA,10188,NA,176957,177445,176843,176956,Flanker task,64,34839,65,yes,1024
98.48484848,98.48484848,537.4090909,537.4090909,black,legacy,legacy,legacy,0,incongruent,uniform,1,undefined,1,h,65,0,0,0,65,0,65,0,65,0,0,0,65,65,65,65,9/27/19 17:34,1500,The main experiment item,yes,Flankertask.osexp,C:\Users\Edgar\Documents\Edgar School\Fall 2019\Lab 2-1,no,mono,no,18,no,white,no,yes,768,legacy,65,65,C:/Users/Edgar/Documents/Edgar School/Fall 2019/Lab 2-2/JJ-subject-2.csv,legacy,Kafkaesque Koffka,3.2.8,0,h,NA,NA,s,NA,h,630,NA,NA,40703,NA,630,2,legacy,1024,2,48000,-16,experiment,SSHSS,2,even,177500,50900,NA,NA,56491,10167,NA,NA,178731,NA,10188,NA,178837,179470,178723,178837,Flanker task,65,35469,66,yes,1024
98.50746269,98.50746269,537.1641791,537.1641791,black,legacy,legacy,legacy,0,incongruent,uniform,1,undefined,1,h,66,0,0,0,66,0,66,0,66,0,0,0,66,66,66,66,9/27/19 17:34,1500,The main experiment item,yes,Flankertask.osexp,C:\Users\Edgar\Documents\Edgar School\Fall 2019\Lab 2-1,no,mono,no,18,no,white,no,yes,768,legacy,66,66,C:/Users/Edgar/Documents/Edgar School/Fall 2019/Lab 2-2/JJ-subject-2.csv,legacy,Kafkaesque Koffka,3.2.8,0,h,NA,NA,s,NA,h,521,NA,NA,40703,NA,521,2,legacy,1024,2,48000,-16,experiment,SSHSS,2,even,179506,50900,NA,NA,56491,10167,NA,NA,180741,NA,10188,NA,180847,181373,180733,180846,Flanker task,66,35990,67,yes,1024
98.52941176,98.52941176,536.5147059,536.5147059,black,legacy,legacy,legacy,0,incongruent,uniform,1,undefined,1,h,67,0,0,0,67,0,67,0,67,0,0,0,67,67,67,67,9/27/19 17:34,1500,The main experiment item,yes,Flankertask.osexp,C:\Users\Edgar\Documents\Edgar School\Fall 2019\Lab 2-1,no,mono,no,18,no,white,no,yes,768,legacy,67,67,C:/Users/Edgar/Documents/Edgar School/Fall 2019/Lab 2-2/JJ-subject-2.csv,legacy,Kafkaesque Koffka,3.2.8,0,h,NA,NA,s,NA,h,493,NA,NA,40703,NA,493,2,legacy,1024,2,48000,-16,experiment,SSHSS,2,even,181424,50900,NA,NA,56491,10167,NA,NA,182657,NA,10188,NA,182763,183260,182648,182763,Flanker task,67,36483,68,yes,1024
98.55072464,98.55072464,535.9565217,535.9565217,black,legacy,legacy,legacy,0,incongruent,uniform,1,undefined,1,s,68,0,0,0,68,0,68,0,68,0,0,0,68,68,68,68,9/27/19 17:34,1500,The main experiment item,yes,Flankertask.osexp,C:\Users\Edgar\Documents\Edgar School\Fall 2019\Lab 2-1,no,mono,no,18,no,white,no,yes,768,legacy,68,68,C:/Users/Edgar/Documents/Edgar School/Fall 2019/Lab 2-2/JJ-subject-2.csv,legacy,Kafkaesque Koffka,3.2.8,0,s,NA,NA,s,NA,s,498,NA,NA,40703,NA,498,2,legacy,1024,2,48000,-16,experiment,HHSHH,2,even,183290,50900,NA,NA,56491,10167,NA,NA,184537,NA,10188,NA,184645,185148,184529,184645,Flanker task,68,36981,69,yes,1024
98.57142857,98.57142857,534.5714286,534.5714286,black,legacy,legacy,legacy,0,incongruent,uniform,1,undefined,1,h,69,0,0,0,69,0,69,0,69,0,0,0,69,69,69,69,9/27/19 17:34,1500,The main experiment item,yes,Flankertask.osexp,C:\Users\Edgar\Documents\Edgar School\Fall 2019\Lab 2-1,no,mono,no,18,no,white,no,yes,768,legacy,69,69,C:/Users/Edgar/Documents/Edgar School/Fall 2019/Lab 2-2/JJ-subject-2.csv,legacy,Kafkaesque Koffka,3.2.8,0,h,NA,NA,s,NA,h,439,NA,NA,40703,NA,439,2,legacy,1024,2,48000,-16,experiment,SSHSS,2,even,185199,50900,NA,NA,56491,10167,NA,NA,186491,NA,10188,NA,186596,187045,186482,186596,Flanker task,69,37420,70,yes,1024
98.5915493,98.5915493,533.5211268,533.5211268,black,legacy,legacy,legacy,0,congruent,uniform,1,undefined,1,s,70,0,0,0,70,0,70,0,70,0,0,0,70,70,70,70,9/27/19 17:34,1500,The main experiment item,yes,Flankertask.osexp,C:\Users\Edgar\Documents\Edgar School\Fall 2019\Lab 2-1,no,mono,no,18,no,white,no,yes,768,legacy,70,70,C:/Users/Edgar/Documents/Edgar School/Fall 2019/Lab 2-2/JJ-subject-2.csv,legacy,Kafkaesque Koffka,3.2.8,0,s,NA,NA,s,NA,s,460,NA,NA,40703,NA,460,2,legacy,1024,2,48000,-16,experiment,SSSSS,2,even,187096,50900,NA,NA,56491,10167,NA,NA,188356,NA,10188,NA,188462,188925,188347,188462,Flanker task,70,37880,71,yes,1024
98.61111111,98.61111111,532.3888889,532.3888889,black,legacy,legacy,legacy,0,incongruent,uniform,1,undefined,1,s,71,0,0,0,71,0,71,0,71,0,0,0,71,71,71,71,9/27/19 17:34,1500,The main experiment item,yes,Flankertask.osexp,C:\Users\Edgar\Documents\Edgar School\Fall 2019\Lab 2-1,no,mono,no,18,no,white,no,yes,768,legacy,71,71,C:/Users/Edgar/Documents/Edgar School/Fall 2019/Lab 2-2/JJ-subject-2.csv,legacy,Kafkaesque Koffka,3.2.8,0,s,NA,NA,s,NA,s,452,NA,NA,40703,NA,452,2,legacy,1024,2,48000,-16,experiment,HHSHH,2,even,188971,50900,NA,NA,56491,10167,NA,NA,190201,NA,10188,NA,190307,190762,190194,190307,Flanker task,71,38332,72,yes,1024
98.63013699,98.63013699,531.1780822,531.1780822,black,legacy,legacy,legacy,0,incongruent,uniform,1,undefined,1,h,72,0,0,0,72,0,72,0,72,0,0,0,72,72,72,72,9/27/19 17:34,1500,The main experiment item,yes,Flankertask.osexp,C:\Users\Edgar\Documents\Edgar School\Fall 2019\Lab 2-1,no,mono,no,18,no,white,no,yes,768,legacy,72,72,C:/Users/Edgar/Documents/Edgar School/Fall 2019/Lab 2-2/JJ-subject-2.csv,legacy,Kafkaesque Koffka,3.2.8,0,h,NA,NA,s,NA,h,444,NA,NA,40703,NA,444,2,legacy,1024,2,48000,-16,experiment,SSHSS,2,even,190813,50900,NA,NA,56491,10167,NA,NA,192052,NA,10188,NA,192157,192604,192043,192157,Flanker task,72,38776,73,yes,1024
98.64864865,98.64864865,529.9459459,529.9459459,black,legacy,legacy,legacy,0,incongruent,uniform,1,undefined,1,h,73,0,0,0,73,0,73,0,73,0,0,0,73,73,73,73,9/27/19 17:34,1500,The main experiment item,yes,Flankertask.osexp,C:\Users\Edgar\Documents\Edgar School\Fall 2019\Lab 2-1,no,mono,no,18,no,white,no,yes,768,legacy,73,73,C:/Users/Edgar/Documents/Edgar School/Fall 2019/Lab 2-2/JJ-subject-2.csv,legacy,Kafkaesque Koffka,3.2.8,0,h,NA,NA,s,NA,h,440,NA,NA,40703,NA,440,2,legacy,1024,2,48000,-16,experiment,SSHSS,2,even,192654,50900,NA,NA,56491,10167,NA,NA,193883,NA,10188,NA,193988,194431,193876,193988,Flanker task,73,39216,74,yes,1024
98.66666667,98.66666667,529.92,529.92,black,legacy,legacy,legacy,0,incongruent,uniform,1,undefined,1,s,74,0,0,0,74,0,74,0,74,0,0,0,74,74,74,74,9/27/19 17:34,1500,The main experiment item,yes,Flankertask.osexp,C:\Users\Edgar\Documents\Edgar School\Fall 2019\Lab 2-1,no,mono,no,18,no,white,no,yes,768,legacy,74,74,C:/Users/Edgar/Documents/Edgar School/Fall 2019/Lab 2-2/JJ-subject-2.csv,legacy,Kafkaesque Koffka,3.2.8,0,s,NA,NA,s,NA,s,528,NA,NA,40703,NA,528,2,legacy,1024,2,48000,-16,experiment,HHSHH,2,even,194484,50900,NA,NA,56491,10167,NA,NA,195716,NA,10188,NA,195822,196357,195709,195822,Flanker task,74,39744,75,yes,1024
98.68421053,98.68421053,528.8421053,528.8421053,black,legacy,legacy,legacy,0,congruent,uniform,1,undefined,1,s,75,0,0,0,75,0,75,0,75,0,0,0,75,75,75,75,9/27/19 17:34,1500,The main experiment item,yes,Flankertask.osexp,C:\Users\Edgar\Documents\Edgar School\Fall 2019\Lab 2-1,no,mono,no,18,no,white,no,yes,768,legacy,75,75,C:/Users/Edgar/Documents/Edgar School/Fall 2019/Lab 2-2/JJ-subject-2.csv,legacy,Kafkaesque Koffka,3.2.8,0,s,NA,NA,s,NA,s,448,NA,NA,40703,NA,448,2,legacy,1024,2,48000,-16,experiment,SSSSS,2,even,196415,50900,NA,NA,56491,10167,NA,NA,197677,NA,10188,NA,197783,198234,197669,197782,Flanker task,75,40192,76,yes,1024
98.7012987,98.7012987,527.4025974,527.4025974,black,legacy,legacy,legacy,0,congruent,uniform,1,undefined,1,s,76,0,0,0,76,0,76,0,76,0,0,0,76,76,76,76,9/27/19 17:34,1500,The main experiment item,yes,Flankertask.osexp,C:\Users\Edgar\Documents\Edgar School\Fall 2019\Lab 2-1,no,mono,no,18,no,white,no,yes,768,legacy,76,76,C:/Users/Edgar/Documents/Edgar School/Fall 2019/Lab 2-2/JJ-subject-2.csv,legacy,Kafkaesque Koffka,3.2.8,0,s,NA,NA,s,NA,s,418,NA,NA,40703,NA,418,2,legacy,1024,2,48000,-16,experiment,SSSSS,2,even,198267,50900,NA,NA,56491,10167,NA,NA,199522,NA,10188,NA,199629,200051,199514,199628,Flanker task,76,40610,77,yes,1024
98.71794872,98.71794872,526.4871795,526.4871795,black,legacy,legacy,legacy,0,incongruent,uniform,1,undefined,1,h,77,0,0,0,77,0,77,0,77,0,0,0,77,77,77,77,9/27/19 17:34,1500,The main experiment item,yes,Flankertask.osexp,C:\Users\Edgar\Documents\Edgar School\Fall 2019\Lab 2-1,no,mono,no,18,no,white,no,yes,768,legacy,77,77,C:/Users/Edgar/Documents/Edgar School/Fall 2019/Lab 2-2/JJ-subject-2.csv,legacy,Kafkaesque Koffka,3.2.8,0,h,NA,NA,s,NA,h,456,NA,NA,40703,NA,456,2,legacy,1024,2,48000,-16,experiment,SSHSS,2,even,200095,50900,NA,NA,56491,10167,NA,NA,201329,NA,10188,NA,201434,201893,201322,201434,Flanker task,77,41066,78,yes,1024
98.73417722,98.73417722,527.2911392,527.2911392,black,legacy,legacy,legacy,0,congruent,uniform,1,undefined,1,h,78,0,0,0,78,0,78,0,78,0,0,0,78,78,78,78,9/27/19 17:34,1500,The main experiment item,yes,Flankertask.osexp,C:\Users\Edgar\Documents\Edgar School\Fall 2019\Lab 2-1,no,mono,no,18,no,white,no,yes,768,legacy,78,78,C:/Users/Edgar/Documents/Edgar School/Fall 2019/Lab 2-2/JJ-subject-2.csv,legacy,Kafkaesque Koffka,3.2.8,0,h,NA,NA,s,NA,h,590,NA,NA,40703,NA,590,2,legacy,1024,2,48000,-16,experiment,HHHHH,2,even,201962,50900,NA,NA,56491,10167,NA,NA,203199,NA,10188,NA,203307,203900,203192,203306,Flanker task,78,41656,79,yes,1024
98.75,98.75,526.2125,526.2125,black,legacy,legacy,legacy,0,congruent,uniform,1,undefined,1,s,79,0,0,0,79,0,79,0,79,0,0,0,79,79,79,79,9/27/19 17:34,1500,The main experiment item,yes,Flankertask.osexp,C:\Users\Edgar\Documents\Edgar School\Fall 2019\Lab 2-1,no,mono,no,18,no,white,no,yes,768,legacy,79,79,C:/Users/Edgar/Documents/Edgar School/Fall 2019/Lab 2-2/JJ-subject-2.csv,legacy,Kafkaesque Koffka,3.2.8,0,s,NA,NA,s,NA,s,441,NA,NA,40703,NA,441,2,legacy,1024,2,48000,-16,experiment,SSSSS,2,even,203958,50900,NA,NA,56491,10167,NA,NA,205200,NA,10188,NA,205306,205751,205191,205305,Flanker task,79,42097,80,yes,1024
98.7654321,98.7654321,529.4320988,529.4320988,black,legacy,legacy,legacy,0,incongruent,uniform,1,undefined,1,s,80,0,0,0,80,0,80,0,80,0,0,0,80,80,80,80,9/27/19 17:34,600,The main experiment item,yes,Flankertask.osexp,C:\Users\Edgar\Documents\Edgar School\Fall 2019\Lab 2-1,no,mono,no,18,no,white,no,yes,768,legacy,0,79,C:/Users/Edgar/Documents/Edgar School/Fall 2019/Lab 2-2/JJ-subject-2.csv,legacy,Kafkaesque Koffka,3.2.8,0,s,NA,NA,s,s,s,787,NA,NA,40703,26581,787,2,legacy,1024,2,48000,-16,experiment,HHSHH,2,even,205797,50900,233428,NA,56491,10167,NA,NA,233730,NA,10188,206843,233836,234630,233724,233835,Flanker task,80,42884,81,yes,1024
98.7804878,98.7804878,528,528,black,legacy,legacy,legacy,0,congruent,uniform,1,undefined,1,s,81,0,0,0,81,0,81,0,81,0,0,0,81,81,81,81,9/27/19 17:34,600,The main experiment item,yes,Flankertask.osexp,C:\Users\Edgar\Documents\Edgar School\Fall 2019\Lab 2-1,no,mono,no,18,no,white,no,yes,768,legacy,1,79,C:/Users/Edgar/Documents/Edgar School/Fall 2019/Lab 2-2/JJ-subject-2.csv,legacy,Kafkaesque Koffka,3.2.8,0,s,NA,NA,s,s,s,412,NA,NA,40703,26581,412,2,legacy,1024,2,48000,-16,experiment,SSSSS,2,even,235182,50900,233428,NA,56491,10167,234676,NA,236438,NA,10188,206843,236545,236962,236431,236544,Flanker task,81,43296,82,yes,1024
98.79518072,98.79518072,526.1927711,526.1927711,black,legacy,legacy,legacy,0,congruent,uniform,1,undefined,1,h,82,0,0,0,82,0,82,0,82,0,0,0,82,82,82,82,9/27/19 17:34,600,The main experiment item,yes,Flankertask.osexp,C:\Users\Edgar\Documents\Edgar School\Fall 2019\Lab 2-1,no,mono,no,18,no,white,no,yes,768,legacy,2,79,C:/Users/Edgar/Documents/Edgar School/Fall 2019/Lab 2-2/JJ-subject-2.csv,legacy,Kafkaesque Koffka,3.2.8,0,h,NA,NA,s,s,h,378,NA,NA,40703,26581,378,2,legacy,1024,2,48000,-16,experiment,HHHHH,2,even,237021,50900,233428,NA,56491,10167,234676,NA,238284,NA,10188,206843,238389,238770,238277,238389,Flanker task,82,43674,83,yes,1024
98.80952381,98.80952381,524.2857143,524.2857143,black,legacy,legacy,legacy,0,congruent,uniform,1,undefined,1,s,83,0,0,0,83,0,83,0,83,0,0,0,83,83,83,83,9/27/19 17:34,600,The main experiment item,yes,Flankertask.osexp,C:\Users\Edgar\Documents\Edgar School\Fall 2019\Lab 2-1,no,mono,no,18,no,white,no,yes,768,legacy,3,79,C:/Users/Edgar/Documents/Edgar School/Fall 2019/Lab 2-2/JJ-subject-2.csv,legacy,Kafkaesque Koffka,3.2.8,0,s,NA,NA,s,s,s,366,NA,NA,40703,26581,366,2,legacy,1024,2,48000,-16,experiment,SSSSS,2,even,238816,50900,233428,NA,56491,10167,234676,NA,240059,NA,10188,206843,240165,240536,240051,240165,Flanker task,83,44040,84,yes,1024
98.82352941,98.82352941,522.2588235,522.2588235,black,legacy,legacy,legacy,0,congruent,uniform,1,undefined,1,h,84,0,0,0,84,0,84,0,84,0,0,0,84,84,84,84,9/27/19 17:34,600,The main experiment item,yes,Flankertask.osexp,C:\Users\Edgar\Documents\Edgar School\Fall 2019\Lab 2-1,no,mono,no,18,no,white,no,yes,768,legacy,4,79,C:/Users/Edgar/Documents/Edgar School/Fall 2019/Lab 2-2/JJ-subject-2.csv,legacy,Kafkaesque Koffka,3.2.8,0,h,NA,NA,s,s,h,352,NA,NA,40703,26581,352,2,legacy,1024,2,48000,-16,experiment,HHHHH,2,even,240591,50900,233428,NA,56491,10167,234676,NA,241859,NA,10188,206843,241964,242319,241852,241964,Flanker task,84,44392,85,yes,1024
97.6744186,97.6744186,519.5232558,519.5232558,black,legacy,legacy,legacy,0,incongruent,uniform,0,undefined,0,h,85,0,0,0,85,0,85,0,85,0,0,0,85,85,85,85,9/27/19 17:34,600,The main experiment item,yes,Flankertask.osexp,C:\Users\Edgar\Documents\Edgar School\Fall 2019\Lab 2-1,no,mono,no,18,no,white,no,yes,768,legacy,5,79,C:/Users/Edgar/Documents/Edgar School/Fall 2019/Lab 2-2/JJ-subject-2.csv,legacy,Kafkaesque Koffka,3.2.8,0,s,NA,NA,s,s,s,287,NA,NA,40703,26581,287,2,legacy,1024,2,48000,-16,experiment,SSHSS,2,even,242368,50900,233428,NA,56491,10167,234676,NA,243609,NA,10188,206843,243715,244006,243600,243714,Flanker task,84,44679,86,yes,1024
97.70114943,97.70114943,518.8505747,518.8505747,black,legacy,legacy,legacy,0,incongruent,uniform,1,undefined,1,s,86,0,0,0,86,0,86,0,86,0,0,0,86,86,86,86,9/27/19 17:34,600,The main experiment item,yes,Flankertask.osexp,C:\Users\Edgar\Documents\Edgar School\Fall 2019\Lab 2-1,no,mono,no,18,no,white,no,yes,768,legacy,6,79,C:/Users/Edgar/Documents/Edgar School/Fall 2019/Lab 2-2/JJ-subject-2.csv,legacy,Kafkaesque Koffka,3.2.8,0,s,NA,NA,s,s,s,461,NA,NA,40703,26581,461,2,legacy,1024,2,48000,-16,experiment,HHSHH,2,even,244559,50900,233428,NA,244054,10167,234676,NA,245792,NA,10188,206843,245897,246362,245784,245897,Flanker task,85,45140,87,yes,1024
97.72727273,97.72727273,516.9431818,516.9431818,black,legacy,legacy,legacy,0,congruent,uniform,1,undefined,1,s,87,0,0,0,87,0,87,0,87,0,0,0,87,87,87,87,9/27/19 17:34,600,The main experiment item,yes,Flankertask.osexp,C:\Users\Edgar\Documents\Edgar School\Fall 2019\Lab 2-1,no,mono,no,18,no,white,no,yes,768,legacy,7,79,C:/Users/Edgar/Documents/Edgar School/Fall 2019/Lab 2-2/JJ-subject-2.csv,legacy,Kafkaesque Koffka,3.2.8,0,s,NA,NA,s,s,s,351,NA,NA,40703,26581,351,2,legacy,1024,2,48000,-16,experiment,SSSSS,2,even,246428,50900,233428,NA,244054,10167,234676,NA,247714,NA,10188,206843,247820,248176,247705,247820,Flanker task,86,45491,88,yes,1024
96.62921348,96.62921348,515.9662921,515.9662921,black,legacy,legacy,legacy,0,incongruent,uniform,0,undefined,0,h,88,0,0,0,88,0,88,0,88,0,0,0,88,88,88,88,9/27/19 17:34,600,The main experiment item,yes,Flankertask.osexp,C:\Users\Edgar\Documents\Edgar School\Fall 2019\Lab 2-1,no,mono,no,18,no,white,no,yes,768,legacy,8,79,C:/Users/Edgar/Documents/Edgar School/Fall 2019/Lab 2-2/JJ-subject-2.csv,legacy,Kafkaesque Koffka,3.2.8,0,s,NA,NA,s,s,s,430,NA,NA,40703,26581,430,2,legacy,1024,2,48000,-16,experiment,SSHSS,2,even,248234,50900,233428,NA,244054,10167,234676,NA,249494,NA,10188,206843,249600,250037,249486,249600,Flanker task,86,45921,89,yes,1024
96.66666667,96.66666667,518.2222222,518.2222222,black,legacy,legacy,legacy,0,incongruent,uniform,1,undefined,1,s,89,0,0,0,89,0,89,0,89,0,0,0,89,89,89,89,9/27/19 17:34,600,The main experiment item,yes,Flankertask.osexp,C:\Users\Edgar\Documents\Edgar School\Fall 2019\Lab 2-1,no,mono,no,18,no,white,no,yes,768,legacy,9,79,C:/Users/Edgar/Documents/Edgar School/Fall 2019/Lab 2-2/JJ-subject-2.csv,legacy,Kafkaesque Koffka,3.2.8,0,s,NA,NA,s,s,s,719,NA,NA,40703,26581,719,2,legacy,1024,2,48000,-16,experiment,HHSHH,2,even,250586,50900,233428,NA,250078,10167,234676,NA,251855,NA,10188,206843,251962,252685,251845,251961,Flanker task,87,46640,90,yes,1024
96.7032967,96.7032967,516.989011,516.989011,black,legacy,legacy,legacy,0,incongruent,uniform,1,undefined,1,h,90,0,0,0,90,0,90,0,90,0,0,0,90,90,90,90,9/27/19 17:34,600,The main experiment item,yes,Flankertask.osexp,C:\Users\Edgar\Documents\Edgar School\Fall 2019\Lab 2-1,no,mono,no,18,no,white,no,yes,768,legacy,10,79,C:/Users/Edgar/Documents/Edgar School/Fall 2019/Lab 2-2/JJ-subject-2.csv,legacy,Kafkaesque Koffka,3.2.8,0,h,NA,NA,s,s,h,406,NA,NA,40703,26581,406,2,legacy,1024,2,48000,-16,experiment,SSHSS,2,even,253247,50900,233428,NA,250078,10167,252741,NA,254548,NA,10188,206843,254654,255064,254539,254654,Flanker task,88,47046,91,yes,1024
96.73913043,96.73913043,515.4130435,515.4130435,black,legacy,legacy,legacy,0,congruent,uniform,1,undefined,1,s,91,0,0,0,91,0,91,0,91,0,0,0,91,91,91,91,9/27/19 17:34,600,The main experiment item,yes,Flankertask.osexp,C:\Users\Edgar\Documents\Edgar School\Fall 2019\Lab 2-1,no,mono,no,18,no,white,no,yes,768,legacy,11,79,C:/Users/Edgar/Documents/Edgar School/Fall 2019/Lab 2-2/JJ-subject-2.csv,legacy,Kafkaesque Koffka,3.2.8,0,s,NA,NA,s,s,s,372,NA,NA,40703,26581,372,2,legacy,1024,2,48000,-16,experiment,SSSSS,2,even,255124,50900,233428,NA,250078,10167,252741,NA,256355,NA,10188,206843,256461,256837,256347,256460,Flanker task,89,47418,92,yes,1024
95.69892473,95.69892473,514.4301075,514.4301075,black,legacy,legacy,legacy,0,incongruent,uniform,0,undefined,0,s,92,0,0,0,92,0,92,0,92,0,0,0,92,92,92,92,9/27/19 17:34,600,The main experiment item,yes,Flankertask.osexp,C:\Users\Edgar\Documents\Edgar School\Fall 2019\Lab 2-1,no,mono,no,18,no,white,no,yes,768,legacy,12,79,C:/Users/Edgar/Documents/Edgar School/Fall 2019/Lab 2-2/JJ-subject-2.csv,legacy,Kafkaesque Koffka,3.2.8,0,h,NA,NA,s,s,h,424,NA,NA,40703,26581,424,2,legacy,1024,2,48000,-16,experiment,HHSHH,2,even,256887,50900,233428,NA,250078,10167,252741,NA,258138,NA,10188,206843,258244,258673,258131,258244,Flanker task,89,47842,93,yes,1024
95.74468085,95.74468085,513.1489362,513.1489362,black,legacy,legacy,legacy,0,congruent,uniform,1,undefined,1,s,93,0,0,0,93,0,93,0,93,0,0,0,93,93,93,93,9/27/19 17:34,600,The main experiment item,yes,Flankertask.osexp,C:\Users\Edgar\Documents\Edgar School\Fall 2019\Lab 2-1,no,mono,no,18,no,white,no,yes,768,legacy,13,79,C:/Users/Edgar/Documents/Edgar School/Fall 2019/Lab 2-2/JJ-subject-2.csv,legacy,Kafkaesque Koffka,3.2.8,0,s,NA,NA,s,s,s,394,NA,NA,40703,26581,394,2,legacy,1024,2,48000,-16,experiment,SSSSS,2,even,259227,50900,233428,NA,258722,10167,252741,NA,260489,NA,10188,206843,260596,260993,260481,260595,Flanker task,90,48236,94,yes,1024
95.78947368,95.78947368,512.5368421,512.5368421,black,legacy,legacy,legacy,0,incongruent,uniform,1,undefined,1,s,94,0,0,0,94,0,94,0,94,0,0,0,94,94,94,94,9/27/19 17:34,600,The main experiment item,yes,Flankertask.osexp,C:\Users\Edgar\Documents\Edgar School\Fall 2019\Lab 2-1,no,mono,no,18,no,white,no,yes,768,legacy,14,79,C:/Users/Edgar/Documents/Edgar School/Fall 2019/Lab 2-2/JJ-subject-2.csv,legacy,Kafkaesque Koffka,3.2.8,0,s,NA,NA,s,s,s,455,NA,NA,40703,26581,455,2,legacy,1024,2,48000,-16,experiment,HHSHH,2,even,261028,50900,233428,NA,258722,10167,252741,NA,262271,NA,10188,206843,262376,262836,262262,262376,Flanker task,91,48691,95,yes,1024
95.83333333,95.83333333,512.125,512.125,black,legacy,legacy,legacy,0,incongruent,uniform,1,undefined,1,h,95,0,0,0,95,0,95,0,95,0,0,0,95,95,95,95,9/27/19 17:34,600,The main experiment item,yes,Flankertask.osexp,C:\Users\Edgar\Documents\Edgar School\Fall 2019\Lab 2-1,no,mono,no,18,no,white,no,yes,768,legacy,15,79,C:/Users/Edgar/Documents/Edgar School/Fall 2019/Lab 2-2/JJ-subject-2.csv,legacy,Kafkaesque Koffka,3.2.8,0,h,NA,NA,s,s,h,473,NA,NA,40703,26581,473,2,legacy,1024,2,48000,-16,experiment,SSHSS,2,even,262882,50900,233428,NA,258722,10167,252741,NA,264112,NA,10188,206843,264217,264694,264105,264217,Flanker task,92,49164,96,yes,1024
95.87628866,95.87628866,512.3195876,512.3195876,black,legacy,legacy,legacy,0,incongruent,uniform,1,undefined,1,h,96,0,0,0,96,0,96,0,96,0,0,0,96,96,96,96,9/27/19 17:34,600,The main experiment item,yes,Flankertask.osexp,C:\Users\Edgar\Documents\Edgar School\Fall 2019\Lab 2-1,no,mono,no,18,no,white,no,yes,768,legacy,16,79,C:/Users/Edgar/Documents/Edgar School/Fall 2019/Lab 2-2/JJ-subject-2.csv,legacy,Kafkaesque Koffka,3.2.8,0,h,NA,NA,s,s,h,531,NA,NA,40703,26581,531,2,legacy,1024,2,48000,-16,experiment,SSHSS,2,even,264742,50900,233428,NA,258722,10167,252741,NA,265988,NA,10188,206843,266095,266629,265979,266094,Flanker task,93,49695,97,yes,1024
95.91836735,95.91836735,510.9795918,510.9795918,black,legacy,legacy,legacy,0,incongruent,uniform,1,undefined,1,s,97,0,0,0,97,0,97,0,97,0,0,0,97,97,97,97,9/27/19 17:34,600,The main experiment item,yes,Flankertask.osexp,C:\Users\Edgar\Documents\Edgar School\Fall 2019\Lab 2-1,no,mono,no,18,no,white,no,yes,768,legacy,17,79,C:/Users/Edgar/Documents/Edgar School/Fall 2019/Lab 2-2/JJ-subject-2.csv,legacy,Kafkaesque Koffka,3.2.8,0,s,NA,NA,s,s,s,381,NA,NA,40703,26581,381,2,legacy,1024,2,48000,-16,experiment,HHSHH,2,even,266686,50900,233428,NA,258722,10167,252741,NA,267921,NA,10188,206843,268028,268414,267914,268027,Flanker task,94,50076,98,yes,1024
95.95959596,95.95959596,510.1515152,510.1515152,black,legacy,legacy,legacy,0,incongruent,uniform,1,undefined,1,h,98,0,0,0,98,0,98,0,98,0,0,0,98,98,98,98,9/27/19 17:34,600,The main experiment item,yes,Flankertask.osexp,C:\Users\Edgar\Documents\Edgar School\Fall 2019\Lab 2-1,no,mono,no,18,no,white,no,yes,768,legacy,18,79,C:/Users/Edgar/Documents/Edgar School/Fall 2019/Lab 2-2/JJ-subject-2.csv,legacy,Kafkaesque Koffka,3.2.8,0,h,NA,NA,s,s,h,429,NA,NA,40703,26581,429,2,legacy,1024,2,48000,-16,experiment,SSHSS,2,even,268483,50900,233428,NA,258722,10167,252741,NA,269764,NA,10188,206843,269869,270302,269756,269869,Flanker task,95,50505,99,yes,1024
96,96,508.92,508.92,black,legacy,legacy,legacy,0,congruent,uniform,1,undefined,1,s,99,0,0,0,99,0,99,0,99,0,0,0,99,99,99,99,9/27/19 17:34,600,The main experiment item,yes,Flankertask.osexp,C:\Users\Edgar\Documents\Edgar School\Fall 2019\Lab 2-1,no,mono,no,18,no,white,no,yes,768,legacy,19,79,C:/Users/Edgar/Documents/Edgar School/Fall 2019/Lab 2-2/JJ-subject-2.csv,legacy,Kafkaesque Koffka,3.2.8,0,s,NA,NA,s,s,s,387,NA,NA,40703,26581,387,2,legacy,1024,2,48000,-16,experiment,SSSSS,2,even,270337,50900,233428,NA,258722,10167,252741,NA,271588,NA,10188,206843,271695,272086,271579,271694,Flanker task,96,50892,100,yes,1024
96.03960396,96.03960396,507.5049505,507.5049505,black,legacy,legacy,legacy,0,incongruent,uniform,1,undefined,1,h,100,0,0,0,100,0,100,0,100,0,0,0,100,100,100,100,9/27/19 17:34,600,The main experiment item,yes,Flankertask.osexp,C:\Users\Edgar\Documents\Edgar School\Fall 2019\Lab 2-1,no,mono,no,18,no,white,no,yes,768,legacy,20,79,C:/Users/Edgar/Documents/Edgar School/Fall 2019/Lab 2-2/JJ-subject-2.csv,legacy,Kafkaesque Koffka,3.2.8,0,h,NA,NA,s,s,h,366,NA,NA,40703,26581,366,2,legacy,1024,2,48000,-16,experiment,SSHSS,2,even,272133,50900,233428,NA,258722,10167,252741,NA,273386,NA,10188,206843,273491,273861,273377,273491,Flanker task,97,51258,101,yes,1024
96.07843137,96.07843137,506.0490196,506.0490196,black,legacy,legacy,legacy,0,incongruent,uniform,1,undefined,1,h,101,0,0,0,101,0,101,0,101,0,0,0,101,101,101,101,9/27/19 17:34,600,The main experiment item,yes,Flankertask.osexp,C:\Users\Edgar\Documents\Edgar School\Fall 2019\Lab 2-1,no,mono,no,18,no,white,no,yes,768,legacy,21,79,C:/Users/Edgar/Documents/Edgar School/Fall 2019/Lab 2-2/JJ-subject-2.csv,legacy,Kafkaesque Koffka,3.2.8,0,h,NA,NA,s,s,h,359,NA,NA,40703,26581,359,2,legacy,1024,2,48000,-16,experiment,SSHSS,2,even,273921,50900,233428,NA,258722,10167,252741,NA,275155,NA,10188,206843,275261,275624,275146,275260,Flanker task,98,51617,102,yes,1024
96.11650485,96.11650485,504.2330097,504.2330097,black,legacy,legacy,legacy,0,incongruent,uniform,1,undefined,1,s,102,0,0,0,102,0,102,0,102,0,0,0,102,102,102,102,9/27/19 17:34,600,The main experiment item,yes,Flankertask.osexp,C:\Users\Edgar\Documents\Edgar School\Fall 2019\Lab 2-1,no,mono,no,18,no,white,no,yes,768,legacy,22,79,C:/Users/Edgar/Documents/Edgar School/Fall 2019/Lab 2-2/JJ-subject-2.csv,legacy,Kafkaesque Koffka,3.2.8,0,s,NA,NA,s,s,s,319,NA,NA,40703,26581,319,2,legacy,1024,2,48000,-16,experiment,HHSHH,2,even,275663,50900,233428,NA,258722,10167,252741,NA,276908,NA,10188,206843,277014,277337,276900,277013,Flanker task,99,51936,103,yes,1024
96.15384615,96.15384615,502.7403846,502.7403846,black,legacy,legacy,legacy,0,incongruent,uniform,1,undefined,1,h,103,0,0,0,103,0,103,0,103,0,0,0,103,103,103,103,9/27/19 17:34,600,The main experiment item,yes,Flankertask.osexp,C:\Users\Edgar\Documents\Edgar School\Fall 2019\Lab 2-1,no,mono,no,18,no,white,no,yes,768,legacy,23,79,C:/Users/Edgar/Documents/Edgar School/Fall 2019/Lab 2-2/JJ-subject-2.csv,legacy,Kafkaesque Koffka,3.2.8,0,h,NA,NA,s,s,h,349,NA,NA,40703,26581,349,2,legacy,1024,2,48000,-16,experiment,SSHSS,2,even,277404,50900,233428,NA,258722,10167,252741,NA,278635,NA,10188,206843,278742,279095,278627,278742,Flanker task,100,52285,104,yes,1024
96.19047619,96.19047619,501.8190476,501.8190476,black,legacy,legacy,legacy,0,congruent,uniform,1,undefined,1,s,104,0,0,0,104,0,104,0,104,0,0,0,104,104,104,104,9/27/19 17:34,600,The main experiment item,yes,Flankertask.osexp,C:\Users\Edgar\Documents\Edgar School\Fall 2019\Lab 2-1,no,mono,no,18,no,white,no,yes,768,legacy,24,79,C:/Users/Edgar/Documents/Edgar School/Fall 2019/Lab 2-2/JJ-subject-2.csv,legacy,Kafkaesque Koffka,3.2.8,0,s,NA,NA,s,s,s,406,NA,NA,40703,26581,406,2,legacy,1024,2,48000,-16,experiment,SSSSS,2,even,279157,50900,233428,NA,258722,10167,252741,NA,280393,NA,10188,206843,280499,280913,280385,280498,Flanker task,101,52691,105,yes,1024
96.22641509,96.22641509,501.7264151,501.7264151,black,legacy,legacy,legacy,0,congruent,uniform,1,undefined,1,h,105,0,0,0,105,0,105,0,105,0,0,0,105,105,105,105,9/27/19 17:34,600,The main experiment item,yes,Flankertask.osexp,C:\Users\Edgar\Documents\Edgar School\Fall 2019\Lab 2-1,no,mono,no,18,no,white,no,yes,768,legacy,25,79,C:/Users/Edgar/Documents/Edgar School/Fall 2019/Lab 2-2/JJ-subject-2.csv,legacy,Kafkaesque Koffka,3.2.8,0,h,NA,NA,s,s,h,492,NA,NA,40703,26581,492,2,legacy,1024,2,48000,-16,experiment,HHHHH,2,even,280965,50900,233428,NA,258722,10167,252741,NA,282205,NA,10188,206843,282311,282806,282196,282310,Flanker task,102,53183,106,yes,1024
96.26168224,96.26168224,501.7757009,501.7757009,black,legacy,legacy,legacy,0,incongruent,uniform,1,undefined,1,s,106,0,0,0,106,0,106,0,106,0,0,0,106,106,106,106,9/27/19 17:34,600,The main experiment item,yes,Flankertask.osexp,C:\Users\Edgar\Documents\Edgar School\Fall 2019\Lab 2-1,no,mono,no,18,no,white,no,yes,768,legacy,26,79,C:/Users/Edgar/Documents/Edgar School/Fall 2019/Lab 2-2/JJ-subject-2.csv,legacy,Kafkaesque Koffka,3.2.8,0,s,NA,NA,s,s,s,507,NA,NA,40703,26581,507,2,legacy,1024,2,48000,-16,experiment,HHSHH,2,even,282862,50900,233428,NA,258722,10167,252741,NA,284100,NA,10188,206843,284206,284717,284092,284205,Flanker task,103,53690,107,yes,1024
96.2962963,96.2962963,500.6388889,500.6388889,black,legacy,legacy,legacy,0,incongruent,uniform,1,undefined,1,h,107,0,0,0,107,0,107,0,107,0,0,0,107,107,107,107,9/27/19 17:34,600,The main experiment item,yes,Flankertask.osexp,C:\Users\Edgar\Documents\Edgar School\Fall 2019\Lab 2-1,no,mono,no,18,no,white,no,yes,768,legacy,27,79,C:/Users/Edgar/Documents/Edgar School/Fall 2019/Lab 2-2/JJ-subject-2.csv,legacy,Kafkaesque Koffka,3.2.8,0,h,NA,NA,s,s,h,379,NA,NA,40703,26581,379,2,legacy,1024,2,48000,-16,experiment,SSHSS,2,even,284767,50900,233428,NA,258722,10167,252741,NA,286008,NA,10188,206843,286114,286497,286001,286113,Flanker task,104,54069,108,yes,1024
96.33027523,96.33027523,499.8165138,499.8165138,black,legacy,legacy,legacy,0,congruent,uniform,1,undefined,1,s,108,0,0,0,108,0,108,0,108,0,0,0,108,108,108,108,9/27/19 17:34,600,The main experiment item,yes,Flankertask.osexp,C:\Users\Edgar\Documents\Edgar School\Fall 2019\Lab 2-1,no,mono,no,18,no,white,no,yes,768,legacy,28,79,C:/Users/Edgar/Documents/Edgar School/Fall 2019/Lab 2-2/JJ-subject-2.csv,legacy,Kafkaesque Koffka,3.2.8,0,s,NA,NA,s,s,s,411,NA,NA,40703,26581,411,2,legacy,1024,2,48000,-16,experiment,SSSSS,2,even,286544,50900,233428,NA,258722,10167,252741,NA,287781,NA,10188,206843,287888,288304,287774,287887,Flanker task,105,54480,109,yes,1024
96.36363636,96.36363636,498.8363636,498.8363636,black,legacy,legacy,legacy,0,congruent,uniform,1,undefined,1,h,109,0,0,0,109,0,109,0,109,0,0,0,109,109,109,109,9/27/19 17:34,600,The main experiment item,yes,Flankertask.osexp,C:\Users\Edgar\Documents\Edgar School\Fall 2019\Lab 2-1,no,mono,no,18,no,white,no,yes,768,legacy,29,79,C:/Users/Edgar/Documents/Edgar School/Fall 2019/Lab 2-2/JJ-subject-2.csv,legacy,Kafkaesque Koffka,3.2.8,0,h,NA,NA,s,s,h,392,NA,NA,40703,26581,392,2,legacy,1024,2,48000,-16,experiment,HHHHH,2,even,288365,50900,233428,NA,258722,10167,252741,NA,289596,NA,10188,206843,289702,290098,289588,289701,Flanker task,106,54872,110,yes,1024
96.3963964,96.3963964,498.3333333,498.3333333,black,legacy,legacy,legacy,0,congruent,uniform,1,undefined,1,h,110,0,0,0,110,0,110,0,110,0,0,0,110,110,110,110,9/27/19 17:34,600,The main experiment item,yes,Flankertask.osexp,C:\Users\Edgar\Documents\Edgar School\Fall 2019\Lab 2-1,no,mono,no,18,no,white,no,yes,768,legacy,30,79,C:/Users/Edgar/Documents/Edgar School/Fall 2019/Lab 2-2/JJ-subject-2.csv,legacy,Kafkaesque Koffka,3.2.8,0,h,NA,NA,s,s,h,443,NA,NA,40703,26581,443,2,legacy,1024,2,48000,-16,experiment,HHHHH,2,even,290151,50900,233428,NA,258722,10167,252741,NA,291386,NA,10188,206843,291492,291940,291378,291491,Flanker task,107,55315,111,yes,1024
95.53571429,95.53571429,497.8214286,497.8214286,black,legacy,legacy,legacy,0,congruent,uniform,0,undefined,0,h,111,0,0,0,111,0,111,0,111,0,0,0,111,111,111,111,9/27/19 17:34,600,The main experiment item,yes,Flankertask.osexp,C:\Users\Edgar\Documents\Edgar School\Fall 2019\Lab 2-1,no,mono,no,18,no,white,no,yes,768,legacy,31,79,C:/Users/Edgar/Documents/Edgar School/Fall 2019/Lab 2-2/JJ-subject-2.csv,legacy,Kafkaesque Koffka,3.2.8,0,s,NA,NA,s,s,s,441,NA,NA,40703,26581,441,2,legacy,1024,2,48000,-16,experiment,HHHHH,2,even,292003,50900,233428,NA,258722,10167,252741,NA,293245,NA,10188,206843,293350,293796,293236,293349,Flanker task,107,55756,112,yes,1024
95.57522124,95.57522124,498.6548673,498.6548673,black,legacy,legacy,legacy,0,congruent,uniform,1,undefined,1,s,112,0,0,0,112,0,112,0,112,0,0,0,112,112,112,112,9/27/19 17:34,600,The main experiment item,yes,Flankertask.osexp,C:\Users\Edgar\Documents\Edgar School\Fall 2019\Lab 2-1,no,mono,no,18,no,white,no,yes,768,legacy,32,79,C:/Users/Edgar/Documents/Edgar School/Fall 2019/Lab 2-2/JJ-subject-2.csv,legacy,Kafkaesque Koffka,3.2.8,0,s,NA,NA,s,s,s,592,NA,NA,40703,26581,592,2,legacy,1024,2,48000,-16,experiment,SSSSS,2,even,294362,50900,233428,NA,293856,10167,252741,NA,295601,NA,10188,206843,295707,296303,295592,295706,Flanker task,108,56348,113,yes,1024
95.61403509,95.61403509,498.3947368,498.3947368,black,legacy,legacy,legacy,0,incongruent,uniform,1,undefined,1,s,113,0,0,0,113,0,113,0,113,0,0,0,113,113,113,113,9/27/19 17:34,600,The main experiment item,yes,Flankertask.osexp,C:\Users\Edgar\Documents\Edgar School\Fall 2019\Lab 2-1,no,mono,no,18,no,white,no,yes,768,legacy,33,79,C:/Users/Edgar/Documents/Edgar School/Fall 2019/Lab 2-2/JJ-subject-2.csv,legacy,Kafkaesque Koffka,3.2.8,0,s,NA,NA,s,s,s,469,NA,NA,40703,26581,469,2,legacy,1024,2,48000,-16,experiment,HHSHH,2,even,296352,50900,233428,NA,293856,10167,252741,NA,297594,NA,10188,206843,297699,298173,297586,297699,Flanker task,109,56817,114,yes,1024
95.65217391,95.65217391,497.2608696,497.2608696,black,legacy,legacy,legacy,0,congruent,uniform,1,undefined,1,h,114,0,0,0,114,0,114,0,114,0,0,0,114,114,114,114,9/27/19 17:34,600,The main experiment item,yes,Flankertask.osexp,C:\Users\Edgar\Documents\Edgar School\Fall 2019\Lab 2-1,no,mono,no,18,no,white,no,yes,768,legacy,34,79,C:/Users/Edgar/Documents/Edgar School/Fall 2019/Lab 2-2/JJ-subject-2.csv,legacy,Kafkaesque Koffka,3.2.8,0,h,NA,NA,s,s,h,368,NA,NA,40703,26581,368,2,legacy,1024,2,48000,-16,experiment,HHHHH,2,even,298239,50900,233428,NA,293856,10167,252741,NA,299478,NA,10188,206843,299584,299957,299471,299584,Flanker task,110,57185,115,yes,1024
95.68965517,95.68965517,498.2672414,498.2672414,black,legacy,legacy,legacy,0,congruent,uniform,1,undefined,1,s,115,0,0,0,115,0,115,0,115,0,0,0,115,115,115,115,9/27/19 17:34,600,The main experiment item,yes,Flankertask.osexp,C:\Users\Edgar\Documents\Edgar School\Fall 2019\Lab 2-1,no,mono,no,18,no,white,no,yes,768,legacy,35,79,C:/Users/Edgar/Documents/Edgar School/Fall 2019/Lab 2-2/JJ-subject-2.csv,legacy,Kafkaesque Koffka,3.2.8,0,s,NA,NA,s,s,s,614,NA,NA,40703,26581,614,2,legacy,1024,2,48000,-16,experiment,SSSSS,2,even,300003,50900,233428,NA,293856,10167,252741,NA,301237,NA,10188,206843,301343,301962,301230,301343,Flanker task,111,57799,116,yes,1024
95.72649573,95.72649573,498.025641,498.025641,black,legacy,legacy,legacy,0,congruent,uniform,1,undefined,1,h,116,0,0,0,116,0,116,0,116,0,0,0,116,116,116,116,9/27/19 17:34,600,The main experiment item,yes,Flankertask.osexp,C:\Users\Edgar\Documents\Edgar School\Fall 2019\Lab 2-1,no,mono,no,18,no,white,no,yes,768,legacy,36,79,C:/Users/Edgar/Documents/Edgar School/Fall 2019/Lab 2-2/JJ-subject-2.csv,legacy,Kafkaesque Koffka,3.2.8,0,h,NA,NA,s,s,h,470,NA,NA,40703,26581,470,2,legacy,1024,2,48000,-16,experiment,HHHHH,2,even,302527,50900,233428,NA,293856,10167,302022,NA,303766,NA,10188,206843,303872,304346,303758,303871,Flanker task,112,58269,117,yes,1024
95.76271186,95.76271186,497.3983051,497.3983051,black,legacy,legacy,legacy,0,incongruent,uniform,1,undefined,1,h,117,0,0,0,117,0,117,0,117,0,0,0,117,117,117,117,9/27/19 17:34,600,The main experiment item,yes,Flankertask.osexp,C:\Users\Edgar\Documents\Edgar School\Fall 2019\Lab 2-1,no,mono,no,18,no,white,no,yes,768,legacy,37,79,C:/Users/Edgar/Documents/Edgar School/Fall 2019/Lab 2-2/JJ-subject-2.csv,legacy,Kafkaesque Koffka,3.2.8,0,h,NA,NA,s,s,h,424,NA,NA,40703,26581,424,2,legacy,1024,2,48000,-16,experiment,SSHSS,2,even,304393,50900,233428,NA,293856,10167,302022,NA,305623,NA,10188,206843,305728,306157,305616,305728,Flanker task,113,58693,118,yes,1024
94.95798319,94.95798319,496.6134454,496.6134454,black,legacy,legacy,legacy,0,incongruent,uniform,0,undefined,0,s,118,0,0,0,118,0,118,0,118,0,0,0,118,118,118,118,9/27/19 17:34,600,The main experiment item,yes,Flankertask.osexp,C:\Users\Edgar\Documents\Edgar School\Fall 2019\Lab 2-1,no,mono,no,18,no,white,no,yes,768,legacy,38,79,C:/Users/Edgar/Documents/Edgar School/Fall 2019/Lab 2-2/JJ-subject-2.csv,legacy,Kafkaesque Koffka,3.2.8,0,h,NA,NA,s,s,h,404,NA,NA,40703,26581,404,2,legacy,1024,2,48000,-16,experiment,HHSHH,2,even,306202,50900,233428,NA,293856,10167,302022,NA,307441,NA,10188,206843,307547,307956,307433,307546,Flanker task,113,59097,119,yes,1024
95,95,496.0166667,496.0166667,black,legacy,legacy,legacy,0,congruent,uniform,1,undefined,1,s,119,0,0,0,119,0,119,0,119,0,0,0,119,119,119,119,9/27/19 17:34,600,The main experiment item,yes,Flankertask.osexp,C:\Users\Edgar\Documents\Edgar School\Fall 2019\Lab 2-1,no,mono,no,18,no,white,no,yes,768,legacy,39,79,C:/Users/Edgar/Documents/Edgar School/Fall 2019/Lab 2-2/JJ-subject-2.csv,legacy,Kafkaesque Koffka,3.2.8,0,s,NA,NA,s,s,s,425,NA,NA,40703,26581,425,2,legacy,1024,2,48000,-16,experiment,SSSSS,2,even,308508,50900,233428,NA,308001,10167,302022,NA,309782,NA,10188,206843,309889,310319,309773,309888,Flanker task,114,59522,120,yes,1024
95.04132231,95.04132231,495.7355372,495.7355372,black,legacy,legacy,legacy,0,congruent,uniform,1,undefined,1,s,120,0,0,0,120,0,120,0,120,0,0,0,120,120,120,120,9/27/19 17:34,600,The main experiment item,yes,Flankertask.osexp,C:\Users\Edgar\Documents\Edgar School\Fall 2019\Lab 2-1,no,mono,no,18,no,white,no,yes,768,legacy,40,79,C:/Users/Edgar/Documents/Edgar School/Fall 2019/Lab 2-2/JJ-subject-2.csv,legacy,Kafkaesque Koffka,3.2.8,0,s,NA,NA,s,s,s,462,NA,NA,40703,26581,462,2,legacy,1024,2,48000,-16,experiment,SSSSS,2,even,310376,50900,233428,NA,308001,10167,302022,NA,311618,NA,10188,206843,311724,312192,311611,311724,Flanker task,115,59984,121,yes,1024
95.08196721,95.08196721,496.352459,496.352459,black,legacy,legacy,legacy,0,incongruent,uniform,1,undefined,1,s,121,0,0,0,121,0,121,0,121,0,0,0,121,121,121,121,9/27/19 17:34,600,The main experiment item,yes,Flankertask.osexp,C:\Users\Edgar\Documents\Edgar School\Fall 2019\Lab 2-1,no,mono,no,18,no,white,no,yes,768,legacy,41,79,C:/Users/Edgar/Documents/Edgar School/Fall 2019/Lab 2-2/JJ-subject-2.csv,legacy,Kafkaesque Koffka,3.2.8,0,s,NA,NA,s,s,s,571,NA,NA,40703,26581,571,2,legacy,1024,2,48000,-16,experiment,HHSHH,2,even,312262,50900,233428,NA,308001,10167,302022,NA,313525,NA,10188,206843,313630,314206,313517,313630,Flanker task,116,60555,122,yes,1024
95.12195122,95.12195122,496.4065041,496.4065041,black,legacy,legacy,legacy,0,incongruent,uniform,1,undefined,1,s,122,0,0,0,122,0,122,0,122,0,0,0,122,122,122,122,9/27/19 17:34,600,The main experiment item,yes,Flankertask.osexp,C:\Users\Edgar\Documents\Edgar School\Fall 2019\Lab 2-1,no,mono,no,18,no,white,no,yes,768,legacy,42,79,C:/Users/Edgar/Documents/Edgar School/Fall 2019/Lab 2-2/JJ-subject-2.csv,legacy,Kafkaesque Koffka,3.2.8,0,s,NA,NA,s,s,s,503,NA,NA,40703,26581,503,2,legacy,1024,2,48000,-16,experiment,HHSHH,2,even,314257,50900,233428,NA,308001,10167,302022,NA,315496,NA,10188,206843,315602,316110,315487,315602,Flanker task,117,61058,123,yes,1024
95.16129032,95.16129032,496.0725806,496.0725806,black,legacy,legacy,legacy,0,congruent,uniform,1,undefined,1,s,123,0,0,0,123,0,123,0,123,0,0,0,123,123,123,123,9/27/19 17:34,600,The main experiment item,yes,Flankertask.osexp,C:\Users\Edgar\Documents\Edgar School\Fall 2019\Lab 2-1,no,mono,no,18,no,white,no,yes,768,legacy,43,79,C:/Users/Edgar/Documents/Edgar School/Fall 2019/Lab 2-2/JJ-subject-2.csv,legacy,Kafkaesque Koffka,3.2.8,0,s,NA,NA,s,s,s,455,NA,NA,40703,26581,455,2,legacy,1024,2,48000,-16,experiment,SSSSS,2,even,316177,50900,233428,NA,308001,10167,302022,NA,317413,NA,10188,206843,317519,317983,317405,317518,Flanker task,118,61513,124,yes,1024
95.2,95.2,494.808,494.808,black,legacy,legacy,legacy,0,congruent,uniform,1,undefined,1,s,124,0,0,0,124,0,124,0,124,0,0,0,124,124,124,124,9/27/19 17:34,600,The main experiment item,yes,Flankertask.osexp,C:\Users\Edgar\Documents\Edgar School\Fall 2019\Lab 2-1,no,mono,no,18,no,white,no,yes,768,legacy,44,79,C:/Users/Edgar/Documents/Edgar School/Fall 2019/Lab 2-2/JJ-subject-2.csv,legacy,Kafkaesque Koffka,3.2.8,0,s,NA,NA,s,s,s,338,NA,NA,40703,26581,338,2,legacy,1024,2,48000,-16,experiment,SSSSS,2,even,318041,50900,233428,NA,308001,10167,302022,NA,319291,NA,10188,206843,319396,319739,319284,319396,Flanker task,119,61851,125,yes,1024
95.23809524,95.23809524,495.1111111,495.1111111,black,legacy,legacy,legacy,0,incongruent,uniform,1,undefined,1,h,125,0,0,0,125,0,125,0,125,0,0,0,125,125,125,125,9/27/19 17:34,600,The main experiment item,yes,Flankertask.osexp,C:\Users\Edgar\Documents\Edgar School\Fall 2019\Lab 2-1,no,mono,no,18,no,white,no,yes,768,legacy,45,79,C:/Users/Edgar/Documents/Edgar School/Fall 2019/Lab 2-2/JJ-subject-2.csv,legacy,Kafkaesque Koffka,3.2.8,0,h,NA,NA,s,s,h,533,NA,NA,40703,26581,533,2,legacy,1024,2,48000,-16,experiment,SSHSS,2,even,319785,50900,233428,NA,308001,10167,302022,NA,321015,NA,10188,206843,321122,321661,321008,321122,Flanker task,120,62384,126,yes,1024
95.27559055,95.27559055,494.7401575,494.7401575,black,legacy,legacy,legacy,0,incongruent,uniform,1,undefined,1,s,126,0,0,0,126,0,126,0,126,0,0,0,126,126,126,126,9/27/19 17:34,600,The main experiment item,yes,Flankertask.osexp,C:\Users\Edgar\Documents\Edgar School\Fall 2019\Lab 2-1,no,mono,no,18,no,white,no,yes,768,legacy,46,79,C:/Users/Edgar/Documents/Edgar School/Fall 2019/Lab 2-2/JJ-subject-2.csv,legacy,Kafkaesque Koffka,3.2.8,0,s,NA,NA,s,s,s,448,NA,NA,40703,26581,448,2,legacy,1024,2,48000,-16,experiment,HHSHH,2,even,321714,50900,233428,NA,308001,10167,302022,NA,322950,NA,10188,206843,323055,323509,322943,323055,Flanker task,121,62832,127,yes,1024
95.3125,95.3125,494.4609375,494.4609375,black,legacy,legacy,legacy,0,congruent,uniform,1,undefined,1,s,127,0,0,0,127,0,127,0,127,0,0,0,127,127,127,127,9/27/19 17:34,600,The main experiment item,yes,Flankertask.osexp,C:\Users\Edgar\Documents\Edgar School\Fall 2019\Lab 2-1,no,mono,no,18,no,white,no,yes,768,legacy,47,79,C:/Users/Edgar/Documents/Edgar School/Fall 2019/Lab 2-2/JJ-subject-2.csv,legacy,Kafkaesque Koffka,3.2.8,0,s,NA,NA,s,s,s,459,NA,NA,40703,26581,459,2,legacy,1024,2,48000,-16,experiment,SSSSS,2,even,323565,50900,233428,NA,308001,10167,302022,NA,324812,NA,10188,206843,324918,325384,324804,324918,Flanker task,122,63291,128,yes,1024
95.34883721,95.34883721,493.627907,493.627907,black,legacy,legacy,legacy,0,incongruent,uniform,1,undefined,1,h,128,0,0,0,128,0,128,0,128,0,0,0,128,128,128,128,9/27/19 17:34,600,The main experiment item,yes,Flankertask.osexp,C:\Users\Edgar\Documents\Edgar School\Fall 2019\Lab 2-1,no,mono,no,18,no,white,no,yes,768,legacy,48,79,C:/Users/Edgar/Documents/Edgar School/Fall 2019/Lab 2-2/JJ-subject-2.csv,legacy,Kafkaesque Koffka,3.2.8,0,h,NA,NA,s,s,h,387,NA,NA,40703,26581,387,2,legacy,1024,2,48000,-16,experiment,SSHSS,2,even,325432,50900,233428,NA,308001,10167,302022,NA,326688,NA,10188,206843,326793,327185,326680,326793,Flanker task,123,63678,129,yes,1024
95.38461538,95.38461538,493.3692308,493.3692308,black,legacy,legacy,legacy,0,congruent,uniform,1,undefined,1,h,129,0,0,0,129,0,129,0,129,0,0,0,129,129,129,129,9/27/19 17:34,600,The main experiment item,yes,Flankertask.osexp,C:\Users\Edgar\Documents\Edgar School\Fall 2019\Lab 2-1,no,mono,no,18,no,white,no,yes,768,legacy,49,79,C:/Users/Edgar/Documents/Edgar School/Fall 2019/Lab 2-2/JJ-subject-2.csv,legacy,Kafkaesque Koffka,3.2.8,0,h,NA,NA,s,s,h,460,NA,NA,40703,26581,460,2,legacy,1024,2,48000,-16,experiment,HHHHH,2,even,327239,50900,233428,NA,308001,10167,302022,NA,328496,NA,10188,206843,328602,329067,328489,328602,Flanker task,124,64138,130,yes,1024
95.41984733,95.41984733,492.648855,492.648855,black,legacy,legacy,legacy,0,congruent,uniform,1,undefined,1,h,130,0,0,0,130,0,130,0,130,0,0,0,130,130,130,130,9/27/19 17:34,600,The main experiment item,yes,Flankertask.osexp,C:\Users\Edgar\Documents\Edgar School\Fall 2019\Lab 2-1,no,mono,no,18,no,white,no,yes,768,legacy,50,79,C:/Users/Edgar/Documents/Edgar School/Fall 2019/Lab 2-2/JJ-subject-2.csv,legacy,Kafkaesque Koffka,3.2.8,0,h,NA,NA,s,s,h,399,NA,NA,40703,26581,399,2,legacy,1024,2,48000,-16,experiment,HHHHH,2,even,329125,50900,233428,NA,308001,10167,302022,NA,330358,NA,10188,206843,330463,330867,330352,330463,Flanker task,125,64537,131,yes,1024
95.45454545,95.45454545,492.4318182,492.4318182,black,legacy,legacy,legacy,0,incongruent,uniform,1,undefined,1,h,131,0,0,0,131,0,131,0,131,0,0,0,131,131,131,131,9/27/19 17:34,600,The main experiment item,yes,Flankertask.osexp,C:\Users\Edgar\Documents\Edgar School\Fall 2019\Lab 2-1,no,mono,no,18,no,white,no,yes,768,legacy,51,79,C:/Users/Edgar/Documents/Edgar School/Fall 2019/Lab 2-2/JJ-subject-2.csv,legacy,Kafkaesque Koffka,3.2.8,0,h,NA,NA,s,s,h,464,NA,NA,40703,26581,464,2,legacy,1024,2,48000,-16,experiment,SSHSS,2,even,330902,50900,233428,NA,308001,10167,302022,NA,332138,NA,10188,206843,332244,332715,332131,332244,Flanker task,126,65001,132,yes,1024
94.73684211,94.73684211,491.3383459,491.3383459,black,legacy,legacy,legacy,0,incongruent,uniform,0,undefined,0,h,132,0,0,0,132,0,132,0,132,0,0,0,132,132,132,132,9/27/19 17:34,600,The main experiment item,yes,Flankertask.osexp,C:\Users\Edgar\Documents\Edgar School\Fall 2019\Lab 2-1,no,mono,no,18,no,white,no,yes,768,legacy,52,79,C:/Users/Edgar/Documents/Edgar School/Fall 2019/Lab 2-2/JJ-subject-2.csv,legacy,Kafkaesque Koffka,3.2.8,0,s,NA,NA,s,s,s,347,NA,NA,40703,26581,347,2,legacy,1024,2,48000,-16,experiment,SSHSS,2,even,332765,50900,233428,NA,308001,10167,302022,NA,333996,NA,10188,206843,334102,334454,333988,334102,Flanker task,126,65348,133,yes,1024
94.7761194,94.7761194,490.9626866,490.9626866,black,legacy,legacy,legacy,0,incongruent,uniform,1,undefined,1,h,133,0,0,0,133,0,133,0,133,0,0,0,133,133,133,133,9/27/19 17:34,600,The main experiment item,yes,Flankertask.osexp,C:\Users\Edgar\Documents\Edgar School\Fall 2019\Lab 2-1,no,mono,no,18,no,white,no,yes,768,legacy,53,79,C:/Users/Edgar/Documents/Edgar School/Fall 2019/Lab 2-2/JJ-subject-2.csv,legacy,Kafkaesque Koffka,3.2.8,0,h,NA,NA,s,s,h,441,NA,NA,40703,26581,441,2,legacy,1024,2,48000,-16,experiment,SSHSS,2,even,335000,50900,233428,NA,334494,10167,302022,NA,336232,NA,10188,206843,336337,336783,336224,336337,Flanker task,127,65789,134,yes,1024
94.81481481,94.81481481,490.1555556,490.1555556,black,legacy,legacy,legacy,0,congruent,uniform,1,undefined,1,h,134,0,0,0,134,0,134,0,134,0,0,0,134,134,134,134,9/27/19 17:34,600,The main experiment item,yes,Flankertask.osexp,C:\Users\Edgar\Documents\Edgar School\Fall 2019\Lab 2-1,no,mono,no,18,no,white,no,yes,768,legacy,54,79,C:/Users/Edgar/Documents/Edgar School/Fall 2019/Lab 2-2/JJ-subject-2.csv,legacy,Kafkaesque Koffka,3.2.8,0,h,NA,NA,s,s,h,382,NA,NA,40703,26581,382,2,legacy,1024,2,48000,-16,experiment,HHHHH,2,even,336992,50900,233428,NA,334494,10167,302022,NA,338227,NA,10188,206843,338333,338720,338220,338332,Flanker task,128,66171,135,yes,1024
94.85294118,94.85294118,489.8235294,489.8235294,black,legacy,legacy,legacy,0,congruent,uniform,1,undefined,1,s,135,0,0,0,135,0,135,0,135,0,0,0,135,135,135,135,9/27/19 17:34,600,The main experiment item,yes,Flankertask.osexp,C:\Users\Edgar\Documents\Edgar School\Fall 2019\Lab 2-1,no,mono,no,18,no,white,no,yes,768,legacy,55,79,C:/Users/Edgar/Documents/Edgar School/Fall 2019/Lab 2-2/JJ-subject-2.csv,legacy,Kafkaesque Koffka,3.2.8,0,s,NA,NA,s,s,s,445,NA,NA,40703,26581,445,2,legacy,1024,2,48000,-16,experiment,SSSSS,2,even,338777,50900,233428,NA,334494,10167,302022,NA,340032,NA,10188,206843,340137,340588,340025,340137,Flanker task,129,66616,136,yes,1024
94.89051095,94.89051095,489.6715328,489.6715328,black,legacy,legacy,legacy,0,incongruent,uniform,1,undefined,1,h,136,0,0,0,136,0,136,0,136,0,0,0,136,136,136,136,9/27/19 17:34,600,The main experiment item,yes,Flankertask.osexp,C:\Users\Edgar\Documents\Edgar School\Fall 2019\Lab 2-1,no,mono,no,18,no,white,no,yes,768,legacy,56,79,C:/Users/Edgar/Documents/Edgar School/Fall 2019/Lab 2-2/JJ-subject-2.csv,legacy,Kafkaesque Koffka,3.2.8,0,h,NA,NA,s,s,h,469,NA,NA,40703,26581,469,2,legacy,1024,2,48000,-16,experiment,SSHSS,2,even,340619,50900,233428,NA,334494,10167,302022,NA,341857,NA,10188,206843,341962,342437,341850,341962,Flanker task,130,67085,137,yes,1024
94.92753623,94.92753623,490.0797101,490.0797101,black,legacy,legacy,legacy,0,incongruent,uniform,1,undefined,1,s,137,0,0,0,137,0,137,0,137,0,0,0,137,137,137,137,9/27/19 17:34,600,The main experiment item,yes,Flankertask.osexp,C:\Users\Edgar\Documents\Edgar School\Fall 2019\Lab 2-1,no,mono,no,18,no,white,no,yes,768,legacy,57,79,C:/Users/Edgar/Documents/Edgar School/Fall 2019/Lab 2-2/JJ-subject-2.csv,legacy,Kafkaesque Koffka,3.2.8,0,s,NA,NA,s,s,s,546,NA,NA,40703,26581,546,2,legacy,1024,2,48000,-16,experiment,HHSHH,2,even,342484,50900,233428,NA,334494,10167,302022,NA,343720,NA,10188,206843,343826,344376,343713,343826,Flanker task,131,67631,138,yes,1024
94.96402878,94.96402878,489.7913669,489.7913669,black,legacy,legacy,legacy,0,congruent,uniform,1,undefined,1,h,138,0,0,0,138,0,138,0,138,0,0,0,138,138,138,138,9/27/19 17:34,600,The main experiment item,yes,Flankertask.osexp,C:\Users\Edgar\Documents\Edgar School\Fall 2019\Lab 2-1,no,mono,no,18,no,white,no,yes,768,legacy,58,79,C:/Users/Edgar/Documents/Edgar School/Fall 2019/Lab 2-2/JJ-subject-2.csv,legacy,Kafkaesque Koffka,3.2.8,0,h,NA,NA,s,s,h,450,NA,NA,40703,26581,450,2,legacy,1024,2,48000,-16,experiment,HHHHH,2,even,344424,50900,233428,NA,334494,10167,302022,NA,345673,NA,10188,206843,345780,346235,345665,345779,Flanker task,132,68081,139,yes,1024
95,95,489.2928571,489.2928571,black,legacy,legacy,legacy,0,congruent,uniform,1,undefined,1,h,139,0,0,0,139,0,139,0,139,0,0,0,139,139,139,139,9/27/19 17:34,600,The main experiment item,yes,Flankertask.osexp,C:\Users\Edgar\Documents\Edgar School\Fall 2019\Lab 2-1,no,mono,no,18,no,white,no,yes,768,legacy,59,79,C:/Users/Edgar/Documents/Edgar School/Fall 2019/Lab 2-2/JJ-subject-2.csv,legacy,Kafkaesque Koffka,3.2.8,0,h,NA,NA,s,s,h,420,NA,NA,40703,26581,420,2,legacy,1024,2,48000,-16,experiment,HHHHH,2,even,346275,50900,233428,NA,334494,10167,302022,NA,347521,NA,10188,206843,347629,348056,347513,347628,Flanker task,133,68501,140,yes,1024
95.03546099,95.03546099,488.858156,488.858156,black,legacy,legacy,legacy,0,congruent,uniform,1,undefined,1,h,140,0,0,0,140,0,140,0,140,0,0,0,140,140,140,140,9/27/19 17:34,600,The main experiment item,yes,Flankertask.osexp,C:\Users\Edgar\Documents\Edgar School\Fall 2019\Lab 2-1,no,mono,no,18,no,white,no,yes,768,legacy,60,79,C:/Users/Edgar/Documents/Edgar School/Fall 2019/Lab 2-2/JJ-subject-2.csv,legacy,Kafkaesque Koffka,3.2.8,0,h,NA,NA,s,s,h,428,NA,NA,40703,26581,428,2,legacy,1024,2,48000,-16,experiment,HHHHH,2,even,348109,50900,233428,NA,334494,10167,302022,NA,349372,NA,10188,206843,349477,349910,349365,349477,Flanker task,134,68929,141,yes,1024
95.07042254,95.07042254,488.4788732,488.4788732,black,legacy,legacy,legacy,0,congruent,uniform,1,undefined,1,s,141,0,0,0,141,0,141,0,141,0,0,0,141,141,141,141,9/27/19 17:34,600,The main experiment item,yes,Flankertask.osexp,C:\Users\Edgar\Documents\Edgar School\Fall 2019\Lab 2-1,no,mono,no,18,no,white,no,yes,768,legacy,61,79,C:/Users/Edgar/Documents/Edgar School/Fall 2019/Lab 2-2/JJ-subject-2.csv,legacy,Kafkaesque Koffka,3.2.8,0,s,NA,NA,s,s,s,435,NA,NA,40703,26581,435,2,legacy,1024,2,48000,-16,experiment,SSSSS,2,even,349950,50900,233428,NA,334494,10167,302022,NA,351179,NA,10188,206843,351284,351726,351172,351284,Flanker task,135,69364,142,yes,1024
95.1048951,95.1048951,488.3286713,488.3286713,black,legacy,legacy,legacy,0,incongruent,uniform,1,undefined,1,h,142,0,0,0,142,0,142,0,142,0,0,0,142,142,142,142,9/27/19 17:34,600,The main experiment item,yes,Flankertask.osexp,C:\Users\Edgar\Documents\Edgar School\Fall 2019\Lab 2-1,no,mono,no,18,no,white,no,yes,768,legacy,62,79,C:/Users/Edgar/Documents/Edgar School/Fall 2019/Lab 2-2/JJ-subject-2.csv,legacy,Kafkaesque Koffka,3.2.8,0,h,NA,NA,s,s,h,467,NA,NA,40703,26581,467,2,legacy,1024,2,48000,-16,experiment,SSHSS,2,even,351791,50900,233428,NA,334494,10167,302022,NA,353026,NA,10188,206843,353131,353604,353019,353131,Flanker task,136,69831,143,yes,1024
95.13888889,95.13888889,487.8125,487.8125,black,legacy,legacy,legacy,0,congruent,uniform,1,undefined,1,h,143,0,0,0,143,0,143,0,143,0,0,0,143,143,143,143,9/27/19 17:34,600,The main experiment item,yes,Flankertask.osexp,C:\Users\Edgar\Documents\Edgar School\Fall 2019\Lab 2-1,no,mono,no,18,no,white,no,yes,768,legacy,63,79,C:/Users/Edgar/Documents/Edgar School/Fall 2019/Lab 2-2/JJ-subject-2.csv,legacy,Kafkaesque Koffka,3.2.8,0,h,NA,NA,s,s,h,414,NA,NA,40703,26581,414,2,legacy,1024,2,48000,-16,experiment,HHHHH,2,even,353667,50900,233428,NA,334494,10167,302022,NA,354904,NA,10188,206843,355010,355429,354896,355010,Flanker task,137,70245,144,yes,1024
95.17241379,95.17241379,486.8344828,486.8344828,black,legacy,legacy,legacy,0,congruent,uniform,1,undefined,1,s,144,0,0,0,144,0,144,0,144,0,0,0,144,144,144,144,9/27/19 17:34,600,The main experiment item,yes,Flankertask.osexp,C:\Users\Edgar\Documents\Edgar School\Fall 2019\Lab 2-1,no,mono,no,18,no,white,no,yes,768,legacy,64,79,C:/Users/Edgar/Documents/Edgar School/Fall 2019/Lab 2-2/JJ-subject-2.csv,legacy,Kafkaesque Koffka,3.2.8,0,s,NA,NA,s,s,s,346,NA,NA,40703,26581,346,2,legacy,1024,2,48000,-16,experiment,SSSSS,2,even,355486,50900,233428,NA,334494,10167,302022,NA,356742,NA,10188,206843,356848,357201,356734,356848,Flanker task,138,70591,145,yes,1024
95.20547945,95.20547945,486.5273973,486.5273973,black,legacy,legacy,legacy,0,congruent,uniform,1,undefined,1,s,145,0,0,0,145,0,145,0,145,0,0,0,145,145,145,145,9/27/19 17:34,600,The main experiment item,yes,Flankertask.osexp,C:\Users\Edgar\Documents\Edgar School\Fall 2019\Lab 2-1,no,mono,no,18,no,white,no,yes,768,legacy,65,79,C:/Users/Edgar/Documents/Edgar School/Fall 2019/Lab 2-2/JJ-subject-2.csv,legacy,Kafkaesque Koffka,3.2.8,0,s,NA,NA,s,s,s,442,NA,NA,40703,26581,442,2,legacy,1024,2,48000,-16,experiment,SSSSS,2,even,357249,50900,233428,NA,334494,10167,302022,NA,358498,NA,10188,206843,358604,359053,358491,358604,Flanker task,139,71033,146,yes,1024
95.23809524,95.23809524,486.4217687,486.4217687,black,legacy,legacy,legacy,0,incongruent,uniform,1,undefined,1,s,146,0,0,0,146,0,146,0,146,0,0,0,146,146,146,146,9/27/19 17:34,600,The main experiment item,yes,Flankertask.osexp,C:\Users\Edgar\Documents\Edgar School\Fall 2019\Lab 2-1,no,mono,no,18,no,white,no,yes,768,legacy,66,79,C:/Users/Edgar/Documents/Edgar School/Fall 2019/Lab 2-2/JJ-subject-2.csv,legacy,Kafkaesque Koffka,3.2.8,0,s,NA,NA,s,s,s,471,NA,NA,40703,26581,471,2,legacy,1024,2,48000,-16,experiment,HHSHH,2,even,359122,50900,233428,NA,334494,10167,302022,NA,360356,NA,10188,206843,360461,360938,360348,360461,Flanker task,140,71504,147,yes,1024
94.59459459,94.59459459,485.7094595,485.7094595,black,legacy,legacy,legacy,0,incongruent,uniform,0,undefined,0,s,147,0,0,0,147,0,147,0,147,0,0,0,147,147,147,147,9/27/19 17:34,600,The main experiment item,yes,Flankertask.osexp,C:\Users\Edgar\Documents\Edgar School\Fall 2019\Lab 2-1,no,mono,no,18,no,white,no,yes,768,legacy,67,79,C:/Users/Edgar/Documents/Edgar School/Fall 2019/Lab 2-2/JJ-subject-2.csv,legacy,Kafkaesque Koffka,3.2.8,0,h,NA,NA,s,s,h,381,NA,NA,40703,26581,381,2,legacy,1024,2,48000,-16,experiment,HHSHH,2,even,360978,50900,233428,NA,334494,10167,302022,NA,362218,NA,10188,206843,362323,362709,362210,362323,Flanker task,140,71885,148,yes,1024
94.63087248,94.63087248,485.966443,485.966443,black,legacy,legacy,legacy,0,incongruent,uniform,1,undefined,1,s,148,0,0,0,148,0,148,0,148,0,0,0,148,148,148,148,9/27/19 17:34,600,The main experiment item,yes,Flankertask.osexp,C:\Users\Edgar\Documents\Edgar School\Fall 2019\Lab 2-1,no,mono,no,18,no,white,no,yes,768,legacy,68,79,C:/Users/Edgar/Documents/Edgar School/Fall 2019/Lab 2-2/JJ-subject-2.csv,legacy,Kafkaesque Koffka,3.2.8,0,s,NA,NA,s,s,s,524,NA,NA,40703,26581,524,2,legacy,1024,2,48000,-16,experiment,HHSHH,2,even,363247,50900,233428,NA,362741,10167,302022,NA,364483,NA,10188,206843,364589,365121,364475,364589,Flanker task,141,72409,149,yes,1024
94.66666667,94.66666667,485.1733333,485.1733333,black,legacy,legacy,legacy,0,congruent,uniform,1,undefined,1,h,149,0,0,0,149,0,149,0,149,0,0,0,149,149,149,149,9/27/19 17:34,600,The main experiment item,yes,Flankertask.osexp,C:\Users\Edgar\Documents\Edgar School\Fall 2019\Lab 2-1,no,mono,no,18,no,white,no,yes,768,legacy,69,79,C:/Users/Edgar/Documents/Edgar School/Fall 2019/Lab 2-2/JJ-subject-2.csv,legacy,Kafkaesque Koffka,3.2.8,0,h,NA,NA,s,s,h,367,NA,NA,40703,26581,367,2,legacy,1024,2,48000,-16,experiment,HHHHH,2,even,365172,50900,233428,NA,362741,10167,302022,NA,366414,NA,10188,206843,366521,366894,366406,366520,Flanker task,142,72776,150,yes,1024
94.70198676,94.70198676,485.4768212,485.4768212,black,legacy,legacy,legacy,0,incongruent,uniform,1,undefined,1,s,150,0,0,0,150,0,150,0,150,0,0,0,150,150,150,150,9/27/19 17:34,600,The main experiment item,yes,Flankertask.osexp,C:\Users\Edgar\Documents\Edgar School\Fall 2019\Lab 2-1,no,mono,no,18,no,white,no,yes,768,legacy,70,79,C:/Users/Edgar/Documents/Edgar School/Fall 2019/Lab 2-2/JJ-subject-2.csv,legacy,Kafkaesque Koffka,3.2.8,0,s,NA,NA,s,s,s,531,NA,NA,40703,26581,531,2,legacy,1024,2,48000,-16,experiment,HHSHH,2,even,366945,50900,233428,NA,362741,10167,302022,NA,368176,NA,10188,206843,368281,368818,368168,368281,Flanker task,143,73307,151,yes,1024
94.73684211,94.73684211,484.8881579,484.8881579,black,legacy,legacy,legacy,0,congruent,uniform,1,undefined,1,h,151,0,0,0,151,0,151,0,151,0,0,0,151,151,151,151,9/27/19 17:34,600,The main experiment item,yes,Flankertask.osexp,C:\Users\Edgar\Documents\Edgar School\Fall 2019\Lab 2-1,no,mono,no,18,no,white,no,yes,768,legacy,71,79,C:/Users/Edgar/Documents/Edgar School/Fall 2019/Lab 2-2/JJ-subject-2.csv,legacy,Kafkaesque Koffka,3.2.8,0,h,NA,NA,s,s,h,396,NA,NA,40703,26581,396,2,legacy,1024,2,48000,-16,experiment,HHHHH,2,even,368865,50900,233428,NA,362741,10167,302022,NA,370127,NA,10188,206843,370232,370633,370119,370232,Flanker task,144,73703,152,yes,1024
94.77124183,94.77124183,484.8496732,484.8496732,black,legacy,legacy,legacy,0,incongruent,uniform,1,undefined,1,s,152,0,0,0,152,0,152,0,152,0,0,0,152,152,152,152,9/27/19 17:34,600,The main experiment item,yes,Flankertask.osexp,C:\Users\Edgar\Documents\Edgar School\Fall 2019\Lab 2-1,no,mono,no,18,no,white,no,yes,768,legacy,72,79,C:/Users/Edgar/Documents/Edgar School/Fall 2019/Lab 2-2/JJ-subject-2.csv,legacy,Kafkaesque Koffka,3.2.8,0,s,NA,NA,s,s,s,479,NA,NA,40703,26581,479,2,legacy,1024,2,48000,-16,experiment,HHSHH,2,even,370685,50900,233428,NA,362741,10167,302022,NA,371956,NA,10188,206843,372062,372547,371949,372061,Flanker task,145,74182,153,yes,1024
94.80519481,94.80519481,484.6103896,484.6103896,black,legacy,legacy,legacy,0,incongruent,uniform,1,undefined,1,s,153,0,0,0,153,0,153,0,153,0,0,0,153,153,153,153,9/27/19 17:34,600,The main experiment item,yes,Flankertask.osexp,C:\Users\Edgar\Documents\Edgar School\Fall 2019\Lab 2-1,no,mono,no,18,no,white,no,yes,768,legacy,73,79,C:/Users/Edgar/Documents/Edgar School/Fall 2019/Lab 2-2/JJ-subject-2.csv,legacy,Kafkaesque Koffka,3.2.8,0,s,NA,NA,s,s,s,448,NA,NA,40703,26581,448,2,legacy,1024,2,48000,-16,experiment,HHSHH,2,even,372604,50900,233428,NA,362741,10167,302022,NA,373850,NA,10188,206843,373955,374409,373843,373955,Flanker task,146,74630,154,yes,1024
