acc,accuracy,average_response_time,avg_rt,background,canvas_backend,clock_backend,color_backend,compensation,condition,coordinates,correct,correct_instructions1,correct_keyboard_response,correct_response,count_Block1,count_Block2,count_Block3,count_ISI,count_errorFeedback,count_experiment,count_faster,count_finish,count_fixation,count_instruction2,count_instruction3,count_instructions1,count_keyboard_response,count_logger,count_sequence,count_stimulus,datetime,deadline,description,disable_garbage_collection,experiment_file,experiment_path,font_bold,font_family,font_italic,font_size,font_underline,foreground,form_clicks,fullscreen,height,keyboard_backend,live_row,live_row_Block1,logfile,mouse_backend,opensesame_codename,opensesame_version,repeat_cycle,response,response_finish,response_instruction2,response_instruction3,response_instructions1,response_keyboard_response,response_time,response_time_finish,response_time_instruction2,response_time_instruction3,response_time_instructions1,response_time_keyboard_response,round_decimals,sampler_backend,sound_buf_size,sound_channels,sound_freq,sound_sample_size,start,stimulus,subject_nr,subject_parity,time_Block1,time_Block2,time_Block3,time_ISI,time_errorFeedback,time_experiment,time_faster,time_finish,time_fixation,time_instruction2,time_instruction3,time_instructions1,time_keyboard_response,time_logger,time_sequence,time_stimulus,title,total_correct,total_response_time,total_responses,uniform_coordinates,width
0,0,524,524,black,legacy,legacy,legacy,0,incongruent,uniform,0,undefined,0,h,0,0,0,0,0,0,0,0,0,0,0,0,0,0,0,0,Thu Sep 22 13:00:18 2022,1500,The main experiment item,yes,Flanker_Task_by_Katherine_Hays.osexp,/Users/katherinehays/Desktop/PSYC 5316 - R and OpenSesame,no,mono,no,18,no,white,no,no,768,legacy,0,0,/Users/katherinehays/Desktop/PSYC 5316 - R and OpenSesame/subject-4.csv,legacy,Lentiform Loewenfeld,3.3.12,0,s,NA,NA,NA,s,s,524,NA,NA,NA,254185,524,2,legacy,1024,2,48000,-16,experiment,SSHSS,4,even,255820,NA,NA,NA,NA,1480,NA,NA,255857,NA,NA,1619,255963,256498,255852,255963,Flanker Task (by Katherine Hays),0,524,1,yes,1024
0,0,504.5,504.5,black,legacy,legacy,legacy,0,congruent,uniform,0,undefined,0,h,0,0,0,1,1,0,1,0,1,0,0,0,1,1,1,1,Thu Sep 22 13:00:18 2022,1500,The main experiment item,yes,Flanker_Task_by_Katherine_Hays.osexp,/Users/katherinehays/Desktop/PSYC 5316 - R and OpenSesame,no,mono,no,18,no,white,no,no,768,legacy,1,1,/Users/katherinehays/Desktop/PSYC 5316 - R and OpenSesame/subject-4.csv,legacy,Lentiform Loewenfeld,3.3.12,0,s,NA,NA,NA,s,s,485,NA,NA,NA,254185,485,2,legacy,1024,2,48000,-16,experiment,HHHHH,4,even,255820,NA,NA,257008,256503,1480,NA,NA,258071,NA,NA,1619,258175,258661,258066,258175,Flanker Task (by Katherine Hays),0,1009,2,yes,1024
33.33333333,33.33333333,489.6666667,489.6666667,black,legacy,legacy,legacy,0,congruent,uniform,1,undefined,1,s,0,0,0,2,2,0,2,0,2,0,0,0,2,2,2,2,Thu Sep 22 13:00:18 2022,1500,The main experiment item,yes,Flanker_Task_by_Katherine_Hays.osexp,/Users/katherinehays/Desktop/PSYC 5316 - R and OpenSesame,no,mono,no,18,no,white,no,no,768,legacy,2,2,/Users/katherinehays/Desktop/PSYC 5316 - R and OpenSesame/subject-4.csv,legacy,Lentiform Loewenfeld,3.3.12,0,s,NA,NA,NA,s,s,460,NA,NA,NA,254185,460,2,legacy,1024,2,48000,-16,experiment,SSSSS,4,even,255820,NA,NA,259169,258665,1480,NA,NA,260212,NA,NA,1619,260316,260776,260208,260316,Flanker Task (by Katherine Hays),1,1469,3,yes,1024
50,50,477.25,477.25,black,legacy,legacy,legacy,0,congruent,uniform,1,undefined,1,h,0,0,0,3,3,0,3,0,3,0,0,0,3,3,3,3,Thu Sep 22 13:00:18 2022,1500,The main experiment item,yes,Flanker_Task_by_Katherine_Hays.osexp,/Users/katherinehays/Desktop/PSYC 5316 - R and OpenSesame,no,mono,no,18,no,white,no,no,768,legacy,3,3,/Users/katherinehays/Desktop/PSYC 5316 - R and OpenSesame/subject-4.csv,legacy,Lentiform Loewenfeld,3.3.12,0,h,NA,NA,NA,s,h,440,NA,NA,NA,254185,440,2,legacy,1024,2,48000,-16,experiment,HHHHH,4,even,255820,NA,NA,260781,258665,1480,NA,NA,261821,NA,NA,1619,261924,262365,261817,261924,Flanker Task (by Katherine Hays),2,1909,4,yes,1024
60,60,517.2,517.2,black,legacy,legacy,legacy,0,incongruent,uniform,1,undefined,1,s,0,0,0,4,4,0,4,0,4,0,0,0,4,4,4,4,Thu Sep 22 13:00:18 2022,1500,The main experiment item,yes,Flanker_Task_by_Katherine_Hays.osexp,/Users/katherinehays/Desktop/PSYC 5316 - R and OpenSesame,no,mono,no,18,no,white,no,no,768,legacy,4,4,/Users/katherinehays/Desktop/PSYC 5316 - R and OpenSesame/subject-4.csv,legacy,Lentiform Loewenfeld,3.3.12,0,s,NA,NA,NA,s,s,677,NA,NA,NA,254185,677,2,legacy,1024,2,48000,-16,experiment,HHSHH,4,even,255820,NA,NA,262369,258665,1480,NA,NA,263409,NA,NA,1619,263514,264192,263406,263514,Flanker Task (by Katherine Hays),3,2586,5,yes,1024
66.66666667,66.66666667,553.8333333,553.8333333,black,legacy,legacy,legacy,0,incongruent,uniform,1,undefined,1,h,0,0,0,5,5,0,5,0,5,0,0,0,5,5,5,5,Thu Sep 22 13:00:18 2022,1500,The main experiment item,yes,Flanker_Task_by_Katherine_Hays.osexp,/Users/katherinehays/Desktop/PSYC 5316 - R and OpenSesame,no,mono,no,18,no,white,no,no,768,legacy,5,5,/Users/katherinehays/Desktop/PSYC 5316 - R and OpenSesame/subject-4.csv,legacy,Lentiform Loewenfeld,3.3.12,0,h,NA,NA,NA,s,h,737,NA,NA,NA,254185,737,2,legacy,1024,2,48000,-16,experiment,SSHSS,4,even,255820,NA,NA,264196,258665,1480,NA,NA,265233,NA,NA,1619,265337,266075,265228,265337,Flanker Task (by Katherine Hays),4,3323,6,yes,1024
71.42857143,71.42857143,557.4285714,557.4285714,black,legacy,legacy,legacy,0,congruent,uniform,1,undefined,1,s,0,0,0,6,6,0,6,0,6,0,0,0,6,6,6,6,Thu Sep 22 13:00:18 2022,1500,The main experiment item,yes,Flanker_Task_by_Katherine_Hays.osexp,/Users/katherinehays/Desktop/PSYC 5316 - R and OpenSesame,no,mono,no,18,no,white,no,no,768,legacy,6,6,/Users/katherinehays/Desktop/PSYC 5316 - R and OpenSesame/subject-4.csv,legacy,Lentiform Loewenfeld,3.3.12,0,s,NA,NA,NA,s,s,579,NA,NA,NA,254185,579,2,legacy,1024,2,48000,-16,experiment,SSSSS,4,even,255820,NA,NA,266079,258665,1480,NA,NA,267121,NA,NA,1619,267226,267806,267116,267226,Flanker Task (by Katherine Hays),5,3902,7,yes,1024
75,75,546,546,black,legacy,legacy,legacy,0,congruent,uniform,1,undefined,1,s,0,0,0,7,7,0,7,0,7,0,0,0,7,7,7,7,Thu Sep 22 13:00:18 2022,1500,The main experiment item,yes,Flanker_Task_by_Katherine_Hays.osexp,/Users/katherinehays/Desktop/PSYC 5316 - R and OpenSesame,no,mono,no,18,no,white,no,no,768,legacy,7,7,/Users/katherinehays/Desktop/PSYC 5316 - R and OpenSesame/subject-4.csv,legacy,Lentiform Loewenfeld,3.3.12,0,s,NA,NA,NA,s,s,466,NA,NA,NA,254185,466,2,legacy,1024,2,48000,-16,experiment,SSSSS,4,even,255820,NA,NA,267810,258665,1480,NA,NA,268851,NA,NA,1619,268954,269421,268846,268954,Flanker Task (by Katherine Hays),6,4368,8,yes,1024
77.77777778,77.77777778,531.5555556,531.5555556,black,legacy,legacy,legacy,0,congruent,uniform,1,undefined,1,s,0,0,0,8,8,0,8,0,8,0,0,0,8,8,8,8,Thu Sep 22 13:00:18 2022,1500,The main experiment item,yes,Flanker_Task_by_Katherine_Hays.osexp,/Users/katherinehays/Desktop/PSYC 5316 - R and OpenSesame,no,mono,no,18,no,white,no,no,768,legacy,8,8,/Users/katherinehays/Desktop/PSYC 5316 - R and OpenSesame/subject-4.csv,legacy,Lentiform Loewenfeld,3.3.12,0,s,NA,NA,NA,s,s,416,NA,NA,NA,254185,416,2,legacy,1024,2,48000,-16,experiment,SSSSS,4,even,255820,NA,NA,269425,258665,1480,NA,NA,270464,NA,NA,1619,270569,270985,270460,270568,Flanker Task (by Katherine Hays),7,4784,9,yes,1024
80,80,521.5,521.5,black,legacy,legacy,legacy,0,congruent,uniform,1,undefined,1,h,0,0,0,9,9,0,9,0,9,0,0,0,9,9,9,9,Thu Sep 22 13:00:18 2022,1500,The main experiment item,yes,Flanker_Task_by_Katherine_Hays.osexp,/Users/katherinehays/Desktop/PSYC 5316 - R and OpenSesame,no,mono,no,18,no,white,no,no,768,legacy,9,9,/Users/katherinehays/Desktop/PSYC 5316 - R and OpenSesame/subject-4.csv,legacy,Lentiform Loewenfeld,3.3.12,0,h,NA,NA,NA,s,h,431,NA,NA,NA,254185,431,2,legacy,1024,2,48000,-16,experiment,HHHHH,4,even,255820,NA,NA,270990,258665,1480,NA,NA,272028,NA,NA,1619,272133,272565,272023,272133,Flanker Task (by Katherine Hays),8,5215,10,yes,1024
81.81818182,81.81818182,510.8181818,510.8181818,black,legacy,legacy,legacy,0,congruent,uniform,1,undefined,1,h,0,0,0,10,10,0,10,0,10,0,0,0,10,10,10,10,Thu Sep 22 13:00:18 2022,1500,The main experiment item,yes,Flanker_Task_by_Katherine_Hays.osexp,/Users/katherinehays/Desktop/PSYC 5316 - R and OpenSesame,no,mono,no,18,no,white,no,no,768,legacy,10,10,/Users/katherinehays/Desktop/PSYC 5316 - R and OpenSesame/subject-4.csv,legacy,Lentiform Loewenfeld,3.3.12,0,h,NA,NA,NA,s,h,404,NA,NA,NA,254185,404,2,legacy,1024,2,48000,-16,experiment,HHHHH,4,even,255820,NA,NA,272569,258665,1480,NA,NA,273609,NA,NA,1619,273713,274117,273605,273713,Flanker Task (by Katherine Hays),9,5619,11,yes,1024
83.33333333,83.33333333,503.3333333,503.3333333,black,legacy,legacy,legacy,0,congruent,uniform,1,undefined,1,h,0,0,0,11,11,0,11,0,11,0,0,0,11,11,11,11,Thu Sep 22 13:00:18 2022,1500,The main experiment item,yes,Flanker_Task_by_Katherine_Hays.osexp,/Users/katherinehays/Desktop/PSYC 5316 - R and OpenSesame,no,mono,no,18,no,white,no,no,768,legacy,11,11,/Users/katherinehays/Desktop/PSYC 5316 - R and OpenSesame/subject-4.csv,legacy,Lentiform Loewenfeld,3.3.12,0,h,NA,NA,NA,s,h,421,NA,NA,NA,254185,421,2,legacy,1024,2,48000,-16,experiment,HHHHH,4,even,255820,NA,NA,274121,258665,1480,NA,NA,275163,NA,NA,1619,275266,275688,275159,275266,Flanker Task (by Katherine Hays),10,6040,12,yes,1024
84.61538462,84.61538462,496.0769231,496.0769231,black,legacy,legacy,legacy,0,congruent,uniform,1,undefined,1,h,0,0,0,12,12,0,12,0,12,0,0,0,12,12,12,12,Thu Sep 22 13:00:18 2022,1500,The main experiment item,yes,Flanker_Task_by_Katherine_Hays.osexp,/Users/katherinehays/Desktop/PSYC 5316 - R and OpenSesame,no,mono,no,18,no,white,no,no,768,legacy,12,12,/Users/katherinehays/Desktop/PSYC 5316 - R and OpenSesame/subject-4.csv,legacy,Lentiform Loewenfeld,3.3.12,0,h,NA,NA,NA,s,h,409,NA,NA,NA,254185,409,2,legacy,1024,2,48000,-16,experiment,HHHHH,4,even,255820,NA,NA,275692,258665,1480,NA,NA,276734,NA,NA,1619,276838,277248,276730,276838,Flanker Task (by Katherine Hays),11,6449,13,yes,1024
85.71428571,85.71428571,494.8571429,494.8571429,black,legacy,legacy,legacy,0,incongruent,uniform,1,undefined,1,s,0,0,0,13,13,0,13,0,13,0,0,0,13,13,13,13,Thu Sep 22 13:00:18 2022,1500,The main experiment item,yes,Flanker_Task_by_Katherine_Hays.osexp,/Users/katherinehays/Desktop/PSYC 5316 - R and OpenSesame,no,mono,no,18,no,white,no,no,768,legacy,13,13,/Users/katherinehays/Desktop/PSYC 5316 - R and OpenSesame/subject-4.csv,legacy,Lentiform Loewenfeld,3.3.12,0,s,NA,NA,NA,s,s,479,NA,NA,NA,254185,479,2,legacy,1024,2,48000,-16,experiment,HHSHH,4,even,255820,NA,NA,277252,258665,1480,NA,NA,278288,NA,NA,1619,278394,278874,278285,278394,Flanker Task (by Katherine Hays),12,6928,14,yes,1024
86.66666667,86.66666667,496.6666667,496.6666667,black,legacy,legacy,legacy,0,incongruent,uniform,1,undefined,1,s,0,0,0,14,14,0,14,0,14,0,0,0,14,14,14,14,Thu Sep 22 13:00:18 2022,1500,The main experiment item,yes,Flanker_Task_by_Katherine_Hays.osexp,/Users/katherinehays/Desktop/PSYC 5316 - R and OpenSesame,no,mono,no,18,no,white,no,no,768,legacy,14,14,/Users/katherinehays/Desktop/PSYC 5316 - R and OpenSesame/subject-4.csv,legacy,Lentiform Loewenfeld,3.3.12,0,s,NA,NA,NA,s,s,522,NA,NA,NA,254185,522,2,legacy,1024,2,48000,-16,experiment,HHSHH,4,even,255820,NA,NA,278878,258665,1480,NA,NA,279920,NA,NA,1619,280023,280545,279915,280023,Flanker Task (by Katherine Hays),13,7450,15,yes,1024
87.5,87.5,491.0625,491.0625,black,legacy,legacy,legacy,0,incongruent,uniform,1,undefined,1,s,0,0,0,15,15,0,15,0,15,0,0,0,15,15,15,15,Thu Sep 22 13:00:18 2022,1500,The main experiment item,yes,Flanker_Task_by_Katherine_Hays.osexp,/Users/katherinehays/Desktop/PSYC 5316 - R and OpenSesame,no,mono,no,18,no,white,no,no,768,legacy,15,15,/Users/katherinehays/Desktop/PSYC 5316 - R and OpenSesame/subject-4.csv,legacy,Lentiform Loewenfeld,3.3.12,0,s,NA,NA,NA,s,s,407,NA,NA,NA,254185,407,2,legacy,1024,2,48000,-16,experiment,HHSHH,4,even,255820,NA,NA,280549,258665,1480,NA,NA,281588,NA,NA,1619,281692,282100,281583,281692,Flanker Task (by Katherine Hays),14,7857,16,yes,1024
82.35294118,82.35294118,479.4117647,479.4117647,black,legacy,legacy,legacy,0,congruent,uniform,0,undefined,0,s,0,0,0,16,16,0,16,0,16,0,0,0,16,16,16,16,Thu Sep 22 13:00:18 2022,1500,The main experiment item,yes,Flanker_Task_by_Katherine_Hays.osexp,/Users/katherinehays/Desktop/PSYC 5316 - R and OpenSesame,no,mono,no,18,no,white,no,no,768,legacy,16,16,/Users/katherinehays/Desktop/PSYC 5316 - R and OpenSesame/subject-4.csv,legacy,Lentiform Loewenfeld,3.3.12,0,h,NA,NA,NA,s,h,293,NA,NA,NA,254185,293,2,legacy,1024,2,48000,-16,experiment,SSSSS,4,even,255820,NA,NA,282104,258665,1480,NA,NA,283145,NA,NA,1619,283249,283543,283141,283249,Flanker Task (by Katherine Hays),14,8150,17,yes,1024
77.77777778,77.77777778,472,472,black,legacy,legacy,legacy,0,congruent,uniform,0,undefined,0,s,0,0,0,17,17,0,17,0,17,0,0,0,17,17,17,17,Thu Sep 22 13:00:18 2022,1500,The main experiment item,yes,Flanker_Task_by_Katherine_Hays.osexp,/Users/katherinehays/Desktop/PSYC 5316 - R and OpenSesame,no,mono,no,18,no,white,no,no,768,legacy,17,17,/Users/katherinehays/Desktop/PSYC 5316 - R and OpenSesame/subject-4.csv,legacy,Lentiform Loewenfeld,3.3.12,0,h,NA,NA,NA,s,h,346,NA,NA,NA,254185,346,2,legacy,1024,2,48000,-16,experiment,SSSSS,4,even,255820,NA,NA,284050,283547,1480,NA,NA,285085,NA,NA,1619,285190,285536,285082,285190,Flanker Task (by Katherine Hays),14,8496,18,yes,1024
73.68421053,73.68421053,521.0526316,521.0526316,black,legacy,legacy,legacy,0,incongruent,uniform,0,undefined,0,s,0,0,0,18,18,0,18,0,18,0,0,0,18,18,18,18,Thu Sep 22 13:00:18 2022,1500,The main experiment item,yes,Flanker_Task_by_Katherine_Hays.osexp,/Users/katherinehays/Desktop/PSYC 5316 - R and OpenSesame,no,mono,no,18,no,white,no,no,768,legacy,18,18,/Users/katherinehays/Desktop/PSYC 5316 - R and OpenSesame/subject-4.csv,legacy,Lentiform Loewenfeld,3.3.12,0,h,NA,NA,NA,s,h,1404,NA,NA,NA,254185,1404,2,legacy,1024,2,48000,-16,experiment,HHSHH,4,even,255820,NA,NA,286045,285540,1480,NA,NA,287096,NA,NA,1619,287200,288605,287092,287200,Flanker Task (by Katherine Hays),14,9900,19,yes,1024
75,75,516.75,516.75,black,legacy,legacy,legacy,0,congruent,uniform,1,undefined,1,s,0,0,0,19,19,0,19,0,19,0,0,0,19,19,19,19,Thu Sep 22 13:00:18 2022,1500,The main experiment item,yes,Flanker_Task_by_Katherine_Hays.osexp,/Users/katherinehays/Desktop/PSYC 5316 - R and OpenSesame,no,mono,no,18,no,white,no,no,768,legacy,19,19,/Users/katherinehays/Desktop/PSYC 5316 - R and OpenSesame/subject-4.csv,legacy,Lentiform Loewenfeld,3.3.12,0,s,NA,NA,NA,s,s,435,NA,NA,NA,254185,435,2,legacy,1024,2,48000,-16,experiment,SSSSS,4,even,255820,NA,NA,289113,288609,1480,NA,NA,290150,NA,NA,1619,290255,290691,290146,290255,Flanker Task (by Katherine Hays),15,10335,20,yes,1024
76.19047619,76.19047619,511.9047619,511.9047619,black,legacy,legacy,legacy,0,congruent,uniform,1,undefined,1,s,0,0,0,20,20,0,20,0,20,0,0,0,20,20,20,20,Thu Sep 22 13:00:18 2022,1500,The main experiment item,yes,Flanker_Task_by_Katherine_Hays.osexp,/Users/katherinehays/Desktop/PSYC 5316 - R and OpenSesame,no,mono,no,18,no,white,no,no,768,legacy,20,20,/Users/katherinehays/Desktop/PSYC 5316 - R and OpenSesame/subject-4.csv,legacy,Lentiform Loewenfeld,3.3.12,0,s,NA,NA,NA,s,s,415,NA,NA,NA,254185,415,2,legacy,1024,2,48000,-16,experiment,SSSSS,4,even,255820,NA,NA,290695,288609,1480,NA,NA,291736,NA,NA,1619,291840,292256,291731,291840,Flanker Task (by Katherine Hays),16,10750,21,yes,1024
77.27272727,77.27272727,511.2727273,511.2727273,black,legacy,legacy,legacy,0,congruent,uniform,1,undefined,1,s,0,0,0,21,21,0,21,0,21,0,0,0,21,21,21,21,Thu Sep 22 13:00:18 2022,1500,The main experiment item,yes,Flanker_Task_by_Katherine_Hays.osexp,/Users/katherinehays/Desktop/PSYC 5316 - R and OpenSesame,no,mono,no,18,no,white,no,no,768,legacy,21,21,/Users/katherinehays/Desktop/PSYC 5316 - R and OpenSesame/subject-4.csv,legacy,Lentiform Loewenfeld,3.3.12,0,s,NA,NA,NA,s,s,498,NA,NA,NA,254185,498,2,legacy,1024,2,48000,-16,experiment,SSSSS,4,even,255820,NA,NA,292260,288609,1480,NA,NA,293301,NA,NA,1619,293405,293904,293296,293405,Flanker Task (by Katherine Hays),17,11248,22,yes,1024
78.26086957,78.26086957,504.9565217,504.9565217,black,legacy,legacy,legacy,0,congruent,uniform,1,undefined,1,s,0,0,0,22,22,0,22,0,22,0,0,0,22,22,22,22,Thu Sep 22 13:00:18 2022,1500,The main experiment item,yes,Flanker_Task_by_Katherine_Hays.osexp,/Users/katherinehays/Desktop/PSYC 5316 - R and OpenSesame,no,mono,no,18,no,white,no,no,768,legacy,22,22,/Users/katherinehays/Desktop/PSYC 5316 - R and OpenSesame/subject-4.csv,legacy,Lentiform Loewenfeld,3.3.12,0,s,NA,NA,NA,s,s,366,NA,NA,NA,254185,366,2,legacy,1024,2,48000,-16,experiment,SSSSS,4,even,255820,NA,NA,293908,288609,1480,NA,NA,294948,NA,NA,1619,295052,295419,294943,295052,Flanker Task (by Katherine Hays),18,11614,23,yes,1024
79.16666667,79.16666667,496.75,496.75,black,legacy,legacy,legacy,0,congruent,uniform,1,undefined,1,s,0,0,0,23,23,0,23,0,23,0,0,0,23,23,23,23,Thu Sep 22 13:00:18 2022,1500,The main experiment item,yes,Flanker_Task_by_Katherine_Hays.osexp,/Users/katherinehays/Desktop/PSYC 5316 - R and OpenSesame,no,mono,no,18,no,white,no,no,768,legacy,23,23,/Users/katherinehays/Desktop/PSYC 5316 - R and OpenSesame/subject-4.csv,legacy,Lentiform Loewenfeld,3.3.12,0,s,NA,NA,NA,s,s,308,NA,NA,NA,254185,308,2,legacy,1024,2,48000,-16,experiment,SSSSS,4,even,255820,NA,NA,295423,288609,1480,NA,NA,296463,NA,NA,1619,296567,296876,296458,296567,Flanker Task (by Katherine Hays),19,11922,24,yes,1024
80,80,492.72,492.72,black,legacy,legacy,legacy,0,congruent,uniform,1,undefined,1,s,0,0,0,24,24,0,24,0,24,0,0,0,24,24,24,24,Thu Sep 22 13:00:18 2022,1500,The main experiment item,yes,Flanker_Task_by_Katherine_Hays.osexp,/Users/katherinehays/Desktop/PSYC 5316 - R and OpenSesame,no,mono,no,18,no,white,no,no,768,legacy,24,24,/Users/katherinehays/Desktop/PSYC 5316 - R and OpenSesame/subject-4.csv,legacy,Lentiform Loewenfeld,3.3.12,0,s,NA,NA,NA,s,s,396,NA,NA,NA,254185,396,2,legacy,1024,2,48000,-16,experiment,SSSSS,4,even,255820,NA,NA,296880,288609,1480,NA,NA,297916,NA,NA,1619,298021,298418,297912,298020,Flanker Task (by Katherine Hays),20,12318,25,yes,1024
76.92307692,76.92307692,488.4615385,488.4615385,black,legacy,legacy,legacy,0,incongruent,uniform,0,undefined,0,h,0,0,0,25,25,0,25,0,25,0,0,0,25,25,25,25,Thu Sep 22 13:00:18 2022,1500,The main experiment item,yes,Flanker_Task_by_Katherine_Hays.osexp,/Users/katherinehays/Desktop/PSYC 5316 - R and OpenSesame,no,mono,no,18,no,white,no,no,768,legacy,25,25,/Users/katherinehays/Desktop/PSYC 5316 - R and OpenSesame/subject-4.csv,legacy,Lentiform Loewenfeld,3.3.12,0,s,NA,NA,NA,s,s,382,NA,NA,NA,254185,382,2,legacy,1024,2,48000,-16,experiment,SSHSS,4,even,255820,NA,NA,298422,288609,1480,NA,NA,299461,NA,NA,1619,299565,299948,299457,299565,Flanker Task (by Katherine Hays),20,12700,26,yes,1024
77.77777778,77.77777778,504.4444444,504.4444444,black,legacy,legacy,legacy,0,incongruent,uniform,1,undefined,1,s,0,0,0,26,26,0,26,0,26,0,0,0,26,26,26,26,Thu Sep 22 13:00:18 2022,1500,The main experiment item,yes,Flanker_Task_by_Katherine_Hays.osexp,/Users/katherinehays/Desktop/PSYC 5316 - R and OpenSesame,no,mono,no,18,no,white,no,no,768,legacy,26,26,/Users/katherinehays/Desktop/PSYC 5316 - R and OpenSesame/subject-4.csv,legacy,Lentiform Loewenfeld,3.3.12,0,s,NA,NA,NA,s,s,920,NA,NA,NA,254185,920,2,legacy,1024,2,48000,-16,experiment,HHSHH,4,even,255820,NA,NA,300456,299952,1480,NA,NA,301496,NA,NA,1619,301600,302521,301491,301600,Flanker Task (by Katherine Hays),21,13620,27,yes,1024
78.57142857,78.57142857,521.75,521.75,black,legacy,legacy,legacy,0,congruent,uniform,1,undefined,1,s,0,0,0,27,27,0,27,0,27,0,0,0,27,27,27,27,Thu Sep 22 13:00:18 2022,1500,The main experiment item,yes,Flanker_Task_by_Katherine_Hays.osexp,/Users/katherinehays/Desktop/PSYC 5316 - R and OpenSesame,no,mono,no,18,no,white,no,no,768,legacy,27,27,/Users/katherinehays/Desktop/PSYC 5316 - R and OpenSesame/subject-4.csv,legacy,Lentiform Loewenfeld,3.3.12,0,s,NA,NA,NA,s,s,989,NA,NA,NA,254185,989,2,legacy,1024,2,48000,-16,experiment,SSSSS,4,even,255820,NA,NA,302525,299952,1480,NA,NA,303567,NA,NA,1619,303670,304659,303562,303670,Flanker Task (by Katherine Hays),22,14609,28,yes,1024
79.31034483,79.31034483,521.3103448,521.3103448,black,legacy,legacy,legacy,0,congruent,uniform,1,undefined,1,h,0,0,0,28,28,0,28,0,28,0,0,0,28,28,28,28,Thu Sep 22 13:00:18 2022,1500,The main experiment item,yes,Flanker_Task_by_Katherine_Hays.osexp,/Users/katherinehays/Desktop/PSYC 5316 - R and OpenSesame,no,mono,no,18,no,white,no,no,768,legacy,28,28,/Users/katherinehays/Desktop/PSYC 5316 - R and OpenSesame/subject-4.csv,legacy,Lentiform Loewenfeld,3.3.12,0,h,NA,NA,NA,s,h,509,NA,NA,NA,254185,509,2,legacy,1024,2,48000,-16,experiment,HHHHH,4,even,255820,NA,NA,304663,299952,1480,NA,NA,305700,NA,NA,1619,305805,306315,305696,305805,Flanker Task (by Katherine Hays),23,15118,29,yes,1024
80,80,516.1333333,516.1333333,black,legacy,legacy,legacy,0,congruent,uniform,1,undefined,1,h,0,0,0,29,29,0,29,0,29,0,0,0,29,29,29,29,Thu Sep 22 13:00:18 2022,1500,The main experiment item,yes,Flanker_Task_by_Katherine_Hays.osexp,/Users/katherinehays/Desktop/PSYC 5316 - R and OpenSesame,no,mono,no,18,no,white,no,no,768,legacy,29,29,/Users/katherinehays/Desktop/PSYC 5316 - R and OpenSesame/subject-4.csv,legacy,Lentiform Loewenfeld,3.3.12,0,h,NA,NA,NA,s,h,366,NA,NA,NA,254185,366,2,legacy,1024,2,48000,-16,experiment,HHHHH,4,even,255820,NA,NA,306319,299952,1480,NA,NA,307361,NA,NA,1619,307465,307831,307356,307465,Flanker Task (by Katherine Hays),24,15484,30,yes,1024
77.41935484,77.41935484,515.8387097,515.8387097,black,legacy,legacy,legacy,0,incongruent,uniform,0,undefined,0,h,0,0,0,30,30,0,30,0,30,0,0,0,30,30,30,30,Thu Sep 22 13:00:18 2022,1500,The main experiment item,yes,Flanker_Task_by_Katherine_Hays.osexp,/Users/katherinehays/Desktop/PSYC 5316 - R and OpenSesame,no,mono,no,18,no,white,no,no,768,legacy,30,30,/Users/katherinehays/Desktop/PSYC 5316 - R and OpenSesame/subject-4.csv,legacy,Lentiform Loewenfeld,3.3.12,0,s,NA,NA,NA,s,s,507,NA,NA,NA,254185,507,2,legacy,1024,2,48000,-16,experiment,SSHSS,4,even,255820,NA,NA,307836,299952,1480,NA,NA,308876,NA,NA,1619,308979,309487,308871,308979,Flanker Task (by Katherine Hays),24,15991,31,yes,1024
75,75,517.15625,517.15625,black,legacy,legacy,legacy,0,incongruent,uniform,0,undefined,0,h,0,0,0,31,31,0,31,0,31,0,0,0,31,31,31,31,Thu Sep 22 13:00:18 2022,1500,The main experiment item,yes,Flanker_Task_by_Katherine_Hays.osexp,/Users/katherinehays/Desktop/PSYC 5316 - R and OpenSesame,no,mono,no,18,no,white,no,no,768,legacy,31,31,/Users/katherinehays/Desktop/PSYC 5316 - R and OpenSesame/subject-4.csv,legacy,Lentiform Loewenfeld,3.3.12,0,s,NA,NA,NA,s,s,558,NA,NA,NA,254185,558,2,legacy,1024,2,48000,-16,experiment,SSHSS,4,even,255820,NA,NA,309995,309491,1480,NA,NA,311033,NA,NA,1619,311137,311696,311029,311137,Flanker Task (by Katherine Hays),24,16549,32,yes,1024
72.72727273,72.72727273,513.2727273,513.2727273,black,legacy,legacy,legacy,0,incongruent,uniform,0,undefined,0,h,0,0,0,32,32,0,32,0,32,0,0,0,32,32,32,32,Thu Sep 22 13:00:18 2022,1500,The main experiment item,yes,Flanker_Task_by_Katherine_Hays.osexp,/Users/katherinehays/Desktop/PSYC 5316 - R and OpenSesame,no,mono,no,18,no,white,no,no,768,legacy,32,32,/Users/katherinehays/Desktop/PSYC 5316 - R and OpenSesame/subject-4.csv,legacy,Lentiform Loewenfeld,3.3.12,0,s,NA,NA,NA,s,s,389,NA,NA,NA,254185,389,2,legacy,1024,2,48000,-16,experiment,SSHSS,4,even,255820,NA,NA,312205,311700,1480,NA,NA,313243,NA,NA,1619,313348,313738,313240,313348,Flanker Task (by Katherine Hays),24,16938,33,yes,1024
70.58823529,70.58823529,506.1764706,506.1764706,black,legacy,legacy,legacy,0,incongruent,uniform,0,undefined,0,h,0,0,0,33,33,0,33,0,33,0,0,0,33,33,33,33,Thu Sep 22 13:00:18 2022,1500,The main experiment item,yes,Flanker_Task_by_Katherine_Hays.osexp,/Users/katherinehays/Desktop/PSYC 5316 - R and OpenSesame,no,mono,no,18,no,white,no,no,768,legacy,33,33,/Users/katherinehays/Desktop/PSYC 5316 - R and OpenSesame/subject-4.csv,legacy,Lentiform Loewenfeld,3.3.12,0,s,NA,NA,NA,s,s,272,NA,NA,NA,254185,272,2,legacy,1024,2,48000,-16,experiment,SSHSS,4,even,255820,NA,NA,314246,313742,1480,NA,NA,315281,NA,NA,1619,315385,315657,315278,315385,Flanker Task (by Katherine Hays),24,17210,34,yes,1024
71.42857143,71.42857143,504.8571429,504.8571429,black,legacy,legacy,legacy,0,congruent,uniform,1,undefined,1,s,0,0,0,34,34,0,34,0,34,0,0,0,34,34,34,34,Thu Sep 22 13:00:18 2022,1500,The main experiment item,yes,Flanker_Task_by_Katherine_Hays.osexp,/Users/katherinehays/Desktop/PSYC 5316 - R and OpenSesame,no,mono,no,18,no,white,no,no,768,legacy,34,34,/Users/katherinehays/Desktop/PSYC 5316 - R and OpenSesame/subject-4.csv,legacy,Lentiform Loewenfeld,3.3.12,0,s,NA,NA,NA,s,s,460,NA,NA,NA,254185,460,2,legacy,1024,2,48000,-16,experiment,SSSSS,4,even,255820,NA,NA,316166,315661,1480,NA,NA,317207,NA,NA,1619,317311,317772,317202,317311,Flanker Task (by Katherine Hays),25,17670,35,yes,1024
69.44444444,69.44444444,506.3888889,506.3888889,black,legacy,legacy,legacy,0,incongruent,uniform,0,undefined,0,s,0,0,0,35,35,0,35,0,35,0,0,0,35,35,35,35,Thu Sep 22 13:00:18 2022,1500,The main experiment item,yes,Flanker_Task_by_Katherine_Hays.osexp,/Users/katherinehays/Desktop/PSYC 5316 - R and OpenSesame,no,mono,no,18,no,white,no,no,768,legacy,35,35,/Users/katherinehays/Desktop/PSYC 5316 - R and OpenSesame/subject-4.csv,legacy,Lentiform Loewenfeld,3.3.12,0,h,NA,NA,NA,s,h,560,NA,NA,NA,254185,560,2,legacy,1024,2,48000,-16,experiment,HHSHH,4,even,255820,NA,NA,317776,315661,1480,NA,NA,318811,NA,NA,1619,318917,319477,318808,318917,Flanker Task (by Katherine Hays),25,18230,36,yes,1024
67.56756757,67.56756757,503.8648649,503.8648649,black,legacy,legacy,legacy,0,incongruent,uniform,0,undefined,0,s,0,0,0,36,36,0,36,0,36,0,0,0,36,36,36,36,Thu Sep 22 13:00:18 2022,1500,The main experiment item,yes,Flanker_Task_by_Katherine_Hays.osexp,/Users/katherinehays/Desktop/PSYC 5316 - R and OpenSesame,no,mono,no,18,no,white,no,no,768,legacy,36,36,/Users/katherinehays/Desktop/PSYC 5316 - R and OpenSesame/subject-4.csv,legacy,Lentiform Loewenfeld,3.3.12,0,h,NA,NA,NA,s,h,413,NA,NA,NA,254185,413,2,legacy,1024,2,48000,-16,experiment,HHSHH,4,even,255820,NA,NA,319986,319482,1480,NA,NA,321029,NA,NA,1619,321133,321547,321024,321133,Flanker Task (by Katherine Hays),25,18643,37,yes,1024
65.78947368,65.78947368,497.5789474,497.5789474,black,legacy,legacy,legacy,0,congruent,uniform,0,undefined,0,h,0,0,0,37,37,0,37,0,37,0,0,0,37,37,37,37,Thu Sep 22 13:00:18 2022,1500,The main experiment item,yes,Flanker_Task_by_Katherine_Hays.osexp,/Users/katherinehays/Desktop/PSYC 5316 - R and OpenSesame,no,mono,no,18,no,white,no,no,768,legacy,37,37,/Users/katherinehays/Desktop/PSYC 5316 - R and OpenSesame/subject-4.csv,legacy,Lentiform Loewenfeld,3.3.12,0,s,NA,NA,NA,s,s,265,NA,NA,NA,254185,265,2,legacy,1024,2,48000,-16,experiment,HHHHH,4,even,255820,NA,NA,322054,321551,1480,NA,NA,323092,NA,NA,1619,323197,323462,323086,323196,Flanker Task (by Katherine Hays),25,18908,38,yes,1024
64.1025641,64.1025641,496.2564103,496.2564103,black,legacy,legacy,legacy,0,incongruent,uniform,0,undefined,0,s,0,0,0,38,38,0,38,0,38,0,0,0,38,38,38,38,Thu Sep 22 13:00:18 2022,1500,The main experiment item,yes,Flanker_Task_by_Katherine_Hays.osexp,/Users/katherinehays/Desktop/PSYC 5316 - R and OpenSesame,no,mono,no,18,no,white,no,no,768,legacy,38,38,/Users/katherinehays/Desktop/PSYC 5316 - R and OpenSesame/subject-4.csv,legacy,Lentiform Loewenfeld,3.3.12,0,h,NA,NA,NA,s,h,446,NA,NA,NA,254185,446,2,legacy,1024,2,48000,-16,experiment,HHSHH,4,even,255820,NA,NA,323971,323466,1480,NA,NA,325014,NA,NA,1619,325118,325564,325008,325118,Flanker Task (by Katherine Hays),25,19354,39,yes,1024
65,65,492.7,492.7,black,legacy,legacy,legacy,0,incongruent,uniform,1,undefined,1,s,0,0,0,39,39,0,39,0,39,0,0,0,39,39,39,39,Thu Sep 22 13:00:18 2022,1500,The main experiment item,yes,Flanker_Task_by_Katherine_Hays.osexp,/Users/katherinehays/Desktop/PSYC 5316 - R and OpenSesame,no,mono,no,18,no,white,no,no,768,legacy,39,39,/Users/katherinehays/Desktop/PSYC 5316 - R and OpenSesame/subject-4.csv,legacy,Lentiform Loewenfeld,3.3.12,0,s,NA,NA,NA,s,s,354,NA,NA,NA,254185,354,2,legacy,1024,2,48000,-16,experiment,HHSHH,4,even,255820,NA,NA,326072,325568,1480,NA,NA,327108,NA,NA,1619,327214,327568,327105,327214,Flanker Task (by Katherine Hays),26,19708,40,yes,1024
65.85365854,65.85365854,487.5365854,487.5365854,black,legacy,legacy,legacy,0,congruent,uniform,1,undefined,1,h,0,0,0,40,40,0,40,0,40,0,0,0,40,40,40,40,Thu Sep 22 13:00:18 2022,1500,The main experiment item,yes,Flanker_Task_by_Katherine_Hays.osexp,/Users/katherinehays/Desktop/PSYC 5316 - R and OpenSesame,no,mono,no,18,no,white,no,no,768,legacy,40,40,/Users/katherinehays/Desktop/PSYC 5316 - R and OpenSesame/subject-4.csv,legacy,Lentiform Loewenfeld,3.3.12,0,h,NA,NA,NA,s,h,281,NA,NA,NA,254185,281,2,legacy,1024,2,48000,-16,experiment,HHHHH,4,even,255820,NA,NA,327572,325568,1480,NA,NA,328607,NA,NA,1619,328712,328994,328603,328712,Flanker Task (by Katherine Hays),27,19989,41,yes,1024
66.66666667,66.66666667,484.7142857,484.7142857,black,legacy,legacy,legacy,0,congruent,uniform,1,undefined,1,h,0,0,0,41,41,0,41,0,41,0,0,0,41,41,41,41,Thu Sep 22 13:00:18 2022,1500,The main experiment item,yes,Flanker_Task_by_Katherine_Hays.osexp,/Users/katherinehays/Desktop/PSYC 5316 - R and OpenSesame,no,mono,no,18,no,white,no,no,768,legacy,41,41,/Users/katherinehays/Desktop/PSYC 5316 - R and OpenSesame/subject-4.csv,legacy,Lentiform Loewenfeld,3.3.12,0,h,NA,NA,NA,s,h,369,NA,NA,NA,254185,369,2,legacy,1024,2,48000,-16,experiment,HHHHH,4,even,255820,NA,NA,328998,325568,1480,NA,NA,330043,NA,NA,1619,330146,330516,330037,330146,Flanker Task (by Katherine Hays),28,20358,42,yes,1024
67.44186047,67.44186047,479.5348837,479.5348837,black,legacy,legacy,legacy,0,congruent,uniform,1,undefined,1,h,0,0,0,42,42,0,42,0,42,0,0,0,42,42,42,42,Thu Sep 22 13:00:18 2022,1500,The main experiment item,yes,Flanker_Task_by_Katherine_Hays.osexp,/Users/katherinehays/Desktop/PSYC 5316 - R and OpenSesame,no,mono,no,18,no,white,no,no,768,legacy,42,42,/Users/katherinehays/Desktop/PSYC 5316 - R and OpenSesame/subject-4.csv,legacy,Lentiform Loewenfeld,3.3.12,0,h,NA,NA,NA,s,h,262,NA,NA,NA,254185,262,2,legacy,1024,2,48000,-16,experiment,HHHHH,4,even,255820,NA,NA,330520,325568,1480,NA,NA,331562,NA,NA,1619,331666,331929,331558,331666,Flanker Task (by Katherine Hays),29,20620,43,yes,1024
68.18181818,68.18181818,479.7272727,479.7272727,black,legacy,legacy,legacy,0,incongruent,uniform,1,undefined,1,s,0,0,0,43,43,0,43,0,43,0,0,0,43,43,43,43,Thu Sep 22 13:00:18 2022,1500,The main experiment item,yes,Flanker_Task_by_Katherine_Hays.osexp,/Users/katherinehays/Desktop/PSYC 5316 - R and OpenSesame,no,mono,no,18,no,white,no,no,768,legacy,43,43,/Users/katherinehays/Desktop/PSYC 5316 - R and OpenSesame/subject-4.csv,legacy,Lentiform Loewenfeld,3.3.12,0,s,NA,NA,NA,s,s,488,NA,NA,NA,254185,488,2,legacy,1024,2,48000,-16,experiment,HHSHH,4,even,255820,NA,NA,331933,325568,1480,NA,NA,332974,NA,NA,1619,333078,333567,332969,333078,Flanker Task (by Katherine Hays),30,21108,44,yes,1024
68.88888889,68.88888889,476.9777778,476.9777778,black,legacy,legacy,legacy,0,congruent,uniform,1,undefined,1,h,0,0,0,44,44,0,44,0,44,0,0,0,44,44,44,44,Thu Sep 22 13:00:18 2022,1500,The main experiment item,yes,Flanker_Task_by_Katherine_Hays.osexp,/Users/katherinehays/Desktop/PSYC 5316 - R and OpenSesame,no,mono,no,18,no,white,no,no,768,legacy,44,44,/Users/katherinehays/Desktop/PSYC 5316 - R and OpenSesame/subject-4.csv,legacy,Lentiform Loewenfeld,3.3.12,0,h,NA,NA,NA,s,h,356,NA,NA,NA,254185,356,2,legacy,1024,2,48000,-16,experiment,HHHHH,4,even,255820,NA,NA,333571,325568,1480,NA,NA,334623,NA,NA,1619,334727,335084,334618,334727,Flanker Task (by Katherine Hays),31,21464,45,yes,1024
69.56521739,69.56521739,474.4782609,474.4782609,black,legacy,legacy,legacy,0,incongruent,uniform,1,undefined,1,h,0,0,0,45,45,0,45,0,45,0,0,0,45,45,45,45,Thu Sep 22 13:00:18 2022,1500,The main experiment item,yes,Flanker_Task_by_Katherine_Hays.osexp,/Users/katherinehays/Desktop/PSYC 5316 - R and OpenSesame,no,mono,no,18,no,white,no,no,768,legacy,45,45,/Users/katherinehays/Desktop/PSYC 5316 - R and OpenSesame/subject-4.csv,legacy,Lentiform Loewenfeld,3.3.12,0,h,NA,NA,NA,s,h,362,NA,NA,NA,254185,362,2,legacy,1024,2,48000,-16,experiment,SSHSS,4,even,255820,NA,NA,335089,325568,1480,NA,NA,336130,NA,NA,1619,336234,336597,336125,336234,Flanker Task (by Katherine Hays),32,21826,46,yes,1024
70.21276596,70.21276596,475.2765957,475.2765957,black,legacy,legacy,legacy,0,congruent,uniform,1,undefined,1,s,0,0,0,46,46,0,46,0,46,0,0,0,46,46,46,46,Thu Sep 22 13:00:18 2022,1500,The main experiment item,yes,Flanker_Task_by_Katherine_Hays.osexp,/Users/katherinehays/Desktop/PSYC 5316 - R and OpenSesame,no,mono,no,18,no,white,no,no,768,legacy,46,46,/Users/katherinehays/Desktop/PSYC 5316 - R and OpenSesame/subject-4.csv,legacy,Lentiform Loewenfeld,3.3.12,0,s,NA,NA,NA,s,s,512,NA,NA,NA,254185,512,2,legacy,1024,2,48000,-16,experiment,SSSSS,4,even,255820,NA,NA,336601,325568,1480,NA,NA,337648,NA,NA,1619,337752,338264,337643,337752,Flanker Task (by Katherine Hays),33,22338,47,yes,1024
68.75,68.75,474.1458333,474.1458333,black,legacy,legacy,legacy,0,incongruent,uniform,0,undefined,0,s,0,0,0,47,47,0,47,0,47,0,0,0,47,47,47,47,Thu Sep 22 13:00:18 2022,1500,The main experiment item,yes,Flanker_Task_by_Katherine_Hays.osexp,/Users/katherinehays/Desktop/PSYC 5316 - R and OpenSesame,no,mono,no,18,no,white,no,no,768,legacy,47,47,/Users/katherinehays/Desktop/PSYC 5316 - R and OpenSesame/subject-4.csv,legacy,Lentiform Loewenfeld,3.3.12,0,h,NA,NA,NA,s,h,421,NA,NA,NA,254185,421,2,legacy,1024,2,48000,-16,experiment,HHSHH,4,even,255820,NA,NA,338269,325568,1480,NA,NA,339310,NA,NA,1619,339414,339836,339306,339414,Flanker Task (by Katherine Hays),33,22759,48,yes,1024
69.3877551,69.3877551,473.755102,473.755102,black,legacy,legacy,legacy,0,congruent,uniform,1,undefined,1,h,0,0,0,48,48,0,48,0,48,0,0,0,48,48,48,48,Thu Sep 22 13:00:18 2022,1500,The main experiment item,yes,Flanker_Task_by_Katherine_Hays.osexp,/Users/katherinehays/Desktop/PSYC 5316 - R and OpenSesame,no,mono,no,18,no,white,no,no,768,legacy,48,48,/Users/katherinehays/Desktop/PSYC 5316 - R and OpenSesame/subject-4.csv,legacy,Lentiform Loewenfeld,3.3.12,0,h,NA,NA,NA,s,h,455,NA,NA,NA,254185,455,2,legacy,1024,2,48000,-16,experiment,HHHHH,4,even,255820,NA,NA,340346,339840,1480,NA,NA,341390,NA,NA,1619,341493,341949,341386,341493,Flanker Task (by Katherine Hays),34,23214,49,yes,1024
70,70,475.28,475.28,black,legacy,legacy,legacy,0,incongruent,uniform,1,undefined,1,h,0,0,0,49,49,0,49,0,49,0,0,0,49,49,49,49,Thu Sep 22 13:00:18 2022,1500,The main experiment item,yes,Flanker_Task_by_Katherine_Hays.osexp,/Users/katherinehays/Desktop/PSYC 5316 - R and OpenSesame,no,mono,no,18,no,white,no,no,768,legacy,49,49,/Users/katherinehays/Desktop/PSYC 5316 - R and OpenSesame/subject-4.csv,legacy,Lentiform Loewenfeld,3.3.12,0,h,NA,NA,NA,s,h,550,NA,NA,NA,254185,550,2,legacy,1024,2,48000,-16,experiment,SSHSS,4,even,255820,NA,NA,341953,339840,1480,NA,NA,342988,NA,NA,1619,343094,343645,342984,343094,Flanker Task (by Katherine Hays),35,23764,50,yes,1024
68.62745098,68.62745098,473.9803922,473.9803922,black,legacy,legacy,legacy,0,congruent,uniform,0,undefined,0,s,0,0,0,50,50,0,50,0,50,0,0,0,50,50,50,50,Thu Sep 22 13:00:18 2022,1500,The main experiment item,yes,Flanker_Task_by_Katherine_Hays.osexp,/Users/katherinehays/Desktop/PSYC 5316 - R and OpenSesame,no,mono,no,18,no,white,no,no,768,legacy,50,50,/Users/katherinehays/Desktop/PSYC 5316 - R and OpenSesame/subject-4.csv,legacy,Lentiform Loewenfeld,3.3.12,0,h,NA,NA,NA,s,h,409,NA,NA,NA,254185,409,2,legacy,1024,2,48000,-16,experiment,SSSSS,4,even,255820,NA,NA,343649,339840,1480,NA,NA,344691,NA,NA,1619,344795,345204,344686,344795,Flanker Task (by Katherine Hays),35,24173,51,yes,1024
69.23076923,69.23076923,473.1153846,473.1153846,black,legacy,legacy,legacy,0,congruent,uniform,1,undefined,1,h,0,0,0,51,51,0,51,0,51,0,0,0,51,51,51,51,Thu Sep 22 13:00:18 2022,1500,The main experiment item,yes,Flanker_Task_by_Katherine_Hays.osexp,/Users/katherinehays/Desktop/PSYC 5316 - R and OpenSesame,no,mono,no,18,no,white,no,no,768,legacy,51,51,/Users/katherinehays/Desktop/PSYC 5316 - R and OpenSesame/subject-4.csv,legacy,Lentiform Loewenfeld,3.3.12,0,h,NA,NA,NA,s,h,429,NA,NA,NA,254185,429,2,legacy,1024,2,48000,-16,experiment,HHHHH,4,even,255820,NA,NA,345712,345208,1480,NA,NA,346747,NA,NA,1619,346851,347280,346744,346851,Flanker Task (by Katherine Hays),36,24602,52,yes,1024
69.81132075,69.81132075,469.8301887,469.8301887,black,legacy,legacy,legacy,0,incongruent,uniform,1,undefined,1,h,0,0,0,52,52,0,52,0,52,0,0,0,52,52,52,52,Thu Sep 22 13:00:18 2022,1500,The main experiment item,yes,Flanker_Task_by_Katherine_Hays.osexp,/Users/katherinehays/Desktop/PSYC 5316 - R and OpenSesame,no,mono,no,18,no,white,no,no,768,legacy,52,52,/Users/katherinehays/Desktop/PSYC 5316 - R and OpenSesame/subject-4.csv,legacy,Lentiform Loewenfeld,3.3.12,0,h,NA,NA,NA,s,h,299,NA,NA,NA,254185,299,2,legacy,1024,2,48000,-16,experiment,SSHSS,4,even,255820,NA,NA,347284,345208,1480,NA,NA,348324,NA,NA,1619,348428,348728,348319,348428,Flanker Task (by Katherine Hays),37,24901,53,yes,1024
68.51851852,68.51851852,466.9074074,466.9074074,black,legacy,legacy,legacy,0,congruent,uniform,0,undefined,0,s,0,0,0,53,53,0,53,0,53,0,0,0,53,53,53,53,Thu Sep 22 13:00:18 2022,1500,The main experiment item,yes,Flanker_Task_by_Katherine_Hays.osexp,/Users/katherinehays/Desktop/PSYC 5316 - R and OpenSesame,no,mono,no,18,no,white,no,no,768,legacy,53,53,/Users/katherinehays/Desktop/PSYC 5316 - R and OpenSesame/subject-4.csv,legacy,Lentiform Loewenfeld,3.3.12,0,h,NA,NA,NA,s,h,312,NA,NA,NA,254185,312,2,legacy,1024,2,48000,-16,experiment,SSSSS,4,even,255820,NA,NA,348733,345208,1480,NA,NA,349770,NA,NA,1619,349874,350187,349765,349874,Flanker Task (by Katherine Hays),37,25213,54,yes,1024
69.09090909,69.09090909,464.9090909,464.9090909,black,legacy,legacy,legacy,0,congruent,uniform,1,undefined,1,h,0,0,0,54,54,0,54,0,54,0,0,0,54,54,54,54,Thu Sep 22 13:00:18 2022,1500,The main experiment item,yes,Flanker_Task_by_Katherine_Hays.osexp,/Users/katherinehays/Desktop/PSYC 5316 - R and OpenSesame,no,mono,no,18,no,white,no,no,768,legacy,54,54,/Users/katherinehays/Desktop/PSYC 5316 - R and OpenSesame/subject-4.csv,legacy,Lentiform Loewenfeld,3.3.12,0,h,NA,NA,NA,s,h,357,NA,NA,NA,254185,357,2,legacy,1024,2,48000,-16,experiment,HHHHH,4,even,255820,NA,NA,350696,350191,1480,NA,NA,351736,NA,NA,1619,351840,352198,351732,351840,Flanker Task (by Katherine Hays),38,25570,55,yes,1024
69.64285714,69.64285714,463.625,463.625,black,legacy,legacy,legacy,0,incongruent,uniform,1,undefined,1,s,0,0,0,55,55,0,55,0,55,0,0,0,55,55,55,55,Thu Sep 22 13:00:18 2022,1500,The main experiment item,yes,Flanker_Task_by_Katherine_Hays.osexp,/Users/katherinehays/Desktop/PSYC 5316 - R and OpenSesame,no,mono,no,18,no,white,no,no,768,legacy,55,55,/Users/katherinehays/Desktop/PSYC 5316 - R and OpenSesame/subject-4.csv,legacy,Lentiform Loewenfeld,3.3.12,0,s,NA,NA,NA,s,s,393,NA,NA,NA,254185,393,2,legacy,1024,2,48000,-16,experiment,HHSHH,4,even,255820,NA,NA,352202,350191,1480,NA,NA,353242,NA,NA,1619,353346,353739,353238,353346,Flanker Task (by Katherine Hays),39,25963,56,yes,1024
68.42105263,68.42105263,462.5263158,462.5263158,black,legacy,legacy,legacy,0,incongruent,uniform,0,undefined,0,h,0,0,0,56,56,0,56,0,56,0,0,0,56,56,56,56,Thu Sep 22 13:00:18 2022,1500,The main experiment item,yes,Flanker_Task_by_Katherine_Hays.osexp,/Users/katherinehays/Desktop/PSYC 5316 - R and OpenSesame,no,mono,no,18,no,white,no,no,768,legacy,56,56,/Users/katherinehays/Desktop/PSYC 5316 - R and OpenSesame/subject-4.csv,legacy,Lentiform Loewenfeld,3.3.12,0,s,NA,NA,NA,s,s,401,NA,NA,NA,254185,401,2,legacy,1024,2,48000,-16,experiment,SSHSS,4,even,255820,NA,NA,353743,350191,1480,NA,NA,354784,NA,NA,1619,354888,355290,354780,354888,Flanker Task (by Katherine Hays),39,26364,57,yes,1024
68.96551724,68.96551724,461.0862069,461.0862069,black,legacy,legacy,legacy,0,incongruent,uniform,1,undefined,1,s,0,0,0,57,57,0,57,0,57,0,0,0,57,57,57,57,Thu Sep 22 13:00:18 2022,1500,The main experiment item,yes,Flanker_Task_by_Katherine_Hays.osexp,/Users/katherinehays/Desktop/PSYC 5316 - R and OpenSesame,no,mono,no,18,no,white,no,no,768,legacy,57,57,/Users/katherinehays/Desktop/PSYC 5316 - R and OpenSesame/subject-4.csv,legacy,Lentiform Loewenfeld,3.3.12,0,s,NA,NA,NA,s,s,379,NA,NA,NA,254185,379,2,legacy,1024,2,48000,-16,experiment,HHSHH,4,even,255820,NA,NA,355797,355294,1480,NA,NA,356833,NA,NA,1619,356937,357317,356829,356937,Flanker Task (by Katherine Hays),40,26743,58,yes,1024
69.49152542,69.49152542,459.4915254,459.4915254,black,legacy,legacy,legacy,0,incongruent,uniform,1,undefined,1,s,0,0,0,58,58,0,58,0,58,0,0,0,58,58,58,58,Thu Sep 22 13:00:18 2022,1500,The main experiment item,yes,Flanker_Task_by_Katherine_Hays.osexp,/Users/katherinehays/Desktop/PSYC 5316 - R and OpenSesame,no,mono,no,18,no,white,no,no,768,legacy,58,58,/Users/katherinehays/Desktop/PSYC 5316 - R and OpenSesame/subject-4.csv,legacy,Lentiform Loewenfeld,3.3.12,0,s,NA,NA,NA,s,s,367,NA,NA,NA,254185,367,2,legacy,1024,2,48000,-16,experiment,HHSHH,4,even,255820,NA,NA,357321,355294,1480,NA,NA,358359,NA,NA,1619,358463,358831,358355,358463,Flanker Task (by Katherine Hays),41,27110,59,yes,1024
68.33333333,68.33333333,458.3333333,458.3333333,black,legacy,legacy,legacy,0,incongruent,uniform,0,undefined,0,s,0,0,0,59,59,0,59,0,59,0,0,0,59,59,59,59,Thu Sep 22 13:00:18 2022,1500,The main experiment item,yes,Flanker_Task_by_Katherine_Hays.osexp,/Users/katherinehays/Desktop/PSYC 5316 - R and OpenSesame,no,mono,no,18,no,white,no,no,768,legacy,59,59,/Users/katherinehays/Desktop/PSYC 5316 - R and OpenSesame/subject-4.csv,legacy,Lentiform Loewenfeld,3.3.12,0,h,NA,NA,NA,s,h,390,NA,NA,NA,254185,390,2,legacy,1024,2,48000,-16,experiment,HHSHH,4,even,255820,NA,NA,358835,355294,1480,NA,NA,359874,NA,NA,1619,359978,360369,359869,359978,Flanker Task (by Katherine Hays),41,27500,60,yes,1024
68.85245902,68.85245902,458.5737705,458.5737705,black,legacy,legacy,legacy,0,incongruent,uniform,1,undefined,1,h,0,0,0,60,60,0,60,0,60,0,0,0,60,60,60,60,Thu Sep 22 13:00:18 2022,1500,The main experiment item,yes,Flanker_Task_by_Katherine_Hays.osexp,/Users/katherinehays/Desktop/PSYC 5316 - R and OpenSesame,no,mono,no,18,no,white,no,no,768,legacy,60,60,/Users/katherinehays/Desktop/PSYC 5316 - R and OpenSesame/subject-4.csv,legacy,Lentiform Loewenfeld,3.3.12,0,h,NA,NA,NA,s,h,473,NA,NA,NA,254185,473,2,legacy,1024,2,48000,-16,experiment,SSHSS,4,even,255820,NA,NA,360877,360373,1480,NA,NA,361916,NA,NA,1619,362020,362494,361912,362020,Flanker Task (by Katherine Hays),42,27973,61,yes,1024
67.74193548,67.74193548,456.8064516,456.8064516,black,legacy,legacy,legacy,0,incongruent,uniform,0,undefined,0,s,0,0,0,61,61,0,61,0,61,0,0,0,61,61,61,61,Thu Sep 22 13:00:18 2022,1500,The main experiment item,yes,Flanker_Task_by_Katherine_Hays.osexp,/Users/katherinehays/Desktop/PSYC 5316 - R and OpenSesame,no,mono,no,18,no,white,no,no,768,legacy,61,61,/Users/katherinehays/Desktop/PSYC 5316 - R and OpenSesame/subject-4.csv,legacy,Lentiform Loewenfeld,3.3.12,0,h,NA,NA,NA,s,h,349,NA,NA,NA,254185,349,2,legacy,1024,2,48000,-16,experiment,HHSHH,4,even,255820,NA,NA,362498,360373,1480,NA,NA,363544,NA,NA,1619,363648,363998,363540,363648,Flanker Task (by Katherine Hays),42,28322,62,yes,1024
66.66666667,66.66666667,455.3968254,455.3968254,black,legacy,legacy,legacy,0,incongruent,uniform,0,undefined,0,h,0,0,0,62,62,0,62,0,62,0,0,0,62,62,62,62,Thu Sep 22 13:00:18 2022,1500,The main experiment item,yes,Flanker_Task_by_Katherine_Hays.osexp,/Users/katherinehays/Desktop/PSYC 5316 - R and OpenSesame,no,mono,no,18,no,white,no,no,768,legacy,62,62,/Users/katherinehays/Desktop/PSYC 5316 - R and OpenSesame/subject-4.csv,legacy,Lentiform Loewenfeld,3.3.12,0,s,NA,NA,NA,s,s,368,NA,NA,NA,254185,368,2,legacy,1024,2,48000,-16,experiment,SSHSS,4,even,255820,NA,NA,364506,364002,1480,NA,NA,365550,NA,NA,1619,365654,366022,365545,365653,Flanker Task (by Katherine Hays),42,28690,63,yes,1024
65.625,65.625,452.140625,452.140625,black,legacy,legacy,legacy,0,incongruent,uniform,0,undefined,0,h,0,0,0,63,63,0,63,0,63,0,0,0,63,63,63,63,Thu Sep 22 13:00:18 2022,1500,The main experiment item,yes,Flanker_Task_by_Katherine_Hays.osexp,/Users/katherinehays/Desktop/PSYC 5316 - R and OpenSesame,no,mono,no,18,no,white,no,no,768,legacy,63,63,/Users/katherinehays/Desktop/PSYC 5316 - R and OpenSesame/subject-4.csv,legacy,Lentiform Loewenfeld,3.3.12,0,s,NA,NA,NA,s,s,247,NA,NA,NA,254185,247,2,legacy,1024,2,48000,-16,experiment,SSHSS,4,even,255820,NA,NA,366531,366026,1480,NA,NA,367573,NA,NA,1619,367677,367925,367569,367677,Flanker Task (by Katherine Hays),42,28937,64,yes,1024
66.15384615,66.15384615,449.8,449.8,black,legacy,legacy,legacy,0,incongruent,uniform,1,undefined,1,s,0,0,0,64,64,0,64,0,64,0,0,0,64,64,64,64,Thu Sep 22 13:00:18 2022,1500,The main experiment item,yes,Flanker_Task_by_Katherine_Hays.osexp,/Users/katherinehays/Desktop/PSYC 5316 - R and OpenSesame,no,mono,no,18,no,white,no,no,768,legacy,64,64,/Users/katherinehays/Desktop/PSYC 5316 - R and OpenSesame/subject-4.csv,legacy,Lentiform Loewenfeld,3.3.12,0,s,NA,NA,NA,s,s,300,NA,NA,NA,254185,300,2,legacy,1024,2,48000,-16,experiment,HHSHH,4,even,255820,NA,NA,368434,367929,1480,NA,NA,369474,NA,NA,1619,369578,369879,369469,369578,Flanker Task (by Katherine Hays),43,29237,65,yes,1024
65.15151515,65.15151515,447.5606061,447.5606061,black,legacy,legacy,legacy,0,incongruent,uniform,0,undefined,0,s,0,0,0,65,65,0,65,0,65,0,0,0,65,65,65,65,Thu Sep 22 13:00:18 2022,1500,The main experiment item,yes,Flanker_Task_by_Katherine_Hays.osexp,/Users/katherinehays/Desktop/PSYC 5316 - R and OpenSesame,no,mono,no,18,no,white,no,no,768,legacy,65,65,/Users/katherinehays/Desktop/PSYC 5316 - R and OpenSesame/subject-4.csv,legacy,Lentiform Loewenfeld,3.3.12,0,h,NA,NA,NA,s,h,302,NA,NA,NA,254185,302,2,legacy,1024,2,48000,-16,experiment,HHSHH,4,even,255820,NA,NA,369883,367929,1480,NA,NA,370918,NA,NA,1619,371022,371325,370914,371022,Flanker Task (by Katherine Hays),43,29539,66,yes,1024
64.17910448,64.17910448,443.3134328,443.3134328,black,legacy,legacy,legacy,0,incongruent,uniform,0,undefined,0,s,0,0,0,66,66,0,66,0,66,0,0,0,66,66,66,66,Thu Sep 22 13:00:18 2022,1500,The main experiment item,yes,Flanker_Task_by_Katherine_Hays.osexp,/Users/katherinehays/Desktop/PSYC 5316 - R and OpenSesame,no,mono,no,18,no,white,no,no,768,legacy,66,66,/Users/katherinehays/Desktop/PSYC 5316 - R and OpenSesame/subject-4.csv,legacy,Lentiform Loewenfeld,3.3.12,0,h,NA,NA,NA,s,h,163,NA,NA,NA,254185,163,2,legacy,1024,2,48000,-16,experiment,HHSHH,4,even,255820,NA,NA,371834,371329,1480,NA,NA,372874,NA,NA,1619,372979,373143,372870,372979,Flanker Task (by Katherine Hays),43,29702,67,yes,1024
63.23529412,63.23529412,437.1323529,437.1323529,black,legacy,legacy,legacy,0,incongruent,uniform,0,undefined,0,h,0,0,0,67,67,0,67,0,67,0,0,0,67,67,67,67,Thu Sep 22 13:00:18 2022,1500,The main experiment item,yes,Flanker_Task_by_Katherine_Hays.osexp,/Users/katherinehays/Desktop/PSYC 5316 - R and OpenSesame,no,mono,no,18,no,white,no,no,768,legacy,67,67,/Users/katherinehays/Desktop/PSYC 5316 - R and OpenSesame/subject-4.csv,legacy,Lentiform Loewenfeld,3.3.12,0,s,NA,NA,NA,s,s,23,NA,NA,NA,254185,23,2,legacy,1024,2,48000,-16,experiment,SSHSS,4,even,255820,NA,NA,373651,373147,1480,NA,NA,374687,NA,NA,1619,374793,374816,374684,374793,Flanker Task (by Katherine Hays),43,29725,68,yes,1024
63.76811594,63.76811594,437.2608696,437.2608696,black,legacy,legacy,legacy,0,congruent,uniform,1,undefined,1,h,0,0,0,68,68,0,68,0,68,0,0,0,68,68,68,68,Thu Sep 22 13:00:18 2022,1500,The main experiment item,yes,Flanker_Task_by_Katherine_Hays.osexp,/Users/katherinehays/Desktop/PSYC 5316 - R and OpenSesame,no,mono,no,18,no,white,no,no,768,legacy,68,68,/Users/katherinehays/Desktop/PSYC 5316 - R and OpenSesame/subject-4.csv,legacy,Lentiform Loewenfeld,3.3.12,0,h,NA,NA,NA,s,h,446,NA,NA,NA,254185,446,2,legacy,1024,2,48000,-16,experiment,HHHHH,4,even,255820,NA,NA,375325,374821,1480,NA,NA,376367,NA,NA,1619,376471,376918,376363,376471,Flanker Task (by Katherine Hays),44,30171,69,yes,1024
62.85714286,62.85714286,437.2714286,437.2714286,black,legacy,legacy,legacy,0,incongruent,uniform,0,undefined,0,h,0,0,0,69,69,0,69,0,69,0,0,0,69,69,69,69,Thu Sep 22 13:00:18 2022,1500,The main experiment item,yes,Flanker_Task_by_Katherine_Hays.osexp,/Users/katherinehays/Desktop/PSYC 5316 - R and OpenSesame,no,mono,no,18,no,white,no,no,768,legacy,69,69,/Users/katherinehays/Desktop/PSYC 5316 - R and OpenSesame/subject-4.csv,legacy,Lentiform Loewenfeld,3.3.12,0,s,NA,NA,NA,s,s,438,NA,NA,NA,254185,438,2,legacy,1024,2,48000,-16,experiment,SSHSS,4,even,255820,NA,NA,376922,374821,1480,NA,NA,377958,NA,NA,1619,378063,378502,377954,378063,Flanker Task (by Katherine Hays),44,30609,70,yes,1024
63.38028169,63.38028169,436.0704225,436.0704225,black,legacy,legacy,legacy,0,incongruent,uniform,1,undefined,1,h,0,0,0,70,70,0,70,0,70,0,0,0,70,70,70,70,Thu Sep 22 13:00:18 2022,1500,The main experiment item,yes,Flanker_Task_by_Katherine_Hays.osexp,/Users/katherinehays/Desktop/PSYC 5316 - R and OpenSesame,no,mono,no,18,no,white,no,no,768,legacy,70,70,/Users/katherinehays/Desktop/PSYC 5316 - R and OpenSesame/subject-4.csv,legacy,Lentiform Loewenfeld,3.3.12,0,h,NA,NA,NA,s,h,352,NA,NA,NA,254185,352,2,legacy,1024,2,48000,-16,experiment,SSHSS,4,even,255820,NA,NA,379011,378506,1480,NA,NA,380048,NA,NA,1619,380151,380504,380045,380151,Flanker Task (by Katherine Hays),45,30961,71,yes,1024
62.5,62.5,435.375,435.375,black,legacy,legacy,legacy,0,congruent,uniform,0,undefined,0,s,0,0,0,71,71,0,71,0,71,0,0,0,71,71,71,71,Thu Sep 22 13:00:18 2022,1500,The main experiment item,yes,Flanker_Task_by_Katherine_Hays.osexp,/Users/katherinehays/Desktop/PSYC 5316 - R and OpenSesame,no,mono,no,18,no,white,no,no,768,legacy,71,71,/Users/katherinehays/Desktop/PSYC 5316 - R and OpenSesame/subject-4.csv,legacy,Lentiform Loewenfeld,3.3.12,0,h,NA,NA,NA,s,h,386,NA,NA,NA,254185,386,2,legacy,1024,2,48000,-16,experiment,SSSSS,4,even,255820,NA,NA,380509,378506,1480,NA,NA,381549,NA,NA,1619,381653,382040,381544,381653,Flanker Task (by Katherine Hays),45,31347,72,yes,1024
63.01369863,63.01369863,436.2465753,436.2465753,black,legacy,legacy,legacy,0,congruent,uniform,1,undefined,1,s,0,0,0,72,72,0,72,0,72,0,0,0,72,72,72,72,Thu Sep 22 13:00:18 2022,1500,The main experiment item,yes,Flanker_Task_by_Katherine_Hays.osexp,/Users/katherinehays/Desktop/PSYC 5316 - R and OpenSesame,no,mono,no,18,no,white,no,no,768,legacy,72,72,/Users/katherinehays/Desktop/PSYC 5316 - R and OpenSesame/subject-4.csv,legacy,Lentiform Loewenfeld,3.3.12,0,s,NA,NA,NA,s,s,499,NA,NA,NA,254185,499,2,legacy,1024,2,48000,-16,experiment,SSSSS,4,even,255820,NA,NA,382549,382044,1480,NA,NA,383589,NA,NA,1619,383693,384193,383584,383693,Flanker Task (by Katherine Hays),46,31846,73,yes,1024
62.16216216,62.16216216,439.8783784,439.8783784,black,legacy,legacy,legacy,0,incongruent,uniform,0,undefined,0,h,0,0,0,73,73,0,73,0,73,0,0,0,73,73,73,73,Thu Sep 22 13:00:18 2022,1500,The main experiment item,yes,Flanker_Task_by_Katherine_Hays.osexp,/Users/katherinehays/Desktop/PSYC 5316 - R and OpenSesame,no,mono,no,18,no,white,no,no,768,legacy,73,73,/Users/katherinehays/Desktop/PSYC 5316 - R and OpenSesame/subject-4.csv,legacy,Lentiform Loewenfeld,3.3.12,0,s,NA,NA,NA,s,s,705,NA,NA,NA,254185,705,2,legacy,1024,2,48000,-16,experiment,SSHSS,4,even,255820,NA,NA,384197,382044,1480,NA,NA,385236,NA,NA,1619,385340,386046,385232,385340,Flanker Task (by Katherine Hays),46,32551,74,yes,1024
61.33333333,61.33333333,438.3466667,438.3466667,black,legacy,legacy,legacy,0,congruent,uniform,0,undefined,0,s,0,0,0,74,74,0,74,0,74,0,0,0,74,74,74,74,Thu Sep 22 13:00:18 2022,1500,The main experiment item,yes,Flanker_Task_by_Katherine_Hays.osexp,/Users/katherinehays/Desktop/PSYC 5316 - R and OpenSesame,no,mono,no,18,no,white,no,no,768,legacy,74,74,/Users/katherinehays/Desktop/PSYC 5316 - R and OpenSesame/subject-4.csv,legacy,Lentiform Loewenfeld,3.3.12,0,h,NA,NA,NA,s,h,325,NA,NA,NA,254185,325,2,legacy,1024,2,48000,-16,experiment,SSSSS,4,even,255820,NA,NA,386554,386050,1480,NA,NA,387596,NA,NA,1619,387700,388026,387592,387700,Flanker Task (by Katherine Hays),46,32876,75,yes,1024
60.52631579,60.52631579,439.5,439.5,black,legacy,legacy,legacy,0,incongruent,uniform,0,undefined,0,h,0,0,0,75,75,0,75,0,75,0,0,0,75,75,75,75,Thu Sep 22 13:00:18 2022,1500,The main experiment item,yes,Flanker_Task_by_Katherine_Hays.osexp,/Users/katherinehays/Desktop/PSYC 5316 - R and OpenSesame,no,mono,no,18,no,white,no,no,768,legacy,75,75,/Users/katherinehays/Desktop/PSYC 5316 - R and OpenSesame/subject-4.csv,legacy,Lentiform Loewenfeld,3.3.12,0,s,NA,NA,NA,s,s,526,NA,NA,NA,254185,526,2,legacy,1024,2,48000,-16,experiment,SSHSS,4,even,255820,NA,NA,388534,388030,1480,NA,NA,389572,NA,NA,1619,389676,390202,389567,389676,Flanker Task (by Katherine Hays),46,33402,76,yes,1024
59.74025974,59.74025974,439.012987,439.012987,black,legacy,legacy,legacy,0,congruent,uniform,0,undefined,0,h,0,0,0,76,76,0,76,0,76,0,0,0,76,76,76,76,Thu Sep 22 13:00:18 2022,1500,The main experiment item,yes,Flanker_Task_by_Katherine_Hays.osexp,/Users/katherinehays/Desktop/PSYC 5316 - R and OpenSesame,no,mono,no,18,no,white,no,no,768,legacy,76,76,/Users/katherinehays/Desktop/PSYC 5316 - R and OpenSesame/subject-4.csv,legacy,Lentiform Loewenfeld,3.3.12,0,s,NA,NA,NA,s,s,402,NA,NA,NA,254185,402,2,legacy,1024,2,48000,-16,experiment,HHHHH,4,even,255820,NA,NA,390711,390206,1480,NA,NA,391750,NA,NA,1619,391855,392257,391746,391854,Flanker Task (by Katherine Hays),46,33804,77,yes,1024
60.25641026,60.25641026,439.8461538,439.8461538,black,legacy,legacy,legacy,0,congruent,uniform,1,undefined,1,h,0,0,0,77,77,0,77,0,77,0,0,0,77,77,77,77,Thu Sep 22 13:00:18 2022,1500,The main experiment item,yes,Flanker_Task_by_Katherine_Hays.osexp,/Users/katherinehays/Desktop/PSYC 5316 - R and OpenSesame,no,mono,no,18,no,white,no,no,768,legacy,77,77,/Users/katherinehays/Desktop/PSYC 5316 - R and OpenSesame/subject-4.csv,legacy,Lentiform Loewenfeld,3.3.12,0,h,NA,NA,NA,s,h,504,NA,NA,NA,254185,504,2,legacy,1024,2,48000,-16,experiment,HHHHH,4,even,255820,NA,NA,392766,392261,1480,NA,NA,393804,NA,NA,1619,393910,394415,393801,393910,Flanker Task (by Katherine Hays),47,34308,78,yes,1024
60.75949367,60.75949367,438.4303797,438.4303797,black,legacy,legacy,legacy,0,congruent,uniform,1,undefined,1,h,0,0,0,78,78,0,78,0,78,0,0,0,78,78,78,78,Thu Sep 22 13:00:18 2022,1500,The main experiment item,yes,Flanker_Task_by_Katherine_Hays.osexp,/Users/katherinehays/Desktop/PSYC 5316 - R and OpenSesame,no,mono,no,18,no,white,no,no,768,legacy,78,78,/Users/katherinehays/Desktop/PSYC 5316 - R and OpenSesame/subject-4.csv,legacy,Lentiform Loewenfeld,3.3.12,0,h,NA,NA,NA,s,h,328,NA,NA,NA,254185,328,2,legacy,1024,2,48000,-16,experiment,HHHHH,4,even,255820,NA,NA,394425,392261,1480,NA,NA,395475,NA,NA,1619,395578,395906,395470,395578,Flanker Task (by Katherine Hays),48,34636,79,yes,1024
61.25,61.25,436.975,436.975,black,legacy,legacy,legacy,0,incongruent,uniform,1,undefined,1,h,0,0,0,79,79,0,79,0,79,0,0,0,79,79,79,79,Thu Sep 22 13:00:18 2022,1500,The main experiment item,yes,Flanker_Task_by_Katherine_Hays.osexp,/Users/katherinehays/Desktop/PSYC 5316 - R and OpenSesame,no,mono,no,18,no,white,no,no,768,legacy,79,79,/Users/katherinehays/Desktop/PSYC 5316 - R and OpenSesame/subject-4.csv,legacy,Lentiform Loewenfeld,3.3.12,0,h,NA,NA,NA,s,h,322,NA,NA,NA,254185,322,2,legacy,1024,2,48000,-16,experiment,SSHSS,4,even,255820,NA,NA,395910,392261,1480,NA,NA,396952,NA,NA,1619,397055,397378,396946,397055,Flanker Task (by Katherine Hays),49,34958,80,yes,1024
60.49382716,60.49382716,438.0617284,438.0617284,black,legacy,legacy,legacy,0,congruent,uniform,0,undefined,0,h,0,0,0,80,80,0,80,0,80,0,0,0,80,80,80,80,Thu Sep 22 13:00:18 2022,600,The main experiment item,yes,Flanker_Task_by_Katherine_Hays.osexp,/Users/katherinehays/Desktop/PSYC 5316 - R and OpenSesame,no,mono,no,18,no,white,no,no,768,legacy,0,79,/Users/katherinehays/Desktop/PSYC 5316 - R and OpenSesame/subject-4.csv,legacy,Lentiform Loewenfeld,3.3.12,0,s,NA,h,NA,s,s,525,NA,7261,NA,254185,525,2,legacy,1024,2,48000,-16,experiment,HHHHH,4,even,255820,405666,NA,397382,392261,1480,NA,NA,405686,398404,NA,1619,405790,406316,405682,405790,Flanker Task (by Katherine Hays),49,35483,81,yes,1024
60.97560976,60.97560976,438.2317073,438.2317073,black,legacy,legacy,legacy,0,incongruent,uniform,1,undefined,1,h,0,0,0,81,81,0,81,0,81,0,0,0,81,81,81,81,Thu Sep 22 13:00:18 2022,600,The main experiment item,yes,Flanker_Task_by_Katherine_Hays.osexp,/Users/katherinehays/Desktop/PSYC 5316 - R and OpenSesame,no,mono,no,18,no,white,no,no,768,legacy,1,79,/Users/katherinehays/Desktop/PSYC 5316 - R and OpenSesame/subject-4.csv,legacy,Lentiform Loewenfeld,3.3.12,0,h,NA,h,NA,s,h,452,NA,7261,NA,254185,452,2,legacy,1024,2,48000,-16,experiment,SSHSS,4,even,255820,405666,NA,406824,406319,1480,NA,NA,407865,398404,NA,1619,407969,408422,407860,407969,Flanker Task (by Katherine Hays),50,35935,82,yes,1024
60.24096386,60.24096386,437.2289157,437.2289157,black,legacy,legacy,legacy,0,congruent,uniform,0,undefined,0,s,0,0,0,82,82,0,82,0,82,0,0,0,82,82,82,82,Thu Sep 22 13:00:18 2022,600,The main experiment item,yes,Flanker_Task_by_Katherine_Hays.osexp,/Users/katherinehays/Desktop/PSYC 5316 - R and OpenSesame,no,mono,no,18,no,white,no,no,768,legacy,2,79,/Users/katherinehays/Desktop/PSYC 5316 - R and OpenSesame/subject-4.csv,legacy,Lentiform Loewenfeld,3.3.12,0,h,NA,h,NA,s,h,355,NA,7261,NA,254185,355,2,legacy,1024,2,48000,-16,experiment,SSSSS,4,even,255820,405666,NA,408426,406319,1480,NA,NA,409465,398404,NA,1619,409569,409925,409459,409569,Flanker Task (by Katherine Hays),50,36290,83,yes,1024
59.52380952,59.52380952,435.5357143,435.5357143,black,legacy,legacy,legacy,0,congruent,uniform,0,undefined,0,s,0,0,0,83,83,0,83,0,83,0,0,0,83,83,83,83,Thu Sep 22 13:00:18 2022,600,The main experiment item,yes,Flanker_Task_by_Katherine_Hays.osexp,/Users/katherinehays/Desktop/PSYC 5316 - R and OpenSesame,no,mono,no,18,no,white,no,no,768,legacy,3,79,/Users/katherinehays/Desktop/PSYC 5316 - R and OpenSesame/subject-4.csv,legacy,Lentiform Loewenfeld,3.3.12,0,h,NA,h,NA,s,h,295,NA,7261,NA,254185,295,2,legacy,1024,2,48000,-16,experiment,SSSSS,4,even,255820,405666,NA,410433,409929,1480,NA,NA,411471,398404,NA,1619,411576,411872,411467,411576,Flanker Task (by Katherine Hays),50,36585,84,yes,1024
60,60,437.3529412,437.3529412,black,legacy,legacy,legacy,0,congruent,uniform,1,undefined,1,h,0,0,0,84,84,0,84,0,84,0,0,0,84,84,84,84,Thu Sep 22 13:00:18 2022,600,The main experiment item,yes,Flanker_Task_by_Katherine_Hays.osexp,/Users/katherinehays/Desktop/PSYC 5316 - R and OpenSesame,no,mono,no,18,no,white,no,no,768,legacy,4,79,/Users/katherinehays/Desktop/PSYC 5316 - R and OpenSesame/subject-4.csv,legacy,Lentiform Loewenfeld,3.3.12,0,h,NA,h,NA,s,h,590,NA,7261,NA,254185,590,2,legacy,1024,2,48000,-16,experiment,HHHHH,4,even,255820,405666,NA,412381,411876,1480,NA,NA,413423,398404,NA,1619,413527,414118,413419,413527,Flanker Task (by Katherine Hays),51,37175,85,yes,1024
59.30232558,59.30232558,434.3372093,434.3372093,black,legacy,legacy,legacy,0,incongruent,uniform,0,undefined,0,s,0,0,0,85,85,0,85,0,85,0,0,0,85,85,85,85,Thu Sep 22 13:00:18 2022,600,The main experiment item,yes,Flanker_Task_by_Katherine_Hays.osexp,/Users/katherinehays/Desktop/PSYC 5316 - R and OpenSesame,no,mono,no,18,no,white,no,no,768,legacy,5,79,/Users/katherinehays/Desktop/PSYC 5316 - R and OpenSesame/subject-4.csv,legacy,Lentiform Loewenfeld,3.3.12,0,h,NA,h,NA,s,h,178,NA,7261,NA,254185,178,2,legacy,1024,2,48000,-16,experiment,HHSHH,4,even,255820,405666,NA,414121,411876,1480,NA,NA,415164,398404,NA,1619,415268,415447,415158,415268,Flanker Task (by Katherine Hays),51,37353,86,yes,1024
58.62068966,58.62068966,429.5977011,429.5977011,black,legacy,legacy,legacy,0,congruent,uniform,0,undefined,0,h,0,0,0,86,86,0,86,0,86,0,0,0,86,86,86,86,Thu Sep 22 13:00:18 2022,600,The main experiment item,yes,Flanker_Task_by_Katherine_Hays.osexp,/Users/katherinehays/Desktop/PSYC 5316 - R and OpenSesame,no,mono,no,18,no,white,no,no,768,legacy,6,79,/Users/katherinehays/Desktop/PSYC 5316 - R and OpenSesame/subject-4.csv,legacy,Lentiform Loewenfeld,3.3.12,0,s,NA,h,NA,s,s,22,NA,7261,NA,254185,22,2,legacy,1024,2,48000,-16,experiment,HHHHH,4,even,255820,405666,NA,415955,415451,1480,NA,NA,416991,398404,NA,1619,417097,417119,416986,417097,Flanker Task (by Katherine Hays),51,37375,87,yes,1024
57.95454545,57.95454545,428.0340909,428.0340909,black,legacy,legacy,legacy,0,incongruent,uniform,0,undefined,0,h,0,0,0,87,87,0,87,0,87,0,0,0,87,87,87,87,Thu Sep 22 13:00:18 2022,600,The main experiment item,yes,Flanker_Task_by_Katherine_Hays.osexp,/Users/katherinehays/Desktop/PSYC 5316 - R and OpenSesame,no,mono,no,18,no,white,no,no,768,legacy,7,79,/Users/katherinehays/Desktop/PSYC 5316 - R and OpenSesame/subject-4.csv,legacy,Lentiform Loewenfeld,3.3.12,0,s,NA,h,NA,s,s,292,NA,7261,NA,254185,292,2,legacy,1024,2,48000,-16,experiment,SSHSS,4,even,255820,405666,NA,417630,417124,1480,NA,NA,418676,398404,NA,1619,418779,419072,418671,418779,Flanker Task (by Katherine Hays),51,37667,88,yes,1024
58.42696629,58.42696629,425.3483146,425.3483146,black,legacy,legacy,legacy,0,congruent,uniform,1,undefined,1,h,0,0,0,88,88,0,88,0,88,0,0,0,88,88,88,88,Thu Sep 22 13:00:18 2022,600,The main experiment item,yes,Flanker_Task_by_Katherine_Hays.osexp,/Users/katherinehays/Desktop/PSYC 5316 - R and OpenSesame,no,mono,no,18,no,white,no,no,768,legacy,8,79,/Users/katherinehays/Desktop/PSYC 5316 - R and OpenSesame/subject-4.csv,legacy,Lentiform Loewenfeld,3.3.12,0,h,NA,h,NA,s,h,189,NA,7261,NA,254185,189,2,legacy,1024,2,48000,-16,experiment,HHHHH,4,even,255820,405666,NA,419582,419076,1480,NA,NA,420622,398404,NA,1619,420726,420915,420617,420725,Flanker Task (by Katherine Hays),52,37856,89,yes,1024
57.77777778,57.77777778,423.3444444,423.3444444,black,legacy,legacy,legacy,0,incongruent,uniform,0,undefined,0,h,0,0,0,89,89,0,89,0,89,0,0,0,89,89,89,89,Thu Sep 22 13:00:18 2022,600,The main experiment item,yes,Flanker_Task_by_Katherine_Hays.osexp,/Users/katherinehays/Desktop/PSYC 5316 - R and OpenSesame,no,mono,no,18,no,white,no,no,768,legacy,9,79,/Users/katherinehays/Desktop/PSYC 5316 - R and OpenSesame/subject-4.csv,legacy,Lentiform Loewenfeld,3.3.12,0,s,NA,h,NA,s,s,245,NA,7261,NA,254185,245,2,legacy,1024,2,48000,-16,experiment,SSHSS,4,even,255820,405666,NA,420919,419076,1480,NA,NA,421960,398404,NA,1619,422066,422311,421955,422066,Flanker Task (by Katherine Hays),52,38101,90,yes,1024
57.14285714,57.14285714,420.3076923,420.3076923,black,legacy,legacy,legacy,0,congruent,uniform,0,undefined,0,h,0,0,0,90,90,0,90,0,90,0,0,0,90,90,90,90,Thu Sep 22 13:00:18 2022,600,The main experiment item,yes,Flanker_Task_by_Katherine_Hays.osexp,/Users/katherinehays/Desktop/PSYC 5316 - R and OpenSesame,no,mono,no,18,no,white,no,no,768,legacy,10,79,/Users/katherinehays/Desktop/PSYC 5316 - R and OpenSesame/subject-4.csv,legacy,Lentiform Loewenfeld,3.3.12,0,s,NA,h,NA,s,s,147,NA,7261,NA,254185,147,2,legacy,1024,2,48000,-16,experiment,HHHHH,4,even,255820,405666,NA,422821,422315,1480,NA,NA,423866,398404,NA,1619,423970,424117,423861,423970,Flanker Task (by Katherine Hays),52,38248,91,yes,1024
56.52173913,56.52173913,417.4782609,417.4782609,black,legacy,legacy,legacy,0,incongruent,uniform,0,undefined,0,h,0,0,0,91,91,0,91,0,91,0,0,0,91,91,91,91,Thu Sep 22 13:00:18 2022,600,The main experiment item,yes,Flanker_Task_by_Katherine_Hays.osexp,/Users/katherinehays/Desktop/PSYC 5316 - R and OpenSesame,no,mono,no,18,no,white,no,no,768,legacy,11,79,/Users/katherinehays/Desktop/PSYC 5316 - R and OpenSesame/subject-4.csv,legacy,Lentiform Loewenfeld,3.3.12,0,s,NA,h,NA,s,s,160,NA,7261,NA,254185,160,2,legacy,1024,2,48000,-16,experiment,SSHSS,4,even,255820,405666,NA,424627,424121,1480,NA,NA,425668,398404,NA,1619,425772,425933,425664,425772,Flanker Task (by Katherine Hays),52,38408,92,yes,1024
56.98924731,56.98924731,414.7419355,414.7419355,black,legacy,legacy,legacy,0,congruent,uniform,1,undefined,1,h,0,0,0,92,92,0,92,0,92,0,0,0,92,92,92,92,Thu Sep 22 13:00:18 2022,600,The main experiment item,yes,Flanker_Task_by_Katherine_Hays.osexp,/Users/katherinehays/Desktop/PSYC 5316 - R and OpenSesame,no,mono,no,18,no,white,no,no,768,legacy,12,79,/Users/katherinehays/Desktop/PSYC 5316 - R and OpenSesame/subject-4.csv,legacy,Lentiform Loewenfeld,3.3.12,0,h,NA,h,NA,s,h,163,NA,7261,NA,254185,163,2,legacy,1024,2,48000,-16,experiment,HHHHH,4,even,255820,405666,NA,426443,425938,1480,NA,NA,427488,398404,NA,1619,427593,427757,427482,427593,Flanker Task (by Katherine Hays),53,38571,93,yes,1024
57.44680851,57.44680851,415.1489362,415.1489362,black,legacy,legacy,legacy,0,congruent,uniform,1,undefined,1,h,0,0,0,93,93,0,93,0,93,0,0,0,93,93,93,93,Thu Sep 22 13:00:18 2022,600,The main experiment item,yes,Flanker_Task_by_Katherine_Hays.osexp,/Users/katherinehays/Desktop/PSYC 5316 - R and OpenSesame,no,mono,no,18,no,white,no,no,768,legacy,13,79,/Users/katherinehays/Desktop/PSYC 5316 - R and OpenSesame/subject-4.csv,legacy,Lentiform Loewenfeld,3.3.12,0,h,NA,h,NA,s,h,453,NA,7261,NA,254185,453,2,legacy,1024,2,48000,-16,experiment,HHHHH,4,even,255820,405666,NA,427761,425938,1480,NA,NA,428797,398404,NA,1619,428903,429357,428793,428903,Flanker Task (by Katherine Hays),54,39024,94,yes,1024
56.84210526,56.84210526,414.2631579,414.2631579,black,legacy,legacy,legacy,0,incongruent,uniform,0,undefined,0,s,0,0,0,94,94,0,94,0,94,0,0,0,94,94,94,94,Thu Sep 22 13:00:18 2022,600,The main experiment item,yes,Flanker_Task_by_Katherine_Hays.osexp,/Users/katherinehays/Desktop/PSYC 5316 - R and OpenSesame,no,mono,no,18,no,white,no,no,768,legacy,14,79,/Users/katherinehays/Desktop/PSYC 5316 - R and OpenSesame/subject-4.csv,legacy,Lentiform Loewenfeld,3.3.12,0,h,NA,h,NA,s,h,331,NA,7261,NA,254185,331,2,legacy,1024,2,48000,-16,experiment,HHSHH,4,even,255820,405666,NA,429361,425938,1480,NA,NA,430402,398404,NA,1619,430507,430839,430398,430507,Flanker Task (by Katherine Hays),54,39355,95,yes,1024
57.29166667,57.29166667,414.9375,414.9375,black,legacy,legacy,legacy,0,incongruent,uniform,1,undefined,1,h,0,0,0,95,95,0,95,0,95,0,0,0,95,95,95,95,Thu Sep 22 13:00:18 2022,600,The main experiment item,yes,Flanker_Task_by_Katherine_Hays.osexp,/Users/katherinehays/Desktop/PSYC 5316 - R and OpenSesame,no,mono,no,18,no,white,no,no,768,legacy,15,79,/Users/katherinehays/Desktop/PSYC 5316 - R and OpenSesame/subject-4.csv,legacy,Lentiform Loewenfeld,3.3.12,0,h,NA,h,NA,s,h,479,NA,7261,NA,254185,479,2,legacy,1024,2,48000,-16,experiment,SSHSS,4,even,255820,405666,NA,431347,430843,1480,NA,NA,432386,398404,NA,1619,432490,432970,432381,432490,Flanker Task (by Katherine Hays),55,39834,96,yes,1024
57.73195876,57.73195876,414.9381443,414.9381443,black,legacy,legacy,legacy,0,incongruent,uniform,1,undefined,1,h,0,0,0,96,96,0,96,0,96,0,0,0,96,96,96,96,Thu Sep 22 13:00:18 2022,600,The main experiment item,yes,Flanker_Task_by_Katherine_Hays.osexp,/Users/katherinehays/Desktop/PSYC 5316 - R and OpenSesame,no,mono,no,18,no,white,no,no,768,legacy,16,79,/Users/katherinehays/Desktop/PSYC 5316 - R and OpenSesame/subject-4.csv,legacy,Lentiform Loewenfeld,3.3.12,0,h,NA,h,NA,s,h,415,NA,7261,NA,254185,415,2,legacy,1024,2,48000,-16,experiment,SSHSS,4,even,255820,405666,NA,432974,430843,1480,NA,NA,434017,398404,NA,1619,434120,434535,434013,434120,Flanker Task (by Katherine Hays),56,40249,97,yes,1024
57.14285714,57.14285714,413.0102041,413.0102041,black,legacy,legacy,legacy,0,incongruent,uniform,0,undefined,0,s,0,0,0,97,97,0,97,0,97,0,0,0,97,97,97,97,Thu Sep 22 13:00:18 2022,600,The main experiment item,yes,Flanker_Task_by_Katherine_Hays.osexp,/Users/katherinehays/Desktop/PSYC 5316 - R and OpenSesame,no,mono,no,18,no,white,no,no,768,legacy,17,79,/Users/katherinehays/Desktop/PSYC 5316 - R and OpenSesame/subject-4.csv,legacy,Lentiform Loewenfeld,3.3.12,0,h,NA,h,NA,s,h,226,NA,7261,NA,254185,226,2,legacy,1024,2,48000,-16,experiment,HHSHH,4,even,255820,405666,NA,434540,430843,1480,NA,NA,435580,398404,NA,1619,435684,435911,435576,435684,Flanker Task (by Katherine Hays),56,40475,98,yes,1024
56.56565657,56.56565657,413.1414141,413.1414141,black,legacy,legacy,legacy,0,incongruent,uniform,0,undefined,0,s,0,0,0,98,98,0,98,0,98,0,0,0,98,98,98,98,Thu Sep 22 13:00:18 2022,600,The main experiment item,yes,Flanker_Task_by_Katherine_Hays.osexp,/Users/katherinehays/Desktop/PSYC 5316 - R and OpenSesame,no,mono,no,18,no,white,no,no,768,legacy,18,79,/Users/katherinehays/Desktop/PSYC 5316 - R and OpenSesame/subject-4.csv,legacy,Lentiform Loewenfeld,3.3.12,0,h,NA,h,NA,s,h,426,NA,7261,NA,254185,426,2,legacy,1024,2,48000,-16,experiment,HHSHH,4,even,255820,405666,NA,436419,435915,1480,NA,NA,437461,398404,NA,1619,437565,437991,437456,437565,Flanker Task (by Katherine Hays),56,40901,99,yes,1024
56,56,412.16,412.16,black,legacy,legacy,legacy,0,congruent,uniform,0,undefined,0,s,0,0,0,99,99,0,99,0,99,0,0,0,99,99,99,99,Thu Sep 22 13:00:18 2022,600,The main experiment item,yes,Flanker_Task_by_Katherine_Hays.osexp,/Users/katherinehays/Desktop/PSYC 5316 - R and OpenSesame,no,mono,no,18,no,white,no,no,768,legacy,19,79,/Users/katherinehays/Desktop/PSYC 5316 - R and OpenSesame/subject-4.csv,legacy,Lentiform Loewenfeld,3.3.12,0,h,NA,h,NA,s,h,315,NA,7261,NA,254185,315,2,legacy,1024,2,48000,-16,experiment,SSSSS,4,even,255820,405666,NA,438501,437995,1480,NA,NA,439543,398404,NA,1619,439647,439962,439539,439647,Flanker Task (by Katherine Hays),56,41216,100,yes,1024
56.43564356,56.43564356,412.2673267,412.2673267,black,legacy,legacy,legacy,0,congruent,uniform,1,undefined,1,h,0,0,0,100,100,0,100,0,100,0,0,0,100,100,100,100,Thu Sep 22 13:00:18 2022,600,The main experiment item,yes,Flanker_Task_by_Katherine_Hays.osexp,/Users/katherinehays/Desktop/PSYC 5316 - R and OpenSesame,no,mono,no,18,no,white,no,no,768,legacy,20,79,/Users/katherinehays/Desktop/PSYC 5316 - R and OpenSesame/subject-4.csv,legacy,Lentiform Loewenfeld,3.3.12,0,h,NA,h,NA,s,h,423,NA,7261,NA,254185,423,2,legacy,1024,2,48000,-16,experiment,HHHHH,4,even,255820,405666,NA,440472,439967,1480,NA,NA,441517,398404,NA,1619,441620,442045,441512,441620,Flanker Task (by Katherine Hays),57,41639,101,yes,1024
55.88235294,55.88235294,422.9313725,422.9313725,black,legacy,legacy,legacy,0,incongruent,uniform,0,undefined,0,s,0,0,0,101,101,0,101,0,101,0,0,0,101,101,101,101,Thu Sep 22 13:00:18 2022,600,The main experiment item,yes,Flanker_Task_by_Katherine_Hays.osexp,/Users/katherinehays/Desktop/PSYC 5316 - R and OpenSesame,no,mono,no,18,no,white,no,no,768,legacy,21,79,/Users/katherinehays/Desktop/PSYC 5316 - R and OpenSesame/subject-4.csv,legacy,Lentiform Loewenfeld,3.3.12,0,None,NA,h,NA,s,None,1500,NA,7261,NA,254185,1500,2,legacy,1024,2,48000,-16,experiment,HHSHH,4,even,255820,405666,NA,442049,439967,1480,NA,NA,443093,398404,NA,1619,443204,444704,443089,443204,Flanker Task (by Katherine Hays),57,43139,102,yes,1024
55.33980583,55.33980583,433.3883495,433.3883495,black,legacy,legacy,legacy,0,congruent,uniform,0,undefined,0,s,0,0,0,102,102,0,102,0,102,0,0,0,102,102,102,102,Thu Sep 22 13:00:18 2022,600,The main experiment item,yes,Flanker_Task_by_Katherine_Hays.osexp,/Users/katherinehays/Desktop/PSYC 5316 - R and OpenSesame,no,mono,no,18,no,white,no,no,768,legacy,22,79,/Users/katherinehays/Desktop/PSYC 5316 - R and OpenSesame/subject-4.csv,legacy,Lentiform Loewenfeld,3.3.12,0,None,NA,h,NA,s,None,1500,NA,7261,NA,254185,1500,2,legacy,1024,2,48000,-16,experiment,SSSSS,4,even,255820,405666,NA,445717,444709,1480,445213,NA,446757,398404,NA,1619,446861,448361,446753,446861,Flanker Task (by Katherine Hays),57,44639,103,yes,1024
54.80769231,54.80769231,443.6442308,443.6442308,black,legacy,legacy,legacy,0,incongruent,uniform,0,undefined,0,h,0,0,0,103,103,0,103,0,103,0,0,0,103,103,103,103,Thu Sep 22 13:00:18 2022,600,The main experiment item,yes,Flanker_Task_by_Katherine_Hays.osexp,/Users/katherinehays/Desktop/PSYC 5316 - R and OpenSesame,no,mono,no,18,no,white,no,no,768,legacy,23,79,/Users/katherinehays/Desktop/PSYC 5316 - R and OpenSesame/subject-4.csv,legacy,Lentiform Loewenfeld,3.3.12,0,None,NA,h,NA,s,None,1500,NA,7261,NA,254185,1500,2,legacy,1024,2,48000,-16,experiment,SSHSS,4,even,255820,405666,NA,449373,448365,1480,448869,NA,450415,398404,NA,1619,450520,452020,450411,450519,Flanker Task (by Katherine Hays),57,46139,104,yes,1024
55.23809524,55.23809524,448,448,black,legacy,legacy,legacy,0,congruent,uniform,1,undefined,1,s,0,0,0,104,104,0,104,0,104,0,0,0,104,104,104,104,Thu Sep 22 13:00:18 2022,600,The main experiment item,yes,Flanker_Task_by_Katherine_Hays.osexp,/Users/katherinehays/Desktop/PSYC 5316 - R and OpenSesame,no,mono,no,18,no,white,no,no,768,legacy,24,79,/Users/katherinehays/Desktop/PSYC 5316 - R and OpenSesame/subject-4.csv,legacy,Lentiform Loewenfeld,3.3.12,0,s,NA,h,NA,s,s,901,NA,7261,NA,254185,901,2,legacy,1024,2,48000,-16,experiment,SSSSS,4,even,255820,405666,NA,453035,452024,1480,452529,NA,454075,398404,NA,1619,454179,455081,454070,454179,Flanker Task (by Katherine Hays),58,47040,105,yes,1024
54.71698113,54.71698113,448.0943396,448.0943396,black,legacy,legacy,legacy,0,congruent,uniform,0,undefined,0,s,0,0,0,105,105,0,105,0,105,0,0,0,105,105,105,105,Thu Sep 22 13:00:18 2022,600,The main experiment item,yes,Flanker_Task_by_Katherine_Hays.osexp,/Users/katherinehays/Desktop/PSYC 5316 - R and OpenSesame,no,mono,no,18,no,white,no,no,768,legacy,25,79,/Users/katherinehays/Desktop/PSYC 5316 - R and OpenSesame/subject-4.csv,legacy,Lentiform Loewenfeld,3.3.12,0,h,NA,h,NA,s,h,458,NA,7261,NA,254185,458,2,legacy,1024,2,48000,-16,experiment,SSSSS,4,even,255820,405666,NA,455589,452024,1480,455085,NA,456631,398404,NA,1619,456734,457193,456626,456734,Flanker Task (by Katherine Hays),58,47498,106,yes,1024
55.14018692,55.14018692,446.8504673,446.8504673,black,legacy,legacy,legacy,0,incongruent,uniform,1,undefined,1,s,0,0,0,106,106,0,106,0,106,0,0,0,106,106,106,106,Thu Sep 22 13:00:18 2022,600,The main experiment item,yes,Flanker_Task_by_Katherine_Hays.osexp,/Users/katherinehays/Desktop/PSYC 5316 - R and OpenSesame,no,mono,no,18,no,white,no,no,768,legacy,26,79,/Users/katherinehays/Desktop/PSYC 5316 - R and OpenSesame/subject-4.csv,legacy,Lentiform Loewenfeld,3.3.12,0,s,NA,h,NA,s,s,315,NA,7261,NA,254185,315,2,legacy,1024,2,48000,-16,experiment,HHSHH,4,even,255820,405666,NA,457701,457197,1480,455085,NA,458740,398404,NA,1619,458844,459160,458736,458844,Flanker Task (by Katherine Hays),59,47813,107,yes,1024
55.55555556,55.55555556,446.4351852,446.4351852,black,legacy,legacy,legacy,0,congruent,uniform,1,undefined,1,s,0,0,0,107,107,0,107,0,107,0,0,0,107,107,107,107,Thu Sep 22 13:00:18 2022,600,The main experiment item,yes,Flanker_Task_by_Katherine_Hays.osexp,/Users/katherinehays/Desktop/PSYC 5316 - R and OpenSesame,no,mono,no,18,no,white,no,no,768,legacy,27,79,/Users/katherinehays/Desktop/PSYC 5316 - R and OpenSesame/subject-4.csv,legacy,Lentiform Loewenfeld,3.3.12,0,s,NA,h,NA,s,s,402,NA,7261,NA,254185,402,2,legacy,1024,2,48000,-16,experiment,SSSSS,4,even,255820,405666,NA,459164,457197,1480,455085,NA,460207,398404,NA,1619,460311,460714,460202,460311,Flanker Task (by Katherine Hays),60,48215,108,yes,1024
55.96330275,55.96330275,446.9541284,446.9541284,black,legacy,legacy,legacy,0,congruent,uniform,1,undefined,1,s,0,0,0,108,108,0,108,0,108,0,0,0,108,108,108,108,Thu Sep 22 13:00:18 2022,600,The main experiment item,yes,Flanker_Task_by_Katherine_Hays.osexp,/Users/katherinehays/Desktop/PSYC 5316 - R and OpenSesame,no,mono,no,18,no,white,no,no,768,legacy,28,79,/Users/katherinehays/Desktop/PSYC 5316 - R and OpenSesame/subject-4.csv,legacy,Lentiform Loewenfeld,3.3.12,0,s,NA,h,NA,s,s,503,NA,7261,NA,254185,503,2,legacy,1024,2,48000,-16,experiment,SSSSS,4,even,255820,405666,NA,460718,457197,1480,455085,NA,461755,398404,NA,1619,461859,462363,461751,461859,Flanker Task (by Katherine Hays),61,48718,109,yes,1024
56.36363636,56.36363636,446.0181818,446.0181818,black,legacy,legacy,legacy,0,incongruent,uniform,1,undefined,1,s,0,0,0,109,109,0,109,0,109,0,0,0,109,109,109,109,Thu Sep 22 13:00:18 2022,600,The main experiment item,yes,Flanker_Task_by_Katherine_Hays.osexp,/Users/katherinehays/Desktop/PSYC 5316 - R and OpenSesame,no,mono,no,18,no,white,no,no,768,legacy,29,79,/Users/katherinehays/Desktop/PSYC 5316 - R and OpenSesame/subject-4.csv,legacy,Lentiform Loewenfeld,3.3.12,0,s,NA,h,NA,s,s,344,NA,7261,NA,254185,344,2,legacy,1024,2,48000,-16,experiment,HHSHH,4,even,255820,405666,NA,462367,457197,1480,455085,NA,463408,398404,NA,1619,463511,463855,463404,463511,Flanker Task (by Katherine Hays),62,49062,110,yes,1024
55.85585586,55.85585586,446.3153153,446.3153153,black,legacy,legacy,legacy,0,incongruent,uniform,0,undefined,0,h,0,0,0,110,110,0,110,0,110,0,0,0,110,110,110,110,Thu Sep 22 13:00:18 2022,600,The main experiment item,yes,Flanker_Task_by_Katherine_Hays.osexp,/Users/katherinehays/Desktop/PSYC 5316 - R and OpenSesame,no,mono,no,18,no,white,no,no,768,legacy,30,79,/Users/katherinehays/Desktop/PSYC 5316 - R and OpenSesame/subject-4.csv,legacy,Lentiform Loewenfeld,3.3.12,0,s,NA,h,NA,s,s,479,NA,7261,NA,254185,479,2,legacy,1024,2,48000,-16,experiment,SSHSS,4,even,255820,405666,NA,463860,457197,1480,455085,NA,464901,398404,NA,1619,465005,465485,464896,465005,Flanker Task (by Katherine Hays),62,49541,111,yes,1024
55.35714286,55.35714286,450.1339286,450.1339286,black,legacy,legacy,legacy,0,incongruent,uniform,0,undefined,0,h,0,0,0,111,111,0,111,0,111,0,0,0,111,111,111,111,Thu Sep 22 13:00:18 2022,600,The main experiment item,yes,Flanker_Task_by_Katherine_Hays.osexp,/Users/katherinehays/Desktop/PSYC 5316 - R and OpenSesame,no,mono,no,18,no,white,no,no,768,legacy,31,79,/Users/katherinehays/Desktop/PSYC 5316 - R and OpenSesame/subject-4.csv,legacy,Lentiform Loewenfeld,3.3.12,0,s,NA,h,NA,s,s,874,NA,7261,NA,254185,874,2,legacy,1024,2,48000,-16,experiment,SSHSS,4,even,255820,405666,NA,466001,465497,1480,455085,NA,467040,398404,NA,1619,467144,468019,467037,467144,Flanker Task (by Katherine Hays),62,50415,112,yes,1024
55.75221239,55.75221239,451.2123894,451.2123894,black,legacy,legacy,legacy,0,congruent,uniform,1,undefined,1,s,0,0,0,112,112,0,112,0,112,0,0,0,112,112,112,112,Thu Sep 22 13:00:18 2022,600,The main experiment item,yes,Flanker_Task_by_Katherine_Hays.osexp,/Users/katherinehays/Desktop/PSYC 5316 - R and OpenSesame,no,mono,no,18,no,white,no,no,768,legacy,32,79,/Users/katherinehays/Desktop/PSYC 5316 - R and OpenSesame/subject-4.csv,legacy,Lentiform Loewenfeld,3.3.12,0,s,NA,h,NA,s,s,572,NA,7261,NA,254185,572,2,legacy,1024,2,48000,-16,experiment,SSSSS,4,even,255820,405666,NA,469038,468023,1480,468535,NA,470077,398404,NA,1619,470181,470754,470074,470181,Flanker Task (by Katherine Hays),63,50987,113,yes,1024
56.14035088,56.14035088,450.4385965,450.4385965,black,legacy,legacy,legacy,0,incongruent,uniform,1,undefined,1,s,0,0,0,113,113,0,113,0,113,0,0,0,113,113,113,113,Thu Sep 22 13:00:18 2022,600,The main experiment item,yes,Flanker_Task_by_Katherine_Hays.osexp,/Users/katherinehays/Desktop/PSYC 5316 - R and OpenSesame,no,mono,no,18,no,white,no,no,768,legacy,33,79,/Users/katherinehays/Desktop/PSYC 5316 - R and OpenSesame/subject-4.csv,legacy,Lentiform Loewenfeld,3.3.12,0,s,NA,h,NA,s,s,363,NA,7261,NA,254185,363,2,legacy,1024,2,48000,-16,experiment,HHSHH,4,even,255820,405666,NA,470758,468023,1480,468535,NA,471799,398404,NA,1619,471904,472268,471795,471904,Flanker Task (by Katherine Hays),64,51350,114,yes,1024
56.52173913,56.52173913,451.1913043,451.1913043,black,legacy,legacy,legacy,0,congruent,uniform,1,undefined,1,s,0,0,0,114,114,0,114,0,114,0,0,0,114,114,114,114,Thu Sep 22 13:00:18 2022,600,The main experiment item,yes,Flanker_Task_by_Katherine_Hays.osexp,/Users/katherinehays/Desktop/PSYC 5316 - R and OpenSesame,no,mono,no,18,no,white,no,no,768,legacy,34,79,/Users/katherinehays/Desktop/PSYC 5316 - R and OpenSesame/subject-4.csv,legacy,Lentiform Loewenfeld,3.3.12,0,s,NA,h,NA,s,s,537,NA,7261,NA,254185,537,2,legacy,1024,2,48000,-16,experiment,SSSSS,4,even,255820,405666,NA,472272,468023,1480,468535,NA,473313,398404,NA,1619,473417,473955,473308,473417,Flanker Task (by Katherine Hays),65,51887,115,yes,1024
56.03448276,56.03448276,451.4913793,451.4913793,black,legacy,legacy,legacy,0,incongruent,uniform,0,undefined,0,s,0,0,0,115,115,0,115,0,115,0,0,0,115,115,115,115,Thu Sep 22 13:00:18 2022,600,The main experiment item,yes,Flanker_Task_by_Katherine_Hays.osexp,/Users/katherinehays/Desktop/PSYC 5316 - R and OpenSesame,no,mono,no,18,no,white,no,no,768,legacy,35,79,/Users/katherinehays/Desktop/PSYC 5316 - R and OpenSesame/subject-4.csv,legacy,Lentiform Loewenfeld,3.3.12,0,h,NA,h,NA,s,h,486,NA,7261,NA,254185,486,2,legacy,1024,2,48000,-16,experiment,HHSHH,4,even,255820,405666,NA,473959,468023,1480,468535,NA,475001,398404,NA,1619,475104,475591,474997,475104,Flanker Task (by Katherine Hays),65,52373,116,yes,1024
55.55555556,55.55555556,450.4615385,450.4615385,black,legacy,legacy,legacy,0,incongruent,uniform,0,undefined,0,h,0,0,0,116,116,0,116,0,116,0,0,0,116,116,116,116,Thu Sep 22 13:00:18 2022,600,The main experiment item,yes,Flanker_Task_by_Katherine_Hays.osexp,/Users/katherinehays/Desktop/PSYC 5316 - R and OpenSesame,no,mono,no,18,no,white,no,no,768,legacy,36,79,/Users/katherinehays/Desktop/PSYC 5316 - R and OpenSesame/subject-4.csv,legacy,Lentiform Loewenfeld,3.3.12,0,s,NA,h,NA,s,s,331,NA,7261,NA,254185,331,2,legacy,1024,2,48000,-16,experiment,SSHSS,4,even,255820,405666,NA,476099,475595,1480,468535,NA,477134,398404,NA,1619,477239,477571,477131,477239,Flanker Task (by Katherine Hays),65,52704,117,yes,1024
55.93220339,55.93220339,446.8305085,446.8305085,black,legacy,legacy,legacy,0,incongruent,uniform,1,undefined,1,h,0,0,0,117,117,0,117,0,117,0,0,0,117,117,117,117,Thu Sep 22 13:00:18 2022,600,The main experiment item,yes,Flanker_Task_by_Katherine_Hays.osexp,/Users/katherinehays/Desktop/PSYC 5316 - R and OpenSesame,no,mono,no,18,no,white,no,no,768,legacy,37,79,/Users/katherinehays/Desktop/PSYC 5316 - R and OpenSesame/subject-4.csv,legacy,Lentiform Loewenfeld,3.3.12,0,h,NA,h,NA,s,h,22,NA,7261,NA,254185,22,2,legacy,1024,2,48000,-16,experiment,SSHSS,4,even,255820,405666,NA,478080,477575,1480,468535,NA,479119,398404,NA,1619,479224,479247,479116,479224,Flanker Task (by Katherine Hays),66,52726,118,yes,1024
55.46218487,55.46218487,446.7058824,446.7058824,black,legacy,legacy,legacy,0,congruent,uniform,0,undefined,0,h,0,0,0,118,118,0,118,0,118,0,0,0,118,118,118,118,Thu Sep 22 13:00:18 2022,600,The main experiment item,yes,Flanker_Task_by_Katherine_Hays.osexp,/Users/katherinehays/Desktop/PSYC 5316 - R and OpenSesame,no,mono,no,18,no,white,no,no,768,legacy,38,79,/Users/katherinehays/Desktop/PSYC 5316 - R and OpenSesame/subject-4.csv,legacy,Lentiform Loewenfeld,3.3.12,0,s,NA,h,NA,s,s,432,NA,7261,NA,254185,432,2,legacy,1024,2,48000,-16,experiment,HHHHH,4,even,255820,405666,NA,479252,477575,1480,468535,NA,480294,398404,NA,1619,480397,480830,480289,480397,Flanker Task (by Katherine Hays),66,53158,119,yes,1024
55,55,446.0833333,446.0833333,black,legacy,legacy,legacy,0,incongruent,uniform,0,undefined,0,s,0,0,0,119,119,0,119,0,119,0,0,0,119,119,119,119,Thu Sep 22 13:00:18 2022,600,The main experiment item,yes,Flanker_Task_by_Katherine_Hays.osexp,/Users/katherinehays/Desktop/PSYC 5316 - R and OpenSesame,no,mono,no,18,no,white,no,no,768,legacy,39,79,/Users/katherinehays/Desktop/PSYC 5316 - R and OpenSesame/subject-4.csv,legacy,Lentiform Loewenfeld,3.3.12,0,h,NA,h,NA,s,h,372,NA,7261,NA,254185,372,2,legacy,1024,2,48000,-16,experiment,HHSHH,4,even,255820,405666,NA,481339,480834,1480,468535,NA,482381,398404,NA,1619,482485,482858,482377,482485,Flanker Task (by Katherine Hays),66,53530,120,yes,1024
55.37190083,55.37190083,445.3305785,445.3305785,black,legacy,legacy,legacy,0,incongruent,uniform,1,undefined,1,h,0,0,0,120,120,0,120,0,120,0,0,0,120,120,120,120,Thu Sep 22 13:00:18 2022,600,The main experiment item,yes,Flanker_Task_by_Katherine_Hays.osexp,/Users/katherinehays/Desktop/PSYC 5316 - R and OpenSesame,no,mono,no,18,no,white,no,no,768,legacy,40,79,/Users/katherinehays/Desktop/PSYC 5316 - R and OpenSesame/subject-4.csv,legacy,Lentiform Loewenfeld,3.3.12,0,h,NA,h,NA,s,h,355,NA,7261,NA,254185,355,2,legacy,1024,2,48000,-16,experiment,SSHSS,4,even,255820,405666,NA,483366,482862,1480,468535,NA,484406,398404,NA,1619,484510,484866,484403,484510,Flanker Task (by Katherine Hays),67,53885,121,yes,1024
54.91803279,54.91803279,444.6311475,444.6311475,black,legacy,legacy,legacy,0,congruent,uniform,0,undefined,0,h,0,0,0,121,121,0,121,0,121,0,0,0,121,121,121,121,Thu Sep 22 13:00:18 2022,600,The main experiment item,yes,Flanker_Task_by_Katherine_Hays.osexp,/Users/katherinehays/Desktop/PSYC 5316 - R and OpenSesame,no,mono,no,18,no,white,no,no,768,legacy,41,79,/Users/katherinehays/Desktop/PSYC 5316 - R and OpenSesame/subject-4.csv,legacy,Lentiform Loewenfeld,3.3.12,0,s,NA,h,NA,s,s,360,NA,7261,NA,254185,360,2,legacy,1024,2,48000,-16,experiment,HHHHH,4,even,255820,405666,NA,484870,482862,1480,468535,NA,485912,398404,NA,1619,486016,486377,485907,486016,Flanker Task (by Katherine Hays),67,54245,122,yes,1024
55.28455285,55.28455285,445.2682927,445.2682927,black,legacy,legacy,legacy,0,congruent,uniform,1,undefined,1,s,0,0,0,122,122,0,122,0,122,0,0,0,122,122,122,122,Thu Sep 22 13:00:18 2022,600,The main experiment item,yes,Flanker_Task_by_Katherine_Hays.osexp,/Users/katherinehays/Desktop/PSYC 5316 - R and OpenSesame,no,mono,no,18,no,white,no,no,768,legacy,42,79,/Users/katherinehays/Desktop/PSYC 5316 - R and OpenSesame/subject-4.csv,legacy,Lentiform Loewenfeld,3.3.12,0,s,NA,h,NA,s,s,523,NA,7261,NA,254185,523,2,legacy,1024,2,48000,-16,experiment,SSSSS,4,even,255820,405666,NA,486886,486382,1480,468535,NA,487926,398404,NA,1619,488032,488556,487922,488032,Flanker Task (by Katherine Hays),68,54768,123,yes,1024
55.64516129,55.64516129,445.0403226,445.0403226,black,legacy,legacy,legacy,0,incongruent,uniform,1,undefined,1,s,0,0,0,123,123,0,123,0,123,0,0,0,123,123,123,123,Thu Sep 22 13:00:18 2022,600,The main experiment item,yes,Flanker_Task_by_Katherine_Hays.osexp,/Users/katherinehays/Desktop/PSYC 5316 - R and OpenSesame,no,mono,no,18,no,white,no,no,768,legacy,43,79,/Users/katherinehays/Desktop/PSYC 5316 - R and OpenSesame/subject-4.csv,legacy,Lentiform Loewenfeld,3.3.12,0,s,NA,h,NA,s,s,417,NA,7261,NA,254185,417,2,legacy,1024,2,48000,-16,experiment,HHSHH,4,even,255820,405666,NA,488560,486382,1480,468535,NA,489601,398404,NA,1619,489704,490122,489597,489704,Flanker Task (by Katherine Hays),69,55185,124,yes,1024
56,56,444.784,444.784,black,legacy,legacy,legacy,0,incongruent,uniform,1,undefined,1,h,0,0,0,124,124,0,124,0,124,0,0,0,124,124,124,124,Thu Sep 22 13:00:18 2022,600,The main experiment item,yes,Flanker_Task_by_Katherine_Hays.osexp,/Users/katherinehays/Desktop/PSYC 5316 - R and OpenSesame,no,mono,no,18,no,white,no,no,768,legacy,44,79,/Users/katherinehays/Desktop/PSYC 5316 - R and OpenSesame/subject-4.csv,legacy,Lentiform Loewenfeld,3.3.12,0,h,NA,h,NA,s,h,413,NA,7261,NA,254185,413,2,legacy,1024,2,48000,-16,experiment,SSHSS,4,even,255820,405666,NA,490126,486382,1480,468535,NA,491168,398404,NA,1619,491272,491686,491163,491272,Flanker Task (by Katherine Hays),70,55598,125,yes,1024
56.34920635,56.34920635,444.7777778,444.7777778,black,legacy,legacy,legacy,0,congruent,uniform,1,undefined,1,h,0,0,0,125,125,0,125,0,125,0,0,0,125,125,125,125,Thu Sep 22 13:00:18 2022,600,The main experiment item,yes,Flanker_Task_by_Katherine_Hays.osexp,/Users/katherinehays/Desktop/PSYC 5316 - R and OpenSesame,no,mono,no,18,no,white,no,no,768,legacy,45,79,/Users/katherinehays/Desktop/PSYC 5316 - R and OpenSesame/subject-4.csv,legacy,Lentiform Loewenfeld,3.3.12,0,h,NA,h,NA,s,h,444,NA,7261,NA,254185,444,2,legacy,1024,2,48000,-16,experiment,HHHHH,4,even,255820,405666,NA,491690,486382,1480,468535,NA,492727,398404,NA,1619,492832,493277,492723,492832,Flanker Task (by Katherine Hays),71,56042,126,yes,1024
55.90551181,55.90551181,444.6062992,444.6062992,black,legacy,legacy,legacy,0,incongruent,uniform,0,undefined,0,s,0,0,0,126,126,0,126,0,126,0,0,0,126,126,126,126,Thu Sep 22 13:00:18 2022,600,The main experiment item,yes,Flanker_Task_by_Katherine_Hays.osexp,/Users/katherinehays/Desktop/PSYC 5316 - R and OpenSesame,no,mono,no,18,no,white,no,no,768,legacy,46,79,/Users/katherinehays/Desktop/PSYC 5316 - R and OpenSesame/subject-4.csv,legacy,Lentiform Loewenfeld,3.3.12,0,h,NA,h,NA,s,h,423,NA,7261,NA,254185,423,2,legacy,1024,2,48000,-16,experiment,HHSHH,4,even,255820,405666,NA,493281,486382,1480,468535,NA,494321,398404,NA,1619,494425,494849,494316,494425,Flanker Task (by Katherine Hays),71,56465,127,yes,1024
55.46875,55.46875,443.625,443.625,black,legacy,legacy,legacy,0,incongruent,uniform,0,undefined,0,s,0,0,0,127,127,0,127,0,127,0,0,0,127,127,127,127,Thu Sep 22 13:00:18 2022,600,The main experiment item,yes,Flanker_Task_by_Katherine_Hays.osexp,/Users/katherinehays/Desktop/PSYC 5316 - R and OpenSesame,no,mono,no,18,no,white,no,no,768,legacy,47,79,/Users/katherinehays/Desktop/PSYC 5316 - R and OpenSesame/subject-4.csv,legacy,Lentiform Loewenfeld,3.3.12,0,h,NA,h,NA,s,h,319,NA,7261,NA,254185,319,2,legacy,1024,2,48000,-16,experiment,HHSHH,4,even,255820,405666,NA,495358,494853,1480,468535,NA,496399,398404,NA,1619,496502,496822,496395,496502,Flanker Task (by Katherine Hays),71,56784,128,yes,1024
55.81395349,55.81395349,445.0077519,445.0077519,black,legacy,legacy,legacy,0,congruent,uniform,1,undefined,1,h,0,0,0,128,128,0,128,0,128,0,0,0,128,128,128,128,Thu Sep 22 13:00:18 2022,600,The main experiment item,yes,Flanker_Task_by_Katherine_Hays.osexp,/Users/katherinehays/Desktop/PSYC 5316 - R and OpenSesame,no,mono,no,18,no,white,no,no,768,legacy,48,79,/Users/katherinehays/Desktop/PSYC 5316 - R and OpenSesame/subject-4.csv,legacy,Lentiform Loewenfeld,3.3.12,0,h,NA,h,NA,s,h,622,NA,7261,NA,254185,622,2,legacy,1024,2,48000,-16,experiment,HHHHH,4,even,255820,405666,NA,497331,496826,1480,468535,NA,498371,398404,NA,1619,498475,499098,498367,498475,Flanker Task (by Katherine Hays),72,57406,129,yes,1024
56.15384615,56.15384615,445.1461538,445.1461538,black,legacy,legacy,legacy,0,congruent,uniform,1,undefined,1,s,0,0,0,129,129,0,129,0,129,0,0,0,129,129,129,129,Thu Sep 22 13:00:18 2022,600,The main experiment item,yes,Flanker_Task_by_Katherine_Hays.osexp,/Users/katherinehays/Desktop/PSYC 5316 - R and OpenSesame,no,mono,no,18,no,white,no,no,768,legacy,49,79,/Users/katherinehays/Desktop/PSYC 5316 - R and OpenSesame/subject-4.csv,legacy,Lentiform Loewenfeld,3.3.12,0,s,NA,h,NA,s,s,463,NA,7261,NA,254185,463,2,legacy,1024,2,48000,-16,experiment,SSSSS,4,even,255820,405666,NA,499607,496826,1480,499102,NA,500649,398404,NA,1619,500753,501217,500645,500753,Flanker Task (by Katherine Hays),73,57869,130,yes,1024
56.48854962,56.48854962,445.3740458,445.3740458,black,legacy,legacy,legacy,0,incongruent,uniform,1,undefined,1,h,0,0,0,130,130,0,130,0,130,0,0,0,130,130,130,130,Thu Sep 22 13:00:18 2022,600,The main experiment item,yes,Flanker_Task_by_Katherine_Hays.osexp,/Users/katherinehays/Desktop/PSYC 5316 - R and OpenSesame,no,mono,no,18,no,white,no,no,768,legacy,50,79,/Users/katherinehays/Desktop/PSYC 5316 - R and OpenSesame/subject-4.csv,legacy,Lentiform Loewenfeld,3.3.12,0,h,NA,h,NA,s,h,475,NA,7261,NA,254185,475,2,legacy,1024,2,48000,-16,experiment,SSHSS,4,even,255820,405666,NA,501221,496826,1480,499102,NA,502264,398404,NA,1619,502368,502844,502259,502368,Flanker Task (by Katherine Hays),74,58344,131,yes,1024
56.81818182,56.81818182,444.5681818,444.5681818,black,legacy,legacy,legacy,0,congruent,uniform,1,undefined,1,s,0,0,0,131,131,0,131,0,131,0,0,0,131,131,131,131,Thu Sep 22 13:00:18 2022,600,The main experiment item,yes,Flanker_Task_by_Katherine_Hays.osexp,/Users/katherinehays/Desktop/PSYC 5316 - R and OpenSesame,no,mono,no,18,no,white,no,no,768,legacy,51,79,/Users/katherinehays/Desktop/PSYC 5316 - R and OpenSesame/subject-4.csv,legacy,Lentiform Loewenfeld,3.3.12,0,s,NA,h,NA,s,s,339,NA,7261,NA,254185,339,2,legacy,1024,2,48000,-16,experiment,SSSSS,4,even,255820,405666,NA,502848,496826,1480,499102,NA,503889,398404,NA,1619,503993,504333,503884,503993,Flanker Task (by Katherine Hays),75,58683,132,yes,1024
57.14285714,57.14285714,443.1578947,443.1578947,black,legacy,legacy,legacy,0,incongruent,uniform,1,undefined,1,s,0,0,0,132,132,0,132,0,132,0,0,0,132,132,132,132,Thu Sep 22 13:00:18 2022,600,The main experiment item,yes,Flanker_Task_by_Katherine_Hays.osexp,/Users/katherinehays/Desktop/PSYC 5316 - R and OpenSesame,no,mono,no,18,no,white,no,no,768,legacy,52,79,/Users/katherinehays/Desktop/PSYC 5316 - R and OpenSesame/subject-4.csv,legacy,Lentiform Loewenfeld,3.3.12,0,s,NA,h,NA,s,s,257,NA,7261,NA,254185,257,2,legacy,1024,2,48000,-16,experiment,HHSHH,4,even,255820,405666,NA,504337,496826,1480,499102,NA,505376,398404,NA,1619,505480,505738,505372,505480,Flanker Task (by Katherine Hays),76,58940,133,yes,1024
56.71641791,56.71641791,443.1343284,443.1343284,black,legacy,legacy,legacy,0,incongruent,uniform,0,undefined,0,s,0,0,0,133,133,0,133,0,133,0,0,0,133,133,133,133,Thu Sep 22 13:00:18 2022,600,The main experiment item,yes,Flanker_Task_by_Katherine_Hays.osexp,/Users/katherinehays/Desktop/PSYC 5316 - R and OpenSesame,no,mono,no,18,no,white,no,no,768,legacy,53,79,/Users/katherinehays/Desktop/PSYC 5316 - R and OpenSesame/subject-4.csv,legacy,Lentiform Loewenfeld,3.3.12,0,h,NA,h,NA,s,h,440,NA,7261,NA,254185,440,2,legacy,1024,2,48000,-16,experiment,HHSHH,4,even,255820,405666,NA,505742,496826,1480,499102,NA,506783,398404,NA,1619,506887,507328,506778,506887,Flanker Task (by Katherine Hays),76,59380,134,yes,1024
57.03703704,57.03703704,444.6592593,444.6592593,black,legacy,legacy,legacy,0,congruent,uniform,1,undefined,1,h,0,0,0,134,134,0,134,0,134,0,0,0,134,134,134,134,Thu Sep 22 13:00:18 2022,600,The main experiment item,yes,Flanker_Task_by_Katherine_Hays.osexp,/Users/katherinehays/Desktop/PSYC 5316 - R and OpenSesame,no,mono,no,18,no,white,no,no,768,legacy,54,79,/Users/katherinehays/Desktop/PSYC 5316 - R and OpenSesame/subject-4.csv,legacy,Lentiform Loewenfeld,3.3.12,0,h,NA,h,NA,s,h,649,NA,7261,NA,254185,649,2,legacy,1024,2,48000,-16,experiment,HHHHH,4,even,255820,405666,NA,507835,507332,1480,499102,NA,508872,398404,NA,1619,508977,509627,508868,508977,Flanker Task (by Katherine Hays),77,60029,135,yes,1024
56.61764706,56.61764706,444.0367647,444.0367647,black,legacy,legacy,legacy,0,congruent,uniform,0,undefined,0,h,0,0,0,135,135,0,135,0,135,0,0,0,135,135,135,135,Thu Sep 22 13:00:18 2022,600,The main experiment item,yes,Flanker_Task_by_Katherine_Hays.osexp,/Users/katherinehays/Desktop/PSYC 5316 - R and OpenSesame,no,mono,no,18,no,white,no,no,768,legacy,55,79,/Users/katherinehays/Desktop/PSYC 5316 - R and OpenSesame/subject-4.csv,legacy,Lentiform Loewenfeld,3.3.12,0,s,NA,h,NA,s,s,360,NA,7261,NA,254185,360,2,legacy,1024,2,48000,-16,experiment,HHHHH,4,even,255820,405666,NA,510135,507332,1480,509631,NA,511175,398404,NA,1619,511279,511640,511170,511279,Flanker Task (by Katherine Hays),77,60389,136,yes,1024
56.93430657,56.93430657,444.540146,444.540146,black,legacy,legacy,legacy,0,congruent,uniform,1,undefined,1,s,0,0,0,136,136,0,136,0,136,0,0,0,136,136,136,136,Thu Sep 22 13:00:18 2022,600,The main experiment item,yes,Flanker_Task_by_Katherine_Hays.osexp,/Users/katherinehays/Desktop/PSYC 5316 - R and OpenSesame,no,mono,no,18,no,white,no,no,768,legacy,56,79,/Users/katherinehays/Desktop/PSYC 5316 - R and OpenSesame/subject-4.csv,legacy,Lentiform Loewenfeld,3.3.12,0,s,NA,h,NA,s,s,513,NA,7261,NA,254185,513,2,legacy,1024,2,48000,-16,experiment,SSSSS,4,even,255820,405666,NA,512148,511644,1480,509631,NA,513188,398404,NA,1619,513292,513806,513184,513292,Flanker Task (by Katherine Hays),78,60902,137,yes,1024
57.24637681,57.24637681,445.4710145,445.4710145,black,legacy,legacy,legacy,0,congruent,uniform,1,undefined,1,s,0,0,0,137,137,0,137,0,137,0,0,0,137,137,137,137,Thu Sep 22 13:00:18 2022,600,The main experiment item,yes,Flanker_Task_by_Katherine_Hays.osexp,/Users/katherinehays/Desktop/PSYC 5316 - R and OpenSesame,no,mono,no,18,no,white,no,no,768,legacy,57,79,/Users/katherinehays/Desktop/PSYC 5316 - R and OpenSesame/subject-4.csv,legacy,Lentiform Loewenfeld,3.3.12,0,s,NA,h,NA,s,s,573,NA,7261,NA,254185,573,2,legacy,1024,2,48000,-16,experiment,SSSSS,4,even,255820,405666,NA,513811,511644,1480,509631,NA,514853,398404,NA,1619,514957,515531,514848,514957,Flanker Task (by Katherine Hays),79,61475,138,yes,1024
57.55395683,57.55395683,445.3021583,445.3021583,black,legacy,legacy,legacy,0,congruent,uniform,1,undefined,1,h,0,0,0,138,138,0,138,0,138,0,0,0,138,138,138,138,Thu Sep 22 13:00:18 2022,600,The main experiment item,yes,Flanker_Task_by_Katherine_Hays.osexp,/Users/katherinehays/Desktop/PSYC 5316 - R and OpenSesame,no,mono,no,18,no,white,no,no,768,legacy,58,79,/Users/katherinehays/Desktop/PSYC 5316 - R and OpenSesame/subject-4.csv,legacy,Lentiform Loewenfeld,3.3.12,0,h,NA,h,NA,s,h,422,NA,7261,NA,254185,422,2,legacy,1024,2,48000,-16,experiment,HHHHH,4,even,255820,405666,NA,515535,511644,1480,509631,NA,516577,398404,NA,1619,516681,517104,516573,516681,Flanker Task (by Katherine Hays),80,61897,139,yes,1024
57.85714286,57.85714286,445.9142857,445.9142857,black,legacy,legacy,legacy,0,congruent,uniform,1,undefined,1,s,0,0,0,139,139,0,139,0,139,0,0,0,139,139,139,139,Thu Sep 22 13:00:18 2022,600,The main experiment item,yes,Flanker_Task_by_Katherine_Hays.osexp,/Users/katherinehays/Desktop/PSYC 5316 - R and OpenSesame,no,mono,no,18,no,white,no,no,768,legacy,59,79,/Users/katherinehays/Desktop/PSYC 5316 - R and OpenSesame/subject-4.csv,legacy,Lentiform Loewenfeld,3.3.12,0,s,NA,h,NA,s,s,531,NA,7261,NA,254185,531,2,legacy,1024,2,48000,-16,experiment,SSSSS,4,even,255820,405666,NA,517108,511644,1480,509631,NA,518145,398404,NA,1619,518250,518782,518141,518250,Flanker Task (by Katherine Hays),81,62428,140,yes,1024
58.15602837,58.15602837,444.893617,444.893617,black,legacy,legacy,legacy,0,congruent,uniform,1,undefined,1,s,0,0,0,140,140,0,140,0,140,0,0,0,140,140,140,140,Thu Sep 22 13:00:18 2022,600,The main experiment item,yes,Flanker_Task_by_Katherine_Hays.osexp,/Users/katherinehays/Desktop/PSYC 5316 - R and OpenSesame,no,mono,no,18,no,white,no,no,768,legacy,60,79,/Users/katherinehays/Desktop/PSYC 5316 - R and OpenSesame/subject-4.csv,legacy,Lentiform Loewenfeld,3.3.12,0,s,NA,h,NA,s,s,302,NA,7261,NA,254185,302,2,legacy,1024,2,48000,-16,experiment,SSSSS,4,even,255820,405666,NA,518787,511644,1480,509631,NA,519828,398404,NA,1619,519931,520234,519824,519931,Flanker Task (by Katherine Hays),82,62730,141,yes,1024
58.45070423,58.45070423,445.2183099,445.2183099,black,legacy,legacy,legacy,0,congruent,uniform,1,undefined,1,h,0,0,0,141,141,0,141,0,141,0,0,0,141,141,141,141,Thu Sep 22 13:00:18 2022,600,The main experiment item,yes,Flanker_Task_by_Katherine_Hays.osexp,/Users/katherinehays/Desktop/PSYC 5316 - R and OpenSesame,no,mono,no,18,no,white,no,no,768,legacy,61,79,/Users/katherinehays/Desktop/PSYC 5316 - R and OpenSesame/subject-4.csv,legacy,Lentiform Loewenfeld,3.3.12,0,h,NA,h,NA,s,h,491,NA,7261,NA,254185,491,2,legacy,1024,2,48000,-16,experiment,HHHHH,4,even,255820,405666,NA,520238,511644,1480,509631,NA,521278,398404,NA,1619,521382,521874,521274,521382,Flanker Task (by Katherine Hays),83,63221,142,yes,1024
