acc,accuracy,average_response_time,avg_rt,background,canvas_backend,clock_backend,color_backend,compensation,condition,coordinates,correct,correct_instructions1,correct_keyboard_response,correct_response,count_Block1,count_Block2,count_Block3,count_ISI,count_errorFeedback,count_experiment,count_faster,count_finish,count_fixation,count_instruction2,count_instructions1,count_instructions3,count_keyboard_response,count_logger,count_sequence,count_stimulus,datetime,deadline,description,disable_garbage_collection,experiment_file,experiment_path,font_bold,font_family,font_italic,font_size,font_underline,foreground,form_clicks,fullscreen,height,keyboard_backend,live_row,live_row_Block1,logfile,mouse_backend,opensesame_codename,opensesame_version,repeat_cycle,response,response_finish,response_instruction2,response_instructions1,response_instructions3,response_keyboard_response,response_time,response_time_finish,response_time_instruction2,response_time_instructions1,response_time_instructions3,response_time_keyboard_response,round_decimals,sampler_backend,sound_buf_size,sound_channels,sound_freq,sound_sample_size,start,stimulus,subject_nr,subject_parity,time_Block1,time_Block2,time_Block3,time_ISI,time_errorFeedback,time_experiment,time_faster,time_finish,time_fixation,time_instruction2,time_instructions1,time_instructions3,time_keyboard_response,time_logger,time_sequence,time_stimulus,title,total_correct,total_response_time,total_responses,uniform_coordinates,width
100,100,832,832,black,legacy,legacy,legacy,0,congruent,uniform,1,undefined,1,s,0,0,0,0,0,0,0,0,0,0,0,0,0,0,0,0,Thu Sep 19 16:32:56 2019,1500,The main experiment item,yes,CB-FlankerTask-Lab1.2.osexp,/Users/cristianbotello/Desktop/Advanced Quant,no,mono,no,18,no,white,no,no,768,legacy,0,0,/Users/cristianbotello/Desktop/Advanced Quant/CB-subject-2.csv,legacy,Kafkaesque Koffka,3.2.8,0,s,NA,NA,s,NA,s,832,NA,NA,52354,NA,832,2,legacy,1024,2,48000,-16,experiment,SSSSS,2,even,55611,NA,NA,NA,NA,3209,NA,NA,55728,NA,3247,NA,55843,56677,55717,55843,Flanker Task,1,832,1,yes,1024
100,100,675,675,black,legacy,legacy,legacy,0,congruent,uniform,1,undefined,1,h,0,0,0,1,1,0,1,0,1,0,0,0,1,1,1,1,Thu Sep 19 16:32:56 2019,1500,The main experiment item,yes,CB-FlankerTask-Lab1.2.osexp,/Users/cristianbotello/Desktop/Advanced Quant,no,mono,no,18,no,white,no,no,768,legacy,1,1,/Users/cristianbotello/Desktop/Advanced Quant/CB-subject-2.csv,legacy,Kafkaesque Koffka,3.2.8,0,h,NA,NA,s,NA,h,518,NA,NA,52354,NA,518,2,legacy,1024,2,48000,-16,experiment,HHHHH,2,even,55611,NA,NA,56709,NA,3209,NA,NA,57838,NA,3247,NA,57949,58468,57826,57949,Flanker Task,2,1350,2,yes,1024
100,100,781,781,black,legacy,legacy,legacy,0,incongruent,uniform,1,undefined,1,h,0,0,0,2,2,0,2,0,2,0,0,0,2,2,2,2,Thu Sep 19 16:32:56 2019,1500,The main experiment item,yes,CB-FlankerTask-Lab1.2.osexp,/Users/cristianbotello/Desktop/Advanced Quant,no,mono,no,18,no,white,no,no,768,legacy,2,2,/Users/cristianbotello/Desktop/Advanced Quant/CB-subject-2.csv,legacy,Kafkaesque Koffka,3.2.8,0,h,NA,NA,s,NA,h,993,NA,NA,52354,NA,993,2,legacy,1024,2,48000,-16,experiment,SSHSS,2,even,55611,NA,NA,58488,NA,3209,NA,NA,59590,NA,3247,NA,59705,60700,59577,59705,Flanker Task,3,2343,3,yes,1024
100,100,723.5,723.5,black,legacy,legacy,legacy,0,congruent,uniform,1,undefined,1,s,0,0,0,3,3,0,3,0,3,0,0,0,3,3,3,3,Thu Sep 19 16:32:56 2019,1500,The main experiment item,yes,CB-FlankerTask-Lab1.2.osexp,/Users/cristianbotello/Desktop/Advanced Quant,no,mono,no,18,no,white,no,no,768,legacy,3,3,/Users/cristianbotello/Desktop/Advanced Quant/CB-subject-2.csv,legacy,Kafkaesque Koffka,3.2.8,0,s,NA,NA,s,NA,s,551,NA,NA,52354,NA,551,2,legacy,1024,2,48000,-16,experiment,SSSSS,2,even,55611,NA,NA,60717,NA,3209,NA,NA,61839,NA,3247,NA,61953,62505,61827,61953,Flanker Task,4,2894,4,yes,1024
100,100,691.6,691.6,black,legacy,legacy,legacy,0,congruent,uniform,1,undefined,1,s,0,0,0,4,4,0,4,0,4,0,0,0,4,4,4,4,Thu Sep 19 16:32:56 2019,1500,The main experiment item,yes,CB-FlankerTask-Lab1.2.osexp,/Users/cristianbotello/Desktop/Advanced Quant,no,mono,no,18,no,white,no,no,768,legacy,4,4,/Users/cristianbotello/Desktop/Advanced Quant/CB-subject-2.csv,legacy,Kafkaesque Koffka,3.2.8,0,s,NA,NA,s,NA,s,564,NA,NA,52354,NA,564,2,legacy,1024,2,48000,-16,experiment,SSSSS,2,even,55611,NA,NA,62520,NA,3209,NA,NA,63619,NA,3247,NA,63734,64299,63608,63734,Flanker Task,5,3458,5,yes,1024
100,100,699.3333333,699.3333333,black,legacy,legacy,legacy,0,incongruent,uniform,1,undefined,1,s,0,0,0,5,5,0,5,0,5,0,0,0,5,5,5,5,Thu Sep 19 16:32:56 2019,1500,The main experiment item,yes,CB-FlankerTask-Lab1.2.osexp,/Users/cristianbotello/Desktop/Advanced Quant,no,mono,no,18,no,white,no,no,768,legacy,5,5,/Users/cristianbotello/Desktop/Advanced Quant/CB-subject-2.csv,legacy,Kafkaesque Koffka,3.2.8,0,s,NA,NA,s,NA,s,738,NA,NA,52354,NA,738,2,legacy,1024,2,48000,-16,experiment,HHSHH,2,even,55611,NA,NA,64332,NA,3209,NA,NA,65455,NA,3247,NA,65569,66308,65443,65568,Flanker Task,6,4196,6,yes,1024
100,100,770.7142857,770.7142857,black,legacy,legacy,legacy,0,incongruent,uniform,1,undefined,1,h,0,0,0,6,6,0,6,0,6,0,0,0,6,6,6,6,Thu Sep 19 16:32:56 2019,1500,The main experiment item,yes,CB-FlankerTask-Lab1.2.osexp,/Users/cristianbotello/Desktop/Advanced Quant,no,mono,no,18,no,white,no,no,768,legacy,6,6,/Users/cristianbotello/Desktop/Advanced Quant/CB-subject-2.csv,legacy,Kafkaesque Koffka,3.2.8,0,h,NA,NA,s,NA,h,1199,NA,NA,52354,NA,1199,2,legacy,1024,2,48000,-16,experiment,SSHSS,2,even,55611,NA,NA,66323,NA,3209,NA,NA,67425,NA,3247,NA,67539,68739,67411,67539,Flanker Task,7,5395,7,yes,1024
100,100,768.75,768.75,black,legacy,legacy,legacy,0,incongruent,uniform,1,undefined,1,s,0,0,0,7,7,0,7,0,7,0,0,0,7,7,7,7,Thu Sep 19 16:32:56 2019,1500,The main experiment item,yes,CB-FlankerTask-Lab1.2.osexp,/Users/cristianbotello/Desktop/Advanced Quant,no,mono,no,18,no,white,no,no,768,legacy,7,7,/Users/cristianbotello/Desktop/Advanced Quant/CB-subject-2.csv,legacy,Kafkaesque Koffka,3.2.8,0,s,NA,NA,s,NA,s,755,NA,NA,52354,NA,755,2,legacy,1024,2,48000,-16,experiment,HHSHH,2,even,55611,NA,NA,68771,NA,3209,NA,NA,69889,NA,3247,NA,70002,70758,69878,70002,Flanker Task,8,6150,8,yes,1024
100,100,758.3333333,758.3333333,black,legacy,legacy,legacy,0,incongruent,uniform,1,undefined,1,s,0,0,0,8,8,0,8,0,8,0,0,0,8,8,8,8,Thu Sep 19 16:32:56 2019,1500,The main experiment item,yes,CB-FlankerTask-Lab1.2.osexp,/Users/cristianbotello/Desktop/Advanced Quant,no,mono,no,18,no,white,no,no,768,legacy,8,8,/Users/cristianbotello/Desktop/Advanced Quant/CB-subject-2.csv,legacy,Kafkaesque Koffka,3.2.8,0,s,NA,NA,s,NA,s,675,NA,NA,52354,NA,675,2,legacy,1024,2,48000,-16,experiment,HHSHH,2,even,55611,NA,NA,70773,NA,3209,NA,NA,71883,NA,3247,NA,71995,72672,71871,71995,Flanker Task,9,6825,9,yes,1024
100,100,724.9,724.9,black,legacy,legacy,legacy,0,congruent,uniform,1,undefined,1,h,0,0,0,9,9,0,9,0,9,0,0,0,9,9,9,9,Thu Sep 19 16:32:56 2019,1500,The main experiment item,yes,CB-FlankerTask-Lab1.2.osexp,/Users/cristianbotello/Desktop/Advanced Quant,no,mono,no,18,no,white,no,no,768,legacy,9,9,/Users/cristianbotello/Desktop/Advanced Quant/CB-subject-2.csv,legacy,Kafkaesque Koffka,3.2.8,0,h,NA,NA,s,NA,h,424,NA,NA,52354,NA,424,2,legacy,1024,2,48000,-16,experiment,HHHHH,2,even,55611,NA,NA,72686,NA,3209,NA,NA,73787,NA,3247,NA,73899,74324,73775,73899,Flanker Task,10,7249,10,yes,1024
100,100,704.7272727,704.7272727,black,legacy,legacy,legacy,0,incongruent,uniform,1,undefined,1,h,0,0,0,10,10,0,10,0,10,0,0,0,10,10,10,10,Thu Sep 19 16:32:56 2019,1500,The main experiment item,yes,CB-FlankerTask-Lab1.2.osexp,/Users/cristianbotello/Desktop/Advanced Quant,no,mono,no,18,no,white,no,no,768,legacy,10,10,/Users/cristianbotello/Desktop/Advanced Quant/CB-subject-2.csv,legacy,Kafkaesque Koffka,3.2.8,0,h,NA,NA,s,NA,h,503,NA,NA,52354,NA,503,2,legacy,1024,2,48000,-16,experiment,SSHSS,2,even,55611,NA,NA,74344,NA,3209,NA,NA,75473,NA,3247,NA,75588,76093,75461,75588,Flanker Task,11,7752,11,yes,1024
100,100,679.9166667,679.9166667,black,legacy,legacy,legacy,0,incongruent,uniform,1,undefined,1,h,0,0,0,11,11,0,11,0,11,0,0,0,11,11,11,11,Thu Sep 19 16:32:56 2019,1500,The main experiment item,yes,CB-FlankerTask-Lab1.2.osexp,/Users/cristianbotello/Desktop/Advanced Quant,no,mono,no,18,no,white,no,no,768,legacy,11,11,/Users/cristianbotello/Desktop/Advanced Quant/CB-subject-2.csv,legacy,Kafkaesque Koffka,3.2.8,0,h,NA,NA,s,NA,h,407,NA,NA,52354,NA,407,2,legacy,1024,2,48000,-16,experiment,SSHSS,2,even,55611,NA,NA,76107,NA,3209,NA,NA,77207,NA,3247,NA,77322,77731,77195,77322,Flanker Task,12,8159,12,yes,1024
100,100,667.7692308,667.7692308,black,legacy,legacy,legacy,0,congruent,uniform,1,undefined,1,s,0,0,0,12,12,0,12,0,12,0,0,0,12,12,12,12,Thu Sep 19 16:32:56 2019,1500,The main experiment item,yes,CB-FlankerTask-Lab1.2.osexp,/Users/cristianbotello/Desktop/Advanced Quant,no,mono,no,18,no,white,no,no,768,legacy,12,12,/Users/cristianbotello/Desktop/Advanced Quant/CB-subject-2.csv,legacy,Kafkaesque Koffka,3.2.8,0,s,NA,NA,s,NA,s,522,NA,NA,52354,NA,522,2,legacy,1024,2,48000,-16,experiment,SSSSS,2,even,55611,NA,NA,77756,NA,3209,NA,NA,78877,NA,3247,NA,78993,79517,78865,78993,Flanker Task,13,8681,13,yes,1024
100,100,644.4285714,644.4285714,black,legacy,legacy,legacy,0,congruent,uniform,1,undefined,1,h,0,0,0,13,13,0,13,0,13,0,0,0,13,13,13,13,Thu Sep 19 16:32:56 2019,1500,The main experiment item,yes,CB-FlankerTask-Lab1.2.osexp,/Users/cristianbotello/Desktop/Advanced Quant,no,mono,no,18,no,white,no,no,768,legacy,13,13,/Users/cristianbotello/Desktop/Advanced Quant/CB-subject-2.csv,legacy,Kafkaesque Koffka,3.2.8,0,h,NA,NA,s,NA,h,341,NA,NA,52354,NA,341,2,legacy,1024,2,48000,-16,experiment,HHHHH,2,even,55611,NA,NA,79531,NA,3209,NA,NA,80631,NA,3247,NA,80746,81089,80620,80746,Flanker Task,14,9022,14,yes,1024
100,100,622.5333333,622.5333333,black,legacy,legacy,legacy,0,congruent,uniform,1,undefined,1,s,0,0,0,14,14,0,14,0,14,0,0,0,14,14,14,14,Thu Sep 19 16:32:56 2019,1500,The main experiment item,yes,CB-FlankerTask-Lab1.2.osexp,/Users/cristianbotello/Desktop/Advanced Quant,no,mono,no,18,no,white,no,no,768,legacy,14,14,/Users/cristianbotello/Desktop/Advanced Quant/CB-subject-2.csv,legacy,Kafkaesque Koffka,3.2.8,0,s,NA,NA,s,NA,s,316,NA,NA,52354,NA,316,2,legacy,1024,2,48000,-16,experiment,SSSSS,2,even,55611,NA,NA,81106,NA,3209,NA,NA,82233,NA,3247,NA,82348,82666,82221,82348,Flanker Task,15,9338,15,yes,1024
100,100,607.75,607.75,black,legacy,legacy,legacy,0,incongruent,uniform,1,undefined,1,h,0,0,0,15,15,0,15,0,15,0,0,0,15,15,15,15,Thu Sep 19 16:32:56 2019,1500,The main experiment item,yes,CB-FlankerTask-Lab1.2.osexp,/Users/cristianbotello/Desktop/Advanced Quant,no,mono,no,18,no,white,no,no,768,legacy,15,15,/Users/cristianbotello/Desktop/Advanced Quant/CB-subject-2.csv,legacy,Kafkaesque Koffka,3.2.8,0,h,NA,NA,s,NA,h,386,NA,NA,52354,NA,386,2,legacy,1024,2,48000,-16,experiment,SSHSS,2,even,55611,NA,NA,82681,NA,3209,NA,NA,83781,NA,3247,NA,83896,84284,83769,83896,Flanker Task,16,9724,16,yes,1024
100,100,596.3529412,596.3529412,black,legacy,legacy,legacy,0,congruent,uniform,1,undefined,1,s,0,0,0,16,16,0,16,0,16,0,0,0,16,16,16,16,Thu Sep 19 16:32:56 2019,1500,The main experiment item,yes,CB-FlankerTask-Lab1.2.osexp,/Users/cristianbotello/Desktop/Advanced Quant,no,mono,no,18,no,white,no,no,768,legacy,16,16,/Users/cristianbotello/Desktop/Advanced Quant/CB-subject-2.csv,legacy,Kafkaesque Koffka,3.2.8,0,s,NA,NA,s,NA,s,414,NA,NA,52354,NA,414,2,legacy,1024,2,48000,-16,experiment,SSSSS,2,even,55611,NA,NA,84306,NA,3209,NA,NA,85420,NA,3247,NA,85535,85951,85408,85535,Flanker Task,17,10138,17,yes,1024
100,100,592.2222222,592.2222222,black,legacy,legacy,legacy,0,incongruent,uniform,1,undefined,1,s,0,0,0,17,17,0,17,0,17,0,0,0,17,17,17,17,Thu Sep 19 16:32:56 2019,1500,The main experiment item,yes,CB-FlankerTask-Lab1.2.osexp,/Users/cristianbotello/Desktop/Advanced Quant,no,mono,no,18,no,white,no,no,768,legacy,17,17,/Users/cristianbotello/Desktop/Advanced Quant/CB-subject-2.csv,legacy,Kafkaesque Koffka,3.2.8,0,s,NA,NA,s,NA,s,522,NA,NA,52354,NA,522,2,legacy,1024,2,48000,-16,experiment,HHSHH,2,even,55611,NA,NA,85965,NA,3209,NA,NA,87065,NA,3247,NA,87180,87704,87053,87180,Flanker Task,18,10660,18,yes,1024
100,100,587.6315789,587.6315789,black,legacy,legacy,legacy,0,incongruent,uniform,1,undefined,1,h,0,0,0,18,18,0,18,0,18,0,0,0,18,18,18,18,Thu Sep 19 16:32:56 2019,1500,The main experiment item,yes,CB-FlankerTask-Lab1.2.osexp,/Users/cristianbotello/Desktop/Advanced Quant,no,mono,no,18,no,white,no,no,768,legacy,18,18,/Users/cristianbotello/Desktop/Advanced Quant/CB-subject-2.csv,legacy,Kafkaesque Koffka,3.2.8,0,h,NA,NA,s,NA,h,505,NA,NA,52354,NA,505,2,legacy,1024,2,48000,-16,experiment,SSHSS,2,even,55611,NA,NA,87720,NA,3209,NA,NA,88842,NA,3247,NA,88957,89464,88830,88957,Flanker Task,19,11165,19,yes,1024
100,100,579.6,579.6,black,legacy,legacy,legacy,0,incongruent,uniform,1,undefined,1,h,0,0,0,19,19,0,19,0,19,0,0,0,19,19,19,19,Thu Sep 19 16:32:56 2019,1500,The main experiment item,yes,CB-FlankerTask-Lab1.2.osexp,/Users/cristianbotello/Desktop/Advanced Quant,no,mono,no,18,no,white,no,no,768,legacy,19,19,/Users/cristianbotello/Desktop/Advanced Quant/CB-subject-2.csv,legacy,Kafkaesque Koffka,3.2.8,0,h,NA,NA,s,NA,h,427,NA,NA,52354,NA,427,2,legacy,1024,2,48000,-16,experiment,SSHSS,2,even,55611,NA,NA,89482,NA,3209,NA,NA,90582,NA,3247,NA,90697,91125,90571,90697,Flanker Task,20,11592,20,yes,1024
100,100,572.6190476,572.6190476,black,legacy,legacy,legacy,0,incongruent,uniform,1,undefined,1,h,0,0,0,20,20,0,20,0,20,0,0,0,20,20,20,20,Thu Sep 19 16:32:56 2019,1500,The main experiment item,yes,CB-FlankerTask-Lab1.2.osexp,/Users/cristianbotello/Desktop/Advanced Quant,no,mono,no,18,no,white,no,no,768,legacy,20,20,/Users/cristianbotello/Desktop/Advanced Quant/CB-subject-2.csv,legacy,Kafkaesque Koffka,3.2.8,0,h,NA,NA,s,NA,h,433,NA,NA,52354,NA,433,2,legacy,1024,2,48000,-16,experiment,SSHSS,2,even,55611,NA,NA,91144,NA,3209,NA,NA,92265,NA,3247,NA,92380,92814,92253,92380,Flanker Task,21,12025,21,yes,1024
100,100,563.6818182,563.6818182,black,legacy,legacy,legacy,0,congruent,uniform,1,undefined,1,h,0,0,0,21,21,0,21,0,21,0,0,0,21,21,21,21,Thu Sep 19 16:32:56 2019,1500,The main experiment item,yes,CB-FlankerTask-Lab1.2.osexp,/Users/cristianbotello/Desktop/Advanced Quant,no,mono,no,18,no,white,no,no,768,legacy,21,21,/Users/cristianbotello/Desktop/Advanced Quant/CB-subject-2.csv,legacy,Kafkaesque Koffka,3.2.8,0,h,NA,NA,s,NA,h,376,NA,NA,52354,NA,376,2,legacy,1024,2,48000,-16,experiment,HHHHH,2,even,55611,NA,NA,92829,NA,3209,NA,NA,93929,NA,3247,NA,94044,94422,93917,94043,Flanker Task,22,12401,22,yes,1024
100,100,553.9130435,553.9130435,black,legacy,legacy,legacy,0,incongruent,uniform,1,undefined,1,h,0,0,0,22,22,0,22,0,22,0,0,0,22,22,22,22,Thu Sep 19 16:32:56 2019,1500,The main experiment item,yes,CB-FlankerTask-Lab1.2.osexp,/Users/cristianbotello/Desktop/Advanced Quant,no,mono,no,18,no,white,no,no,768,legacy,22,22,/Users/cristianbotello/Desktop/Advanced Quant/CB-subject-2.csv,legacy,Kafkaesque Koffka,3.2.8,0,h,NA,NA,s,NA,h,339,NA,NA,52354,NA,339,2,legacy,1024,2,48000,-16,experiment,SSHSS,2,even,55611,NA,NA,94453,NA,3209,NA,NA,95575,NA,3247,NA,95690,96030,95563,95690,Flanker Task,23,12740,23,yes,1024
100,100,544.7083333,544.7083333,black,legacy,legacy,legacy,0,congruent,uniform,1,undefined,1,h,0,0,0,23,23,0,23,0,23,0,0,0,23,23,23,23,Thu Sep 19 16:32:56 2019,1500,The main experiment item,yes,CB-FlankerTask-Lab1.2.osexp,/Users/cristianbotello/Desktop/Advanced Quant,no,mono,no,18,no,white,no,no,768,legacy,23,23,/Users/cristianbotello/Desktop/Advanced Quant/CB-subject-2.csv,legacy,Kafkaesque Koffka,3.2.8,0,h,NA,NA,s,NA,h,333,NA,NA,52354,NA,333,2,legacy,1024,2,48000,-16,experiment,HHHHH,2,even,55611,NA,NA,96045,NA,3209,NA,NA,97144,NA,3247,NA,97256,97591,97132,97256,Flanker Task,24,13073,24,yes,1024
100,100,538.52,538.52,black,legacy,legacy,legacy,0,congruent,uniform,1,undefined,1,h,0,0,0,24,24,0,24,0,24,0,0,0,24,24,24,24,Thu Sep 19 16:32:56 2019,1500,The main experiment item,yes,CB-FlankerTask-Lab1.2.osexp,/Users/cristianbotello/Desktop/Advanced Quant,no,mono,no,18,no,white,no,no,768,legacy,24,24,/Users/cristianbotello/Desktop/Advanced Quant/CB-subject-2.csv,legacy,Kafkaesque Koffka,3.2.8,0,h,NA,NA,s,NA,h,390,NA,NA,52354,NA,390,2,legacy,1024,2,48000,-16,experiment,HHHHH,2,even,55611,NA,NA,97608,NA,3209,NA,NA,98724,NA,3247,NA,98839,99231,98712,98839,Flanker Task,25,13463,25,yes,1024
100,100,531.8461538,531.8461538,black,legacy,legacy,legacy,0,incongruent,uniform,1,undefined,1,h,0,0,0,25,25,0,25,0,25,0,0,0,25,25,25,25,Thu Sep 19 16:32:56 2019,1500,The main experiment item,yes,CB-FlankerTask-Lab1.2.osexp,/Users/cristianbotello/Desktop/Advanced Quant,no,mono,no,18,no,white,no,no,768,legacy,25,25,/Users/cristianbotello/Desktop/Advanced Quant/CB-subject-2.csv,legacy,Kafkaesque Koffka,3.2.8,0,h,NA,NA,s,NA,h,365,NA,NA,52354,NA,365,2,legacy,1024,2,48000,-16,experiment,SSHSS,2,even,55611,NA,NA,99245,NA,3209,NA,NA,100345,NA,3247,NA,100462,100829,100334,100461,Flanker Task,26,13828,26,yes,1024
100,100,524.962963,524.962963,black,legacy,legacy,legacy,0,congruent,uniform,1,undefined,1,h,0,0,0,26,26,0,26,0,26,0,0,0,26,26,26,26,Thu Sep 19 16:32:56 2019,1500,The main experiment item,yes,CB-FlankerTask-Lab1.2.osexp,/Users/cristianbotello/Desktop/Advanced Quant,no,mono,no,18,no,white,no,no,768,legacy,26,26,/Users/cristianbotello/Desktop/Advanced Quant/CB-subject-2.csv,legacy,Kafkaesque Koffka,3.2.8,0,h,NA,NA,s,NA,h,346,NA,NA,52354,NA,346,2,legacy,1024,2,48000,-16,experiment,HHHHH,2,even,55611,NA,NA,100845,NA,3209,NA,NA,101964,NA,3247,NA,102079,102427,101952,102079,Flanker Task,27,14174,27,yes,1024
96.42857143,96.42857143,518.3214286,518.3214286,black,legacy,legacy,legacy,0,incongruent,uniform,0,undefined,0,s,0,0,0,27,27,0,27,0,27,0,0,0,27,27,27,27,Thu Sep 19 16:32:56 2019,1500,The main experiment item,yes,CB-FlankerTask-Lab1.2.osexp,/Users/cristianbotello/Desktop/Advanced Quant,no,mono,no,18,no,white,no,no,768,legacy,27,27,/Users/cristianbotello/Desktop/Advanced Quant/CB-subject-2.csv,legacy,Kafkaesque Koffka,3.2.8,0,h,NA,NA,s,NA,h,339,NA,NA,52354,NA,339,2,legacy,1024,2,48000,-16,experiment,HHSHH,2,even,55611,NA,NA,102441,NA,3209,NA,NA,103541,NA,3247,NA,103657,103998,103529,103657,Flanker Task,27,14513,28,yes,1024
96.55172414,96.55172414,517.7931034,517.7931034,black,legacy,legacy,legacy,0,congruent,uniform,1,undefined,1,s,0,0,0,28,28,0,28,0,28,0,0,0,28,28,28,28,Thu Sep 19 16:32:56 2019,1500,The main experiment item,yes,CB-FlankerTask-Lab1.2.osexp,/Users/cristianbotello/Desktop/Advanced Quant,no,mono,no,18,no,white,no,no,768,legacy,28,28,/Users/cristianbotello/Desktop/Advanced Quant/CB-subject-2.csv,legacy,Kafkaesque Koffka,3.2.8,0,s,NA,NA,s,NA,s,503,NA,NA,52354,NA,503,2,legacy,1024,2,48000,-16,experiment,SSSSS,2,even,55611,NA,NA,104528,104014,3209,NA,NA,105628,NA,3247,NA,105743,106248,105617,105743,Flanker Task,28,15016,29,yes,1024
96.66666667,96.66666667,523.8,523.8,black,legacy,legacy,legacy,0,incongruent,uniform,1,undefined,1,h,0,0,0,29,29,0,29,0,29,0,0,0,29,29,29,29,Thu Sep 19 16:32:56 2019,1500,The main experiment item,yes,CB-FlankerTask-Lab1.2.osexp,/Users/cristianbotello/Desktop/Advanced Quant,no,mono,no,18,no,white,no,no,768,legacy,29,29,/Users/cristianbotello/Desktop/Advanced Quant/CB-subject-2.csv,legacy,Kafkaesque Koffka,3.2.8,0,h,NA,NA,s,NA,h,698,NA,NA,52354,NA,698,2,legacy,1024,2,48000,-16,experiment,SSHSS,2,even,55611,NA,NA,106275,104014,3209,NA,NA,107400,NA,3247,NA,107515,108215,107387,107515,Flanker Task,29,15714,30,yes,1024
96.77419355,96.77419355,524.7096774,524.7096774,black,legacy,legacy,legacy,0,incongruent,uniform,1,undefined,1,h,0,0,0,30,30,0,30,0,30,0,0,0,30,30,30,30,Thu Sep 19 16:32:56 2019,1500,The main experiment item,yes,CB-FlankerTask-Lab1.2.osexp,/Users/cristianbotello/Desktop/Advanced Quant,no,mono,no,18,no,white,no,no,768,legacy,30,30,/Users/cristianbotello/Desktop/Advanced Quant/CB-subject-2.csv,legacy,Kafkaesque Koffka,3.2.8,0,h,NA,NA,s,NA,h,552,NA,NA,52354,NA,552,2,legacy,1024,2,48000,-16,experiment,SSHSS,2,even,55611,NA,NA,108230,104014,3209,NA,NA,109331,NA,3247,NA,109446,110000,109319,109446,Flanker Task,30,16266,31,yes,1024
93.75,93.75,522.78125,522.78125,black,legacy,legacy,legacy,0,incongruent,uniform,0,undefined,0,s,0,0,0,31,31,0,31,0,31,0,0,0,31,31,31,31,Thu Sep 19 16:32:56 2019,1500,The main experiment item,yes,CB-FlankerTask-Lab1.2.osexp,/Users/cristianbotello/Desktop/Advanced Quant,no,mono,no,18,no,white,no,no,768,legacy,31,31,/Users/cristianbotello/Desktop/Advanced Quant/CB-subject-2.csv,legacy,Kafkaesque Koffka,3.2.8,0,h,NA,NA,s,NA,h,463,NA,NA,52354,NA,463,2,legacy,1024,2,48000,-16,experiment,HHSHH,2,even,55611,NA,NA,110013,104014,3209,NA,NA,111114,NA,3247,NA,111225,111690,111102,111225,Flanker Task,30,16729,32,yes,1024
93.93939394,93.93939394,524.5757576,524.5757576,black,legacy,legacy,legacy,0,incongruent,uniform,1,undefined,1,h,0,0,0,32,32,0,32,0,32,0,0,0,32,32,32,32,Thu Sep 19 16:32:56 2019,1500,The main experiment item,yes,CB-FlankerTask-Lab1.2.osexp,/Users/cristianbotello/Desktop/Advanced Quant,no,mono,no,18,no,white,no,no,768,legacy,32,32,/Users/cristianbotello/Desktop/Advanced Quant/CB-subject-2.csv,legacy,Kafkaesque Koffka,3.2.8,0,h,NA,NA,s,NA,h,582,NA,NA,52354,NA,582,2,legacy,1024,2,48000,-16,experiment,SSHSS,2,even,55611,NA,NA,112219,111706,3209,NA,NA,113318,NA,3247,NA,113430,114014,113307,113430,Flanker Task,31,17311,33,yes,1024
94.11764706,94.11764706,524.4411765,524.4411765,black,legacy,legacy,legacy,0,incongruent,uniform,1,undefined,1,h,0,0,0,33,33,0,33,0,33,0,0,0,33,33,33,33,Thu Sep 19 16:32:56 2019,1500,The main experiment item,yes,CB-FlankerTask-Lab1.2.osexp,/Users/cristianbotello/Desktop/Advanced Quant,no,mono,no,18,no,white,no,no,768,legacy,33,33,/Users/cristianbotello/Desktop/Advanced Quant/CB-subject-2.csv,legacy,Kafkaesque Koffka,3.2.8,0,h,NA,NA,s,NA,h,520,NA,NA,52354,NA,520,2,legacy,1024,2,48000,-16,experiment,SSHSS,2,even,55611,NA,NA,114030,111706,3209,NA,NA,115155,NA,3247,NA,115270,115792,115143,115270,Flanker Task,32,17831,34,yes,1024
94.28571429,94.28571429,523.2857143,523.2857143,black,legacy,legacy,legacy,0,incongruent,uniform,1,undefined,1,s,0,0,0,34,34,0,34,0,34,0,0,0,34,34,34,34,Thu Sep 19 16:32:56 2019,1500,The main experiment item,yes,CB-FlankerTask-Lab1.2.osexp,/Users/cristianbotello/Desktop/Advanced Quant,no,mono,no,18,no,white,no,no,768,legacy,34,34,/Users/cristianbotello/Desktop/Advanced Quant/CB-subject-2.csv,legacy,Kafkaesque Koffka,3.2.8,0,s,NA,NA,s,NA,s,484,NA,NA,52354,NA,484,2,legacy,1024,2,48000,-16,experiment,HHSHH,2,even,55611,NA,NA,115806,111706,3209,NA,NA,116907,NA,3247,NA,117022,117508,116895,117021,Flanker Task,33,18315,35,yes,1024
94.44444444,94.44444444,522.4444444,522.4444444,black,legacy,legacy,legacy,0,incongruent,uniform,1,undefined,1,h,0,0,0,35,35,0,35,0,35,0,0,0,35,35,35,35,Thu Sep 19 16:32:56 2019,1500,The main experiment item,yes,CB-FlankerTask-Lab1.2.osexp,/Users/cristianbotello/Desktop/Advanced Quant,no,mono,no,18,no,white,no,no,768,legacy,35,35,/Users/cristianbotello/Desktop/Advanced Quant/CB-subject-2.csv,legacy,Kafkaesque Koffka,3.2.8,0,h,NA,NA,s,NA,h,493,NA,NA,52354,NA,493,2,legacy,1024,2,48000,-16,experiment,SSHSS,2,even,55611,NA,NA,117534,111706,3209,NA,NA,118655,NA,3247,NA,118770,119264,118643,118770,Flanker Task,34,18808,36,yes,1024
94.59459459,94.59459459,521.4864865,521.4864865,black,legacy,legacy,legacy,0,congruent,uniform,1,undefined,1,s,0,0,0,36,36,0,36,0,36,0,0,0,36,36,36,36,Thu Sep 19 16:32:56 2019,1500,The main experiment item,yes,CB-FlankerTask-Lab1.2.osexp,/Users/cristianbotello/Desktop/Advanced Quant,no,mono,no,18,no,white,no,no,768,legacy,36,36,/Users/cristianbotello/Desktop/Advanced Quant/CB-subject-2.csv,legacy,Kafkaesque Koffka,3.2.8,0,s,NA,NA,s,NA,s,487,NA,NA,52354,NA,487,2,legacy,1024,2,48000,-16,experiment,SSSSS,2,even,55611,NA,NA,119284,111706,3209,NA,NA,120384,NA,3247,NA,120500,120989,120372,120500,Flanker Task,35,19295,37,yes,1024
94.73684211,94.73684211,520.6315789,520.6315789,black,legacy,legacy,legacy,0,congruent,uniform,1,undefined,1,s,0,0,0,37,37,0,37,0,37,0,0,0,37,37,37,37,Thu Sep 19 16:32:56 2019,1500,The main experiment item,yes,CB-FlankerTask-Lab1.2.osexp,/Users/cristianbotello/Desktop/Advanced Quant,no,mono,no,18,no,white,no,no,768,legacy,37,37,/Users/cristianbotello/Desktop/Advanced Quant/CB-subject-2.csv,legacy,Kafkaesque Koffka,3.2.8,0,s,NA,NA,s,NA,s,489,NA,NA,52354,NA,489,2,legacy,1024,2,48000,-16,experiment,SSSSS,2,even,55611,NA,NA,121004,111706,3209,NA,NA,122120,NA,3247,NA,122235,122726,122108,122235,Flanker Task,36,19784,38,yes,1024
94.87179487,94.87179487,517.6153846,517.6153846,black,legacy,legacy,legacy,0,incongruent,uniform,1,undefined,1,h,0,0,0,38,38,0,38,0,38,0,0,0,38,38,38,38,Thu Sep 19 16:32:56 2019,1500,The main experiment item,yes,CB-FlankerTask-Lab1.2.osexp,/Users/cristianbotello/Desktop/Advanced Quant,no,mono,no,18,no,white,no,no,768,legacy,38,38,/Users/cristianbotello/Desktop/Advanced Quant/CB-subject-2.csv,legacy,Kafkaesque Koffka,3.2.8,0,h,NA,NA,s,NA,h,403,NA,NA,52354,NA,403,2,legacy,1024,2,48000,-16,experiment,SSHSS,2,even,55611,NA,NA,122741,111706,3209,NA,NA,123841,NA,3247,NA,123956,124361,123829,123956,Flanker Task,37,20187,39,yes,1024
95,95,514.4,514.4,black,legacy,legacy,legacy,0,congruent,uniform,1,undefined,1,s,0,0,0,39,39,0,39,0,39,0,0,0,39,39,39,39,Thu Sep 19 16:32:56 2019,1500,The main experiment item,yes,CB-FlankerTask-Lab1.2.osexp,/Users/cristianbotello/Desktop/Advanced Quant,no,mono,no,18,no,white,no,no,768,legacy,39,39,/Users/cristianbotello/Desktop/Advanced Quant/CB-subject-2.csv,legacy,Kafkaesque Koffka,3.2.8,0,s,NA,NA,s,NA,s,389,NA,NA,52354,NA,389,2,legacy,1024,2,48000,-16,experiment,SSSSS,2,even,55611,NA,NA,124385,111706,3209,NA,NA,125513,NA,3247,NA,125629,126020,125501,125629,Flanker Task,38,20576,40,yes,1024
95.12195122,95.12195122,525.5365854,525.5365854,black,legacy,legacy,legacy,0,incongruent,uniform,1,undefined,1,s,0,0,0,40,40,0,40,0,40,0,0,0,40,40,40,40,Thu Sep 19 16:32:56 2019,1500,The main experiment item,yes,CB-FlankerTask-Lab1.2.osexp,/Users/cristianbotello/Desktop/Advanced Quant,no,mono,no,18,no,white,no,no,768,legacy,40,40,/Users/cristianbotello/Desktop/Advanced Quant/CB-subject-2.csv,legacy,Kafkaesque Koffka,3.2.8,0,s,NA,NA,s,NA,s,971,NA,NA,52354,NA,971,2,legacy,1024,2,48000,-16,experiment,HHSHH,2,even,55611,NA,NA,126035,111706,3209,NA,NA,127135,NA,3247,NA,127249,128222,127123,127249,Flanker Task,39,21547,41,yes,1024
95.23809524,95.23809524,523.6428571,523.6428571,black,legacy,legacy,legacy,0,congruent,uniform,1,undefined,1,s,0,0,0,41,41,0,41,0,41,0,0,0,41,41,41,41,Thu Sep 19 16:32:56 2019,1500,The main experiment item,yes,CB-FlankerTask-Lab1.2.osexp,/Users/cristianbotello/Desktop/Advanced Quant,no,mono,no,18,no,white,no,no,768,legacy,41,41,/Users/cristianbotello/Desktop/Advanced Quant/CB-subject-2.csv,legacy,Kafkaesque Koffka,3.2.8,0,s,NA,NA,s,NA,s,446,NA,NA,52354,NA,446,2,legacy,1024,2,48000,-16,experiment,SSSSS,2,even,55611,NA,NA,128238,111706,3209,NA,NA,129358,NA,3247,NA,129472,129920,129346,129472,Flanker Task,40,21993,42,yes,1024
95.34883721,95.34883721,521.6976744,521.6976744,black,legacy,legacy,legacy,0,congruent,uniform,1,undefined,1,s,0,0,0,42,42,0,42,0,42,0,0,0,42,42,42,42,Thu Sep 19 16:32:56 2019,1500,The main experiment item,yes,CB-FlankerTask-Lab1.2.osexp,/Users/cristianbotello/Desktop/Advanced Quant,no,mono,no,18,no,white,no,no,768,legacy,42,42,/Users/cristianbotello/Desktop/Advanced Quant/CB-subject-2.csv,legacy,Kafkaesque Koffka,3.2.8,0,s,NA,NA,s,NA,s,440,NA,NA,52354,NA,440,2,legacy,1024,2,48000,-16,experiment,SSSSS,2,even,55611,NA,NA,129935,111706,3209,NA,NA,131033,NA,3247,NA,131148,131590,131021,131148,Flanker Task,41,22433,43,yes,1024
95.45454545,95.45454545,520.2045455,520.2045455,black,legacy,legacy,legacy,0,congruent,uniform,1,undefined,1,h,0,0,0,43,43,0,43,0,43,0,0,0,43,43,43,43,Thu Sep 19 16:32:56 2019,1500,The main experiment item,yes,CB-FlankerTask-Lab1.2.osexp,/Users/cristianbotello/Desktop/Advanced Quant,no,mono,no,18,no,white,no,no,768,legacy,43,43,/Users/cristianbotello/Desktop/Advanced Quant/CB-subject-2.csv,legacy,Kafkaesque Koffka,3.2.8,0,h,NA,NA,s,NA,h,456,NA,NA,52354,NA,456,2,legacy,1024,2,48000,-16,experiment,HHHHH,2,even,55611,NA,NA,131607,111706,3209,NA,NA,132730,NA,3247,NA,132845,133303,132719,132845,Flanker Task,42,22889,44,yes,1024
95.55555556,95.55555556,517.6888889,517.6888889,black,legacy,legacy,legacy,0,incongruent,uniform,1,undefined,1,h,0,0,0,44,44,0,44,0,44,0,0,0,44,44,44,44,Thu Sep 19 16:32:56 2019,1500,The main experiment item,yes,CB-FlankerTask-Lab1.2.osexp,/Users/cristianbotello/Desktop/Advanced Quant,no,mono,no,18,no,white,no,no,768,legacy,44,44,/Users/cristianbotello/Desktop/Advanced Quant/CB-subject-2.csv,legacy,Kafkaesque Koffka,3.2.8,0,h,NA,NA,s,NA,h,407,NA,NA,52354,NA,407,2,legacy,1024,2,48000,-16,experiment,SSHSS,2,even,55611,NA,NA,133318,111706,3209,NA,NA,134421,NA,3247,NA,134536,134946,134409,134536,Flanker Task,43,23296,45,yes,1024
95.65217391,95.65217391,517.7391304,517.7391304,black,legacy,legacy,legacy,0,congruent,uniform,1,undefined,1,s,0,0,0,45,45,0,45,0,45,0,0,0,45,45,45,45,Thu Sep 19 16:32:56 2019,1500,The main experiment item,yes,CB-FlankerTask-Lab1.2.osexp,/Users/cristianbotello/Desktop/Advanced Quant,no,mono,no,18,no,white,no,no,768,legacy,45,45,/Users/cristianbotello/Desktop/Advanced Quant/CB-subject-2.csv,legacy,Kafkaesque Koffka,3.2.8,0,s,NA,NA,s,NA,s,520,NA,NA,52354,NA,520,2,legacy,1024,2,48000,-16,experiment,SSSSS,2,even,55611,NA,NA,134970,111706,3209,NA,NA,136085,NA,3247,NA,136200,136722,136073,136200,Flanker Task,44,23816,46,yes,1024
95.74468085,95.74468085,517.1489362,517.1489362,black,legacy,legacy,legacy,0,congruent,uniform,1,undefined,1,s,0,0,0,46,46,0,46,0,46,0,0,0,46,46,46,46,Thu Sep 19 16:32:56 2019,1500,The main experiment item,yes,CB-FlankerTask-Lab1.2.osexp,/Users/cristianbotello/Desktop/Advanced Quant,no,mono,no,18,no,white,no,no,768,legacy,46,46,/Users/cristianbotello/Desktop/Advanced Quant/CB-subject-2.csv,legacy,Kafkaesque Koffka,3.2.8,0,s,NA,NA,s,NA,s,490,NA,NA,52354,NA,490,2,legacy,1024,2,48000,-16,experiment,SSSSS,2,even,55611,NA,NA,136736,111706,3209,NA,NA,137836,NA,3247,NA,137952,138444,137824,137952,Flanker Task,45,24306,47,yes,1024
95.83333333,95.83333333,514.7083333,514.7083333,black,legacy,legacy,legacy,0,congruent,uniform,1,undefined,1,s,0,0,0,47,47,0,47,0,47,0,0,0,47,47,47,47,Thu Sep 19 16:32:56 2019,1500,The main experiment item,yes,CB-FlankerTask-Lab1.2.osexp,/Users/cristianbotello/Desktop/Advanced Quant,no,mono,no,18,no,white,no,no,768,legacy,47,47,/Users/cristianbotello/Desktop/Advanced Quant/CB-subject-2.csv,legacy,Kafkaesque Koffka,3.2.8,0,s,NA,NA,s,NA,s,400,NA,NA,52354,NA,400,2,legacy,1024,2,48000,-16,experiment,SSSSS,2,even,55611,NA,NA,138462,111706,3209,NA,NA,139590,NA,3247,NA,139705,140107,139578,139705,Flanker Task,46,24706,48,yes,1024
95.91836735,95.91836735,512.6530612,512.6530612,black,legacy,legacy,legacy,0,incongruent,uniform,1,undefined,1,s,0,0,0,48,48,0,48,0,48,0,0,0,48,48,48,48,Thu Sep 19 16:32:56 2019,1500,The main experiment item,yes,CB-FlankerTask-Lab1.2.osexp,/Users/cristianbotello/Desktop/Advanced Quant,no,mono,no,18,no,white,no,no,768,legacy,48,48,/Users/cristianbotello/Desktop/Advanced Quant/CB-subject-2.csv,legacy,Kafkaesque Koffka,3.2.8,0,s,NA,NA,s,NA,s,414,NA,NA,52354,NA,414,2,legacy,1024,2,48000,-16,experiment,HHSHH,2,even,55611,NA,NA,140121,111706,3209,NA,NA,141221,NA,3247,NA,141337,141753,141210,141337,Flanker Task,47,25120,49,yes,1024
94,94,510.66,510.66,black,legacy,legacy,legacy,0,incongruent,uniform,0,undefined,0,s,0,0,0,49,49,0,49,0,49,0,0,0,49,49,49,49,Thu Sep 19 16:32:56 2019,1500,The main experiment item,yes,CB-FlankerTask-Lab1.2.osexp,/Users/cristianbotello/Desktop/Advanced Quant,no,mono,no,18,no,white,no,no,768,legacy,49,49,/Users/cristianbotello/Desktop/Advanced Quant/CB-subject-2.csv,legacy,Kafkaesque Koffka,3.2.8,0,h,NA,NA,s,NA,h,413,NA,NA,52354,NA,413,2,legacy,1024,2,48000,-16,experiment,HHSHH,2,even,55611,NA,NA,141779,111706,3209,NA,NA,142901,NA,3247,NA,143016,143431,142890,143016,Flanker Task,47,25533,50,yes,1024
94.11764706,94.11764706,513,513,black,legacy,legacy,legacy,0,congruent,uniform,1,undefined,1,h,0,0,0,50,50,0,50,0,50,0,0,0,50,50,50,50,Thu Sep 19 16:32:56 2019,1500,The main experiment item,yes,CB-FlankerTask-Lab1.2.osexp,/Users/cristianbotello/Desktop/Advanced Quant,no,mono,no,18,no,white,no,no,768,legacy,50,50,/Users/cristianbotello/Desktop/Advanced Quant/CB-subject-2.csv,legacy,Kafkaesque Koffka,3.2.8,0,h,NA,NA,s,NA,h,630,NA,NA,52354,NA,630,2,legacy,1024,2,48000,-16,experiment,HHHHH,2,even,55611,NA,NA,143956,143445,3209,NA,NA,145054,NA,3247,NA,145169,145802,145041,145168,Flanker Task,48,26163,51,yes,1024
94.23076923,94.23076923,512.8653846,512.8653846,black,legacy,legacy,legacy,0,congruent,uniform,1,undefined,1,s,0,0,0,51,51,0,51,0,51,0,0,0,51,51,51,51,Thu Sep 19 16:32:56 2019,1500,The main experiment item,yes,CB-FlankerTask-Lab1.2.osexp,/Users/cristianbotello/Desktop/Advanced Quant,no,mono,no,18,no,white,no,no,768,legacy,51,51,/Users/cristianbotello/Desktop/Advanced Quant/CB-subject-2.csv,legacy,Kafkaesque Koffka,3.2.8,0,s,NA,NA,s,NA,s,506,NA,NA,52354,NA,506,2,legacy,1024,2,48000,-16,experiment,SSSSS,2,even,55611,NA,NA,145817,143445,3209,NA,NA,146918,NA,3247,NA,147030,147538,146905,147030,Flanker Task,49,26669,52,yes,1024
94.33962264,94.33962264,510.9056604,510.9056604,black,legacy,legacy,legacy,0,congruent,uniform,1,undefined,1,s,0,0,0,52,52,0,52,0,52,0,0,0,52,52,52,52,Thu Sep 19 16:32:56 2019,1500,The main experiment item,yes,CB-FlankerTask-Lab1.2.osexp,/Users/cristianbotello/Desktop/Advanced Quant,no,mono,no,18,no,white,no,no,768,legacy,52,52,/Users/cristianbotello/Desktop/Advanced Quant/CB-subject-2.csv,legacy,Kafkaesque Koffka,3.2.8,0,s,NA,NA,s,NA,s,409,NA,NA,52354,NA,409,2,legacy,1024,2,48000,-16,experiment,SSSSS,2,even,55611,NA,NA,147552,143445,3209,NA,NA,148652,NA,3247,NA,148767,149179,148640,148767,Flanker Task,50,27078,53,yes,1024
94.44444444,94.44444444,509.462963,509.462963,black,legacy,legacy,legacy,0,incongruent,uniform,1,undefined,1,s,0,0,0,53,53,0,53,0,53,0,0,0,53,53,53,53,Thu Sep 19 16:32:56 2019,1500,The main experiment item,yes,CB-FlankerTask-Lab1.2.osexp,/Users/cristianbotello/Desktop/Advanced Quant,no,mono,no,18,no,white,no,no,768,legacy,53,53,/Users/cristianbotello/Desktop/Advanced Quant/CB-subject-2.csv,legacy,Kafkaesque Koffka,3.2.8,0,s,NA,NA,s,NA,s,433,NA,NA,52354,NA,433,2,legacy,1024,2,48000,-16,experiment,HHSHH,2,even,55611,NA,NA,149199,143445,3209,NA,NA,150319,NA,3247,NA,150435,150870,150307,150435,Flanker Task,51,27511,54,yes,1024
94.54545455,94.54545455,509.1818182,509.1818182,black,legacy,legacy,legacy,0,congruent,uniform,1,undefined,1,h,0,0,0,54,54,0,54,0,54,0,0,0,54,54,54,54,Thu Sep 19 16:32:56 2019,1500,The main experiment item,yes,CB-FlankerTask-Lab1.2.osexp,/Users/cristianbotello/Desktop/Advanced Quant,no,mono,no,18,no,white,no,no,768,legacy,54,54,/Users/cristianbotello/Desktop/Advanced Quant/CB-subject-2.csv,legacy,Kafkaesque Koffka,3.2.8,0,h,NA,NA,s,NA,h,494,NA,NA,52354,NA,494,2,legacy,1024,2,48000,-16,experiment,HHHHH,2,even,55611,NA,NA,150885,143445,3209,NA,NA,151985,NA,3247,NA,152100,152597,151973,152100,Flanker Task,52,28005,55,yes,1024
94.64285714,94.64285714,508.1785714,508.1785714,black,legacy,legacy,legacy,0,incongruent,uniform,1,undefined,1,s,0,0,0,55,55,0,55,0,55,0,0,0,55,55,55,55,Thu Sep 19 16:32:56 2019,1500,The main experiment item,yes,CB-FlankerTask-Lab1.2.osexp,/Users/cristianbotello/Desktop/Advanced Quant,no,mono,no,18,no,white,no,no,768,legacy,55,55,/Users/cristianbotello/Desktop/Advanced Quant/CB-subject-2.csv,legacy,Kafkaesque Koffka,3.2.8,0,s,NA,NA,s,NA,s,453,NA,NA,52354,NA,453,2,legacy,1024,2,48000,-16,experiment,HHSHH,2,even,55611,NA,NA,152613,143445,3209,NA,NA,153729,NA,3247,NA,153844,154299,153718,153844,Flanker Task,53,28458,56,yes,1024
94.73684211,94.73684211,508.6666667,508.6666667,black,legacy,legacy,legacy,0,congruent,uniform,1,undefined,1,h,0,0,0,56,56,0,56,0,56,0,0,0,56,56,56,56,Thu Sep 19 16:32:56 2019,1500,The main experiment item,yes,CB-FlankerTask-Lab1.2.osexp,/Users/cristianbotello/Desktop/Advanced Quant,no,mono,no,18,no,white,no,no,768,legacy,56,56,/Users/cristianbotello/Desktop/Advanced Quant/CB-subject-2.csv,legacy,Kafkaesque Koffka,3.2.8,0,h,NA,NA,s,NA,h,536,NA,NA,52354,NA,536,2,legacy,1024,2,48000,-16,experiment,HHHHH,2,even,55611,NA,NA,154314,143445,3209,NA,NA,155415,NA,3247,NA,155527,156066,155403,155526,Flanker Task,54,28994,57,yes,1024
94.82758621,94.82758621,510.2758621,510.2758621,black,legacy,legacy,legacy,0,incongruent,uniform,1,undefined,1,s,0,0,0,57,57,0,57,0,57,0,0,0,57,57,57,57,Thu Sep 19 16:32:56 2019,1500,The main experiment item,yes,CB-FlankerTask-Lab1.2.osexp,/Users/cristianbotello/Desktop/Advanced Quant,no,mono,no,18,no,white,no,no,768,legacy,57,57,/Users/cristianbotello/Desktop/Advanced Quant/CB-subject-2.csv,legacy,Kafkaesque Koffka,3.2.8,0,s,NA,NA,s,NA,s,602,NA,NA,52354,NA,602,2,legacy,1024,2,48000,-16,experiment,HHSHH,2,even,55611,NA,NA,156091,143445,3209,NA,NA,157214,NA,3247,NA,157329,157933,157202,157329,Flanker Task,55,29596,58,yes,1024
94.91525424,94.91525424,512.0677966,512.0677966,black,legacy,legacy,legacy,0,incongruent,uniform,1,undefined,1,s,0,0,0,58,58,0,58,0,58,0,0,0,58,58,58,58,Thu Sep 19 16:32:56 2019,1500,The main experiment item,yes,CB-FlankerTask-Lab1.2.osexp,/Users/cristianbotello/Desktop/Advanced Quant,no,mono,no,18,no,white,no,no,768,legacy,58,58,/Users/cristianbotello/Desktop/Advanced Quant/CB-subject-2.csv,legacy,Kafkaesque Koffka,3.2.8,0,s,NA,NA,s,NA,s,616,NA,NA,52354,NA,616,2,legacy,1024,2,48000,-16,experiment,HHSHH,2,even,55611,NA,NA,157948,143445,3209,NA,NA,159048,NA,3247,NA,159163,159781,159036,159163,Flanker Task,56,30212,59,yes,1024
95,95,510.75,510.75,black,legacy,legacy,legacy,0,incongruent,uniform,1,undefined,1,s,0,0,0,59,59,0,59,0,59,0,0,0,59,59,59,59,Thu Sep 19 16:32:56 2019,1500,The main experiment item,yes,CB-FlankerTask-Lab1.2.osexp,/Users/cristianbotello/Desktop/Advanced Quant,no,mono,no,18,no,white,no,no,768,legacy,59,59,/Users/cristianbotello/Desktop/Advanced Quant/CB-subject-2.csv,legacy,Kafkaesque Koffka,3.2.8,0,s,NA,NA,s,NA,s,433,NA,NA,52354,NA,433,2,legacy,1024,2,48000,-16,experiment,HHSHH,2,even,55611,NA,NA,159797,143445,3209,NA,NA,160921,NA,3247,NA,161032,161467,160909,161032,Flanker Task,57,30645,60,yes,1024
95.08196721,95.08196721,509.9016393,509.9016393,black,legacy,legacy,legacy,0,congruent,uniform,1,undefined,1,h,0,0,0,60,60,0,60,0,60,0,0,0,60,60,60,60,Thu Sep 19 16:32:56 2019,1500,The main experiment item,yes,CB-FlankerTask-Lab1.2.osexp,/Users/cristianbotello/Desktop/Advanced Quant,no,mono,no,18,no,white,no,no,768,legacy,60,60,/Users/cristianbotello/Desktop/Advanced Quant/CB-subject-2.csv,legacy,Kafkaesque Koffka,3.2.8,0,h,NA,NA,s,NA,h,459,NA,NA,52354,NA,459,2,legacy,1024,2,48000,-16,experiment,HHHHH,2,even,55611,NA,NA,161481,143445,3209,NA,NA,162582,NA,3247,NA,162697,163158,162570,162697,Flanker Task,58,31104,61,yes,1024
95.16129032,95.16129032,509.6612903,509.6612903,black,legacy,legacy,legacy,0,incongruent,uniform,1,undefined,1,s,0,0,0,61,61,0,61,0,61,0,0,0,61,61,61,61,Thu Sep 19 16:32:56 2019,1500,The main experiment item,yes,CB-FlankerTask-Lab1.2.osexp,/Users/cristianbotello/Desktop/Advanced Quant,no,mono,no,18,no,white,no,no,768,legacy,61,61,/Users/cristianbotello/Desktop/Advanced Quant/CB-subject-2.csv,legacy,Kafkaesque Koffka,3.2.8,0,s,NA,NA,s,NA,s,495,NA,NA,52354,NA,495,2,legacy,1024,2,48000,-16,experiment,HHSHH,2,even,55611,NA,NA,163175,143445,3209,NA,NA,164299,NA,3247,NA,164416,164913,164287,164415,Flanker Task,59,31599,62,yes,1024
95.23809524,95.23809524,510.1111111,510.1111111,black,legacy,legacy,legacy,0,congruent,uniform,1,undefined,1,h,0,0,0,62,62,0,62,0,62,0,0,0,62,62,62,62,Thu Sep 19 16:32:56 2019,1500,The main experiment item,yes,CB-FlankerTask-Lab1.2.osexp,/Users/cristianbotello/Desktop/Advanced Quant,no,mono,no,18,no,white,no,no,768,legacy,62,62,/Users/cristianbotello/Desktop/Advanced Quant/CB-subject-2.csv,legacy,Kafkaesque Koffka,3.2.8,0,h,NA,NA,s,NA,h,538,NA,NA,52354,NA,538,2,legacy,1024,2,48000,-16,experiment,HHHHH,2,even,55611,NA,NA,164928,143445,3209,NA,NA,166026,NA,3247,NA,166141,166682,166014,166141,Flanker Task,60,32137,63,yes,1024
95.3125,95.3125,508.90625,508.90625,black,legacy,legacy,legacy,0,congruent,uniform,1,undefined,1,s,0,0,0,63,63,0,63,0,63,0,0,0,63,63,63,63,Thu Sep 19 16:32:56 2019,1500,The main experiment item,yes,CB-FlankerTask-Lab1.2.osexp,/Users/cristianbotello/Desktop/Advanced Quant,no,mono,no,18,no,white,no,no,768,legacy,63,63,/Users/cristianbotello/Desktop/Advanced Quant/CB-subject-2.csv,legacy,Kafkaesque Koffka,3.2.8,0,s,NA,NA,s,NA,s,433,NA,NA,52354,NA,433,2,legacy,1024,2,48000,-16,experiment,SSSSS,2,even,55611,NA,NA,166699,143445,3209,NA,NA,167822,NA,3247,NA,167937,168372,167810,167937,Flanker Task,61,32570,64,yes,1024
95.38461538,95.38461538,507.4769231,507.4769231,black,legacy,legacy,legacy,0,incongruent,uniform,1,undefined,1,h,0,0,0,64,64,0,64,0,64,0,0,0,64,64,64,64,Thu Sep 19 16:32:56 2019,1500,The main experiment item,yes,CB-FlankerTask-Lab1.2.osexp,/Users/cristianbotello/Desktop/Advanced Quant,no,mono,no,18,no,white,no,no,768,legacy,64,64,/Users/cristianbotello/Desktop/Advanced Quant/CB-subject-2.csv,legacy,Kafkaesque Koffka,3.2.8,0,h,NA,NA,s,NA,h,416,NA,NA,52354,NA,416,2,legacy,1024,2,48000,-16,experiment,SSHSS,2,even,55611,NA,NA,168387,143445,3209,NA,NA,169488,NA,3247,NA,169603,170021,169476,169603,Flanker Task,62,32986,65,yes,1024
95.45454545,95.45454545,507.6969697,507.6969697,black,legacy,legacy,legacy,0,congruent,uniform,1,undefined,1,h,0,0,0,65,65,0,65,0,65,0,0,0,65,65,65,65,Thu Sep 19 16:32:56 2019,1500,The main experiment item,yes,CB-FlankerTask-Lab1.2.osexp,/Users/cristianbotello/Desktop/Advanced Quant,no,mono,no,18,no,white,no,no,768,legacy,65,65,/Users/cristianbotello/Desktop/Advanced Quant/CB-subject-2.csv,legacy,Kafkaesque Koffka,3.2.8,0,h,NA,NA,s,NA,h,522,NA,NA,52354,NA,522,2,legacy,1024,2,48000,-16,experiment,HHHHH,2,even,55611,NA,NA,170043,143445,3209,NA,NA,171157,NA,3247,NA,171272,171796,171145,171272,Flanker Task,63,33508,66,yes,1024
95.52238806,95.52238806,507.1791045,507.1791045,black,legacy,legacy,legacy,0,incongruent,uniform,1,undefined,1,h,0,0,0,66,66,0,66,0,66,0,0,0,66,66,66,66,Thu Sep 19 16:32:56 2019,1500,The main experiment item,yes,CB-FlankerTask-Lab1.2.osexp,/Users/cristianbotello/Desktop/Advanced Quant,no,mono,no,18,no,white,no,no,768,legacy,66,66,/Users/cristianbotello/Desktop/Advanced Quant/CB-subject-2.csv,legacy,Kafkaesque Koffka,3.2.8,0,h,NA,NA,s,NA,h,473,NA,NA,52354,NA,473,2,legacy,1024,2,48000,-16,experiment,SSHSS,2,even,55611,NA,NA,171810,143445,3209,NA,NA,172910,NA,3247,NA,173021,173497,172898,173021,Flanker Task,64,33981,67,yes,1024
95.58823529,95.58823529,506.0294118,506.0294118,black,legacy,legacy,legacy,0,congruent,uniform,1,undefined,1,h,0,0,0,67,67,0,67,0,67,0,0,0,67,67,67,67,Thu Sep 19 16:32:56 2019,1500,The main experiment item,yes,CB-FlankerTask-Lab1.2.osexp,/Users/cristianbotello/Desktop/Advanced Quant,no,mono,no,18,no,white,no,no,768,legacy,67,67,/Users/cristianbotello/Desktop/Advanced Quant/CB-subject-2.csv,legacy,Kafkaesque Koffka,3.2.8,0,h,NA,NA,s,NA,h,429,NA,NA,52354,NA,429,2,legacy,1024,2,48000,-16,experiment,HHHHH,2,even,55611,NA,NA,173515,143445,3209,NA,NA,174634,NA,3247,NA,174749,175181,174622,174749,Flanker Task,65,34410,68,yes,1024
95.65217391,95.65217391,504.9710145,504.9710145,black,legacy,legacy,legacy,0,congruent,uniform,1,undefined,1,h,0,0,0,68,68,0,68,0,68,0,0,0,68,68,68,68,Thu Sep 19 16:32:56 2019,1500,The main experiment item,yes,CB-FlankerTask-Lab1.2.osexp,/Users/cristianbotello/Desktop/Advanced Quant,no,mono,no,18,no,white,no,no,768,legacy,68,68,/Users/cristianbotello/Desktop/Advanced Quant/CB-subject-2.csv,legacy,Kafkaesque Koffka,3.2.8,0,h,NA,NA,s,NA,h,433,NA,NA,52354,NA,433,2,legacy,1024,2,48000,-16,experiment,HHHHH,2,even,55611,NA,NA,175195,143445,3209,NA,NA,176295,NA,3247,NA,176410,176846,176283,176410,Flanker Task,66,34843,69,yes,1024
95.71428571,95.71428571,503.8714286,503.8714286,black,legacy,legacy,legacy,0,congruent,uniform,1,undefined,1,h,0,0,0,69,69,0,69,0,69,0,0,0,69,69,69,69,Thu Sep 19 16:32:56 2019,1500,The main experiment item,yes,CB-FlankerTask-Lab1.2.osexp,/Users/cristianbotello/Desktop/Advanced Quant,no,mono,no,18,no,white,no,no,768,legacy,69,69,/Users/cristianbotello/Desktop/Advanced Quant/CB-subject-2.csv,legacy,Kafkaesque Koffka,3.2.8,0,h,NA,NA,s,NA,h,428,NA,NA,52354,NA,428,2,legacy,1024,2,48000,-16,experiment,HHHHH,2,even,55611,NA,NA,176863,143445,3209,NA,NA,177986,NA,3247,NA,178097,178527,177974,178097,Flanker Task,67,35271,70,yes,1024
95.77464789,95.77464789,502.6056338,502.6056338,black,legacy,legacy,legacy,0,congruent,uniform,1,undefined,1,h,0,0,0,70,70,0,70,0,70,0,0,0,70,70,70,70,Thu Sep 19 16:32:56 2019,1500,The main experiment item,yes,CB-FlankerTask-Lab1.2.osexp,/Users/cristianbotello/Desktop/Advanced Quant,no,mono,no,18,no,white,no,no,768,legacy,70,70,/Users/cristianbotello/Desktop/Advanced Quant/CB-subject-2.csv,legacy,Kafkaesque Koffka,3.2.8,0,h,NA,NA,s,NA,h,414,NA,NA,52354,NA,414,2,legacy,1024,2,48000,-16,experiment,HHHHH,2,even,55611,NA,NA,178546,143445,3209,NA,NA,179647,NA,3247,NA,179759,180176,179635,179759,Flanker Task,68,35685,71,yes,1024
95.83333333,95.83333333,501.6666667,501.6666667,black,legacy,legacy,legacy,0,congruent,uniform,1,undefined,1,h,0,0,0,71,71,0,71,0,71,0,0,0,71,71,71,71,Thu Sep 19 16:32:56 2019,1500,The main experiment item,yes,CB-FlankerTask-Lab1.2.osexp,/Users/cristianbotello/Desktop/Advanced Quant,no,mono,no,18,no,white,no,no,768,legacy,71,71,/Users/cristianbotello/Desktop/Advanced Quant/CB-subject-2.csv,legacy,Kafkaesque Koffka,3.2.8,0,h,NA,NA,s,NA,h,435,NA,NA,52354,NA,435,2,legacy,1024,2,48000,-16,experiment,HHHHH,2,even,55611,NA,NA,180192,143445,3209,NA,NA,181316,NA,3247,NA,181431,181868,181304,181431,Flanker Task,69,36120,72,yes,1024
95.89041096,95.89041096,500.3013699,500.3013699,black,legacy,legacy,legacy,0,congruent,uniform,1,undefined,1,h,0,0,0,72,72,0,72,0,72,0,0,0,72,72,72,72,Thu Sep 19 16:32:56 2019,1500,The main experiment item,yes,CB-FlankerTask-Lab1.2.osexp,/Users/cristianbotello/Desktop/Advanced Quant,no,mono,no,18,no,white,no,no,768,legacy,72,72,/Users/cristianbotello/Desktop/Advanced Quant/CB-subject-2.csv,legacy,Kafkaesque Koffka,3.2.8,0,h,NA,NA,s,NA,h,402,NA,NA,52354,NA,402,2,legacy,1024,2,48000,-16,experiment,HHHHH,2,even,55611,NA,NA,181883,143445,3209,NA,NA,182983,NA,3247,NA,183098,183503,182972,183097,Flanker Task,70,36522,73,yes,1024
95.94594595,95.94594595,499.8513514,499.8513514,black,legacy,legacy,legacy,0,incongruent,uniform,1,undefined,1,s,0,0,0,73,73,0,73,0,73,0,0,0,73,73,73,73,Thu Sep 19 16:32:56 2019,1500,The main experiment item,yes,CB-FlankerTask-Lab1.2.osexp,/Users/cristianbotello/Desktop/Advanced Quant,no,mono,no,18,no,white,no,no,768,legacy,73,73,/Users/cristianbotello/Desktop/Advanced Quant/CB-subject-2.csv,legacy,Kafkaesque Koffka,3.2.8,0,s,NA,NA,s,NA,s,467,NA,NA,52354,NA,467,2,legacy,1024,2,48000,-16,experiment,HHSHH,2,even,55611,NA,NA,183520,143445,3209,NA,NA,184637,NA,3247,NA,184752,185221,184625,184752,Flanker Task,71,36989,74,yes,1024
96,96,501.2266667,501.2266667,black,legacy,legacy,legacy,0,congruent,uniform,1,undefined,1,s,0,0,0,74,74,0,74,0,74,0,0,0,74,74,74,74,Thu Sep 19 16:32:56 2019,1500,The main experiment item,yes,CB-FlankerTask-Lab1.2.osexp,/Users/cristianbotello/Desktop/Advanced Quant,no,mono,no,18,no,white,no,no,768,legacy,74,74,/Users/cristianbotello/Desktop/Advanced Quant/CB-subject-2.csv,legacy,Kafkaesque Koffka,3.2.8,0,s,NA,NA,s,NA,s,603,NA,NA,52354,NA,603,2,legacy,1024,2,48000,-16,experiment,SSSSS,2,even,55611,NA,NA,185236,143445,3209,NA,NA,186337,NA,3247,NA,186453,187059,186325,186452,Flanker Task,72,37592,75,yes,1024
96.05263158,96.05263158,500.9078947,500.9078947,black,legacy,legacy,legacy,0,incongruent,uniform,1,undefined,1,s,0,0,0,75,75,0,75,0,75,0,0,0,75,75,75,75,Thu Sep 19 16:32:56 2019,1500,The main experiment item,yes,CB-FlankerTask-Lab1.2.osexp,/Users/cristianbotello/Desktop/Advanced Quant,no,mono,no,18,no,white,no,no,768,legacy,75,75,/Users/cristianbotello/Desktop/Advanced Quant/CB-subject-2.csv,legacy,Kafkaesque Koffka,3.2.8,0,s,NA,NA,s,NA,s,477,NA,NA,52354,NA,477,2,legacy,1024,2,48000,-16,experiment,HHSHH,2,even,55611,NA,NA,187078,143445,3209,NA,NA,188202,NA,3247,NA,188317,188796,188190,188317,Flanker Task,73,38069,76,yes,1024
94.80519481,94.80519481,499.7012987,499.7012987,black,legacy,legacy,legacy,0,incongruent,uniform,0,undefined,0,s,0,0,0,76,76,0,76,0,76,0,0,0,76,76,76,76,Thu Sep 19 16:32:56 2019,1500,The main experiment item,yes,CB-FlankerTask-Lab1.2.osexp,/Users/cristianbotello/Desktop/Advanced Quant,no,mono,no,18,no,white,no,no,768,legacy,76,76,/Users/cristianbotello/Desktop/Advanced Quant/CB-subject-2.csv,legacy,Kafkaesque Koffka,3.2.8,0,h,NA,NA,s,NA,h,408,NA,NA,52354,NA,408,2,legacy,1024,2,48000,-16,experiment,HHSHH,2,even,55611,NA,NA,188811,143445,3209,NA,NA,189913,NA,3247,NA,190027,190437,189900,190027,Flanker Task,73,38477,77,yes,1024
94.87179487,94.87179487,497.1538462,497.1538462,black,legacy,legacy,legacy,0,incongruent,uniform,1,undefined,1,s,0,0,0,77,77,0,77,0,77,0,0,0,77,77,77,77,Thu Sep 19 16:32:56 2019,1500,The main experiment item,yes,CB-FlankerTask-Lab1.2.osexp,/Users/cristianbotello/Desktop/Advanced Quant,no,mono,no,18,no,white,no,no,768,legacy,77,77,/Users/cristianbotello/Desktop/Advanced Quant/CB-subject-2.csv,legacy,Kafkaesque Koffka,3.2.8,0,s,NA,NA,s,NA,s,301,NA,NA,52354,NA,301,2,legacy,1024,2,48000,-16,experiment,HHSHH,2,even,55611,NA,NA,190973,190460,3209,NA,NA,192073,NA,3247,NA,192188,192492,192061,192188,Flanker Task,74,38778,78,yes,1024
94.93670886,94.93670886,497.7721519,497.7721519,black,legacy,legacy,legacy,0,incongruent,uniform,1,undefined,1,h,0,0,0,78,78,0,78,0,78,0,0,0,78,78,78,78,Thu Sep 19 16:32:56 2019,1500,The main experiment item,yes,CB-FlankerTask-Lab1.2.osexp,/Users/cristianbotello/Desktop/Advanced Quant,no,mono,no,18,no,white,no,no,768,legacy,78,78,/Users/cristianbotello/Desktop/Advanced Quant/CB-subject-2.csv,legacy,Kafkaesque Koffka,3.2.8,0,h,NA,NA,s,NA,h,546,NA,NA,52354,NA,546,2,legacy,1024,2,48000,-16,experiment,SSHSS,2,even,55611,NA,NA,192513,190460,3209,NA,NA,193638,NA,3247,NA,193753,194301,193626,193753,Flanker Task,75,39324,79,yes,1024
95,95,498,498,black,legacy,legacy,legacy,0,congruent,uniform,1,undefined,1,s,0,0,0,79,79,0,79,0,79,0,0,0,79,79,79,79,Thu Sep 19 16:32:56 2019,1500,The main experiment item,yes,CB-FlankerTask-Lab1.2.osexp,/Users/cristianbotello/Desktop/Advanced Quant,no,mono,no,18,no,white,no,no,768,legacy,79,79,/Users/cristianbotello/Desktop/Advanced Quant/CB-subject-2.csv,legacy,Kafkaesque Koffka,3.2.8,0,s,NA,NA,s,NA,s,516,NA,NA,52354,NA,516,2,legacy,1024,2,48000,-16,experiment,SSSSS,2,even,55611,NA,NA,194315,190460,3209,NA,NA,195416,NA,3247,NA,195528,196047,195404,195527,Flanker Task,76,39840,80,yes,1024
93.82716049,93.82716049,497.5432099,497.5432099,black,legacy,legacy,legacy,0,incongruent,uniform,0,undefined,0,s,0,0,0,80,80,0,80,0,80,0,0,0,80,80,80,80,Thu Sep 19 16:32:56 2019,600,The main experiment item,yes,CB-FlankerTask-Lab1.2.osexp,/Users/cristianbotello/Desktop/Advanced Quant,no,mono,no,18,no,white,no,no,768,legacy,0,79,/Users/cristianbotello/Desktop/Advanced Quant/CB-subject-2.csv,legacy,Kafkaesque Koffka,3.2.8,0,h,NA,h,s,NA,h,461,NA,12705,52354,NA,461,2,legacy,1024,2,48000,-16,experiment,HHSHH,2,even,55611,209809,NA,196063,190460,3209,NA,NA,209906,197100,3247,NA,210021,210485,209894,210020,Flanker Task,76,40301,81,yes,1024
93.90243902,93.90243902,497.0731707,497.0731707,black,legacy,legacy,legacy,0,incongruent,uniform,1,undefined,1,h,0,0,0,81,81,0,81,0,81,0,0,0,81,81,81,81,Thu Sep 19 16:32:56 2019,600,The main experiment item,yes,CB-FlankerTask-Lab1.2.osexp,/Users/cristianbotello/Desktop/Advanced Quant,no,mono,no,18,no,white,no,no,768,legacy,1,79,/Users/cristianbotello/Desktop/Advanced Quant/CB-subject-2.csv,legacy,Kafkaesque Koffka,3.2.8,0,h,NA,h,s,NA,h,459,NA,12705,52354,NA,459,2,legacy,1024,2,48000,-16,experiment,SSHSS,2,even,55611,209809,NA,211020,210507,3209,NA,NA,212122,197100,3247,NA,212237,212699,212110,212237,Flanker Task,77,40760,82,yes,1024
93.97590361,93.97590361,496.3614458,496.3614458,black,legacy,legacy,legacy,0,congruent,uniform,1,undefined,1,h,0,0,0,82,82,0,82,0,82,0,0,0,82,82,82,82,Thu Sep 19 16:32:56 2019,600,The main experiment item,yes,CB-FlankerTask-Lab1.2.osexp,/Users/cristianbotello/Desktop/Advanced Quant,no,mono,no,18,no,white,no,no,768,legacy,2,79,/Users/cristianbotello/Desktop/Advanced Quant/CB-subject-2.csv,legacy,Kafkaesque Koffka,3.2.8,0,h,NA,h,s,NA,h,438,NA,12705,52354,NA,438,2,legacy,1024,2,48000,-16,experiment,HHHHH,2,even,55611,209809,NA,212721,210507,3209,NA,NA,213843,197100,3247,NA,213958,214398,213831,213958,Flanker Task,78,41198,83,yes,1024
94.04761905,94.04761905,494.3809524,494.3809524,black,legacy,legacy,legacy,0,incongruent,uniform,1,undefined,1,s,0,0,0,83,83,0,83,0,83,0,0,0,83,83,83,83,Thu Sep 19 16:32:56 2019,600,The main experiment item,yes,CB-FlankerTask-Lab1.2.osexp,/Users/cristianbotello/Desktop/Advanced Quant,no,mono,no,18,no,white,no,no,768,legacy,3,79,/Users/cristianbotello/Desktop/Advanced Quant/CB-subject-2.csv,legacy,Kafkaesque Koffka,3.2.8,0,s,NA,h,s,NA,s,330,NA,12705,52354,NA,330,2,legacy,1024,2,48000,-16,experiment,HHSHH,2,even,55611,209809,NA,214413,210507,3209,NA,NA,215514,197100,3247,NA,215629,215962,215501,215629,Flanker Task,79,41528,84,yes,1024
94.11764706,94.11764706,493.7764706,493.7764706,black,legacy,legacy,legacy,0,congruent,uniform,1,undefined,1,s,0,0,0,84,84,0,84,0,84,0,0,0,84,84,84,84,Thu Sep 19 16:32:56 2019,600,The main experiment item,yes,CB-FlankerTask-Lab1.2.osexp,/Users/cristianbotello/Desktop/Advanced Quant,no,mono,no,18,no,white,no,no,768,legacy,4,79,/Users/cristianbotello/Desktop/Advanced Quant/CB-subject-2.csv,legacy,Kafkaesque Koffka,3.2.8,0,s,NA,h,s,NA,s,443,NA,12705,52354,NA,443,2,legacy,1024,2,48000,-16,experiment,SSSSS,2,even,55611,209809,NA,215980,210507,3209,NA,NA,217102,197100,3247,NA,217217,217662,217090,217217,Flanker Task,80,41971,85,yes,1024
94.18604651,94.18604651,493.1860465,493.1860465,black,legacy,legacy,legacy,0,incongruent,uniform,1,undefined,1,h,0,0,0,85,85,0,85,0,85,0,0,0,85,85,85,85,Thu Sep 19 16:32:56 2019,600,The main experiment item,yes,CB-FlankerTask-Lab1.2.osexp,/Users/cristianbotello/Desktop/Advanced Quant,no,mono,no,18,no,white,no,no,768,legacy,5,79,/Users/cristianbotello/Desktop/Advanced Quant/CB-subject-2.csv,legacy,Kafkaesque Koffka,3.2.8,0,h,NA,h,s,NA,h,443,NA,12705,52354,NA,443,2,legacy,1024,2,48000,-16,experiment,SSHSS,2,even,55611,209809,NA,217677,210507,3209,NA,NA,218777,197100,3247,NA,218892,219337,218765,218892,Flanker Task,81,42414,86,yes,1024
94.25287356,94.25287356,491.8850575,491.8850575,black,legacy,legacy,legacy,0,congruent,uniform,1,undefined,1,h,0,0,0,86,86,0,86,0,86,0,0,0,86,86,86,86,Thu Sep 19 16:32:56 2019,600,The main experiment item,yes,CB-FlankerTask-Lab1.2.osexp,/Users/cristianbotello/Desktop/Advanced Quant,no,mono,no,18,no,white,no,no,768,legacy,6,79,/Users/cristianbotello/Desktop/Advanced Quant/CB-subject-2.csv,legacy,Kafkaesque Koffka,3.2.8,0,h,NA,h,s,NA,h,380,NA,12705,52354,NA,380,2,legacy,1024,2,48000,-16,experiment,HHHHH,2,even,55611,209809,NA,219356,210507,3209,NA,NA,220479,197100,3247,NA,220592,220974,220468,220591,Flanker Task,82,42794,87,yes,1024
93.18181818,93.18181818,490.5340909,490.5340909,black,legacy,legacy,legacy,0,incongruent,uniform,0,undefined,0,h,0,0,0,87,87,0,87,0,87,0,0,0,87,87,87,87,Thu Sep 19 16:32:56 2019,600,The main experiment item,yes,CB-FlankerTask-Lab1.2.osexp,/Users/cristianbotello/Desktop/Advanced Quant,no,mono,no,18,no,white,no,no,768,legacy,7,79,/Users/cristianbotello/Desktop/Advanced Quant/CB-subject-2.csv,legacy,Kafkaesque Koffka,3.2.8,0,s,NA,h,s,NA,s,373,NA,12705,52354,NA,373,2,legacy,1024,2,48000,-16,experiment,SSHSS,2,even,55611,209809,NA,220988,210507,3209,NA,NA,222087,197100,3247,NA,222202,222578,222075,222202,Flanker Task,82,43167,88,yes,1024
93.25842697,93.25842697,493.2696629,493.2696629,black,legacy,legacy,legacy,0,congruent,uniform,1,undefined,1,s,0,0,0,88,88,0,88,0,88,0,0,0,88,88,88,88,Thu Sep 19 16:32:56 2019,600,The main experiment item,yes,CB-FlankerTask-Lab1.2.osexp,/Users/cristianbotello/Desktop/Advanced Quant,no,mono,no,18,no,white,no,no,768,legacy,8,79,/Users/cristianbotello/Desktop/Advanced Quant/CB-subject-2.csv,legacy,Kafkaesque Koffka,3.2.8,0,s,NA,h,s,NA,s,734,NA,12705,52354,NA,734,2,legacy,1024,2,48000,-16,experiment,SSSSS,2,even,55611,209809,NA,223107,222594,3209,NA,NA,224206,197100,3247,NA,224317,225054,224195,224317,Flanker Task,83,43901,89,yes,1024
93.33333333,93.33333333,493.8222222,493.8222222,black,legacy,legacy,legacy,0,congruent,uniform,1,undefined,1,h,0,0,0,89,89,0,89,0,89,0,0,0,89,89,89,89,Thu Sep 19 16:32:56 2019,600,The main experiment item,yes,CB-FlankerTask-Lab1.2.osexp,/Users/cristianbotello/Desktop/Advanced Quant,no,mono,no,18,no,white,no,no,768,legacy,9,79,/Users/cristianbotello/Desktop/Advanced Quant/CB-subject-2.csv,legacy,Kafkaesque Koffka,3.2.8,0,h,NA,h,s,NA,h,543,NA,12705,52354,NA,543,2,legacy,1024,2,48000,-16,experiment,HHHHH,2,even,55611,209809,NA,225593,222594,3209,225080,NA,226694,197100,3247,NA,226809,227355,226682,226808,Flanker Task,84,44444,90,yes,1024
93.40659341,93.40659341,492.8131868,492.8131868,black,legacy,legacy,legacy,0,congruent,uniform,1,undefined,1,h,0,0,0,90,90,0,90,0,90,0,0,0,90,90,90,90,Thu Sep 19 16:32:56 2019,600,The main experiment item,yes,CB-FlankerTask-Lab1.2.osexp,/Users/cristianbotello/Desktop/Advanced Quant,no,mono,no,18,no,white,no,no,768,legacy,10,79,/Users/cristianbotello/Desktop/Advanced Quant/CB-subject-2.csv,legacy,Kafkaesque Koffka,3.2.8,0,h,NA,h,s,NA,h,402,NA,12705,52354,NA,402,2,legacy,1024,2,48000,-16,experiment,HHHHH,2,even,55611,209809,NA,227382,222594,3209,225080,NA,228505,197100,3247,NA,228620,229025,228494,228620,Flanker Task,85,44846,91,yes,1024
93.47826087,93.47826087,492.5869565,492.5869565,black,legacy,legacy,legacy,0,congruent,uniform,1,undefined,1,s,0,0,0,91,91,0,91,0,91,0,0,0,91,91,91,91,Thu Sep 19 16:32:56 2019,600,The main experiment item,yes,CB-FlankerTask-Lab1.2.osexp,/Users/cristianbotello/Desktop/Advanced Quant,no,mono,no,18,no,white,no,no,768,legacy,11,79,/Users/cristianbotello/Desktop/Advanced Quant/CB-subject-2.csv,legacy,Kafkaesque Koffka,3.2.8,0,s,NA,h,s,NA,s,472,NA,12705,52354,NA,472,2,legacy,1024,2,48000,-16,experiment,SSSSS,2,even,55611,209809,NA,229039,222594,3209,225080,NA,230138,197100,3247,NA,230253,230728,230127,230253,Flanker Task,86,45318,92,yes,1024
93.5483871,93.5483871,492.1935484,492.1935484,black,legacy,legacy,legacy,0,congruent,uniform,1,undefined,1,h,0,0,0,92,92,0,92,0,92,0,0,0,92,92,92,92,Thu Sep 19 16:32:56 2019,600,The main experiment item,yes,CB-FlankerTask-Lab1.2.osexp,/Users/cristianbotello/Desktop/Advanced Quant,no,mono,no,18,no,white,no,no,768,legacy,12,79,/Users/cristianbotello/Desktop/Advanced Quant/CB-subject-2.csv,legacy,Kafkaesque Koffka,3.2.8,0,h,NA,h,s,NA,h,456,NA,12705,52354,NA,456,2,legacy,1024,2,48000,-16,experiment,HHHHH,2,even,55611,209809,NA,230745,222594,3209,225080,NA,231870,197100,3247,NA,231985,232444,231858,231985,Flanker Task,87,45774,93,yes,1024
93.61702128,93.61702128,492.1382979,492.1382979,black,legacy,legacy,legacy,0,incongruent,uniform,1,undefined,1,s,0,0,0,93,93,0,93,0,93,0,0,0,93,93,93,93,Thu Sep 19 16:32:56 2019,600,The main experiment item,yes,CB-FlankerTask-Lab1.2.osexp,/Users/cristianbotello/Desktop/Advanced Quant,no,mono,no,18,no,white,no,no,768,legacy,13,79,/Users/cristianbotello/Desktop/Advanced Quant/CB-subject-2.csv,legacy,Kafkaesque Koffka,3.2.8,0,s,NA,h,s,NA,s,487,NA,12705,52354,NA,487,2,legacy,1024,2,48000,-16,experiment,HHSHH,2,even,55611,209809,NA,232458,222594,3209,225080,NA,233560,197100,3247,NA,233671,234161,233548,233671,Flanker Task,88,46261,94,yes,1024
93.68421053,93.68421053,492.0105263,492.0105263,black,legacy,legacy,legacy,0,incongruent,uniform,1,undefined,1,s,0,0,0,94,94,0,94,0,94,0,0,0,94,94,94,94,Thu Sep 19 16:32:56 2019,600,The main experiment item,yes,CB-FlankerTask-Lab1.2.osexp,/Users/cristianbotello/Desktop/Advanced Quant,no,mono,no,18,no,white,no,no,768,legacy,14,79,/Users/cristianbotello/Desktop/Advanced Quant/CB-subject-2.csv,legacy,Kafkaesque Koffka,3.2.8,0,s,NA,h,s,NA,s,480,NA,12705,52354,NA,480,2,legacy,1024,2,48000,-16,experiment,HHSHH,2,even,55611,209809,NA,234183,222594,3209,225080,NA,235312,197100,3247,NA,235428,235911,235300,235428,Flanker Task,89,46741,95,yes,1024
93.75,93.75,491.7708333,491.7708333,black,legacy,legacy,legacy,0,incongruent,uniform,1,undefined,1,s,0,0,0,95,95,0,95,0,95,0,0,0,95,95,95,95,Thu Sep 19 16:32:56 2019,600,The main experiment item,yes,CB-FlankerTask-Lab1.2.osexp,/Users/cristianbotello/Desktop/Advanced Quant,no,mono,no,18,no,white,no,no,768,legacy,15,79,/Users/cristianbotello/Desktop/Advanced Quant/CB-subject-2.csv,legacy,Kafkaesque Koffka,3.2.8,0,s,NA,h,s,NA,s,469,NA,12705,52354,NA,469,2,legacy,1024,2,48000,-16,experiment,HHSHH,2,even,55611,209809,NA,235925,222594,3209,225080,NA,237025,197100,3247,NA,237140,237612,237013,237139,Flanker Task,90,47210,96,yes,1024
93.81443299,93.81443299,491.8659794,491.8659794,black,legacy,legacy,legacy,0,congruent,uniform,1,undefined,1,h,0,0,0,96,96,0,96,0,96,0,0,0,96,96,96,96,Thu Sep 19 16:32:56 2019,600,The main experiment item,yes,CB-FlankerTask-Lab1.2.osexp,/Users/cristianbotello/Desktop/Advanced Quant,no,mono,no,18,no,white,no,no,768,legacy,16,79,/Users/cristianbotello/Desktop/Advanced Quant/CB-subject-2.csv,legacy,Kafkaesque Koffka,3.2.8,0,h,NA,h,s,NA,h,501,NA,12705,52354,NA,501,2,legacy,1024,2,48000,-16,experiment,HHHHH,2,even,55611,209809,NA,237633,222594,3209,225080,NA,238756,197100,3247,NA,238871,239374,238744,238871,Flanker Task,91,47711,97,yes,1024
93.87755102,93.87755102,491.244898,491.244898,black,legacy,legacy,legacy,0,congruent,uniform,1,undefined,1,s,0,0,0,97,97,0,97,0,97,0,0,0,97,97,97,97,Thu Sep 19 16:32:56 2019,600,The main experiment item,yes,CB-FlankerTask-Lab1.2.osexp,/Users/cristianbotello/Desktop/Advanced Quant,no,mono,no,18,no,white,no,no,768,legacy,17,79,/Users/cristianbotello/Desktop/Advanced Quant/CB-subject-2.csv,legacy,Kafkaesque Koffka,3.2.8,0,s,NA,h,s,NA,s,431,NA,12705,52354,NA,431,2,legacy,1024,2,48000,-16,experiment,SSSSS,2,even,55611,209809,NA,239390,222594,3209,225080,NA,240491,197100,3247,NA,240607,241041,240479,240607,Flanker Task,92,48142,98,yes,1024
93.93939394,93.93939394,490.1414141,490.1414141,black,legacy,legacy,legacy,0,congruent,uniform,1,undefined,1,s,0,0,0,98,98,0,98,0,98,0,0,0,98,98,98,98,Thu Sep 19 16:32:56 2019,600,The main experiment item,yes,CB-FlankerTask-Lab1.2.osexp,/Users/cristianbotello/Desktop/Advanced Quant,no,mono,no,18,no,white,no,no,768,legacy,18,79,/Users/cristianbotello/Desktop/Advanced Quant/CB-subject-2.csv,legacy,Kafkaesque Koffka,3.2.8,0,s,NA,h,s,NA,s,382,NA,12705,52354,NA,382,2,legacy,1024,2,48000,-16,experiment,SSSSS,2,even,55611,209809,NA,241068,222594,3209,225080,NA,242190,197100,3247,NA,242306,242690,242179,242306,Flanker Task,93,48524,99,yes,1024
94,94,490.06,490.06,black,legacy,legacy,legacy,0,incongruent,uniform,1,undefined,1,h,0,0,0,99,99,0,99,0,99,0,0,0,99,99,99,99,Thu Sep 19 16:32:56 2019,600,The main experiment item,yes,CB-FlankerTask-Lab1.2.osexp,/Users/cristianbotello/Desktop/Advanced Quant,no,mono,no,18,no,white,no,no,768,legacy,19,79,/Users/cristianbotello/Desktop/Advanced Quant/CB-subject-2.csv,legacy,Kafkaesque Koffka,3.2.8,0,h,NA,h,s,NA,h,482,NA,12705,52354,NA,482,2,legacy,1024,2,48000,-16,experiment,SSHSS,2,even,55611,209809,NA,242705,222594,3209,225080,NA,243805,197100,3247,NA,243920,244405,243793,243920,Flanker Task,94,49006,100,yes,1024
94.05940594,94.05940594,489.5742574,489.5742574,black,legacy,legacy,legacy,0,incongruent,uniform,1,undefined,1,s,0,0,0,100,100,0,100,0,100,0,0,0,100,100,100,100,Thu Sep 19 16:32:56 2019,600,The main experiment item,yes,CB-FlankerTask-Lab1.2.osexp,/Users/cristianbotello/Desktop/Advanced Quant,no,mono,no,18,no,white,no,no,768,legacy,20,79,/Users/cristianbotello/Desktop/Advanced Quant/CB-subject-2.csv,legacy,Kafkaesque Koffka,3.2.8,0,s,NA,h,s,NA,s,441,NA,12705,52354,NA,441,2,legacy,1024,2,48000,-16,experiment,HHSHH,2,even,55611,209809,NA,244422,222594,3209,225080,NA,245546,197100,3247,NA,245662,246105,245535,245662,Flanker Task,95,49447,101,yes,1024
94.11764706,94.11764706,489.1470588,489.1470588,black,legacy,legacy,legacy,0,congruent,uniform,1,undefined,1,h,0,0,0,101,101,0,101,0,101,0,0,0,101,101,101,101,Thu Sep 19 16:32:56 2019,600,The main experiment item,yes,CB-FlankerTask-Lab1.2.osexp,/Users/cristianbotello/Desktop/Advanced Quant,no,mono,no,18,no,white,no,no,768,legacy,21,79,/Users/cristianbotello/Desktop/Advanced Quant/CB-subject-2.csv,legacy,Kafkaesque Koffka,3.2.8,0,h,NA,h,s,NA,h,446,NA,12705,52354,NA,446,2,legacy,1024,2,48000,-16,experiment,HHHHH,2,even,55611,209809,NA,246120,222594,3209,225080,NA,247221,197100,3247,NA,247336,247785,247209,247336,Flanker Task,96,49893,102,yes,1024
94.17475728,94.17475728,488.8058252,488.8058252,black,legacy,legacy,legacy,0,incongruent,uniform,1,undefined,1,s,0,0,0,102,102,0,102,0,102,0,0,0,102,102,102,102,Thu Sep 19 16:32:56 2019,600,The main experiment item,yes,CB-FlankerTask-Lab1.2.osexp,/Users/cristianbotello/Desktop/Advanced Quant,no,mono,no,18,no,white,no,no,768,legacy,22,79,/Users/cristianbotello/Desktop/Advanced Quant/CB-subject-2.csv,legacy,Kafkaesque Koffka,3.2.8,0,s,NA,h,s,NA,s,454,NA,12705,52354,NA,454,2,legacy,1024,2,48000,-16,experiment,HHSHH,2,even,55611,209809,NA,247801,222594,3209,225080,NA,248924,197100,3247,NA,249039,249495,248912,249038,Flanker Task,97,50347,103,yes,1024
94.23076923,94.23076923,487.6730769,487.6730769,black,legacy,legacy,legacy,0,congruent,uniform,1,undefined,1,h,0,0,0,103,103,0,103,0,103,0,0,0,103,103,103,103,Thu Sep 19 16:32:56 2019,600,The main experiment item,yes,CB-FlankerTask-Lab1.2.osexp,/Users/cristianbotello/Desktop/Advanced Quant,no,mono,no,18,no,white,no,no,768,legacy,23,79,/Users/cristianbotello/Desktop/Advanced Quant/CB-subject-2.csv,legacy,Kafkaesque Koffka,3.2.8,0,h,NA,h,s,NA,h,371,NA,12705,52354,NA,371,2,legacy,1024,2,48000,-16,experiment,HHHHH,2,even,55611,209809,NA,249510,222594,3209,225080,NA,250611,197100,3247,NA,250726,251101,250599,250726,Flanker Task,98,50718,104,yes,1024
94.28571429,94.28571429,486.8,486.8,black,legacy,legacy,legacy,0,congruent,uniform,1,undefined,1,s,0,0,0,104,104,0,104,0,104,0,0,0,104,104,104,104,Thu Sep 19 16:32:56 2019,600,The main experiment item,yes,CB-FlankerTask-Lab1.2.osexp,/Users/cristianbotello/Desktop/Advanced Quant,no,mono,no,18,no,white,no,no,768,legacy,24,79,/Users/cristianbotello/Desktop/Advanced Quant/CB-subject-2.csv,legacy,Kafkaesque Koffka,3.2.8,0,s,NA,h,s,NA,s,396,NA,12705,52354,NA,396,2,legacy,1024,2,48000,-16,experiment,SSSSS,2,even,55611,209809,NA,251123,222594,3209,225080,NA,252238,197100,3247,NA,252353,252752,252226,252353,Flanker Task,99,51114,105,yes,1024
93.39622642,93.39622642,485.9716981,485.9716981,black,legacy,legacy,legacy,0,incongruent,uniform,0,undefined,0,s,0,0,0,105,105,0,105,0,105,0,0,0,105,105,105,105,Thu Sep 19 16:32:56 2019,600,The main experiment item,yes,CB-FlankerTask-Lab1.2.osexp,/Users/cristianbotello/Desktop/Advanced Quant,no,mono,no,18,no,white,no,no,768,legacy,25,79,/Users/cristianbotello/Desktop/Advanced Quant/CB-subject-2.csv,legacy,Kafkaesque Koffka,3.2.8,0,h,NA,h,s,NA,h,399,NA,12705,52354,NA,399,2,legacy,1024,2,48000,-16,experiment,HHSHH,2,even,55611,209809,NA,252766,222594,3209,225080,NA,253866,197100,3247,NA,253982,254384,253855,253982,Flanker Task,99,51513,106,yes,1024
93.45794393,93.45794393,485.7943925,485.7943925,black,legacy,legacy,legacy,0,incongruent,uniform,1,undefined,1,h,0,0,0,106,106,0,106,0,106,0,0,0,106,106,106,106,Thu Sep 19 16:32:56 2019,600,The main experiment item,yes,CB-FlankerTask-Lab1.2.osexp,/Users/cristianbotello/Desktop/Advanced Quant,no,mono,no,18,no,white,no,no,768,legacy,26,79,/Users/cristianbotello/Desktop/Advanced Quant/CB-subject-2.csv,legacy,Kafkaesque Koffka,3.2.8,0,h,NA,h,s,NA,h,467,NA,12705,52354,NA,467,2,legacy,1024,2,48000,-16,experiment,SSHSS,2,even,55611,209809,NA,254919,254406,3209,225080,NA,256018,197100,3247,NA,256129,256599,256006,256129,Flanker Task,100,51980,107,yes,1024
93.51851852,93.51851852,485.3703704,485.3703704,black,legacy,legacy,legacy,0,congruent,uniform,1,undefined,1,s,0,0,0,107,107,0,107,0,107,0,0,0,107,107,107,107,Thu Sep 19 16:32:56 2019,600,The main experiment item,yes,CB-FlankerTask-Lab1.2.osexp,/Users/cristianbotello/Desktop/Advanced Quant,no,mono,no,18,no,white,no,no,768,legacy,27,79,/Users/cristianbotello/Desktop/Advanced Quant/CB-subject-2.csv,legacy,Kafkaesque Koffka,3.2.8,0,s,NA,h,s,NA,s,440,NA,12705,52354,NA,440,2,legacy,1024,2,48000,-16,experiment,SSSSS,2,even,55611,209809,NA,256622,254406,3209,225080,NA,257744,197100,3247,NA,257858,258301,257733,257858,Flanker Task,101,52420,108,yes,1024
93.57798165,93.57798165,484.8715596,484.8715596,black,legacy,legacy,legacy,0,congruent,uniform,1,undefined,1,s,0,0,0,108,108,0,108,0,108,0,0,0,108,108,108,108,Thu Sep 19 16:32:56 2019,600,The main experiment item,yes,CB-FlankerTask-Lab1.2.osexp,/Users/cristianbotello/Desktop/Advanced Quant,no,mono,no,18,no,white,no,no,768,legacy,28,79,/Users/cristianbotello/Desktop/Advanced Quant/CB-subject-2.csv,legacy,Kafkaesque Koffka,3.2.8,0,s,NA,h,s,NA,s,431,NA,12705,52354,NA,431,2,legacy,1024,2,48000,-16,experiment,SSSSS,2,even,55611,209809,NA,258315,254406,3209,225080,NA,259416,197100,3247,NA,259531,259965,259404,259531,Flanker Task,102,52851,109,yes,1024
93.63636364,93.63636364,484.6909091,484.6909091,black,legacy,legacy,legacy,0,incongruent,uniform,1,undefined,1,s,0,0,0,109,109,0,109,0,109,0,0,0,109,109,109,109,Thu Sep 19 16:32:56 2019,600,The main experiment item,yes,CB-FlankerTask-Lab1.2.osexp,/Users/cristianbotello/Desktop/Advanced Quant,no,mono,no,18,no,white,no,no,768,legacy,29,79,/Users/cristianbotello/Desktop/Advanced Quant/CB-subject-2.csv,legacy,Kafkaesque Koffka,3.2.8,0,s,NA,h,s,NA,s,465,NA,12705,52354,NA,465,2,legacy,1024,2,48000,-16,experiment,HHSHH,2,even,55611,209809,NA,259984,254406,3209,225080,NA,261105,197100,3247,NA,261220,261688,261093,261220,Flanker Task,103,53316,110,yes,1024
93.69369369,93.69369369,483.7117117,483.7117117,black,legacy,legacy,legacy,0,congruent,uniform,1,undefined,1,s,0,0,0,110,110,0,110,0,110,0,0,0,110,110,110,110,Thu Sep 19 16:32:56 2019,600,The main experiment item,yes,CB-FlankerTask-Lab1.2.osexp,/Users/cristianbotello/Desktop/Advanced Quant,no,mono,no,18,no,white,no,no,768,legacy,30,79,/Users/cristianbotello/Desktop/Advanced Quant/CB-subject-2.csv,legacy,Kafkaesque Koffka,3.2.8,0,s,NA,h,s,NA,s,376,NA,12705,52354,NA,376,2,legacy,1024,2,48000,-16,experiment,SSSSS,2,even,55611,209809,NA,261702,254406,3209,225080,NA,262801,197100,3247,NA,262912,263291,262790,262912,Flanker Task,104,53692,111,yes,1024
93.75,93.75,482.6696429,482.6696429,black,legacy,legacy,legacy,0,congruent,uniform,1,undefined,1,s,0,0,0,111,111,0,111,0,111,0,0,0,111,111,111,111,Thu Sep 19 16:32:56 2019,600,The main experiment item,yes,CB-FlankerTask-Lab1.2.osexp,/Users/cristianbotello/Desktop/Advanced Quant,no,mono,no,18,no,white,no,no,768,legacy,31,79,/Users/cristianbotello/Desktop/Advanced Quant/CB-subject-2.csv,legacy,Kafkaesque Koffka,3.2.8,0,s,NA,h,s,NA,s,367,NA,12705,52354,NA,367,2,legacy,1024,2,48000,-16,experiment,SSSSS,2,even,55611,209809,NA,263308,254406,3209,225080,NA,264435,197100,3247,NA,264551,264920,264424,264551,Flanker Task,105,54059,112,yes,1024
93.80530973,93.80530973,481.6814159,481.6814159,black,legacy,legacy,legacy,0,congruent,uniform,1,undefined,1,s,0,0,0,112,112,0,112,0,112,0,0,0,112,112,112,112,Thu Sep 19 16:32:56 2019,600,The main experiment item,yes,CB-FlankerTask-Lab1.2.osexp,/Users/cristianbotello/Desktop/Advanced Quant,no,mono,no,18,no,white,no,no,768,legacy,32,79,/Users/cristianbotello/Desktop/Advanced Quant/CB-subject-2.csv,legacy,Kafkaesque Koffka,3.2.8,0,s,NA,h,s,NA,s,371,NA,12705,52354,NA,371,2,legacy,1024,2,48000,-16,experiment,SSSSS,2,even,55611,209809,NA,264935,254406,3209,225080,NA,266034,197100,3247,NA,266149,266524,266022,266149,Flanker Task,106,54430,113,yes,1024
93.85964912,93.85964912,481.7368421,481.7368421,black,legacy,legacy,legacy,0,incongruent,uniform,1,undefined,1,h,0,0,0,113,113,0,113,0,113,0,0,0,113,113,113,113,Thu Sep 19 16:32:56 2019,600,The main experiment item,yes,CB-FlankerTask-Lab1.2.osexp,/Users/cristianbotello/Desktop/Advanced Quant,no,mono,no,18,no,white,no,no,768,legacy,33,79,/Users/cristianbotello/Desktop/Advanced Quant/CB-subject-2.csv,legacy,Kafkaesque Koffka,3.2.8,0,h,NA,h,s,NA,h,488,NA,12705,52354,NA,488,2,legacy,1024,2,48000,-16,experiment,SSHSS,2,even,55611,209809,NA,266554,254406,3209,225080,NA,267677,197100,3247,NA,267792,268284,267665,267792,Flanker Task,107,54918,114,yes,1024
93.91304348,93.91304348,481.4,481.4,black,legacy,legacy,legacy,0,incongruent,uniform,1,undefined,1,h,0,0,0,114,114,0,114,0,114,0,0,0,114,114,114,114,Thu Sep 19 16:32:56 2019,600,The main experiment item,yes,CB-FlankerTask-Lab1.2.osexp,/Users/cristianbotello/Desktop/Advanced Quant,no,mono,no,18,no,white,no,no,768,legacy,34,79,/Users/cristianbotello/Desktop/Advanced Quant/CB-subject-2.csv,legacy,Kafkaesque Koffka,3.2.8,0,h,NA,h,s,NA,h,443,NA,12705,52354,NA,443,2,legacy,1024,2,48000,-16,experiment,SSHSS,2,even,55611,209809,NA,268304,254406,3209,225080,NA,269405,197100,3247,NA,269520,269966,269392,269519,Flanker Task,108,55361,115,yes,1024
93.96551724,93.96551724,480.7327586,480.7327586,black,legacy,legacy,legacy,0,incongruent,uniform,1,undefined,1,h,0,0,0,115,115,0,115,0,115,0,0,0,115,115,115,115,Thu Sep 19 16:32:56 2019,600,The main experiment item,yes,CB-FlankerTask-Lab1.2.osexp,/Users/cristianbotello/Desktop/Advanced Quant,no,mono,no,18,no,white,no,no,768,legacy,35,79,/Users/cristianbotello/Desktop/Advanced Quant/CB-subject-2.csv,legacy,Kafkaesque Koffka,3.2.8,0,h,NA,h,s,NA,h,404,NA,12705,52354,NA,404,2,legacy,1024,2,48000,-16,experiment,SSHSS,2,even,55611,209809,NA,269984,254406,3209,225080,NA,271097,197100,3247,NA,271212,271618,271085,271212,Flanker Task,109,55765,116,yes,1024
94.01709402,94.01709402,480.0940171,480.0940171,black,legacy,legacy,legacy,0,congruent,uniform,1,undefined,1,h,0,0,0,116,116,0,116,0,116,0,0,0,116,116,116,116,Thu Sep 19 16:32:56 2019,600,The main experiment item,yes,CB-FlankerTask-Lab1.2.osexp,/Users/cristianbotello/Desktop/Advanced Quant,no,mono,no,18,no,white,no,no,768,legacy,36,79,/Users/cristianbotello/Desktop/Advanced Quant/CB-subject-2.csv,legacy,Kafkaesque Koffka,3.2.8,0,h,NA,h,s,NA,h,406,NA,12705,52354,NA,406,2,legacy,1024,2,48000,-16,experiment,HHHHH,2,even,55611,209809,NA,271633,254406,3209,225080,NA,272732,197100,3247,NA,272845,273255,272721,272844,Flanker Task,110,56171,117,yes,1024
94.06779661,94.06779661,479.6271186,479.6271186,black,legacy,legacy,legacy,0,incongruent,uniform,1,undefined,1,h,0,0,0,117,117,0,117,0,117,0,0,0,117,117,117,117,Thu Sep 19 16:32:56 2019,600,The main experiment item,yes,CB-FlankerTask-Lab1.2.osexp,/Users/cristianbotello/Desktop/Advanced Quant,no,mono,no,18,no,white,no,no,768,legacy,37,79,/Users/cristianbotello/Desktop/Advanced Quant/CB-subject-2.csv,legacy,Kafkaesque Koffka,3.2.8,0,h,NA,h,s,NA,h,425,NA,12705,52354,NA,425,2,legacy,1024,2,48000,-16,experiment,SSHSS,2,even,55611,209809,NA,273271,254406,3209,225080,NA,274393,197100,3247,NA,274509,274937,274381,274509,Flanker Task,111,56596,118,yes,1024
94.11764706,94.11764706,478.7731092,478.7731092,black,legacy,legacy,legacy,0,incongruent,uniform,1,undefined,1,h,0,0,0,118,118,0,118,0,118,0,0,0,118,118,118,118,Thu Sep 19 16:32:56 2019,600,The main experiment item,yes,CB-FlankerTask-Lab1.2.osexp,/Users/cristianbotello/Desktop/Advanced Quant,no,mono,no,18,no,white,no,no,768,legacy,38,79,/Users/cristianbotello/Desktop/Advanced Quant/CB-subject-2.csv,legacy,Kafkaesque Koffka,3.2.8,0,h,NA,h,s,NA,h,378,NA,12705,52354,NA,378,2,legacy,1024,2,48000,-16,experiment,SSHSS,2,even,55611,209809,NA,274951,254406,3209,225080,NA,276051,197100,3247,NA,276167,276549,276039,276166,Flanker Task,112,56974,119,yes,1024
94.16666667,94.16666667,478.7416667,478.7416667,black,legacy,legacy,legacy,0,incongruent,uniform,1,undefined,1,s,0,0,0,119,119,0,119,0,119,0,0,0,119,119,119,119,Thu Sep 19 16:32:56 2019,600,The main experiment item,yes,CB-FlankerTask-Lab1.2.osexp,/Users/cristianbotello/Desktop/Advanced Quant,no,mono,no,18,no,white,no,no,768,legacy,39,79,/Users/cristianbotello/Desktop/Advanced Quant/CB-subject-2.csv,legacy,Kafkaesque Koffka,3.2.8,0,s,NA,h,s,NA,s,475,NA,12705,52354,NA,475,2,legacy,1024,2,48000,-16,experiment,HHSHH,2,even,55611,209809,NA,276577,254406,3209,225080,NA,277704,197100,3247,NA,277816,278294,277692,277815,Flanker Task,113,57449,120,yes,1024
94.21487603,94.21487603,478.7355372,478.7355372,black,legacy,legacy,legacy,0,incongruent,uniform,1,undefined,1,s,0,0,0,120,120,0,120,0,120,0,0,0,120,120,120,120,Thu Sep 19 16:32:56 2019,600,The main experiment item,yes,CB-FlankerTask-Lab1.2.osexp,/Users/cristianbotello/Desktop/Advanced Quant,no,mono,no,18,no,white,no,no,768,legacy,40,79,/Users/cristianbotello/Desktop/Advanced Quant/CB-subject-2.csv,legacy,Kafkaesque Koffka,3.2.8,0,s,NA,h,s,NA,s,478,NA,12705,52354,NA,478,2,legacy,1024,2,48000,-16,experiment,HHSHH,2,even,55611,209809,NA,278308,254406,3209,225080,NA,279408,197100,3247,NA,279523,280005,279397,279523,Flanker Task,114,57927,121,yes,1024
94.26229508,94.26229508,478.2377049,478.2377049,black,legacy,legacy,legacy,0,congruent,uniform,1,undefined,1,h,0,0,0,121,121,0,121,0,121,0,0,0,121,121,121,121,Thu Sep 19 16:32:56 2019,600,The main experiment item,yes,CB-FlankerTask-Lab1.2.osexp,/Users/cristianbotello/Desktop/Advanced Quant,no,mono,no,18,no,white,no,no,768,legacy,41,79,/Users/cristianbotello/Desktop/Advanced Quant/CB-subject-2.csv,legacy,Kafkaesque Koffka,3.2.8,0,h,NA,h,s,NA,h,418,NA,12705,52354,NA,418,2,legacy,1024,2,48000,-16,experiment,HHHHH,2,even,55611,209809,NA,280032,254406,3209,225080,NA,281154,197100,3247,NA,281269,281690,281142,281269,Flanker Task,115,58345,122,yes,1024
94.30894309,94.30894309,477.8211382,477.8211382,black,legacy,legacy,legacy,0,congruent,uniform,1,undefined,1,s,0,0,0,122,122,0,122,0,122,0,0,0,122,122,122,122,Thu Sep 19 16:32:56 2019,600,The main experiment item,yes,CB-FlankerTask-Lab1.2.osexp,/Users/cristianbotello/Desktop/Advanced Quant,no,mono,no,18,no,white,no,no,768,legacy,42,79,/Users/cristianbotello/Desktop/Advanced Quant/CB-subject-2.csv,legacy,Kafkaesque Koffka,3.2.8,0,s,NA,h,s,NA,s,427,NA,12705,52354,NA,427,2,legacy,1024,2,48000,-16,experiment,SSSSS,2,even,55611,209809,NA,281704,254406,3209,225080,NA,282804,197100,3247,NA,282919,283350,282792,282919,Flanker Task,116,58772,123,yes,1024
94.35483871,94.35483871,477.2177419,477.2177419,black,legacy,legacy,legacy,0,congruent,uniform,1,undefined,1,s,0,0,0,123,123,0,123,0,123,0,0,0,123,123,123,123,Thu Sep 19 16:32:56 2019,600,The main experiment item,yes,CB-FlankerTask-Lab1.2.osexp,/Users/cristianbotello/Desktop/Advanced Quant,no,mono,no,18,no,white,no,no,768,legacy,43,79,/Users/cristianbotello/Desktop/Advanced Quant/CB-subject-2.csv,legacy,Kafkaesque Koffka,3.2.8,0,s,NA,h,s,NA,s,403,NA,12705,52354,NA,403,2,legacy,1024,2,48000,-16,experiment,SSSSS,2,even,55611,209809,NA,283377,254406,3209,225080,NA,284500,197100,3247,NA,284615,285021,284488,284615,Flanker Task,117,59175,124,yes,1024
94.4,94.4,476.288,476.288,black,legacy,legacy,legacy,0,congruent,uniform,1,undefined,1,s,0,0,0,124,124,0,124,0,124,0,0,0,124,124,124,124,Thu Sep 19 16:32:56 2019,600,The main experiment item,yes,CB-FlankerTask-Lab1.2.osexp,/Users/cristianbotello/Desktop/Advanced Quant,no,mono,no,18,no,white,no,no,768,legacy,44,79,/Users/cristianbotello/Desktop/Advanced Quant/CB-subject-2.csv,legacy,Kafkaesque Koffka,3.2.8,0,s,NA,h,s,NA,s,361,NA,12705,52354,NA,361,2,legacy,1024,2,48000,-16,experiment,SSSSS,2,even,55611,209809,NA,285035,254406,3209,225080,NA,286134,197100,3247,NA,286250,286614,286123,286249,Flanker Task,118,59536,125,yes,1024
94.44444444,94.44444444,475.6269841,475.6269841,black,legacy,legacy,legacy,0,congruent,uniform,1,undefined,1,h,0,0,0,125,125,0,125,0,125,0,0,0,125,125,125,125,Thu Sep 19 16:32:56 2019,600,The main experiment item,yes,CB-FlankerTask-Lab1.2.osexp,/Users/cristianbotello/Desktop/Advanced Quant,no,mono,no,18,no,white,no,no,768,legacy,45,79,/Users/cristianbotello/Desktop/Advanced Quant/CB-subject-2.csv,legacy,Kafkaesque Koffka,3.2.8,0,h,NA,h,s,NA,h,393,NA,12705,52354,NA,393,2,legacy,1024,2,48000,-16,experiment,HHHHH,2,even,55611,209809,NA,286630,254406,3209,225080,NA,287752,197100,3247,NA,287867,288263,287740,287867,Flanker Task,119,59929,126,yes,1024
94.48818898,94.48818898,474.7637795,474.7637795,black,legacy,legacy,legacy,0,incongruent,uniform,1,undefined,1,s,0,0,0,126,126,0,126,0,126,0,0,0,126,126,126,126,Thu Sep 19 16:32:56 2019,600,The main experiment item,yes,CB-FlankerTask-Lab1.2.osexp,/Users/cristianbotello/Desktop/Advanced Quant,no,mono,no,18,no,white,no,no,768,legacy,46,79,/Users/cristianbotello/Desktop/Advanced Quant/CB-subject-2.csv,legacy,Kafkaesque Koffka,3.2.8,0,s,NA,h,s,NA,s,366,NA,12705,52354,NA,366,2,legacy,1024,2,48000,-16,experiment,HHSHH,2,even,55611,209809,NA,288277,254406,3209,225080,NA,289377,197100,3247,NA,289492,289867,289365,289492,Flanker Task,120,60295,127,yes,1024
94.53125,94.53125,475.328125,475.328125,black,legacy,legacy,legacy,0,incongruent,uniform,1,undefined,1,s,0,0,0,127,127,0,127,0,127,0,0,0,127,127,127,127,Thu Sep 19 16:32:56 2019,600,The main experiment item,yes,CB-FlankerTask-Lab1.2.osexp,/Users/cristianbotello/Desktop/Advanced Quant,no,mono,no,18,no,white,no,no,768,legacy,47,79,/Users/cristianbotello/Desktop/Advanced Quant/CB-subject-2.csv,legacy,Kafkaesque Koffka,3.2.8,0,s,NA,h,s,NA,s,547,NA,12705,52354,NA,547,2,legacy,1024,2,48000,-16,experiment,HHSHH,2,even,55611,209809,NA,289895,254406,3209,225080,NA,291013,197100,3247,NA,291128,291678,291001,291128,Flanker Task,121,60842,128,yes,1024
94.57364341,94.57364341,475.3875969,475.3875969,black,legacy,legacy,legacy,0,incongruent,uniform,1,undefined,1,h,0,0,0,128,128,0,128,0,128,0,0,0,128,128,128,128,Thu Sep 19 16:32:56 2019,600,The main experiment item,yes,CB-FlankerTask-Lab1.2.osexp,/Users/cristianbotello/Desktop/Advanced Quant,no,mono,no,18,no,white,no,no,768,legacy,48,79,/Users/cristianbotello/Desktop/Advanced Quant/CB-subject-2.csv,legacy,Kafkaesque Koffka,3.2.8,0,h,NA,h,s,NA,h,483,NA,12705,52354,NA,483,2,legacy,1024,2,48000,-16,experiment,SSHSS,2,even,55611,209809,NA,291692,254406,3209,225080,NA,292792,197100,3247,NA,292907,293393,292781,292907,Flanker Task,122,61325,129,yes,1024
94.61538462,94.61538462,475.5615385,475.5615385,black,legacy,legacy,legacy,0,incongruent,uniform,1,undefined,1,s,0,0,0,129,129,0,129,0,129,0,0,0,129,129,129,129,Thu Sep 19 16:32:56 2019,600,The main experiment item,yes,CB-FlankerTask-Lab1.2.osexp,/Users/cristianbotello/Desktop/Advanced Quant,no,mono,no,18,no,white,no,no,768,legacy,49,79,/Users/cristianbotello/Desktop/Advanced Quant/CB-subject-2.csv,legacy,Kafkaesque Koffka,3.2.8,0,s,NA,h,s,NA,s,498,NA,12705,52354,NA,498,2,legacy,1024,2,48000,-16,experiment,HHSHH,2,even,55611,209809,NA,293411,254406,3209,225080,NA,294532,197100,3247,NA,294647,295148,294520,294647,Flanker Task,123,61823,130,yes,1024
94.65648855,94.65648855,475.5572519,475.5572519,black,legacy,legacy,legacy,0,congruent,uniform,1,undefined,1,h,0,0,0,130,130,0,130,0,130,0,0,0,130,130,130,130,Thu Sep 19 16:32:56 2019,600,The main experiment item,yes,CB-FlankerTask-Lab1.2.osexp,/Users/cristianbotello/Desktop/Advanced Quant,no,mono,no,18,no,white,no,no,768,legacy,50,79,/Users/cristianbotello/Desktop/Advanced Quant/CB-subject-2.csv,legacy,Kafkaesque Koffka,3.2.8,0,h,NA,h,s,NA,h,475,NA,12705,52354,NA,475,2,legacy,1024,2,48000,-16,experiment,HHHHH,2,even,55611,209809,NA,295162,254406,3209,225080,NA,296262,197100,3247,NA,296373,296851,296250,296373,Flanker Task,124,62298,131,yes,1024
94.6969697,94.6969697,475.2651515,475.2651515,black,legacy,legacy,legacy,0,congruent,uniform,1,undefined,1,s,0,0,0,131,131,0,131,0,131,0,0,0,131,131,131,131,Thu Sep 19 16:32:56 2019,600,The main experiment item,yes,CB-FlankerTask-Lab1.2.osexp,/Users/cristianbotello/Desktop/Advanced Quant,no,mono,no,18,no,white,no,no,768,legacy,51,79,/Users/cristianbotello/Desktop/Advanced Quant/CB-subject-2.csv,legacy,Kafkaesque Koffka,3.2.8,0,s,NA,h,s,NA,s,437,NA,12705,52354,NA,437,2,legacy,1024,2,48000,-16,experiment,SSSSS,2,even,55611,209809,NA,296871,254406,3209,225080,NA,297993,197100,3247,NA,298108,298548,297981,298108,Flanker Task,125,62735,132,yes,1024
94.73684211,94.73684211,474.4736842,474.4736842,black,legacy,legacy,legacy,0,congruent,uniform,1,undefined,1,h,0,0,0,132,132,0,132,0,132,0,0,0,132,132,132,132,Thu Sep 19 16:32:56 2019,600,The main experiment item,yes,CB-FlankerTask-Lab1.2.osexp,/Users/cristianbotello/Desktop/Advanced Quant,no,mono,no,18,no,white,no,no,768,legacy,52,79,/Users/cristianbotello/Desktop/Advanced Quant/CB-subject-2.csv,legacy,Kafkaesque Koffka,3.2.8,0,h,NA,h,s,NA,h,370,NA,12705,52354,NA,370,2,legacy,1024,2,48000,-16,experiment,HHHHH,2,even,55611,209809,NA,298566,254406,3209,225080,NA,299666,197100,3247,NA,299782,300166,299655,299782,Flanker Task,126,63105,133,yes,1024
94.7761194,94.7761194,474.0970149,474.0970149,black,legacy,legacy,legacy,0,congruent,uniform,1,undefined,1,h,0,0,0,133,133,0,133,0,133,0,0,0,133,133,133,133,Thu Sep 19 16:32:56 2019,600,The main experiment item,yes,CB-FlankerTask-Lab1.2.osexp,/Users/cristianbotello/Desktop/Advanced Quant,no,mono,no,18,no,white,no,no,768,legacy,53,79,/Users/cristianbotello/Desktop/Advanced Quant/CB-subject-2.csv,legacy,Kafkaesque Koffka,3.2.8,0,h,NA,h,s,NA,h,424,NA,12705,52354,NA,424,2,legacy,1024,2,48000,-16,experiment,HHHHH,2,even,55611,209809,NA,300188,254406,3209,225080,NA,301312,197100,3247,NA,301428,301855,301300,301427,Flanker Task,127,63529,134,yes,1024
94.81481481,94.81481481,473.2814815,473.2814815,black,legacy,legacy,legacy,0,congruent,uniform,1,undefined,1,s,0,0,0,134,134,0,134,0,134,0,0,0,134,134,134,134,Thu Sep 19 16:32:56 2019,600,The main experiment item,yes,CB-FlankerTask-Lab1.2.osexp,/Users/cristianbotello/Desktop/Advanced Quant,no,mono,no,18,no,white,no,no,768,legacy,54,79,/Users/cristianbotello/Desktop/Advanced Quant/CB-subject-2.csv,legacy,Kafkaesque Koffka,3.2.8,0,s,NA,h,s,NA,s,364,NA,12705,52354,NA,364,2,legacy,1024,2,48000,-16,experiment,SSSSS,2,even,55611,209809,NA,301869,254406,3209,225080,NA,302970,197100,3247,NA,303084,303452,302958,303084,Flanker Task,128,63893,135,yes,1024
94.85294118,94.85294118,472.6470588,472.6470588,black,legacy,legacy,legacy,0,congruent,uniform,1,undefined,1,h,0,0,0,135,135,0,135,0,135,0,0,0,135,135,135,135,Thu Sep 19 16:32:56 2019,600,The main experiment item,yes,CB-FlankerTask-Lab1.2.osexp,/Users/cristianbotello/Desktop/Advanced Quant,no,mono,no,18,no,white,no,no,768,legacy,55,79,/Users/cristianbotello/Desktop/Advanced Quant/CB-subject-2.csv,legacy,Kafkaesque Koffka,3.2.8,0,h,NA,h,s,NA,h,387,NA,12705,52354,NA,387,2,legacy,1024,2,48000,-16,experiment,HHHHH,2,even,55611,209809,NA,303469,254406,3209,225080,NA,304593,197100,3247,NA,304708,305098,304582,304708,Flanker Task,129,64280,136,yes,1024
94.89051095,94.89051095,471.8905109,471.8905109,black,legacy,legacy,legacy,0,congruent,uniform,1,undefined,1,s,0,0,0,136,136,0,136,0,136,0,0,0,136,136,136,136,Thu Sep 19 16:32:56 2019,600,The main experiment item,yes,CB-FlankerTask-Lab1.2.osexp,/Users/cristianbotello/Desktop/Advanced Quant,no,mono,no,18,no,white,no,no,768,legacy,56,79,/Users/cristianbotello/Desktop/Advanced Quant/CB-subject-2.csv,legacy,Kafkaesque Koffka,3.2.8,0,s,NA,h,s,NA,s,369,NA,12705,52354,NA,369,2,legacy,1024,2,48000,-16,experiment,SSSSS,2,even,55611,209809,NA,305113,254406,3209,225080,NA,306213,197100,3247,NA,306324,306697,306201,306324,Flanker Task,130,64649,137,yes,1024
94.92753623,94.92753623,471.3695652,471.3695652,black,legacy,legacy,legacy,0,incongruent,uniform,1,undefined,1,h,0,0,0,137,137,0,137,0,137,0,0,0,137,137,137,137,Thu Sep 19 16:32:56 2019,600,The main experiment item,yes,CB-FlankerTask-Lab1.2.osexp,/Users/cristianbotello/Desktop/Advanced Quant,no,mono,no,18,no,white,no,no,768,legacy,57,79,/Users/cristianbotello/Desktop/Advanced Quant/CB-subject-2.csv,legacy,Kafkaesque Koffka,3.2.8,0,h,NA,h,s,NA,h,400,NA,12705,52354,NA,400,2,legacy,1024,2,48000,-16,experiment,SSHSS,2,even,55611,209809,NA,306714,254406,3209,225080,NA,307835,197100,3247,NA,307948,308351,307824,307948,Flanker Task,131,65049,138,yes,1024
94.96402878,94.96402878,470.3165468,470.3165468,black,legacy,legacy,legacy,0,incongruent,uniform,1,undefined,1,s,0,0,0,138,138,0,138,0,138,0,0,0,138,138,138,138,Thu Sep 19 16:32:56 2019,600,The main experiment item,yes,CB-FlankerTask-Lab1.2.osexp,/Users/cristianbotello/Desktop/Advanced Quant,no,mono,no,18,no,white,no,no,768,legacy,58,79,/Users/cristianbotello/Desktop/Advanced Quant/CB-subject-2.csv,legacy,Kafkaesque Koffka,3.2.8,0,s,NA,h,s,NA,s,325,NA,12705,52354,NA,325,2,legacy,1024,2,48000,-16,experiment,HHSHH,2,even,55611,209809,NA,308365,254406,3209,225080,NA,309467,197100,3247,NA,309579,309908,309456,309579,Flanker Task,132,65374,139,yes,1024
95,95,469.4785714,469.4785714,black,legacy,legacy,legacy,0,incongruent,uniform,1,undefined,1,h,0,0,0,139,139,0,139,0,139,0,0,0,139,139,139,139,Thu Sep 19 16:32:56 2019,600,The main experiment item,yes,CB-FlankerTask-Lab1.2.osexp,/Users/cristianbotello/Desktop/Advanced Quant,no,mono,no,18,no,white,no,no,768,legacy,59,79,/Users/cristianbotello/Desktop/Advanced Quant/CB-subject-2.csv,legacy,Kafkaesque Koffka,3.2.8,0,h,NA,h,s,NA,h,353,NA,12705,52354,NA,353,2,legacy,1024,2,48000,-16,experiment,SSHSS,2,even,55611,209809,NA,309928,254406,3209,225080,NA,311041,197100,3247,NA,311156,311512,311029,311156,Flanker Task,133,65727,140,yes,1024
95.03546099,95.03546099,469.4609929,469.4609929,black,legacy,legacy,legacy,0,congruent,uniform,1,undefined,1,h,0,0,0,140,140,0,140,0,140,0,0,0,140,140,140,140,Thu Sep 19 16:32:56 2019,600,The main experiment item,yes,CB-FlankerTask-Lab1.2.osexp,/Users/cristianbotello/Desktop/Advanced Quant,no,mono,no,18,no,white,no,no,768,legacy,60,79,/Users/cristianbotello/Desktop/Advanced Quant/CB-subject-2.csv,legacy,Kafkaesque Koffka,3.2.8,0,h,NA,h,s,NA,h,467,NA,12705,52354,NA,467,2,legacy,1024,2,48000,-16,experiment,HHHHH,2,even,55611,209809,NA,311527,254406,3209,225080,NA,312628,197100,3247,NA,312743,313215,312616,312743,Flanker Task,134,66194,141,yes,1024
95.07042254,95.07042254,468.8028169,468.8028169,black,legacy,legacy,legacy,0,congruent,uniform,1,undefined,1,s,0,0,0,141,141,0,141,0,141,0,0,0,141,141,141,141,Thu Sep 19 16:32:56 2019,600,The main experiment item,yes,CB-FlankerTask-Lab1.2.osexp,/Users/cristianbotello/Desktop/Advanced Quant,no,mono,no,18,no,white,no,no,768,legacy,61,79,/Users/cristianbotello/Desktop/Advanced Quant/CB-subject-2.csv,legacy,Kafkaesque Koffka,3.2.8,0,s,NA,h,s,NA,s,376,NA,12705,52354,NA,376,2,legacy,1024,2,48000,-16,experiment,SSSSS,2,even,55611,209809,NA,313241,254406,3209,225080,NA,314365,197100,3247,NA,314477,314856,314353,314476,Flanker Task,135,66570,142,yes,1024
95.1048951,95.1048951,468.4755245,468.4755245,black,legacy,legacy,legacy,0,incongruent,uniform,1,undefined,1,h,0,0,0,142,142,0,142,0,142,0,0,0,142,142,142,142,Thu Sep 19 16:32:56 2019,600,The main experiment item,yes,CB-FlankerTask-Lab1.2.osexp,/Users/cristianbotello/Desktop/Advanced Quant,no,mono,no,18,no,white,no,no,768,legacy,62,79,/Users/cristianbotello/Desktop/Advanced Quant/CB-subject-2.csv,legacy,Kafkaesque Koffka,3.2.8,0,h,NA,h,s,NA,h,422,NA,12705,52354,NA,422,2,legacy,1024,2,48000,-16,experiment,SSHSS,2,even,55611,209809,NA,314870,254406,3209,225080,NA,315969,197100,3247,NA,316080,316506,315958,316080,Flanker Task,136,66992,143,yes,1024
95.13888889,95.13888889,468.3472222,468.3472222,black,legacy,legacy,legacy,0,incongruent,uniform,1,undefined,1,s,0,0,0,143,143,0,143,0,143,0,0,0,143,143,143,143,Thu Sep 19 16:32:56 2019,600,The main experiment item,yes,CB-FlankerTask-Lab1.2.osexp,/Users/cristianbotello/Desktop/Advanced Quant,no,mono,no,18,no,white,no,no,768,legacy,63,79,/Users/cristianbotello/Desktop/Advanced Quant/CB-subject-2.csv,legacy,Kafkaesque Koffka,3.2.8,0,s,NA,h,s,NA,s,450,NA,12705,52354,NA,450,2,legacy,1024,2,48000,-16,experiment,HHSHH,2,even,55611,209809,NA,316525,254406,3209,225080,NA,317647,197100,3247,NA,317761,318214,317635,317761,Flanker Task,137,67442,144,yes,1024
95.17241379,95.17241379,467.7241379,467.7241379,black,legacy,legacy,legacy,0,incongruent,uniform,1,undefined,1,h,0,0,0,144,144,0,144,0,144,0,0,0,144,144,144,144,Thu Sep 19 16:32:56 2019,600,The main experiment item,yes,CB-FlankerTask-Lab1.2.osexp,/Users/cristianbotello/Desktop/Advanced Quant,no,mono,no,18,no,white,no,no,768,legacy,64,79,/Users/cristianbotello/Desktop/Advanced Quant/CB-subject-2.csv,legacy,Kafkaesque Koffka,3.2.8,0,h,NA,h,s,NA,h,378,NA,12705,52354,NA,378,2,legacy,1024,2,48000,-16,experiment,SSHSS,2,even,55611,209809,NA,318228,254406,3209,225080,NA,319328,197100,3247,NA,319444,319825,319317,319444,Flanker Task,138,67820,145,yes,1024
94.52054795,94.52054795,467.1027397,467.1027397,black,legacy,legacy,legacy,0,incongruent,uniform,0,undefined,0,h,0,0,0,145,145,0,145,0,145,0,0,0,145,145,145,145,Thu Sep 19 16:32:56 2019,600,The main experiment item,yes,CB-FlankerTask-Lab1.2.osexp,/Users/cristianbotello/Desktop/Advanced Quant,no,mono,no,18,no,white,no,no,768,legacy,65,79,/Users/cristianbotello/Desktop/Advanced Quant/CB-subject-2.csv,legacy,Kafkaesque Koffka,3.2.8,0,s,NA,h,s,NA,s,377,NA,12705,52354,NA,377,2,legacy,1024,2,48000,-16,experiment,SSHSS,2,even,55611,209809,NA,319846,254406,3209,225080,NA,320970,197100,3247,NA,321081,321461,320958,321081,Flanker Task,138,68197,146,yes,1024
94.55782313,94.55782313,466.4829932,466.4829932,black,legacy,legacy,legacy,0,incongruent,uniform,1,undefined,1,h,0,0,0,146,146,0,146,0,146,0,0,0,146,146,146,146,Thu Sep 19 16:32:56 2019,600,The main experiment item,yes,CB-FlankerTask-Lab1.2.osexp,/Users/cristianbotello/Desktop/Advanced Quant,no,mono,no,18,no,white,no,no,768,legacy,66,79,/Users/cristianbotello/Desktop/Advanced Quant/CB-subject-2.csv,legacy,Kafkaesque Koffka,3.2.8,0,h,NA,h,s,NA,h,376,NA,12705,52354,NA,376,2,legacy,1024,2,48000,-16,experiment,SSHSS,2,even,55611,209809,NA,321986,321475,3209,225080,NA,323082,197100,3247,NA,323197,323576,323071,323197,Flanker Task,139,68573,147,yes,1024
94.59459459,94.59459459,466.1486486,466.1486486,black,legacy,legacy,legacy,0,incongruent,uniform,1,undefined,1,h,0,0,0,147,147,0,147,0,147,0,0,0,147,147,147,147,Thu Sep 19 16:32:56 2019,600,The main experiment item,yes,CB-FlankerTask-Lab1.2.osexp,/Users/cristianbotello/Desktop/Advanced Quant,no,mono,no,18,no,white,no,no,768,legacy,67,79,/Users/cristianbotello/Desktop/Advanced Quant/CB-subject-2.csv,legacy,Kafkaesque Koffka,3.2.8,0,h,NA,h,s,NA,h,417,NA,12705,52354,NA,417,2,legacy,1024,2,48000,-16,experiment,SSHSS,2,even,55611,209809,NA,323590,321475,3209,225080,NA,324690,197100,3247,NA,324801,325235,324678,324801,Flanker Task,140,68990,148,yes,1024
94.63087248,94.63087248,466.1543624,466.1543624,black,legacy,legacy,legacy,0,incongruent,uniform,1,undefined,1,s,0,0,0,148,148,0,148,0,148,0,0,0,148,148,148,148,Thu Sep 19 16:32:56 2019,600,The main experiment item,yes,CB-FlankerTask-Lab1.2.osexp,/Users/cristianbotello/Desktop/Advanced Quant,no,mono,no,18,no,white,no,no,768,legacy,68,79,/Users/cristianbotello/Desktop/Advanced Quant/CB-subject-2.csv,legacy,Kafkaesque Koffka,3.2.8,0,s,NA,h,s,NA,s,467,NA,12705,52354,NA,467,2,legacy,1024,2,48000,-16,experiment,HHSHH,2,even,55611,209809,NA,325251,321475,3209,225080,NA,326371,197100,3247,NA,326487,326958,326359,326486,Flanker Task,141,69457,149,yes,1024
94.66666667,94.66666667,465.46,465.46,black,legacy,legacy,legacy,0,congruent,uniform,1,undefined,1,h,0,0,0,149,149,0,149,0,149,0,0,0,149,149,149,149,Thu Sep 19 16:32:56 2019,600,The main experiment item,yes,CB-FlankerTask-Lab1.2.osexp,/Users/cristianbotello/Desktop/Advanced Quant,no,mono,no,18,no,white,no,no,768,legacy,69,79,/Users/cristianbotello/Desktop/Advanced Quant/CB-subject-2.csv,legacy,Kafkaesque Koffka,3.2.8,0,h,NA,h,s,NA,h,362,NA,12705,52354,NA,362,2,legacy,1024,2,48000,-16,experiment,HHHHH,2,even,55611,209809,NA,326972,321475,3209,225080,NA,328071,197100,3247,NA,328186,328562,328059,328186,Flanker Task,142,69819,150,yes,1024
94.70198676,94.70198676,465.5099338,465.5099338,black,legacy,legacy,legacy,0,congruent,uniform,1,undefined,1,s,0,0,0,150,150,0,150,0,150,0,0,0,150,150,150,150,Thu Sep 19 16:32:56 2019,600,The main experiment item,yes,CB-FlankerTask-Lab1.2.osexp,/Users/cristianbotello/Desktop/Advanced Quant,no,mono,no,18,no,white,no,no,768,legacy,70,79,/Users/cristianbotello/Desktop/Advanced Quant/CB-subject-2.csv,legacy,Kafkaesque Koffka,3.2.8,0,s,NA,h,s,NA,s,473,NA,12705,52354,NA,473,2,legacy,1024,2,48000,-16,experiment,SSSSS,2,even,55611,209809,NA,328588,321475,3209,225080,NA,329709,197100,3247,NA,329824,330302,329697,329823,Flanker Task,143,70292,151,yes,1024
94.73684211,94.73684211,465.2302632,465.2302632,black,legacy,legacy,legacy,0,incongruent,uniform,1,undefined,1,h,0,0,0,151,151,0,151,0,151,0,0,0,151,151,151,151,Thu Sep 19 16:32:56 2019,600,The main experiment item,yes,CB-FlankerTask-Lab1.2.osexp,/Users/cristianbotello/Desktop/Advanced Quant,no,mono,no,18,no,white,no,no,768,legacy,71,79,/Users/cristianbotello/Desktop/Advanced Quant/CB-subject-2.csv,legacy,Kafkaesque Koffka,3.2.8,0,h,NA,h,s,NA,h,423,NA,12705,52354,NA,423,2,legacy,1024,2,48000,-16,experiment,SSHSS,2,even,55611,209809,NA,330317,321475,3209,225080,NA,331419,197100,3247,NA,331534,331961,331407,331534,Flanker Task,144,70715,152,yes,1024
94.77124183,94.77124183,464.7647059,464.7647059,black,legacy,legacy,legacy,0,incongruent,uniform,1,undefined,1,h,0,0,0,152,152,0,152,0,152,0,0,0,152,152,152,152,Thu Sep 19 16:32:56 2019,600,The main experiment item,yes,CB-FlankerTask-Lab1.2.osexp,/Users/cristianbotello/Desktop/Advanced Quant,no,mono,no,18,no,white,no,no,768,legacy,72,79,/Users/cristianbotello/Desktop/Advanced Quant/CB-subject-2.csv,legacy,Kafkaesque Koffka,3.2.8,0,h,NA,h,s,NA,h,394,NA,12705,52354,NA,394,2,legacy,1024,2,48000,-16,experiment,SSHSS,2,even,55611,209809,NA,331977,321475,3209,225080,NA,333100,197100,3247,NA,333215,333612,333088,333215,Flanker Task,145,71109,153,yes,1024
94.80519481,94.80519481,464.0779221,464.0779221,black,legacy,legacy,legacy,0,congruent,uniform,1,undefined,1,h,0,0,0,153,153,0,153,0,153,0,0,0,153,153,153,153,Thu Sep 19 16:32:56 2019,600,The main experiment item,yes,CB-FlankerTask-Lab1.2.osexp,/Users/cristianbotello/Desktop/Advanced Quant,no,mono,no,18,no,white,no,no,768,legacy,73,79,/Users/cristianbotello/Desktop/Advanced Quant/CB-subject-2.csv,legacy,Kafkaesque Koffka,3.2.8,0,h,NA,h,s,NA,h,359,NA,12705,52354,NA,359,2,legacy,1024,2,48000,-16,experiment,HHHHH,2,even,55611,209809,NA,333627,321475,3209,225080,NA,334727,197100,3247,NA,334842,335208,334715,334842,Flanker Task,146,71468,154,yes,1024
94.83870968,94.83870968,463.5225806,463.5225806,black,legacy,legacy,legacy,0,congruent,uniform,1,undefined,1,h,0,0,0,154,154,0,154,0,154,0,0,0,154,154,154,154,Thu Sep 19 16:32:56 2019,600,The main experiment item,yes,CB-FlankerTask-Lab1.2.osexp,/Users/cristianbotello/Desktop/Advanced Quant,no,mono,no,18,no,white,no,no,768,legacy,74,79,/Users/cristianbotello/Desktop/Advanced Quant/CB-subject-2.csv,legacy,Kafkaesque Koffka,3.2.8,0,h,NA,h,s,NA,h,378,NA,12705,52354,NA,378,2,legacy,1024,2,48000,-16,experiment,HHHHH,2,even,55611,209809,NA,335226,321475,3209,225080,NA,336350,197100,3247,NA,336468,336849,336337,336467,Flanker Task,147,71846,155,yes,1024
