"acc","accuracy","average_response_time","avg_rt","background","canvas_backend","clock_backend","color_backend","compensation","condition","coordinates","correct","correct_instructions1","correct_keyboard_response","correct_response","count_ISI","count_block1","count_block2","count_block3","count_errorFeedback","count_experiment","count_faster","count_finish","count_fixation","count_instructions1","count_instructions2","count_instructions3","count_keyboard_response","count_logger","count_sequence","count_stimulus","count_welcome","datetime","deadline","description","disable_garbage_collection","experiment_file","experiment_path","font_bold","font_family","font_italic","font_size","font_underline","foreground","form_clicks","fullscreen","height","keyboard_backend","live_row","live_row_block1","logfile","mouse_backend","opensesame_codename","opensesame_version","repeat_cycle","response","response_finish","response_instructions1","response_instructions2","response_instructions3","response_keyboard_response","response_time","response_time_finish","response_time_instructions1","response_time_instructions2","response_time_instructions3","response_time_keyboard_response","response_time_welcome","response_welcome","round_decimals","sampler_backend","sound_buf_size","sound_channels","sound_freq","sound_sample_size","start","stimulus","subject_nr","subject_parity","time_ISI","time_block1","time_block2","time_block3","time_errorFeedback","time_experiment","time_faster","time_finish","time_fixation","time_instructions1","time_instructions2","time_instructions3","time_keyboard_response","time_logger","time_sequence","time_stimulus","time_welcome","title","total_correct","total_response_time","total_responses","uniform_coordinates","width"
"100","100","1143","1143","black","legacy","legacy","legacy","0","congruent","uniform","1","undefined","1","h","0","0","0","0","0","0","0","0","0","0","0","0","0","0","0","0","NA","09/25/21 18:58:39","1500","The main experiment item","yes","FlankerTask.osexp","C:\Users\katie\Documents\School\Quant Methods","no","mono","no","18","no","white","no","yes","768","legacy","0","0","C:/Users/katie/Documents/School/Quant Methods/KH-subject-4.csv","legacy","Lentiform Loewenfeld","3.3.9","0","h","NA","s","NA","NA","h","1143","NA","35353","NA","NA","1143","NA","NA","2","legacy","1024","2","48000","-16","experiment","HHHHH","4","even","NA","38285","NA","NA","NA","2917","NA","NA","38364","2931","NA","NA","38466","39610","38362","38465","NA","Flanker Task","1","1143","1","yes","1024"
"100","100","975","975","black","legacy","legacy","legacy","0","incongruent","uniform","1","undefined","1","s","1","0","0","0","1","0","1","0","1","0","0","0","1","1","1","1","NA","09/25/21 18:58:39","1500","The main experiment item","yes","FlankerTask.osexp","C:\Users\katie\Documents\School\Quant Methods","no","mono","no","18","no","white","no","yes","768","legacy","1","1","C:/Users/katie/Documents/School/Quant Methods/KH-subject-4.csv","legacy","Lentiform Loewenfeld","3.3.9","0","s","NA","s","NA","NA","s","807","NA","35353","NA","NA","807","NA","NA","2","legacy","1024","2","48000","-16","experiment","HHSHH","4","even","39624","38285","NA","NA","NA","2917","NA","NA","40680","2931","NA","NA","40782","41590","40678","40781","NA","Flanker Task","2","1950","2","yes","1024"
"100","100","853.333333333","853.333333333","black","legacy","legacy","legacy","0","incongruent","uniform","1","undefined","1","s","2","0","0","0","2","0","2","0","2","0","0","0","2","2","2","2","NA","09/25/21 18:58:39","1500","The main experiment item","yes","FlankerTask.osexp","C:\Users\katie\Documents\School\Quant Methods","no","mono","no","18","no","white","no","yes","768","legacy","2","2","C:/Users/katie/Documents/School/Quant Methods/KH-subject-4.csv","legacy","Lentiform Loewenfeld","3.3.9","0","s","NA","s","NA","NA","s","610","NA","35353","NA","NA","610","NA","NA","2","legacy","1024","2","48000","-16","experiment","HHSHH","4","even","41602","38285","NA","NA","NA","2917","NA","NA","42665","2931","NA","NA","42766","43376","42662","42766","NA","Flanker Task","3","2560","3","yes","1024"
"100","100","766.25","766.25","black","legacy","legacy","legacy","0","incongruent","uniform","1","undefined","1","s","3","0","0","0","3","0","3","0","3","0","0","0","3","3","3","3","NA","09/25/21 18:58:39","1500","The main experiment item","yes","FlankerTask.osexp","C:\Users\katie\Documents\School\Quant Methods","no","mono","no","18","no","white","no","yes","768","legacy","3","3","C:/Users/katie/Documents/School/Quant Methods/KH-subject-4.csv","legacy","Lentiform Loewenfeld","3.3.9","0","s","NA","s","NA","NA","s","505","NA","35353","NA","NA","505","NA","NA","2","legacy","1024","2","48000","-16","experiment","HHSHH","4","even","43389","38285","NA","NA","NA","2917","NA","NA","44456","2931","NA","NA","44558","45064","44453","44558","NA","Flanker Task","4","3065","4","yes","1024"
"100","100","759","759","black","legacy","legacy","legacy","0","incongruent","uniform","1","undefined","1","h","4","0","0","0","4","0","4","0","4","0","0","0","4","4","4","4","NA","09/25/21 18:58:39","1500","The main experiment item","yes","FlankerTask.osexp","C:\Users\katie\Documents\School\Quant Methods","no","mono","no","18","no","white","no","yes","768","legacy","4","4","C:/Users/katie/Documents/School/Quant Methods/KH-subject-4.csv","legacy","Lentiform Loewenfeld","3.3.9","0","h","NA","s","NA","NA","h","730","NA","35353","NA","NA","730","NA","NA","2","legacy","1024","2","48000","-16","experiment","SSHSS","4","even","45076","38285","NA","NA","NA","2917","NA","NA","46147","2931","NA","NA","46248","46978","46146","46248","NA","Flanker Task","5","3795","5","yes","1024"
"100","100","745.833333333","745.833333333","black","legacy","legacy","legacy","0","incongruent","uniform","1","undefined","1","s","5","0","0","0","5","0","5","0","5","0","0","0","5","5","5","5","NA","09/25/21 18:58:39","1500","The main experiment item","yes","FlankerTask.osexp","C:\Users\katie\Documents\School\Quant Methods","no","mono","no","18","no","white","no","yes","768","legacy","5","5","C:/Users/katie/Documents/School/Quant Methods/KH-subject-4.csv","legacy","Lentiform Loewenfeld","3.3.9","0","s","NA","s","NA","NA","s","680","NA","35353","NA","NA","680","NA","NA","2","legacy","1024","2","48000","-16","experiment","HHSHH","4","even","46982","38285","NA","NA","NA","2917","NA","NA","48045","2931","NA","NA","48147","48828","48043","48147","NA","Flanker Task","6","4475","6","yes","1024"
"100","100","723.714285714","723.714285714","black","legacy","legacy","legacy","0","incongruent","uniform","1","undefined","1","s","6","0","0","0","6","0","6","0","6","0","0","0","6","6","6","6","NA","09/25/21 18:58:39","1500","The main experiment item","yes","FlankerTask.osexp","C:\Users\katie\Documents\School\Quant Methods","no","mono","no","18","no","white","no","yes","768","legacy","6","6","C:/Users/katie/Documents/School/Quant Methods/KH-subject-4.csv","legacy","Lentiform Loewenfeld","3.3.9","0","s","NA","s","NA","NA","s","591","NA","35353","NA","NA","591","NA","NA","2","legacy","1024","2","48000","-16","experiment","HHSHH","4","even","48832","38285","NA","NA","NA","2917","NA","NA","49903","2931","NA","NA","50005","50597","49901","50005","NA","Flanker Task","7","5066","7","yes","1024"
"100","100","719.625","719.625","black","legacy","legacy","legacy","0","incongruent","uniform","1","undefined","1","h","7","0","0","0","7","0","7","0","7","0","0","0","7","7","7","7","NA","09/25/21 18:58:39","1500","The main experiment item","yes","FlankerTask.osexp","C:\Users\katie\Documents\School\Quant Methods","no","mono","no","18","no","white","no","yes","768","legacy","7","7","C:/Users/katie/Documents/School/Quant Methods/KH-subject-4.csv","legacy","Lentiform Loewenfeld","3.3.9","0","h","NA","s","NA","NA","h","691","NA","35353","NA","NA","691","NA","NA","2","legacy","1024","2","48000","-16","experiment","SSHSS","4","even","50601","38285","NA","NA","NA","2917","NA","NA","51674","2931","NA","NA","51776","52468","51672","51776","NA","Flanker Task","8","5757","8","yes","1024"
"100","100","721.333333333","721.333333333","black","legacy","legacy","legacy","0","congruent","uniform","1","undefined","1","s","8","0","0","0","8","0","8","0","8","0","0","0","8","8","8","8","NA","09/25/21 18:58:39","1500","The main experiment item","yes","FlankerTask.osexp","C:\Users\katie\Documents\School\Quant Methods","no","mono","no","18","no","white","no","yes","768","legacy","8","8","C:/Users/katie/Documents/School/Quant Methods/KH-subject-4.csv","legacy","Lentiform Loewenfeld","3.3.9","0","s","NA","s","NA","NA","s","735","NA","35353","NA","NA","735","NA","NA","2","legacy","1024","2","48000","-16","experiment","SSSSS","4","even","52471","38285","NA","NA","NA","2917","NA","NA","53529","2931","NA","NA","53630","54366","53526","53630","NA","Flanker Task","9","6492","9","yes","1024"
"100","100","707","707","black","legacy","legacy","legacy","0","incongruent","uniform","1","undefined","1","s","9","0","0","0","9","0","9","0","9","0","0","0","9","9","9","9","NA","09/25/21 18:58:39","1500","The main experiment item","yes","FlankerTask.osexp","C:\Users\katie\Documents\School\Quant Methods","no","mono","no","18","no","white","no","yes","768","legacy","9","9","C:/Users/katie/Documents/School/Quant Methods/KH-subject-4.csv","legacy","Lentiform Loewenfeld","3.3.9","0","s","NA","s","NA","NA","s","578","NA","35353","NA","NA","578","NA","NA","2","legacy","1024","2","48000","-16","experiment","HHSHH","4","even","54369","38285","NA","NA","NA","2917","NA","NA","55434","2931","NA","NA","55535","56113","55430","55535","NA","Flanker Task","10","7070","10","yes","1024"
"100","100","691.181818182","691.181818182","black","legacy","legacy","legacy","0","incongruent","uniform","1","undefined","1","h","10","0","0","0","10","0","10","0","10","0","0","0","10","10","10","10","NA","09/25/21 18:58:39","1500","The main experiment item","yes","FlankerTask.osexp","C:\Users\katie\Documents\School\Quant Methods","no","mono","no","18","no","white","no","yes","768","legacy","10","10","C:/Users/katie/Documents/School/Quant Methods/KH-subject-4.csv","legacy","Lentiform Loewenfeld","3.3.9","0","h","NA","s","NA","NA","h","533","NA","35353","NA","NA","533","NA","NA","2","legacy","1024","2","48000","-16","experiment","SSHSS","4","even","56118","38285","NA","NA","NA","2917","NA","NA","57176","2931","NA","NA","57277","57811","57173","57277","NA","Flanker Task","11","7603","11","yes","1024"
"100","100","680.833333333","680.833333333","black","legacy","legacy","legacy","0","congruent","uniform","1","undefined","1","s","11","0","0","0","11","0","11","0","11","0","0","0","11","11","11","11","NA","09/25/21 18:58:39","1500","The main experiment item","yes","FlankerTask.osexp","C:\Users\katie\Documents\School\Quant Methods","no","mono","no","18","no","white","no","yes","768","legacy","11","11","C:/Users/katie/Documents/School/Quant Methods/KH-subject-4.csv","legacy","Lentiform Loewenfeld","3.3.9","0","s","NA","s","NA","NA","s","567","NA","35353","NA","NA","567","NA","NA","2","legacy","1024","2","48000","-16","experiment","SSSSS","4","even","57814","38285","NA","NA","NA","2917","NA","NA","58883","2931","NA","NA","58986","59553","58881","58986","NA","Flanker Task","12","8170","12","yes","1024"
"100","100","675.461538462","675.461538462","black","legacy","legacy","legacy","0","congruent","uniform","1","undefined","1","h","12","0","0","0","12","0","12","0","12","0","0","0","12","12","12","12","NA","09/25/21 18:58:39","1500","The main experiment item","yes","FlankerTask.osexp","C:\Users\katie\Documents\School\Quant Methods","no","mono","no","18","no","white","no","yes","768","legacy","12","12","C:/Users/katie/Documents/School/Quant Methods/KH-subject-4.csv","legacy","Lentiform Loewenfeld","3.3.9","0","h","NA","s","NA","NA","h","611","NA","35353","NA","NA","611","NA","NA","2","legacy","1024","2","48000","-16","experiment","HHHHH","4","even","59558","38285","NA","NA","NA","2917","NA","NA","60619","2931","NA","NA","60720","61331","60617","60720","NA","Flanker Task","13","8781","13","yes","1024"
"100","100","667.357142857","667.357142857","black","legacy","legacy","legacy","0","congruent","uniform","1","undefined","1","s","13","0","0","0","13","0","13","0","13","0","0","0","13","13","13","13","NA","09/25/21 18:58:39","1500","The main experiment item","yes","FlankerTask.osexp","C:\Users\katie\Documents\School\Quant Methods","no","mono","no","18","no","white","no","yes","768","legacy","13","13","C:/Users/katie/Documents/School/Quant Methods/KH-subject-4.csv","legacy","Lentiform Loewenfeld","3.3.9","0","s","NA","s","NA","NA","s","562","NA","35353","NA","NA","562","NA","NA","2","legacy","1024","2","48000","-16","experiment","SSSSS","4","even","61335","38285","NA","NA","NA","2917","NA","NA","62391","2931","NA","NA","62492","63054","62388","62492","NA","Flanker Task","14","9343","14","yes","1024"
"100","100","700.533333333","700.533333333","black","legacy","legacy","legacy","0","congruent","uniform","1","undefined","1","s","14","0","0","0","14","0","14","0","14","0","0","0","14","14","14","14","NA","09/25/21 18:58:39","1500","The main experiment item","yes","FlankerTask.osexp","C:\Users\katie\Documents\School\Quant Methods","no","mono","no","18","no","white","no","yes","768","legacy","14","14","C:/Users/katie/Documents/School/Quant Methods/KH-subject-4.csv","legacy","Lentiform Loewenfeld","3.3.9","0","s","NA","s","NA","NA","s","1165","NA","35353","NA","NA","1165","NA","NA","2","legacy","1024","2","48000","-16","experiment","SSSSS","4","even","63058","38285","NA","NA","NA","2917","NA","NA","64123","2931","NA","NA","64224","65389","64119","64224","NA","Flanker Task","15","10508","15","yes","1024"
"100","100","693.6875","693.6875","black","legacy","legacy","legacy","0","congruent","uniform","1","undefined","1","h","15","0","0","0","15","0","15","0","15","0","0","0","15","15","15","15","NA","09/25/21 18:58:39","1500","The main experiment item","yes","FlankerTask.osexp","C:\Users\katie\Documents\School\Quant Methods","no","mono","no","18","no","white","no","yes","768","legacy","15","15","C:/Users/katie/Documents/School/Quant Methods/KH-subject-4.csv","legacy","Lentiform Loewenfeld","3.3.9","0","h","NA","s","NA","NA","h","591","NA","35353","NA","NA","591","NA","NA","2","legacy","1024","2","48000","-16","experiment","HHHHH","4","even","65398","38285","NA","NA","NA","2917","NA","NA","66460","2931","NA","NA","66561","67153","66458","66561","NA","Flanker Task","16","11099","16","yes","1024"
"100","100","695.941176471","695.941176471","black","legacy","legacy","legacy","0","incongruent","uniform","1","undefined","1","h","16","0","0","0","16","0","16","0","16","0","0","0","16","16","16","16","NA","09/25/21 18:58:39","1500","The main experiment item","yes","FlankerTask.osexp","C:\Users\katie\Documents\School\Quant Methods","no","mono","no","18","no","white","no","yes","768","legacy","16","16","C:/Users/katie/Documents/School/Quant Methods/KH-subject-4.csv","legacy","Lentiform Loewenfeld","3.3.9","0","h","NA","s","NA","NA","h","732","NA","35353","NA","NA","732","NA","NA","2","legacy","1024","2","48000","-16","experiment","SSHSS","4","even","67157","38285","NA","NA","NA","2917","NA","NA","68211","2931","NA","NA","68313","69046","68209","68312","NA","Flanker Task","17","11831","17","yes","1024"
"100","100","691.833333333","691.833333333","black","legacy","legacy","legacy","0","congruent","uniform","1","undefined","1","h","17","0","0","0","17","0","17","0","17","0","0","0","17","17","17","17","NA","09/25/21 18:58:39","1500","The main experiment item","yes","FlankerTask.osexp","C:\Users\katie\Documents\School\Quant Methods","no","mono","no","18","no","white","no","yes","768","legacy","17","17","C:/Users/katie/Documents/School/Quant Methods/KH-subject-4.csv","legacy","Lentiform Loewenfeld","3.3.9","0","h","NA","s","NA","NA","h","622","NA","35353","NA","NA","622","NA","NA","2","legacy","1024","2","48000","-16","experiment","HHHHH","4","even","69050","38285","NA","NA","NA","2917","NA","NA","70116","2931","NA","NA","70217","70840","70114","70217","NA","Flanker Task","18","12453","18","yes","1024"
"100","100","676.631578947","676.631578947","black","legacy","legacy","legacy","0","congruent","uniform","1","undefined","1","s","18","0","0","0","18","0","18","0","18","0","0","0","18","18","18","18","NA","09/25/21 18:58:39","1500","The main experiment item","yes","FlankerTask.osexp","C:\Users\katie\Documents\School\Quant Methods","no","mono","no","18","no","white","no","yes","768","legacy","18","18","C:/Users/katie/Documents/School/Quant Methods/KH-subject-4.csv","legacy","Lentiform Loewenfeld","3.3.9","0","s","NA","s","NA","NA","s","403","NA","35353","NA","NA","403","NA","NA","2","legacy","1024","2","48000","-16","experiment","SSSSS","4","even","70844","38285","NA","NA","NA","2917","NA","NA","71907","2931","NA","NA","72008","72411","71904","72008","NA","Flanker Task","19","12856","19","yes","1024"
"95","95","671.9","671.9","black","legacy","legacy","legacy","0","incongruent","uniform","0","undefined","0","h","19","0","0","0","19","0","19","0","19","0","0","0","19","19","19","19","NA","09/25/21 18:58:39","1500","The main experiment item","yes","FlankerTask.osexp","C:\Users\katie\Documents\School\Quant Methods","no","mono","no","18","no","white","no","yes","768","legacy","19","19","C:/Users/katie/Documents/School/Quant Methods/KH-subject-4.csv","legacy","Lentiform Loewenfeld","3.3.9","0","s","NA","s","NA","NA","s","582","NA","35353","NA","NA","582","NA","NA","2","legacy","1024","2","48000","-16","experiment","SSHSS","4","even","72415","38285","NA","NA","NA","2917","NA","NA","73475","2931","NA","NA","73576","74159","73473","73576","NA","Flanker Task","19","13438","20","yes","1024"
"95.2380952381","95.2380952381","665.095238095","665.095238095","black","legacy","legacy","legacy","0","incongruent","uniform","1","undefined","1","h","20","0","0","0","20","0","20","0","20","0","0","0","20","20","20","20","NA","09/25/21 18:58:39","1500","The main experiment item","yes","FlankerTask.osexp","C:\Users\katie\Documents\School\Quant Methods","no","mono","no","18","no","white","no","yes","768","legacy","20","20","C:/Users/katie/Documents/School/Quant Methods/KH-subject-4.csv","legacy","Lentiform Loewenfeld","3.3.9","0","h","NA","s","NA","NA","h","529","NA","35353","NA","NA","529","NA","NA","2","legacy","1024","2","48000","-16","experiment","SSHSS","4","even","74665","38285","NA","NA","74163","2917","NA","NA","75727","2931","NA","NA","75829","76359","75724","75829","NA","Flanker Task","20","13967","21","yes","1024"
"95.4545454545","95.4545454545","660.454545455","660.454545455","black","legacy","legacy","legacy","0","congruent","uniform","1","undefined","1","s","21","0","0","0","21","0","21","0","21","0","0","0","21","21","21","21","NA","09/25/21 18:58:39","1500","The main experiment item","yes","FlankerTask.osexp","C:\Users\katie\Documents\School\Quant Methods","no","mono","no","18","no","white","no","yes","768","legacy","21","21","C:/Users/katie/Documents/School/Quant Methods/KH-subject-4.csv","legacy","Lentiform Loewenfeld","3.3.9","0","s","NA","s","NA","NA","s","563","NA","35353","NA","NA","563","NA","NA","2","legacy","1024","2","48000","-16","experiment","SSSSS","4","even","76363","38285","NA","NA","74163","2917","NA","NA","77436","2931","NA","NA","77538","78102","77434","77538","NA","Flanker Task","21","14530","22","yes","1024"
"95.652173913","95.652173913","652.652173913","652.652173913","black","legacy","legacy","legacy","0","congruent","uniform","1","undefined","1","h","22","0","0","0","22","0","22","0","22","0","0","0","22","22","22","22","NA","09/25/21 18:58:39","1500","The main experiment item","yes","FlankerTask.osexp","C:\Users\katie\Documents\School\Quant Methods","no","mono","no","18","no","white","no","yes","768","legacy","22","22","C:/Users/katie/Documents/School/Quant Methods/KH-subject-4.csv","legacy","Lentiform Loewenfeld","3.3.9","0","h","NA","s","NA","NA","h","481","NA","35353","NA","NA","481","NA","NA","2","legacy","1024","2","48000","-16","experiment","HHHHH","4","even","78106","38285","NA","NA","74163","2917","NA","NA","79176","2931","NA","NA","79278","79759","79170","79278","NA","Flanker Task","22","15011","23","yes","1024"
"95.8333333333","95.8333333333","654.375","654.375","black","legacy","legacy","legacy","0","incongruent","uniform","1","undefined","1","h","23","0","0","0","23","0","23","0","23","0","0","0","23","23","23","23","NA","09/25/21 18:58:39","1500","The main experiment item","yes","FlankerTask.osexp","C:\Users\katie\Documents\School\Quant Methods","no","mono","no","18","no","white","no","yes","768","legacy","23","23","C:/Users/katie/Documents/School/Quant Methods/KH-subject-4.csv","legacy","Lentiform Loewenfeld","3.3.9","0","h","NA","s","NA","NA","h","694","NA","35353","NA","NA","694","NA","NA","2","legacy","1024","2","48000","-16","experiment","SSHSS","4","even","79763","38285","NA","NA","74163","2917","NA","NA","80827","2931","NA","NA","80928","81622","80824","80928","NA","Flanker Task","23","15705","24","yes","1024"
"96","96","648.84","648.84","black","legacy","legacy","legacy","0","congruent","uniform","1","undefined","1","h","24","0","0","0","24","0","24","0","24","0","0","0","24","24","24","24","NA","09/25/21 18:58:39","1500","The main experiment item","yes","FlankerTask.osexp","C:\Users\katie\Documents\School\Quant Methods","no","mono","no","18","no","white","no","yes","768","legacy","24","24","C:/Users/katie/Documents/School/Quant Methods/KH-subject-4.csv","legacy","Lentiform Loewenfeld","3.3.9","0","h","NA","s","NA","NA","h","516","NA","35353","NA","NA","516","NA","NA","2","legacy","1024","2","48000","-16","experiment","HHHHH","4","even","81627","38285","NA","NA","74163","2917","NA","NA","82691","2931","NA","NA","82793","83310","82687","82792","NA","Flanker Task","24","16221","25","yes","1024"
"96.1538461538","96.1538461538","644.076923077","644.076923077","black","legacy","legacy","legacy","0","congruent","uniform","1","undefined","1","h","25","0","0","0","25","0","25","0","25","0","0","0","25","25","25","25","NA","09/25/21 18:58:39","1500","The main experiment item","yes","FlankerTask.osexp","C:\Users\katie\Documents\School\Quant Methods","no","mono","no","18","no","white","no","yes","768","legacy","25","25","C:/Users/katie/Documents/School/Quant Methods/KH-subject-4.csv","legacy","Lentiform Loewenfeld","3.3.9","0","h","NA","s","NA","NA","h","525","NA","35353","NA","NA","525","NA","NA","2","legacy","1024","2","48000","-16","experiment","HHHHH","4","even","83313","38285","NA","NA","74163","2917","NA","NA","84372","2931","NA","NA","84473","84999","84369","84473","NA","Flanker Task","25","16746","26","yes","1024"
"96.2962962963","96.2962962963","642.703703704","642.703703704","black","legacy","legacy","legacy","0","incongruent","uniform","1","undefined","1","s","26","0","0","0","26","0","26","0","26","0","0","0","26","26","26","26","NA","09/25/21 18:58:39","1500","The main experiment item","yes","FlankerTask.osexp","C:\Users\katie\Documents\School\Quant Methods","no","mono","no","18","no","white","no","yes","768","legacy","26","26","C:/Users/katie/Documents/School/Quant Methods/KH-subject-4.csv","legacy","Lentiform Loewenfeld","3.3.9","0","s","NA","s","NA","NA","s","607","NA","35353","NA","NA","607","NA","NA","2","legacy","1024","2","48000","-16","experiment","HHSHH","4","even","85003","38285","NA","NA","74163","2917","NA","NA","86062","2931","NA","NA","86163","86771","86059","86163","NA","Flanker Task","26","17353","27","yes","1024"
"96.4285714286","96.4285714286","637.178571429","637.178571429","black","legacy","legacy","legacy","0","congruent","uniform","1","undefined","1","h","27","0","0","0","27","0","27","0","27","0","0","0","27","27","27","27","NA","09/25/21 18:58:39","1500","The main experiment item","yes","FlankerTask.osexp","C:\Users\katie\Documents\School\Quant Methods","no","mono","no","18","no","white","no","yes","768","legacy","27","27","C:/Users/katie/Documents/School/Quant Methods/KH-subject-4.csv","legacy","Lentiform Loewenfeld","3.3.9","0","h","NA","s","NA","NA","h","488","NA","35353","NA","NA","488","NA","NA","2","legacy","1024","2","48000","-16","experiment","HHHHH","4","even","86774","38285","NA","NA","74163","2917","NA","NA","87836","2931","NA","NA","87937","88425","87833","87937","NA","Flanker Task","27","17841","28","yes","1024"
"96.5517241379","96.5517241379","633.275862069","633.275862069","black","legacy","legacy","legacy","0","incongruent","uniform","1","undefined","1","s","28","0","0","0","28","0","28","0","28","0","0","0","28","28","28","28","NA","09/25/21 18:58:39","1500","The main experiment item","yes","FlankerTask.osexp","C:\Users\katie\Documents\School\Quant Methods","no","mono","no","18","no","white","no","yes","768","legacy","28","28","C:/Users/katie/Documents/School/Quant Methods/KH-subject-4.csv","legacy","Lentiform Loewenfeld","3.3.9","0","s","NA","s","NA","NA","s","524","NA","35353","NA","NA","524","NA","NA","2","legacy","1024","2","48000","-16","experiment","HHSHH","4","even","88429","38285","NA","NA","74163","2917","NA","NA","89485","2931","NA","NA","89586","90111","89482","89586","NA","Flanker Task","28","18365","29","yes","1024"
"96.6666666667","96.6666666667","631.2","631.2","black","legacy","legacy","legacy","0","congruent","uniform","1","undefined","1","h","29","0","0","0","29","0","29","0","29","0","0","0","29","29","29","29","NA","09/25/21 18:58:39","1500","The main experiment item","yes","FlankerTask.osexp","C:\Users\katie\Documents\School\Quant Methods","no","mono","no","18","no","white","no","yes","768","legacy","29","29","C:/Users/katie/Documents/School/Quant Methods/KH-subject-4.csv","legacy","Lentiform Loewenfeld","3.3.9","0","h","NA","s","NA","NA","h","571","NA","35353","NA","NA","571","NA","NA","2","legacy","1024","2","48000","-16","experiment","HHHHH","4","even","90116","38285","NA","NA","74163","2917","NA","NA","91176","2931","NA","NA","91277","91849","91173","91277","NA","Flanker Task","29","18936","30","yes","1024"
"96.7741935484","96.7741935484","629.387096774","629.387096774","black","legacy","legacy","legacy","0","congruent","uniform","1","undefined","1","h","30","0","0","0","30","0","30","0","30","0","0","0","30","30","30","30","NA","09/25/21 18:58:39","1500","The main experiment item","yes","FlankerTask.osexp","C:\Users\katie\Documents\School\Quant Methods","no","mono","no","18","no","white","no","yes","768","legacy","30","30","C:/Users/katie/Documents/School/Quant Methods/KH-subject-4.csv","legacy","Lentiform Loewenfeld","3.3.9","0","h","NA","s","NA","NA","h","575","NA","35353","NA","NA","575","NA","NA","2","legacy","1024","2","48000","-16","experiment","HHHHH","4","even","91861","38285","NA","NA","74163","2917","NA","NA","92923","2931","NA","NA","93025","93602","92921","93025","NA","Flanker Task","30","19511","31","yes","1024"
"96.875","96.875","628.4375","628.4375","black","legacy","legacy","legacy","0","congruent","uniform","1","undefined","1","s","31","0","0","0","31","0","31","0","31","0","0","0","31","31","31","31","NA","09/25/21 18:58:39","1500","The main experiment item","yes","FlankerTask.osexp","C:\Users\katie\Documents\School\Quant Methods","no","mono","no","18","no","white","no","yes","768","legacy","31","31","C:/Users/katie/Documents/School/Quant Methods/KH-subject-4.csv","legacy","Lentiform Loewenfeld","3.3.9","0","s","NA","s","NA","NA","s","599","NA","35353","NA","NA","599","NA","NA","2","legacy","1024","2","48000","-16","experiment","SSSSS","4","even","93606","38285","NA","NA","74163","2917","NA","NA","94675","2931","NA","NA","94780","95380","94672","94779","NA","Flanker Task","31","20110","32","yes","1024"
"96.9696969697","96.9696969697","628.181818182","628.181818182","black","legacy","legacy","legacy","0","incongruent","uniform","1","undefined","1","s","32","0","0","0","32","0","32","0","32","0","0","0","32","32","32","32","NA","09/25/21 18:58:39","1500","The main experiment item","yes","FlankerTask.osexp","C:\Users\katie\Documents\School\Quant Methods","no","mono","no","18","no","white","no","yes","768","legacy","32","32","C:/Users/katie/Documents/School/Quant Methods/KH-subject-4.csv","legacy","Lentiform Loewenfeld","3.3.9","0","s","NA","s","NA","NA","s","620","NA","35353","NA","NA","620","NA","NA","2","legacy","1024","2","48000","-16","experiment","HHSHH","4","even","95384","38285","NA","NA","74163","2917","NA","NA","96452","2931","NA","NA","96553","97173","96449","96553","NA","Flanker Task","32","20730","33","yes","1024"
"97.0588235294","97.0588235294","627.029411765","627.029411765","black","legacy","legacy","legacy","0","congruent","uniform","1","undefined","1","s","33","0","0","0","33","0","33","0","33","0","0","0","33","33","33","33","NA","09/25/21 18:58:39","1500","The main experiment item","yes","FlankerTask.osexp","C:\Users\katie\Documents\School\Quant Methods","no","mono","no","18","no","white","no","yes","768","legacy","33","33","C:/Users/katie/Documents/School/Quant Methods/KH-subject-4.csv","legacy","Lentiform Loewenfeld","3.3.9","0","s","NA","s","NA","NA","s","589","NA","35353","NA","NA","589","NA","NA","2","legacy","1024","2","48000","-16","experiment","SSSSS","4","even","97178","38285","NA","NA","74163","2917","NA","NA","98239","2931","NA","NA","98341","98931","98236","98340","NA","Flanker Task","33","21319","34","yes","1024"
"97.1428571429","97.1428571429","624.142857143","624.142857143","black","legacy","legacy","legacy","0","incongruent","uniform","1","undefined","1","h","34","0","0","0","34","0","34","0","34","0","0","0","34","34","34","34","NA","09/25/21 18:58:39","1500","The main experiment item","yes","FlankerTask.osexp","C:\Users\katie\Documents\School\Quant Methods","no","mono","no","18","no","white","no","yes","768","legacy","34","34","C:/Users/katie/Documents/School/Quant Methods/KH-subject-4.csv","legacy","Lentiform Loewenfeld","3.3.9","0","h","NA","s","NA","NA","h","526","NA","35353","NA","NA","526","NA","NA","2","legacy","1024","2","48000","-16","experiment","SSHSS","4","even","98935","38285","NA","NA","74163","2917","NA","NA","99996","2931","NA","NA","100097","100624","99994","100097","NA","Flanker Task","34","21845","35","yes","1024"
"97.2222222222","97.2222222222","622.222222222","622.222222222","black","legacy","legacy","legacy","0","incongruent","uniform","1","undefined","1","h","35","0","0","0","35","0","35","0","35","0","0","0","35","35","35","35","NA","09/25/21 18:58:39","1500","The main experiment item","yes","FlankerTask.osexp","C:\Users\katie\Documents\School\Quant Methods","no","mono","no","18","no","white","no","yes","768","legacy","35","35","C:/Users/katie/Documents/School/Quant Methods/KH-subject-4.csv","legacy","Lentiform Loewenfeld","3.3.9","0","h","NA","s","NA","NA","h","555","NA","35353","NA","NA","555","NA","NA","2","legacy","1024","2","48000","-16","experiment","SSHSS","4","even","100627","38285","NA","NA","74163","2917","NA","NA","101690","2931","NA","NA","101791","102347","101687","101791","NA","Flanker Task","35","22400","36","yes","1024"
"97.2972972973","97.2972972973","621.108108108","621.108108108","black","legacy","legacy","legacy","0","congruent","uniform","1","undefined","1","s","36","0","0","0","36","0","36","0","36","0","0","0","36","36","36","36","NA","09/25/21 18:58:39","1500","The main experiment item","yes","FlankerTask.osexp","C:\Users\katie\Documents\School\Quant Methods","no","mono","no","18","no","white","no","yes","768","legacy","36","36","C:/Users/katie/Documents/School/Quant Methods/KH-subject-4.csv","legacy","Lentiform Loewenfeld","3.3.9","0","s","NA","s","NA","NA","s","581","NA","35353","NA","NA","581","NA","NA","2","legacy","1024","2","48000","-16","experiment","SSSSS","4","even","102350","38285","NA","NA","74163","2917","NA","NA","103411","2931","NA","NA","103513","104095","103409","103513","NA","Flanker Task","36","22981","37","yes","1024"
"97.3684210526","97.3684210526","620.368421053","620.368421053","black","legacy","legacy","legacy","0","congruent","uniform","1","undefined","1","s","37","0","0","0","37","0","37","0","37","0","0","0","37","37","37","37","NA","09/25/21 18:58:39","1500","The main experiment item","yes","FlankerTask.osexp","C:\Users\katie\Documents\School\Quant Methods","no","mono","no","18","no","white","no","yes","768","legacy","37","37","C:/Users/katie/Documents/School/Quant Methods/KH-subject-4.csv","legacy","Lentiform Loewenfeld","3.3.9","0","s","NA","s","NA","NA","s","593","NA","35353","NA","NA","593","NA","NA","2","legacy","1024","2","48000","-16","experiment","SSSSS","4","even","104101","38285","NA","NA","74163","2917","NA","NA","105273","2931","NA","NA","105375","105968","105174","105375","NA","Flanker Task","37","23574","38","yes","1024"
"97.4358974359","97.4358974359","620.512820513","620.512820513","black","legacy","legacy","legacy","0","incongruent","uniform","1","undefined","1","h","38","0","0","0","38","0","38","0","38","0","0","0","38","38","38","38","NA","09/25/21 18:58:39","1500","The main experiment item","yes","FlankerTask.osexp","C:\Users\katie\Documents\School\Quant Methods","no","mono","no","18","no","white","no","yes","768","legacy","38","38","C:/Users/katie/Documents/School/Quant Methods/KH-subject-4.csv","legacy","Lentiform Loewenfeld","3.3.9","0","h","NA","s","NA","NA","h","626","NA","35353","NA","NA","626","NA","NA","2","legacy","1024","2","48000","-16","experiment","SSHSS","4","even","105972","38285","NA","NA","74163","2917","NA","NA","107048","2931","NA","NA","107151","107778","107046","107150","NA","Flanker Task","38","24200","39","yes","1024"
"97.5","97.5","619.525","619.525","black","legacy","legacy","legacy","0","congruent","uniform","1","undefined","1","s","39","0","0","0","39","0","39","0","39","0","0","0","39","39","39","39","NA","09/25/21 18:58:39","1500","The main experiment item","yes","FlankerTask.osexp","C:\Users\katie\Documents\School\Quant Methods","no","mono","no","18","no","white","no","yes","768","legacy","39","39","C:/Users/katie/Documents/School/Quant Methods/KH-subject-4.csv","legacy","Lentiform Loewenfeld","3.3.9","0","s","NA","s","NA","NA","s","581","NA","35353","NA","NA","581","NA","NA","2","legacy","1024","2","48000","-16","experiment","SSSSS","4","even","107784","38285","NA","NA","74163","2917","NA","NA","108865","2931","NA","NA","108968","109550","108860","108968","NA","Flanker Task","39","24781","40","yes","1024"
"97.5609756098","97.5609756098","616.853658537","616.853658537","black","legacy","legacy","legacy","0","congruent","uniform","1","undefined","1","h","40","0","0","0","40","0","40","0","40","0","0","0","40","40","40","40","NA","09/25/21 18:58:39","1500","The main experiment item","yes","FlankerTask.osexp","C:\Users\katie\Documents\School\Quant Methods","no","mono","no","18","no","white","no","yes","768","legacy","40","40","C:/Users/katie/Documents/School/Quant Methods/KH-subject-4.csv","legacy","Lentiform Loewenfeld","3.3.9","0","h","NA","s","NA","NA","h","510","NA","35353","NA","NA","510","NA","NA","2","legacy","1024","2","48000","-16","experiment","HHHHH","4","even","109554","38285","NA","NA","74163","2917","NA","NA","110610","2931","NA","NA","110712","111223","110607","110712","NA","Flanker Task","40","25291","41","yes","1024"
"97.619047619","97.619047619","616.761904762","616.761904762","black","legacy","legacy","legacy","0","incongruent","uniform","1","undefined","1","h","41","0","0","0","41","0","41","0","41","0","0","0","41","41","41","41","NA","09/25/21 18:58:39","1500","The main experiment item","yes","FlankerTask.osexp","C:\Users\katie\Documents\School\Quant Methods","no","mono","no","18","no","white","no","yes","768","legacy","41","41","C:/Users/katie/Documents/School/Quant Methods/KH-subject-4.csv","legacy","Lentiform Loewenfeld","3.3.9","0","h","NA","s","NA","NA","h","613","NA","35353","NA","NA","613","NA","NA","2","legacy","1024","2","48000","-16","experiment","SSHSS","4","even","111226","38285","NA","NA","74163","2917","NA","NA","112295","2931","NA","NA","112397","113011","112293","112397","NA","Flanker Task","41","25904","42","yes","1024"
"97.6744186047","97.6744186047","614.325581395","614.325581395","black","legacy","legacy","legacy","0","incongruent","uniform","1","undefined","1","s","42","0","0","0","42","0","42","0","42","0","0","0","42","42","42","42","NA","09/25/21 18:58:39","1500","The main experiment item","yes","FlankerTask.osexp","C:\Users\katie\Documents\School\Quant Methods","no","mono","no","18","no","white","no","yes","768","legacy","42","42","C:/Users/katie/Documents/School/Quant Methods/KH-subject-4.csv","legacy","Lentiform Loewenfeld","3.3.9","0","s","NA","s","NA","NA","s","512","NA","35353","NA","NA","512","NA","NA","2","legacy","1024","2","48000","-16","experiment","HHSHH","4","even","113014","38285","NA","NA","74163","2917","NA","NA","114069","2931","NA","NA","114171","114684","114066","114171","NA","Flanker Task","42","26416","43","yes","1024"
"97.7272727273","97.7272727273","616.159090909","616.159090909","black","legacy","legacy","legacy","0","congruent","uniform","1","undefined","1","s","43","0","0","0","43","0","43","0","43","0","0","0","43","43","43","43","NA","09/25/21 18:58:39","1500","The main experiment item","yes","FlankerTask.osexp","C:\Users\katie\Documents\School\Quant Methods","no","mono","no","18","no","white","no","yes","768","legacy","43","43","C:/Users/katie/Documents/School/Quant Methods/KH-subject-4.csv","legacy","Lentiform Loewenfeld","3.3.9","0","s","NA","s","NA","NA","s","695","NA","35353","NA","NA","695","NA","NA","2","legacy","1024","2","48000","-16","experiment","SSSSS","4","even","114695","38285","NA","NA","74163","2917","NA","NA","115758","2931","NA","NA","115861","116557","115755","115860","NA","Flanker Task","43","27111","44","yes","1024"
"97.7777777778","97.7777777778","614.088888889","614.088888889","black","legacy","legacy","legacy","0","congruent","uniform","1","undefined","1","s","44","0","0","0","44","0","44","0","44","0","0","0","44","44","44","44","NA","09/25/21 18:58:39","1500","The main experiment item","yes","FlankerTask.osexp","C:\Users\katie\Documents\School\Quant Methods","no","mono","no","18","no","white","no","yes","768","legacy","44","44","C:/Users/katie/Documents/School/Quant Methods/KH-subject-4.csv","legacy","Lentiform Loewenfeld","3.3.9","0","s","NA","s","NA","NA","s","523","NA","35353","NA","NA","523","NA","NA","2","legacy","1024","2","48000","-16","experiment","SSSSS","4","even","116561","38285","NA","NA","74163","2917","NA","NA","117623","2931","NA","NA","117726","118250","117619","117726","NA","Flanker Task","44","27634","45","yes","1024"
"95.652173913","95.652173913","611.239130435","611.239130435","black","legacy","legacy","legacy","0","incongruent","uniform","0","undefined","0","s","45","0","0","0","45","0","45","0","45","0","0","0","45","45","45","45","NA","09/25/21 18:58:39","1500","The main experiment item","yes","FlankerTask.osexp","C:\Users\katie\Documents\School\Quant Methods","no","mono","no","18","no","white","no","yes","768","legacy","45","45","C:/Users/katie/Documents/School/Quant Methods/KH-subject-4.csv","legacy","Lentiform Loewenfeld","3.3.9","0","h","NA","s","NA","NA","h","483","NA","35353","NA","NA","483","NA","NA","2","legacy","1024","2","48000","-16","experiment","HHSHH","4","even","118254","38285","NA","NA","74163","2917","NA","NA","119314","2931","NA","NA","119415","119899","119311","119415","NA","Flanker Task","44","28117","46","yes","1024"
"95.7446808511","95.7446808511","609","609","black","legacy","legacy","legacy","0","congruent","uniform","1","undefined","1","s","46","0","0","0","46","0","46","0","46","0","0","0","46","46","46","46","NA","09/25/21 18:58:39","1500","The main experiment item","yes","FlankerTask.osexp","C:\Users\katie\Documents\School\Quant Methods","no","mono","no","18","no","white","no","yes","768","legacy","46","46","C:/Users/katie/Documents/School/Quant Methods/KH-subject-4.csv","legacy","Lentiform Loewenfeld","3.3.9","0","s","NA","s","NA","NA","s","506","NA","35353","NA","NA","506","NA","NA","2","legacy","1024","2","48000","-16","experiment","SSSSS","4","even","120406","38285","NA","NA","119904","2917","NA","NA","121473","2931","NA","NA","121575","122082","121469","121575","NA","Flanker Task","45","28623","47","yes","1024"
"95.8333333333","95.8333333333","607.3125","607.3125","black","legacy","legacy","legacy","0","incongruent","uniform","1","undefined","1","s","47","0","0","0","47","0","47","0","47","0","0","0","47","47","47","47","NA","09/25/21 18:58:39","1500","The main experiment item","yes","FlankerTask.osexp","C:\Users\katie\Documents\School\Quant Methods","no","mono","no","18","no","white","no","yes","768","legacy","47","47","C:/Users/katie/Documents/School/Quant Methods/KH-subject-4.csv","legacy","Lentiform Loewenfeld","3.3.9","0","s","NA","s","NA","NA","s","528","NA","35353","NA","NA","528","NA","NA","2","legacy","1024","2","48000","-16","experiment","HHSHH","4","even","122087","38285","NA","NA","119904","2917","NA","NA","123148","2931","NA","NA","123251","123780","123144","123250","NA","Flanker Task","46","29151","48","yes","1024"
"95.9183673469","95.9183673469","607.530612245","607.530612245","black","legacy","legacy","legacy","0","incongruent","uniform","1","undefined","1","h","48","0","0","0","48","0","48","0","48","0","0","0","48","48","48","48","NA","09/25/21 18:58:39","1500","The main experiment item","yes","FlankerTask.osexp","C:\Users\katie\Documents\School\Quant Methods","no","mono","no","18","no","white","no","yes","768","legacy","48","48","C:/Users/katie/Documents/School/Quant Methods/KH-subject-4.csv","legacy","Lentiform Loewenfeld","3.3.9","0","h","NA","s","NA","NA","h","618","NA","35353","NA","NA","618","NA","NA","2","legacy","1024","2","48000","-16","experiment","SSHSS","4","even","123784","38285","NA","NA","119904","2917","NA","NA","124843","2931","NA","NA","124944","125563","124839","124944","NA","Flanker Task","47","29769","49","yes","1024"
"96","96","606.64","606.64","black","legacy","legacy","legacy","0","congruent","uniform","1","undefined","1","h","49","0","0","0","49","0","49","0","49","0","0","0","49","49","49","49","NA","09/25/21 18:58:39","1500","The main experiment item","yes","FlankerTask.osexp","C:\Users\katie\Documents\School\Quant Methods","no","mono","no","18","no","white","no","yes","768","legacy","49","49","C:/Users/katie/Documents/School/Quant Methods/KH-subject-4.csv","legacy","Lentiform Loewenfeld","3.3.9","0","h","NA","s","NA","NA","h","563","NA","35353","NA","NA","563","NA","NA","2","legacy","1024","2","48000","-16","experiment","HHHHH","4","even","125572","38285","NA","NA","119904","2917","NA","NA","126644","2931","NA","NA","126747","127312","126640","126747","NA","Flanker Task","48","30332","50","yes","1024"
"96.0784313725","96.0784313725","606.529411765","606.529411765","black","legacy","legacy","legacy","0","incongruent","uniform","1","undefined","1","h","50","0","0","0","50","0","50","0","50","0","0","0","50","50","50","50","NA","09/25/21 18:58:39","1500","The main experiment item","yes","FlankerTask.osexp","C:\Users\katie\Documents\School\Quant Methods","no","mono","no","18","no","white","no","yes","768","legacy","50","50","C:/Users/katie/Documents/School/Quant Methods/KH-subject-4.csv","legacy","Lentiform Loewenfeld","3.3.9","0","h","NA","s","NA","NA","h","601","NA","35353","NA","NA","601","NA","NA","2","legacy","1024","2","48000","-16","experiment","SSHSS","4","even","127315","38285","NA","NA","119904","2917","NA","NA","128376","2931","NA","NA","128478","129079","128374","128478","NA","Flanker Task","49","30933","51","yes","1024"
"96.1538461538","96.1538461538","606.596153846","606.596153846","black","legacy","legacy","legacy","0","congruent","uniform","1","undefined","1","h","51","0","0","0","51","0","51","0","51","0","0","0","51","51","51","51","NA","09/25/21 18:58:39","1500","The main experiment item","yes","FlankerTask.osexp","C:\Users\katie\Documents\School\Quant Methods","no","mono","no","18","no","white","no","yes","768","legacy","51","51","C:/Users/katie/Documents/School/Quant Methods/KH-subject-4.csv","legacy","Lentiform Loewenfeld","3.3.9","0","h","NA","s","NA","NA","h","610","NA","35353","NA","NA","610","NA","NA","2","legacy","1024","2","48000","-16","experiment","HHHHH","4","even","129084","38285","NA","NA","119904","2917","NA","NA","130145","2931","NA","NA","130247","130857","130141","130246","NA","Flanker Task","50","31543","52","yes","1024"
"96.2264150943","96.2264150943","606.716981132","606.716981132","black","legacy","legacy","legacy","0","incongruent","uniform","1","undefined","1","s","52","0","0","0","52","0","52","0","52","0","0","0","52","52","52","52","NA","09/25/21 18:58:39","1500","The main experiment item","yes","FlankerTask.osexp","C:\Users\katie\Documents\School\Quant Methods","no","mono","no","18","no","white","no","yes","768","legacy","52","52","C:/Users/katie/Documents/School/Quant Methods/KH-subject-4.csv","legacy","Lentiform Loewenfeld","3.3.9","0","s","NA","s","NA","NA","s","613","NA","35353","NA","NA","613","NA","NA","2","legacy","1024","2","48000","-16","experiment","HHSHH","4","even","130861","38285","NA","NA","119904","2917","NA","NA","131925","2931","NA","NA","132026","132640","131922","132026","NA","Flanker Task","51","32156","53","yes","1024"
"96.2962962963","96.2962962963","607.481481481","607.481481481","black","legacy","legacy","legacy","0","congruent","uniform","1","undefined","1","h","53","0","0","0","53","0","53","0","53","0","0","0","53","53","53","53","NA","09/25/21 18:58:39","1500","The main experiment item","yes","FlankerTask.osexp","C:\Users\katie\Documents\School\Quant Methods","no","mono","no","18","no","white","no","yes","768","legacy","53","53","C:/Users/katie/Documents/School/Quant Methods/KH-subject-4.csv","legacy","Lentiform Loewenfeld","3.3.9","0","h","NA","s","NA","NA","h","648","NA","35353","NA","NA","648","NA","NA","2","legacy","1024","2","48000","-16","experiment","HHHHH","4","even","132644","38285","NA","NA","119904","2917","NA","NA","133698","2931","NA","NA","133800","134449","133695","133800","NA","Flanker Task","52","32804","54","yes","1024"
"96.3636363636","96.3636363636","606.781818182","606.781818182","black","legacy","legacy","legacy","0","congruent","uniform","1","undefined","1","s","54","0","0","0","54","0","54","0","54","0","0","0","54","54","54","54","NA","09/25/21 18:58:39","1500","The main experiment item","yes","FlankerTask.osexp","C:\Users\katie\Documents\School\Quant Methods","no","mono","no","18","no","white","no","yes","768","legacy","54","54","C:/Users/katie/Documents/School/Quant Methods/KH-subject-4.csv","legacy","Lentiform Loewenfeld","3.3.9","0","s","NA","s","NA","NA","s","569","NA","35353","NA","NA","569","NA","NA","2","legacy","1024","2","48000","-16","experiment","SSSSS","4","even","134461","38285","NA","NA","119904","2917","NA","NA","135519","2931","NA","NA","135622","136191","135515","135622","NA","Flanker Task","53","33373","55","yes","1024"
"96.4285714286","96.4285714286","607.535714286","607.535714286","black","legacy","legacy","legacy","0","congruent","uniform","1","undefined","1","h","55","0","0","0","55","0","55","0","55","0","0","0","55","55","55","55","NA","09/25/21 18:58:39","1500","The main experiment item","yes","FlankerTask.osexp","C:\Users\katie\Documents\School\Quant Methods","no","mono","no","18","no","white","no","yes","768","legacy","55","55","C:/Users/katie/Documents/School/Quant Methods/KH-subject-4.csv","legacy","Lentiform Loewenfeld","3.3.9","0","h","NA","s","NA","NA","h","649","NA","35353","NA","NA","649","NA","NA","2","legacy","1024","2","48000","-16","experiment","HHHHH","4","even","136195","38285","NA","NA","119904","2917","NA","NA","137253","2931","NA","NA","137356","138006","137250","137356","NA","Flanker Task","54","34022","56","yes","1024"
"96.4912280702","96.4912280702","607.824561404","607.824561404","black","legacy","legacy","legacy","0","incongruent","uniform","1","undefined","1","h","56","0","0","0","56","0","56","0","56","0","0","0","56","56","56","56","NA","09/25/21 18:58:39","1500","The main experiment item","yes","FlankerTask.osexp","C:\Users\katie\Documents\School\Quant Methods","no","mono","no","18","no","white","no","yes","768","legacy","56","56","C:/Users/katie/Documents/School/Quant Methods/KH-subject-4.csv","legacy","Lentiform Loewenfeld","3.3.9","0","h","NA","s","NA","NA","h","624","NA","35353","NA","NA","624","NA","NA","2","legacy","1024","2","48000","-16","experiment","SSHSS","4","even","138017","38285","NA","NA","119904","2917","NA","NA","139077","2931","NA","NA","139179","139804","139072","139179","NA","Flanker Task","55","34646","57","yes","1024"
"96.5517241379","96.5517241379","608.724137931","608.724137931","black","legacy","legacy","legacy","0","incongruent","uniform","1","undefined","1","h","57","0","0","0","57","0","57","0","57","0","0","0","57","57","57","57","NA","09/25/21 18:58:39","1500","The main experiment item","yes","FlankerTask.osexp","C:\Users\katie\Documents\School\Quant Methods","no","mono","no","18","no","white","no","yes","768","legacy","57","57","C:/Users/katie/Documents/School/Quant Methods/KH-subject-4.csv","legacy","Lentiform Loewenfeld","3.3.9","0","h","NA","s","NA","NA","h","660","NA","35353","NA","NA","660","NA","NA","2","legacy","1024","2","48000","-16","experiment","SSHSS","4","even","139808","38285","NA","NA","119904","2917","NA","NA","140863","2931","NA","NA","140966","141627","140861","140966","NA","Flanker Task","56","35306","58","yes","1024"
"96.6101694915","96.6101694915","607.847457627","607.847457627","black","legacy","legacy","legacy","0","congruent","uniform","1","undefined","1","s","58","0","0","0","58","0","58","0","58","0","0","0","58","58","58","58","NA","09/25/21 18:58:39","1500","The main experiment item","yes","FlankerTask.osexp","C:\Users\katie\Documents\School\Quant Methods","no","mono","no","18","no","white","no","yes","768","legacy","58","58","C:/Users/katie/Documents/School/Quant Methods/KH-subject-4.csv","legacy","Lentiform Loewenfeld","3.3.9","0","s","NA","s","NA","NA","s","557","NA","35353","NA","NA","557","NA","NA","2","legacy","1024","2","48000","-16","experiment","SSSSS","4","even","141638","38285","NA","NA","119904","2917","NA","NA","142696","2931","NA","NA","142797","143355","142694","142797","NA","Flanker Task","57","35863","59","yes","1024"
"96.6666666667","96.6666666667","608.133333333","608.133333333","black","legacy","legacy","legacy","0","incongruent","uniform","1","undefined","1","s","59","0","0","0","59","0","59","0","59","0","0","0","59","59","59","59","NA","09/25/21 18:58:39","1500","The main experiment item","yes","FlankerTask.osexp","C:\Users\katie\Documents\School\Quant Methods","no","mono","no","18","no","white","no","yes","768","legacy","59","59","C:/Users/katie/Documents/School/Quant Methods/KH-subject-4.csv","legacy","Lentiform Loewenfeld","3.3.9","0","s","NA","s","NA","NA","s","625","NA","35353","NA","NA","625","NA","NA","2","legacy","1024","2","48000","-16","experiment","HHSHH","4","even","143368","38285","NA","NA","119904","2917","NA","NA","144428","2931","NA","NA","144532","145158","144426","144532","NA","Flanker Task","58","36488","60","yes","1024"
"96.7213114754","96.7213114754","607.852459016","607.852459016","black","legacy","legacy","legacy","0","congruent","uniform","1","undefined","1","h","60","0","0","0","60","0","60","0","60","0","0","0","60","60","60","60","NA","09/25/21 18:58:39","1500","The main experiment item","yes","FlankerTask.osexp","C:\Users\katie\Documents\School\Quant Methods","no","mono","no","18","no","white","no","yes","768","legacy","60","60","C:/Users/katie/Documents/School/Quant Methods/KH-subject-4.csv","legacy","Lentiform Loewenfeld","3.3.9","0","h","NA","s","NA","NA","h","591","NA","35353","NA","NA","591","NA","NA","2","legacy","1024","2","48000","-16","experiment","HHHHH","4","even","145162","38285","NA","NA","119904","2917","NA","NA","146219","2931","NA","NA","146320","146912","146217","146320","NA","Flanker Task","59","37079","61","yes","1024"
"96.7741935484","96.7741935484","609.709677419","609.709677419","black","legacy","legacy","legacy","0","incongruent","uniform","1","undefined","1","h","61","0","0","0","61","0","61","0","61","0","0","0","61","61","61","61","NA","09/25/21 18:58:39","1500","The main experiment item","yes","FlankerTask.osexp","C:\Users\katie\Documents\School\Quant Methods","no","mono","no","18","no","white","no","yes","768","legacy","61","61","C:/Users/katie/Documents/School/Quant Methods/KH-subject-4.csv","legacy","Lentiform Loewenfeld","3.3.9","0","h","NA","s","NA","NA","h","723","NA","35353","NA","NA","723","NA","NA","2","legacy","1024","2","48000","-16","experiment","SSHSS","4","even","146923","38285","NA","NA","119904","2917","NA","NA","147980","2931","NA","NA","148081","148805","147977","148081","NA","Flanker Task","60","37802","62","yes","1024"
"96.8253968254","96.8253968254","611.206349206","611.206349206","black","legacy","legacy","legacy","0","incongruent","uniform","1","undefined","1","s","62","0","0","0","62","0","62","0","62","0","0","0","62","62","62","62","NA","09/25/21 18:58:39","1500","The main experiment item","yes","FlankerTask.osexp","C:\Users\katie\Documents\School\Quant Methods","no","mono","no","18","no","white","no","yes","768","legacy","62","62","C:/Users/katie/Documents/School/Quant Methods/KH-subject-4.csv","legacy","Lentiform Loewenfeld","3.3.9","0","s","NA","s","NA","NA","s","704","NA","35353","NA","NA","704","NA","NA","2","legacy","1024","2","48000","-16","experiment","HHSHH","4","even","148816","38285","NA","NA","119904","2917","NA","NA","149876","2931","NA","NA","149979","150684","149874","149979","NA","Flanker Task","61","38506","63","yes","1024"
"96.875","96.875","612","612","black","legacy","legacy","legacy","0","incongruent","uniform","1","undefined","1","h","63","0","0","0","63","0","63","0","63","0","0","0","63","63","63","63","NA","09/25/21 18:58:39","1500","The main experiment item","yes","FlankerTask.osexp","C:\Users\katie\Documents\School\Quant Methods","no","mono","no","18","no","white","no","yes","768","legacy","63","63","C:/Users/katie/Documents/School/Quant Methods/KH-subject-4.csv","legacy","Lentiform Loewenfeld","3.3.9","0","h","NA","s","NA","NA","h","662","NA","35353","NA","NA","662","NA","NA","2","legacy","1024","2","48000","-16","experiment","SSHSS","4","even","150688","38285","NA","NA","119904","2917","NA","NA","151756","2931","NA","NA","151859","152522","151753","151859","NA","Flanker Task","62","39168","64","yes","1024"
"96.9230769231","96.9230769231","614.476923077","614.476923077","black","legacy","legacy","legacy","0","congruent","uniform","1","undefined","1","h","64","0","0","0","64","0","64","0","64","0","0","0","64","64","64","64","NA","09/25/21 18:58:39","1500","The main experiment item","yes","FlankerTask.osexp","C:\Users\katie\Documents\School\Quant Methods","no","mono","no","18","no","white","no","yes","768","legacy","64","64","C:/Users/katie/Documents/School/Quant Methods/KH-subject-4.csv","legacy","Lentiform Loewenfeld","3.3.9","0","h","NA","s","NA","NA","h","773","NA","35353","NA","NA","773","NA","NA","2","legacy","1024","2","48000","-16","experiment","HHHHH","4","even","152527","38285","NA","NA","119904","2917","NA","NA","153585","2931","NA","NA","153687","154461","153581","153687","NA","Flanker Task","63","39941","65","yes","1024"
"96.9696969697","96.9696969697","615.045454545","615.045454545","black","legacy","legacy","legacy","0","congruent","uniform","1","undefined","1","h","65","0","0","0","65","0","65","0","65","0","0","0","65","65","65","65","NA","09/25/21 18:58:39","1500","The main experiment item","yes","FlankerTask.osexp","C:\Users\katie\Documents\School\Quant Methods","no","mono","no","18","no","white","no","yes","768","legacy","65","65","C:/Users/katie/Documents/School/Quant Methods/KH-subject-4.csv","legacy","Lentiform Loewenfeld","3.3.9","0","h","NA","s","NA","NA","h","652","NA","35353","NA","NA","652","NA","NA","2","legacy","1024","2","48000","-16","experiment","HHHHH","4","even","154472","38285","NA","NA","119904","2917","NA","NA","155525","2931","NA","NA","155627","156279","155522","155627","NA","Flanker Task","64","40593","66","yes","1024"
"97.0149253731","97.0149253731","613.985074627","613.985074627","black","legacy","legacy","legacy","0","incongruent","uniform","1","undefined","1","s","66","0","0","0","66","0","66","0","66","0","0","0","66","66","66","66","NA","09/25/21 18:58:39","1500","The main experiment item","yes","FlankerTask.osexp","C:\Users\katie\Documents\School\Quant Methods","no","mono","no","18","no","white","no","yes","768","legacy","66","66","C:/Users/katie/Documents/School/Quant Methods/KH-subject-4.csv","legacy","Lentiform Loewenfeld","3.3.9","0","s","NA","s","NA","NA","s","544","NA","35353","NA","NA","544","NA","NA","2","legacy","1024","2","48000","-16","experiment","HHSHH","4","even","156283","38285","NA","NA","119904","2917","NA","NA","157343","2931","NA","NA","157445","157990","157339","157445","NA","Flanker Task","65","41137","67","yes","1024"
"97.0588235294","97.0588235294","615.485294118","615.485294118","black","legacy","legacy","legacy","0","incongruent","uniform","1","undefined","1","s","67","0","0","0","67","0","67","0","67","0","0","0","67","67","67","67","NA","09/25/21 18:58:39","1500","The main experiment item","yes","FlankerTask.osexp","C:\Users\katie\Documents\School\Quant Methods","no","mono","no","18","no","white","no","yes","768","legacy","67","67","C:/Users/katie/Documents/School/Quant Methods/KH-subject-4.csv","legacy","Lentiform Loewenfeld","3.3.9","0","s","NA","s","NA","NA","s","716","NA","35353","NA","NA","716","NA","NA","2","legacy","1024","2","48000","-16","experiment","HHSHH","4","even","158002","38285","NA","NA","119904","2917","NA","NA","159063","2931","NA","NA","159164","159881","159059","159164","NA","Flanker Task","66","41853","68","yes","1024"
"97.1014492754","97.1014492754","616.550724638","616.550724638","black","legacy","legacy","legacy","0","incongruent","uniform","1","undefined","1","h","68","0","0","0","68","0","68","0","68","0","0","0","68","68","68","68","NA","09/25/21 18:58:39","1500","The main experiment item","yes","FlankerTask.osexp","C:\Users\katie\Documents\School\Quant Methods","no","mono","no","18","no","white","no","yes","768","legacy","68","68","C:/Users/katie/Documents/School/Quant Methods/KH-subject-4.csv","legacy","Lentiform Loewenfeld","3.3.9","0","h","NA","s","NA","NA","h","689","NA","35353","NA","NA","689","NA","NA","2","legacy","1024","2","48000","-16","experiment","SSHSS","4","even","159885","38285","NA","NA","119904","2917","NA","NA","160938","2931","NA","NA","161040","161731","160935","161040","NA","Flanker Task","67","42542","69","yes","1024"
"97.1428571429","97.1428571429","617.428571429","617.428571429","black","legacy","legacy","legacy","0","congruent","uniform","1","undefined","1","s","69","0","0","0","69","0","69","0","69","0","0","0","69","69","69","69","NA","09/25/21 18:58:39","1500","The main experiment item","yes","FlankerTask.osexp","C:\Users\katie\Documents\School\Quant Methods","no","mono","no","18","no","white","no","yes","768","legacy","69","69","C:/Users/katie/Documents/School/Quant Methods/KH-subject-4.csv","legacy","Lentiform Loewenfeld","3.3.9","0","s","NA","s","NA","NA","s","678","NA","35353","NA","NA","678","NA","NA","2","legacy","1024","2","48000","-16","experiment","SSSSS","4","even","161741","38285","NA","NA","119904","2917","NA","NA","162797","2931","NA","NA","162899","163578","162794","162898","NA","Flanker Task","68","43220","70","yes","1024"
"97.1830985915","97.1830985915","618.929577465","618.929577465","black","legacy","legacy","legacy","0","incongruent","uniform","1","undefined","1","s","70","0","0","0","70","0","70","0","70","0","0","0","70","70","70","70","NA","09/25/21 18:58:39","1500","The main experiment item","yes","FlankerTask.osexp","C:\Users\katie\Documents\School\Quant Methods","no","mono","no","18","no","white","no","yes","768","legacy","70","70","C:/Users/katie/Documents/School/Quant Methods/KH-subject-4.csv","legacy","Lentiform Loewenfeld","3.3.9","0","s","NA","s","NA","NA","s","724","NA","35353","NA","NA","724","NA","NA","2","legacy","1024","2","48000","-16","experiment","HHSHH","4","even","163582","38285","NA","NA","119904","2917","NA","NA","164644","2931","NA","NA","164747","165472","164641","164747","NA","Flanker Task","69","43944","71","yes","1024"
"97.2222222222","97.2222222222","620.097222222","620.097222222","black","legacy","legacy","legacy","0","congruent","uniform","1","undefined","1","s","71","0","0","0","71","0","71","0","71","0","0","0","71","71","71","71","NA","09/25/21 18:58:39","1500","The main experiment item","yes","FlankerTask.osexp","C:\Users\katie\Documents\School\Quant Methods","no","mono","no","18","no","white","no","yes","768","legacy","71","71","C:/Users/katie/Documents/School/Quant Methods/KH-subject-4.csv","legacy","Lentiform Loewenfeld","3.3.9","0","s","NA","s","NA","NA","s","703","NA","35353","NA","NA","703","NA","NA","2","legacy","1024","2","48000","-16","experiment","SSSSS","4","even","165476","38285","NA","NA","119904","2917","NA","NA","166541","2931","NA","NA","166642","167345","166537","166642","NA","Flanker Task","70","44647","72","yes","1024"
"97.2602739726","97.2602739726","619.863013699","619.863013699","black","legacy","legacy","legacy","0","congruent","uniform","1","undefined","1","h","72","0","0","0","72","0","72","0","72","0","0","0","72","72","72","72","NA","09/25/21 18:58:39","1500","The main experiment item","yes","FlankerTask.osexp","C:\Users\katie\Documents\School\Quant Methods","no","mono","no","18","no","white","no","yes","768","legacy","72","72","C:/Users/katie/Documents/School/Quant Methods/KH-subject-4.csv","legacy","Lentiform Loewenfeld","3.3.9","0","h","NA","s","NA","NA","h","603","NA","35353","NA","NA","603","NA","NA","2","legacy","1024","2","48000","-16","experiment","HHHHH","4","even","167358","38285","NA","NA","119904","2917","NA","NA","168412","2931","NA","NA","168514","169118","168410","168514","NA","Flanker Task","71","45250","73","yes","1024"
"97.2972972973","97.2972972973","619.810810811","619.810810811","black","legacy","legacy","legacy","0","congruent","uniform","1","undefined","1","h","73","0","0","0","73","0","73","0","73","0","0","0","73","73","73","73","NA","09/25/21 18:58:39","1500","The main experiment item","yes","FlankerTask.osexp","C:\Users\katie\Documents\School\Quant Methods","no","mono","no","18","no","white","no","yes","768","legacy","73","73","C:/Users/katie/Documents/School/Quant Methods/KH-subject-4.csv","legacy","Lentiform Loewenfeld","3.3.9","0","h","NA","s","NA","NA","h","616","NA","35353","NA","NA","616","NA","NA","2","legacy","1024","2","48000","-16","experiment","HHHHH","4","even","169123","38285","NA","NA","119904","2917","NA","NA","170183","2931","NA","NA","170285","170903","170180","170285","NA","Flanker Task","72","45866","74","yes","1024"
"97.3333333333","97.3333333333","620.36","620.36","black","legacy","legacy","legacy","0","incongruent","uniform","1","undefined","1","s","74","0","0","0","74","0","74","0","74","0","0","0","74","74","74","74","NA","09/25/21 18:58:39","1500","The main experiment item","yes","FlankerTask.osexp","C:\Users\katie\Documents\School\Quant Methods","no","mono","no","18","no","white","no","yes","768","legacy","74","74","C:/Users/katie/Documents/School/Quant Methods/KH-subject-4.csv","legacy","Lentiform Loewenfeld","3.3.9","0","s","NA","s","NA","NA","s","661","NA","35353","NA","NA","661","NA","NA","2","legacy","1024","2","48000","-16","experiment","HHSHH","4","even","170907","38285","NA","NA","119904","2917","NA","NA","171971","2931","NA","NA","172073","172735","171968","172073","NA","Flanker Task","73","46527","75","yes","1024"
"97.3684210526","97.3684210526","621.052631579","621.052631579","black","legacy","legacy","legacy","0","incongruent","uniform","1","undefined","1","h","75","0","0","0","75","0","75","0","75","0","0","0","75","75","75","75","NA","09/25/21 18:58:39","1500","The main experiment item","yes","FlankerTask.osexp","C:\Users\katie\Documents\School\Quant Methods","no","mono","no","18","no","white","no","yes","768","legacy","75","75","C:/Users/katie/Documents/School/Quant Methods/KH-subject-4.csv","legacy","Lentiform Loewenfeld","3.3.9","0","h","NA","s","NA","NA","h","673","NA","35353","NA","NA","673","NA","NA","2","legacy","1024","2","48000","-16","experiment","SSHSS","4","even","172739","38285","NA","NA","119904","2917","NA","NA","173807","2931","NA","NA","173909","174583","173805","173909","NA","Flanker Task","74","47200","76","yes","1024"
"97.4025974026","97.4025974026","622.779220779","622.779220779","black","legacy","legacy","legacy","0","congruent","uniform","1","undefined","1","s","76","0","0","0","76","0","76","0","76","0","0","0","76","76","76","76","NA","09/25/21 18:58:39","1500","The main experiment item","yes","FlankerTask.osexp","C:\Users\katie\Documents\School\Quant Methods","no","mono","no","18","no","white","no","yes","768","legacy","76","76","C:/Users/katie/Documents/School/Quant Methods/KH-subject-4.csv","legacy","Lentiform Loewenfeld","3.3.9","0","s","NA","s","NA","NA","s","754","NA","35353","NA","NA","754","NA","NA","2","legacy","1024","2","48000","-16","experiment","SSSSS","4","even","174588","38285","NA","NA","119904","2917","NA","NA","175655","2931","NA","NA","175757","176513","175652","175756","NA","Flanker Task","75","47954","77","yes","1024"
"97.4358974359","97.4358974359","623.730769231","623.730769231","black","legacy","legacy","legacy","0","incongruent","uniform","1","undefined","1","h","77","0","0","0","77","0","77","0","77","0","0","0","77","77","77","77","NA","09/25/21 18:58:39","1500","The main experiment item","yes","FlankerTask.osexp","C:\Users\katie\Documents\School\Quant Methods","no","mono","no","18","no","white","no","yes","768","legacy","77","77","C:/Users/katie/Documents/School/Quant Methods/KH-subject-4.csv","legacy","Lentiform Loewenfeld","3.3.9","0","h","NA","s","NA","NA","h","697","NA","35353","NA","NA","697","NA","NA","2","legacy","1024","2","48000","-16","experiment","SSHSS","4","even","176517","38285","NA","NA","119904","2917","NA","NA","177605","2931","NA","NA","177708","178406","177601","177708","NA","Flanker Task","76","48651","78","yes","1024"
"97.4683544304","97.4683544304","623.746835443","623.746835443","black","legacy","legacy","legacy","0","incongruent","uniform","1","undefined","1","s","78","0","0","0","78","0","78","0","78","0","0","0","78","78","78","78","NA","09/25/21 18:58:39","1500","The main experiment item","yes","FlankerTask.osexp","C:\Users\katie\Documents\School\Quant Methods","no","mono","no","18","no","white","no","yes","768","legacy","78","78","C:/Users/katie/Documents/School/Quant Methods/KH-subject-4.csv","legacy","Lentiform Loewenfeld","3.3.9","0","s","NA","s","NA","NA","s","625","NA","35353","NA","NA","625","NA","NA","2","legacy","1024","2","48000","-16","experiment","HHSHH","4","even","178412","38285","NA","NA","119904","2917","NA","NA","179481","2931","NA","NA","179583","180209","179478","179583","NA","Flanker Task","77","49276","79","yes","1024"
"97.5","97.5","623.2875","623.2875","black","legacy","legacy","legacy","0","congruent","uniform","1","undefined","1","s","79","0","0","0","79","0","79","0","79","0","0","0","79","79","79","79","NA","09/25/21 18:58:39","1500","The main experiment item","yes","FlankerTask.osexp","C:\Users\katie\Documents\School\Quant Methods","no","mono","no","18","no","white","no","yes","768","legacy","79","79","C:/Users/katie/Documents/School/Quant Methods/KH-subject-4.csv","legacy","Lentiform Loewenfeld","3.3.9","0","s","NA","s","NA","NA","s","587","NA","35353","NA","NA","587","NA","NA","2","legacy","1024","2","48000","-16","experiment","SSSSS","4","even","180213","38285","NA","NA","119904","2917","NA","NA","181327","2931","NA","NA","181429","182017","181322","181429","NA","Flanker Task","78","49863","80","yes","1024"
"97.5308641975","97.5308641975","623.172839506","623.172839506","black","legacy","legacy","legacy","0","congruent","uniform","1","undefined","1","s","80","0","0","0","80","0","80","0","80","0","0","0","80","80","80","80","NA","09/25/21 18:58:39","600","The main experiment item","yes","FlankerTask.osexp","C:\Users\katie\Documents\School\Quant Methods","no","mono","no","18","no","white","no","yes","768","legacy","0","79","C:/Users/katie/Documents/School/Quant Methods/KH-subject-4.csv","legacy","Lentiform Loewenfeld","3.3.9","0","s","NA","s","h","NA","s","614","NA","35353","43775","NA","614","NA","NA","2","legacy","1024","2","48000","-16","experiment","SSSSS","4","even","182020","38285","226813","NA","119904","2917","NA","NA","226878","2931","183037","NA","226981","227596","226876","226980","NA","Flanker Task","79","50477","81","yes","1024"
"96.3414634146","96.3414634146","620.707317073","620.707317073","black","legacy","legacy","legacy","0","incongruent","uniform","0","undefined","0","s","81","0","0","0","81","0","81","0","81","0","0","0","81","81","81","81","NA","09/25/21 18:58:39","600","The main experiment item","yes","FlankerTask.osexp","C:\Users\katie\Documents\School\Quant Methods","no","mono","no","18","no","white","no","yes","768","legacy","1","79","C:/Users/katie/Documents/School/Quant Methods/KH-subject-4.csv","legacy","Lentiform Loewenfeld","3.3.9","0","h","NA","s","h","NA","h","421","NA","35353","43775","NA","421","NA","NA","2","legacy","1024","2","48000","-16","experiment","HHSHH","4","even","228110","38285","226813","NA","119904","2917","227608","NA","229169","2931","183037","NA","229270","229692","229165","229270","NA","Flanker Task","79","50898","82","yes","1024"
"96.3855421687","96.3855421687","619.084337349","619.084337349","black","legacy","legacy","legacy","0","incongruent","uniform","1","undefined","1","h","82","0","0","0","82","0","82","0","82","0","0","0","82","82","82","82","NA","09/25/21 18:58:39","600","The main experiment item","yes","FlankerTask.osexp","C:\Users\katie\Documents\School\Quant Methods","no","mono","no","18","no","white","no","yes","768","legacy","2","79","C:/Users/katie/Documents/School/Quant Methods/KH-subject-4.csv","legacy","Lentiform Loewenfeld","3.3.9","0","h","NA","s","h","NA","h","486","NA","35353","43775","NA","486","NA","NA","2","legacy","1024","2","48000","-16","experiment","SSHSS","4","even","230205","38285","226813","NA","229702","2917","227608","NA","231261","2931","183037","NA","231364","231851","231256","231363","NA","Flanker Task","80","51384","83","yes","1024"
"95.2380952381","95.2380952381","615.773809524","615.773809524","black","legacy","legacy","legacy","0","incongruent","uniform","0","undefined","0","h","83","0","0","0","83","0","83","0","83","0","0","0","83","83","83","83","NA","09/25/21 18:58:39","600","The main experiment item","yes","FlankerTask.osexp","C:\Users\katie\Documents\School\Quant Methods","no","mono","no","18","no","white","no","yes","768","legacy","3","79","C:/Users/katie/Documents/School/Quant Methods/KH-subject-4.csv","legacy","Lentiform Loewenfeld","3.3.9","0","s","NA","s","h","NA","s","341","NA","35353","43775","NA","341","NA","NA","2","legacy","1024","2","48000","-16","experiment","SSHSS","4","even","231855","38285","226813","NA","229702","2917","227608","NA","232908","2931","183037","NA","233010","233352","232905","233010","NA","Flanker Task","80","51725","84","yes","1024"
"95.2941176471","95.2941176471","615.223529412","615.223529412","black","legacy","legacy","legacy","0","incongruent","uniform","1","undefined","1","s","84","0","0","0","84","0","84","0","84","0","0","0","84","84","84","84","NA","09/25/21 18:58:39","600","The main experiment item","yes","FlankerTask.osexp","C:\Users\katie\Documents\School\Quant Methods","no","mono","no","18","no","white","no","yes","768","legacy","4","79","C:/Users/katie/Documents/School/Quant Methods/KH-subject-4.csv","legacy","Lentiform Loewenfeld","3.3.9","0","s","NA","s","h","NA","s","569","NA","35353","43775","NA","569","NA","NA","2","legacy","1024","2","48000","-16","experiment","HHSHH","4","even","233866","38285","226813","NA","233365","2917","227608","NA","234925","2931","183037","NA","235028","235598","234923","235027","NA","Flanker Task","81","52294","85","yes","1024"
"95.3488372093","95.3488372093","613.279069767","613.279069767","black","legacy","legacy","legacy","0","incongruent","uniform","1","undefined","1","h","85","0","0","0","85","0","85","0","85","0","0","0","85","85","85","85","NA","09/25/21 18:58:39","600","The main experiment item","yes","FlankerTask.osexp","C:\Users\katie\Documents\School\Quant Methods","no","mono","no","18","no","white","no","yes","768","legacy","5","79","C:/Users/katie/Documents/School/Quant Methods/KH-subject-4.csv","legacy","Lentiform Loewenfeld","3.3.9","0","h","NA","s","h","NA","h","448","NA","35353","43775","NA","448","NA","NA","2","legacy","1024","2","48000","-16","experiment","SSHSS","4","even","235609","38285","226813","NA","233365","2917","227608","NA","236665","2931","183037","NA","236767","237216","236662","236766","NA","Flanker Task","82","52742","86","yes","1024"
"95.4022988506","95.4022988506","611.425287356","611.425287356","black","legacy","legacy","legacy","0","incongruent","uniform","1","undefined","1","h","86","0","0","0","86","0","86","0","86","0","0","0","86","86","86","86","NA","09/25/21 18:58:39","600","The main experiment item","yes","FlankerTask.osexp","C:\Users\katie\Documents\School\Quant Methods","no","mono","no","18","no","white","no","yes","768","legacy","6","79","C:/Users/katie/Documents/School/Quant Methods/KH-subject-4.csv","legacy","Lentiform Loewenfeld","3.3.9","0","h","NA","s","h","NA","h","452","NA","35353","43775","NA","452","NA","NA","2","legacy","1024","2","48000","-16","experiment","SSHSS","4","even","237227","38285","226813","NA","233365","2917","227608","NA","238283","2931","183037","NA","238385","238838","238280","238384","NA","Flanker Task","83","53194","87","yes","1024"
"95.4545454545","95.4545454545","608.931818182","608.931818182","black","legacy","legacy","legacy","0","incongruent","uniform","1","undefined","1","s","87","0","0","0","87","0","87","0","87","0","0","0","87","87","87","87","NA","09/25/21 18:58:39","600","The main experiment item","yes","FlankerTask.osexp","C:\Users\katie\Documents\School\Quant Methods","no","mono","no","18","no","white","no","yes","768","legacy","7","79","C:/Users/katie/Documents/School/Quant Methods/KH-subject-4.csv","legacy","Lentiform Loewenfeld","3.3.9","0","s","NA","s","h","NA","s","392","NA","35353","43775","NA","392","NA","NA","2","legacy","1024","2","48000","-16","experiment","HHSHH","4","even","238849","38285","226813","NA","233365","2917","227608","NA","239910","2931","183037","NA","240012","240405","239906","240011","NA","Flanker Task","84","53586","88","yes","1024"
"95.5056179775","95.5056179775","606.584269663","606.584269663","black","legacy","legacy","legacy","0","incongruent","uniform","1","undefined","1","h","88","0","0","0","88","0","88","0","88","0","0","0","88","88","88","88","NA","09/25/21 18:58:39","600","The main experiment item","yes","FlankerTask.osexp","C:\Users\katie\Documents\School\Quant Methods","no","mono","no","18","no","white","no","yes","768","legacy","8","79","C:/Users/katie/Documents/School/Quant Methods/KH-subject-4.csv","legacy","Lentiform Loewenfeld","3.3.9","0","h","NA","s","h","NA","h","400","NA","35353","43775","NA","400","NA","NA","2","legacy","1024","2","48000","-16","experiment","SSHSS","4","even","240416","38285","226813","NA","233365","2917","227608","NA","241475","2931","183037","NA","241576","241977","241473","241576","NA","Flanker Task","85","53986","89","yes","1024"
"95.5555555556","95.5555555556","604.311111111","604.311111111","black","legacy","legacy","legacy","0","incongruent","uniform","1","undefined","1","s","89","0","0","0","89","0","89","0","89","0","0","0","89","89","89","89","NA","09/25/21 18:58:39","600","The main experiment item","yes","FlankerTask.osexp","C:\Users\katie\Documents\School\Quant Methods","no","mono","no","18","no","white","no","yes","768","legacy","9","79","C:/Users/katie/Documents/School/Quant Methods/KH-subject-4.csv","legacy","Lentiform Loewenfeld","3.3.9","0","s","NA","s","h","NA","s","402","NA","35353","43775","NA","402","NA","NA","2","legacy","1024","2","48000","-16","experiment","HHSHH","4","even","241989","38285","226813","NA","233365","2917","227608","NA","243059","2931","183037","NA","243161","243565","243057","243161","NA","Flanker Task","86","54388","90","yes","1024"
"95.6043956044","95.6043956044","603.164835165","603.164835165","black","legacy","legacy","legacy","0","congruent","uniform","1","undefined","1","h","90","0","0","0","90","0","90","0","90","0","0","0","90","90","90","90","NA","09/25/21 18:58:39","600","The main experiment item","yes","FlankerTask.osexp","C:\Users\katie\Documents\School\Quant Methods","no","mono","no","18","no","white","no","yes","768","legacy","10","79","C:/Users/katie/Documents/School/Quant Methods/KH-subject-4.csv","legacy","Lentiform Loewenfeld","3.3.9","0","h","NA","s","h","NA","h","500","NA","35353","43775","NA","500","NA","NA","2","legacy","1024","2","48000","-16","experiment","HHHHH","4","even","243568","38285","226813","NA","233365","2917","227608","NA","244624","2931","183037","NA","244726","245227","244621","244726","NA","Flanker Task","87","54888","91","yes","1024"
"95.652173913","95.652173913","600.282608696","600.282608696","black","legacy","legacy","legacy","0","incongruent","uniform","1","undefined","1","s","91","0","0","0","91","0","91","0","91","0","0","0","91","91","91","91","NA","09/25/21 18:58:39","600","The main experiment item","yes","FlankerTask.osexp","C:\Users\katie\Documents\School\Quant Methods","no","mono","no","18","no","white","no","yes","768","legacy","11","79","C:/Users/katie/Documents/School/Quant Methods/KH-subject-4.csv","legacy","Lentiform Loewenfeld","3.3.9","0","s","NA","s","h","NA","s","338","NA","35353","43775","NA","338","NA","NA","2","legacy","1024","2","48000","-16","experiment","HHSHH","4","even","245239","38285","226813","NA","233365","2917","227608","NA","246293","2931","183037","NA","246395","246734","246290","246395","NA","Flanker Task","88","55226","92","yes","1024"
"95.6989247312","95.6989247312","598.032258065","598.032258065","black","legacy","legacy","legacy","0","incongruent","uniform","1","undefined","1","h","92","0","0","0","92","0","92","0","92","0","0","0","92","92","92","92","NA","09/25/21 18:58:39","600","The main experiment item","yes","FlankerTask.osexp","C:\Users\katie\Documents\School\Quant Methods","no","mono","no","18","no","white","no","yes","768","legacy","12","79","C:/Users/katie/Documents/School/Quant Methods/KH-subject-4.csv","legacy","Lentiform Loewenfeld","3.3.9","0","h","NA","s","h","NA","h","391","NA","35353","43775","NA","391","NA","NA","2","legacy","1024","2","48000","-16","experiment","SSHSS","4","even","246737","38285","226813","NA","233365","2917","227608","NA","247792","2931","183037","NA","247894","248286","247788","247894","NA","Flanker Task","89","55617","93","yes","1024"
"95.7446808511","95.7446808511","597.223404255","597.223404255","black","legacy","legacy","legacy","0","congruent","uniform","1","undefined","1","h","93","0","0","0","93","0","93","0","93","0","0","0","93","93","93","93","NA","09/25/21 18:58:39","600","The main experiment item","yes","FlankerTask.osexp","C:\Users\katie\Documents\School\Quant Methods","no","mono","no","18","no","white","no","yes","768","legacy","13","79","C:/Users/katie/Documents/School/Quant Methods/KH-subject-4.csv","legacy","Lentiform Loewenfeld","3.3.9","0","h","NA","s","h","NA","h","522","NA","35353","43775","NA","522","NA","NA","2","legacy","1024","2","48000","-16","experiment","HHHHH","4","even","248299","38285","226813","NA","233365","2917","227608","NA","249359","2931","183037","NA","249461","249984","249355","249461","NA","Flanker Task","90","56139","94","yes","1024"
"95.7894736842","95.7894736842","597.557894737","597.557894737","black","legacy","legacy","legacy","0","congruent","uniform","1","undefined","1","h","94","0","0","0","94","0","94","0","94","0","0","0","94","94","94","94","NA","09/25/21 18:58:39","600","The main experiment item","yes","FlankerTask.osexp","C:\Users\katie\Documents\School\Quant Methods","no","mono","no","18","no","white","no","yes","768","legacy","14","79","C:/Users/katie/Documents/School/Quant Methods/KH-subject-4.csv","legacy","Lentiform Loewenfeld","3.3.9","0","h","NA","s","h","NA","h","629","NA","35353","43775","NA","629","NA","NA","2","legacy","1024","2","48000","-16","experiment","HHHHH","4","even","249992","38285","226813","NA","233365","2917","227608","NA","251045","2931","183037","NA","251147","251778","251042","251146","NA","Flanker Task","91","56768","95","yes","1024"
"95.8333333333","95.8333333333","595.6875","595.6875","black","legacy","legacy","legacy","0","incongruent","uniform","1","undefined","1","s","95","0","0","0","95","0","95","0","95","0","0","0","95","95","95","95","NA","09/25/21 18:58:39","600","The main experiment item","yes","FlankerTask.osexp","C:\Users\katie\Documents\School\Quant Methods","no","mono","no","18","no","white","no","yes","768","legacy","15","79","C:/Users/katie/Documents/School/Quant Methods/KH-subject-4.csv","legacy","Lentiform Loewenfeld","3.3.9","0","s","NA","s","h","NA","s","418","NA","35353","43775","NA","418","NA","NA","2","legacy","1024","2","48000","-16","experiment","HHSHH","4","even","252291","38285","226813","NA","233365","2917","251790","NA","253346","2931","183037","NA","253448","253866","253344","253448","NA","Flanker Task","92","57186","96","yes","1024"
"95.8762886598","95.8762886598","594.113402062","594.113402062","black","legacy","legacy","legacy","0","incongruent","uniform","1","undefined","1","h","96","0","0","0","96","0","96","0","96","0","0","0","96","96","96","96","NA","09/25/21 18:58:39","600","The main experiment item","yes","FlankerTask.osexp","C:\Users\katie\Documents\School\Quant Methods","no","mono","no","18","no","white","no","yes","768","legacy","16","79","C:/Users/katie/Documents/School/Quant Methods/KH-subject-4.csv","legacy","Lentiform Loewenfeld","3.3.9","0","h","NA","s","h","NA","h","443","NA","35353","43775","NA","443","NA","NA","2","legacy","1024","2","48000","-16","experiment","SSHSS","4","even","253871","38285","226813","NA","233365","2917","251790","NA","254928","2931","183037","NA","255030","255474","254925","255030","NA","Flanker Task","93","57629","97","yes","1024"
"95.9183673469","95.9183673469","593.448979592","593.448979592","black","legacy","legacy","legacy","0","incongruent","uniform","1","undefined","1","h","97","0","0","0","97","0","97","0","97","0","0","0","97","97","97","97","NA","09/25/21 18:58:39","600","The main experiment item","yes","FlankerTask.osexp","C:\Users\katie\Documents\School\Quant Methods","no","mono","no","18","no","white","no","yes","768","legacy","17","79","C:/Users/katie/Documents/School/Quant Methods/KH-subject-4.csv","legacy","Lentiform Loewenfeld","3.3.9","0","h","NA","s","h","NA","h","529","NA","35353","43775","NA","529","NA","NA","2","legacy","1024","2","48000","-16","experiment","SSHSS","4","even","255486","38285","226813","NA","233365","2917","251790","NA","256540","2931","183037","NA","256642","257172","256536","256642","NA","Flanker Task","94","58158","98","yes","1024"
"95.9595959596","95.9595959596","592.282828283","592.282828283","black","legacy","legacy","legacy","0","congruent","uniform","1","undefined","1","h","98","0","0","0","98","0","98","0","98","0","0","0","98","98","98","98","NA","09/25/21 18:58:39","600","The main experiment item","yes","FlankerTask.osexp","C:\Users\katie\Documents\School\Quant Methods","no","mono","no","18","no","white","no","yes","768","legacy","18","79","C:/Users/katie/Documents/School/Quant Methods/KH-subject-4.csv","legacy","Lentiform Loewenfeld","3.3.9","0","h","NA","s","h","NA","h","478","NA","35353","43775","NA","478","NA","NA","2","legacy","1024","2","48000","-16","experiment","HHHHH","4","even","257176","38285","226813","NA","233365","2917","251790","NA","258233","2931","183037","NA","258335","258815","258230","258334","NA","Flanker Task","95","58636","99","yes","1024"
"96","96","590.22","590.22","black","legacy","legacy","legacy","0","incongruent","uniform","1","undefined","1","h","99","0","0","0","99","0","99","0","99","0","0","0","99","99","99","99","NA","09/25/21 18:58:39","600","The main experiment item","yes","FlankerTask.osexp","C:\Users\katie\Documents\School\Quant Methods","no","mono","no","18","no","white","no","yes","768","legacy","19","79","C:/Users/katie/Documents/School/Quant Methods/KH-subject-4.csv","legacy","Lentiform Loewenfeld","3.3.9","0","h","NA","s","h","NA","h","386","NA","35353","43775","NA","386","NA","NA","2","legacy","1024","2","48000","-16","experiment","SSHSS","4","even","258819","38285","226813","NA","233365","2917","251790","NA","259873","2931","183037","NA","259975","260362","259870","259975","NA","Flanker Task","96","59022","100","yes","1024"
"96.0396039604","96.0396039604","589.148514851","589.148514851","black","legacy","legacy","legacy","0","congruent","uniform","1","undefined","1","s","100","0","0","0","100","0","100","0","100","0","0","0","100","100","100","100","NA","09/25/21 18:58:39","600","The main experiment item","yes","FlankerTask.osexp","C:\Users\katie\Documents\School\Quant Methods","no","mono","no","18","no","white","no","yes","768","legacy","20","79","C:/Users/katie/Documents/School/Quant Methods/KH-subject-4.csv","legacy","Lentiform Loewenfeld","3.3.9","0","s","NA","s","h","NA","s","482","NA","35353","43775","NA","482","NA","NA","2","legacy","1024","2","48000","-16","experiment","SSSSS","4","even","260374","38285","226813","NA","233365","2917","251790","NA","261435","2931","183037","NA","261536","262019","261431","261536","NA","Flanker Task","97","59504","101","yes","1024"
"96.0784313725","96.0784313725","587.87254902","587.87254902","black","legacy","legacy","legacy","0","congruent","uniform","1","undefined","1","h","101","0","0","0","101","0","101","0","101","0","0","0","101","101","101","101","NA","09/25/21 18:58:39","600","The main experiment item","yes","FlankerTask.osexp","C:\Users\katie\Documents\School\Quant Methods","no","mono","no","18","no","white","no","yes","768","legacy","21","79","C:/Users/katie/Documents/School/Quant Methods/KH-subject-4.csv","legacy","Lentiform Loewenfeld","3.3.9","0","h","NA","s","h","NA","h","459","NA","35353","43775","NA","459","NA","NA","2","legacy","1024","2","48000","-16","experiment","HHHHH","4","even","262023","38285","226813","NA","233365","2917","251790","NA","263080","2931","183037","NA","263182","263642","263077","263182","NA","Flanker Task","98","59963","102","yes","1024"
"96.1165048544","96.1165048544","587.961165049","587.961165049","black","legacy","legacy","legacy","0","incongruent","uniform","1","undefined","1","s","102","0","0","0","102","0","102","0","102","0","0","0","102","102","102","102","NA","09/25/21 18:58:39","600","The main experiment item","yes","FlankerTask.osexp","C:\Users\katie\Documents\School\Quant Methods","no","mono","no","18","no","white","no","yes","768","legacy","22","79","C:/Users/katie/Documents/School/Quant Methods/KH-subject-4.csv","legacy","Lentiform Loewenfeld","3.3.9","0","s","NA","s","h","NA","s","597","NA","35353","43775","NA","597","NA","NA","2","legacy","1024","2","48000","-16","experiment","HHSHH","4","even","263646","38285","226813","NA","233365","2917","251790","NA","264700","2931","183037","NA","264802","265400","264698","264802","NA","Flanker Task","99","60560","103","yes","1024"
"96.1538461538","96.1538461538","590.153846154","590.153846154","black","legacy","legacy","legacy","0","incongruent","uniform","1","undefined","1","h","103","0","0","0","103","0","103","0","103","0","0","0","103","103","103","103","NA","09/25/21 18:58:39","600","The main experiment item","yes","FlankerTask.osexp","C:\Users\katie\Documents\School\Quant Methods","no","mono","no","18","no","white","no","yes","768","legacy","23","79","C:/Users/katie/Documents/School/Quant Methods/KH-subject-4.csv","legacy","Lentiform Loewenfeld","3.3.9","0","h","NA","s","h","NA","h","816","NA","35353","43775","NA","816","NA","NA","2","legacy","1024","2","48000","-16","experiment","SSHSS","4","even","265404","38285","226813","NA","233365","2917","251790","NA","266465","2931","183037","NA","266567","267384","266461","266567","NA","Flanker Task","100","61376","104","yes","1024"
"96.1904761905","96.1904761905","589.638095238","589.638095238","black","legacy","legacy","legacy","0","congruent","uniform","1","undefined","1","s","104","0","0","0","104","0","104","0","104","0","0","0","104","104","104","104","NA","09/25/21 18:58:39","600","The main experiment item","yes","FlankerTask.osexp","C:\Users\katie\Documents\School\Quant Methods","no","mono","no","18","no","white","no","yes","768","legacy","24","79","C:/Users/katie/Documents/School/Quant Methods/KH-subject-4.csv","legacy","Lentiform Loewenfeld","3.3.9","0","s","NA","s","h","NA","s","536","NA","35353","43775","NA","536","NA","NA","2","legacy","1024","2","48000","-16","experiment","SSSSS","4","even","267889","38285","226813","NA","233365","2917","267387","NA","268949","2931","183037","NA","269052","269589","268946","269051","NA","Flanker Task","101","61912","105","yes","1024"
"96.2264150943","96.2264150943","589.849056604","589.849056604","black","legacy","legacy","legacy","0","congruent","uniform","1","undefined","1","s","105","0","0","0","105","0","105","0","105","0","0","0","105","105","105","105","NA","09/25/21 18:58:39","600","The main experiment item","yes","FlankerTask.osexp","C:\Users\katie\Documents\School\Quant Methods","no","mono","no","18","no","white","no","yes","768","legacy","25","79","C:/Users/katie/Documents/School/Quant Methods/KH-subject-4.csv","legacy","Lentiform Loewenfeld","3.3.9","0","s","NA","s","h","NA","s","612","NA","35353","43775","NA","612","NA","NA","2","legacy","1024","2","48000","-16","experiment","SSSSS","4","even","269601","38285","226813","NA","233365","2917","267387","NA","270662","2931","183037","NA","270765","271378","270659","270765","NA","Flanker Task","102","62524","106","yes","1024"
"95.3271028037","95.3271028037","588.700934579","588.700934579","black","legacy","legacy","legacy","0","incongruent","uniform","0","undefined","0","s","106","0","0","0","106","0","106","0","106","0","0","0","106","106","106","106","NA","09/25/21 18:58:39","600","The main experiment item","yes","FlankerTask.osexp","C:\Users\katie\Documents\School\Quant Methods","no","mono","no","18","no","white","no","yes","768","legacy","26","79","C:/Users/katie/Documents/School/Quant Methods/KH-subject-4.csv","legacy","Lentiform Loewenfeld","3.3.9","0","h","NA","s","h","NA","h","467","NA","35353","43775","NA","467","NA","NA","2","legacy","1024","2","48000","-16","experiment","HHSHH","4","even","271892","38285","226813","NA","233365","2917","271391","NA","272948","2931","183037","NA","273049","273518","272945","273049","NA","Flanker Task","102","62991","107","yes","1024"
"95.3703703704","95.3703703704","587.444444444","587.444444444","black","legacy","legacy","legacy","0","congruent","uniform","1","undefined","1","s","107","0","0","0","107","0","107","0","107","0","0","0","107","107","107","107","NA","09/25/21 18:58:39","600","The main experiment item","yes","FlankerTask.osexp","C:\Users\katie\Documents\School\Quant Methods","no","mono","no","18","no","white","no","yes","768","legacy","27","79","C:/Users/katie/Documents/School/Quant Methods/KH-subject-4.csv","legacy","Lentiform Loewenfeld","3.3.9","0","s","NA","s","h","NA","s","453","NA","35353","43775","NA","453","NA","NA","2","legacy","1024","2","48000","-16","experiment","SSSSS","4","even","274024","38285","226813","NA","273522","2917","271391","NA","275080","2931","183037","NA","275183","275636","275075","275182","NA","Flanker Task","103","63444","108","yes","1024"
"95.4128440367","95.4128440367","586.357798165","586.357798165","black","legacy","legacy","legacy","0","congruent","uniform","1","undefined","1","s","108","0","0","0","108","0","108","0","108","0","0","0","108","108","108","108","NA","09/25/21 18:58:39","600","The main experiment item","yes","FlankerTask.osexp","C:\Users\katie\Documents\School\Quant Methods","no","mono","no","18","no","white","no","yes","768","legacy","28","79","C:/Users/katie/Documents/School/Quant Methods/KH-subject-4.csv","legacy","Lentiform Loewenfeld","3.3.9","0","s","NA","s","h","NA","s","469","NA","35353","43775","NA","469","NA","NA","2","legacy","1024","2","48000","-16","experiment","SSSSS","4","even","275648","38285","226813","NA","273522","2917","271391","NA","276703","2931","183037","NA","276805","277276","276700","276805","NA","Flanker Task","104","63913","109","yes","1024"
"95.4545454545","95.4545454545","585.945454545","585.945454545","black","legacy","legacy","legacy","0","incongruent","uniform","1","undefined","1","s","109","0","0","0","109","0","109","0","109","0","0","0","109","109","109","109","NA","09/25/21 18:58:39","600","The main experiment item","yes","FlankerTask.osexp","C:\Users\katie\Documents\School\Quant Methods","no","mono","no","18","no","white","no","yes","768","legacy","29","79","C:/Users/katie/Documents/School/Quant Methods/KH-subject-4.csv","legacy","Lentiform Loewenfeld","3.3.9","0","s","NA","s","h","NA","s","541","NA","35353","43775","NA","541","NA","NA","2","legacy","1024","2","48000","-16","experiment","HHSHH","4","even","277279","38285","226813","NA","273522","2917","271391","NA","278338","2931","183037","NA","278440","278982","278334","278439","NA","Flanker Task","105","64454","110","yes","1024"
"95.4954954955","95.4954954955","583.783783784","583.783783784","black","legacy","legacy","legacy","0","incongruent","uniform","1","undefined","1","h","110","0","0","0","110","0","110","0","110","0","0","0","110","110","110","110","NA","09/25/21 18:58:39","600","The main experiment item","yes","FlankerTask.osexp","C:\Users\katie\Documents\School\Quant Methods","no","mono","no","18","no","white","no","yes","768","legacy","30","79","C:/Users/katie/Documents/School/Quant Methods/KH-subject-4.csv","legacy","Lentiform Loewenfeld","3.3.9","0","h","NA","s","h","NA","h","346","NA","35353","43775","NA","346","NA","NA","2","legacy","1024","2","48000","-16","experiment","SSHSS","4","even","278986","38285","226813","NA","273522","2917","271391","NA","280046","2931","183037","NA","280147","280495","280042","280147","NA","Flanker Task","106","64800","111","yes","1024"
"94.6428571429","94.6428571429","581.214285714","581.214285714","black","legacy","legacy","legacy","0","incongruent","uniform","0","undefined","0","h","111","0","0","0","111","0","111","0","111","0","0","0","111","111","111","111","NA","09/25/21 18:58:39","600","The main experiment item","yes","FlankerTask.osexp","C:\Users\katie\Documents\School\Quant Methods","no","mono","no","18","no","white","no","yes","768","legacy","31","79","C:/Users/katie/Documents/School/Quant Methods/KH-subject-4.csv","legacy","Lentiform Loewenfeld","3.3.9","0","s","NA","s","h","NA","s","296","NA","35353","43775","NA","296","NA","NA","2","legacy","1024","2","48000","-16","experiment","SSHSS","4","even","280507","38285","226813","NA","273522","2917","271391","NA","281561","2931","183037","NA","281664","281962","281560","281664","NA","Flanker Task","106","65096","112","yes","1024"
"94.6902654867","94.6902654867","581.495575221","581.495575221","black","legacy","legacy","legacy","0","congruent","uniform","1","undefined","1","s","112","0","0","0","112","0","112","0","112","0","0","0","112","112","112","112","NA","09/25/21 18:58:39","600","The main experiment item","yes","FlankerTask.osexp","C:\Users\katie\Documents\School\Quant Methods","no","mono","no","18","no","white","no","yes","768","legacy","32","79","C:/Users/katie/Documents/School/Quant Methods/KH-subject-4.csv","legacy","Lentiform Loewenfeld","3.3.9","0","s","NA","s","h","NA","s","613","NA","35353","43775","NA","613","NA","NA","2","legacy","1024","2","48000","-16","experiment","SSSSS","4","even","282467","38285","226813","NA","281966","2917","271391","NA","283525","2931","183037","NA","283627","284242","283522","283627","NA","Flanker Task","107","65709","113","yes","1024"
"94.7368421053","94.7368421053","580.412280702","580.412280702","black","legacy","legacy","legacy","0","congruent","uniform","1","undefined","1","h","113","0","0","0","113","0","113","0","113","0","0","0","113","113","113","113","NA","09/25/21 18:58:39","600","The main experiment item","yes","FlankerTask.osexp","C:\Users\katie\Documents\School\Quant Methods","no","mono","no","18","no","white","no","yes","768","legacy","33","79","C:/Users/katie/Documents/School/Quant Methods/KH-subject-4.csv","legacy","Lentiform Loewenfeld","3.3.9","0","h","NA","s","h","NA","h","458","NA","35353","43775","NA","458","NA","NA","2","legacy","1024","2","48000","-16","experiment","HHHHH","4","even","284749","38285","226813","NA","281966","2917","284247","NA","285806","2931","183037","NA","285907","286366","285804","285907","NA","Flanker Task","108","66167","114","yes","1024"
"93.9130434783","93.9130434783","579.313043478","579.313043478","black","legacy","legacy","legacy","0","incongruent","uniform","0","undefined","0","h","114","0","0","0","114","0","114","0","114","0","0","0","114","114","114","114","NA","09/25/21 18:58:39","600","The main experiment item","yes","FlankerTask.osexp","C:\Users\katie\Documents\School\Quant Methods","no","mono","no","18","no","white","no","yes","768","legacy","34","79","C:/Users/katie/Documents/School/Quant Methods/KH-subject-4.csv","legacy","Lentiform Loewenfeld","3.3.9","0","s","NA","s","h","NA","s","454","NA","35353","43775","NA","454","NA","NA","2","legacy","1024","2","48000","-16","experiment","SSHSS","4","even","286378","38285","226813","NA","281966","2917","284247","NA","287435","2931","183037","NA","287539","287994","287431","287538","NA","Flanker Task","108","66621","115","yes","1024"
"93.9655172414","93.9655172414","578.198275862","578.198275862","black","legacy","legacy","legacy","0","incongruent","uniform","1","undefined","1","h","115","0","0","0","115","0","115","0","115","0","0","0","115","115","115","115","NA","09/25/21 18:58:39","600","The main experiment item","yes","FlankerTask.osexp","C:\Users\katie\Documents\School\Quant Methods","no","mono","no","18","no","white","no","yes","768","legacy","35","79","C:/Users/katie/Documents/School/Quant Methods/KH-subject-4.csv","legacy","Lentiform Loewenfeld","3.3.9","0","h","NA","s","h","NA","h","450","NA","35353","43775","NA","450","NA","NA","2","legacy","1024","2","48000","-16","experiment","SSHSS","4","even","288499","38285","226813","NA","287998","2917","284247","NA","289559","2931","183037","NA","289662","290113","289555","289661","NA","Flanker Task","109","67071","116","yes","1024"
"94.0170940171","94.0170940171","576.863247863","576.863247863","black","legacy","legacy","legacy","0","congruent","uniform","1","undefined","1","h","116","0","0","0","116","0","116","0","116","0","0","0","116","116","116","116","NA","09/25/21 18:58:39","600","The main experiment item","yes","FlankerTask.osexp","C:\Users\katie\Documents\School\Quant Methods","no","mono","no","18","no","white","no","yes","768","legacy","36","79","C:/Users/katie/Documents/School/Quant Methods/KH-subject-4.csv","legacy","Lentiform Loewenfeld","3.3.9","0","h","NA","s","h","NA","h","422","NA","35353","43775","NA","422","NA","NA","2","legacy","1024","2","48000","-16","experiment","HHHHH","4","even","290125","38285","226813","NA","287998","2917","284247","NA","291180","2931","183037","NA","291282","291705","291175","291282","NA","Flanker Task","110","67493","117","yes","1024"
