"acc","accuracy","average_response_time","avg_rt","background","canvas_backend","clock_backend","color_backend","compensation","condition","coordinates","correct","correct_Instructions1","correct_keyboard_response","correct_response","count_Block1","count_Block2","count_Block3","count_ISI","count_Instructions1","count_Sequence","count_errorFeedback","count_experiment","count_faster","count_fixation","count_instructions2","count_keyboard_response","count_logger","count_stimulus","datetime","deadline","description","disable_garbage_collection","experiment_path","font_bold","font_family","font_italic","font_size","font_underline","foreground","form_clicks","fullscreen","height","keyboard_backend","live_row","live_row_Block1","logfile","mouse_backend","opensesame_codename","opensesame_version","repeat_cycle","response","response_Instructions1","response_instructions2","response_keyboard_response","response_time","response_time_Instructions1","response_time_instructions2","response_time_keyboard_response","round_decimals","sampler_backend","sound_buf_size","sound_channels","sound_freq","sound_sample_size","start","stimulus","subject_nr","subject_parity","time_Block1","time_Block2","time_Block3","time_ISI","time_Instructions1","time_Sequence","time_errorFeedback","time_experiment","time_faster","time_fixation","time_instructions2","time_keyboard_response","time_logger","time_stimulus","title","total_correct","total_response_time","total_responses","uniform_coordinates","width"
"100","100","501","501","black","legacy","legacy","legacy","0","congruent","uniform","1","undefined","1","s","0","0","0","0","0","0","0","0","0","0","0","0","0","0","Sat Sep 24 13:51:58 2022","1500","The main experiment item","yes","/Users/andrea/Desktop/Adv. Quant Methods/FlankerTest_Savkovic.osexp","no","mono","no","18","no","white","no","yes","768","legacy","0","0","/Users/andrea/Desktop/Adv. Quant Methods/Lab 2.2/AS-subject-3.csv","legacy","Lentiform Loewenfeld","3.3.12","0","s","s","NA","s","501","1874","NA","501","2","legacy","1024","2","48000","-16","experiment","SSSSS","3","odd","6236","NA","NA","NA","4344","6270","NA","4336","NA","6272","NA","6378","6883","6378","Flanker Test","1","501","1","yes","1024"
"100","100","512","512","black","legacy","legacy","legacy","0","incongruent","uniform","1","undefined","1","s","0","0","0","1","0","1","1","0","1","1","0","1","1","1","Sat Sep 24 13:51:58 2022","1500","The main experiment item","yes","/Users/andrea/Desktop/Adv. Quant Methods/FlankerTest_Savkovic.osexp","no","mono","no","18","no","white","no","yes","768","legacy","1","1","/Users/andrea/Desktop/Adv. Quant Methods/Lab 2.2/AS-subject-3.csv","legacy","Lentiform Loewenfeld","3.3.12","0","s","s","NA","s","523","1874","NA","523","2","legacy","1024","2","48000","-16","experiment","HHSHH","3","odd","6236","NA","NA","6887","4344","7943","NA","4336","NA","7945","NA","8051","8575","8050","Flanker Test","2","1024","2","yes","1024"
"100","100","470.3333333333333","470.3333333333333","black","legacy","legacy","legacy","0","incongruent","uniform","1","undefined","1","h","0","0","0","2","0","2","2","0","2","2","0","2","2","2","Sat Sep 24 13:51:58 2022","1500","The main experiment item","yes","/Users/andrea/Desktop/Adv. Quant Methods/FlankerTest_Savkovic.osexp","no","mono","no","18","no","white","no","yes","768","legacy","2","2","/Users/andrea/Desktop/Adv. Quant Methods/Lab 2.2/AS-subject-3.csv","legacy","Lentiform Loewenfeld","3.3.12","0","h","s","NA","h","387","1874","NA","387","2","legacy","1024","2","48000","-16","experiment","SSHSS","3","odd","6236","NA","NA","8578","4344","9624","NA","4336","NA","9626","NA","9731","10119","9731","Flanker Test","3","1411","3","yes","1024"
"100","100","464.75","464.75","black","legacy","legacy","legacy","0","congruent","uniform","1","undefined","1","h","0","0","0","3","0","3","3","0","3","3","0","3","3","3","Sat Sep 24 13:51:58 2022","1500","The main experiment item","yes","/Users/andrea/Desktop/Adv. Quant Methods/FlankerTest_Savkovic.osexp","no","mono","no","18","no","white","no","yes","768","legacy","3","3","/Users/andrea/Desktop/Adv. Quant Methods/Lab 2.2/AS-subject-3.csv","legacy","Lentiform Loewenfeld","3.3.12","0","h","s","NA","h","448","1874","NA","448","2","legacy","1024","2","48000","-16","experiment","HHHHH","3","odd","6236","NA","NA","10122","4344","11169","NA","4336","NA","11171","NA","11276","11725","11276","Flanker Test","4","1859","4","yes","1024"
"100","100","458.4","458.4","black","legacy","legacy","legacy","0","incongruent","uniform","1","undefined","1","s","0","0","0","4","0","4","4","0","4","4","0","4","4","4","Sat Sep 24 13:51:58 2022","1500","The main experiment item","yes","/Users/andrea/Desktop/Adv. Quant Methods/FlankerTest_Savkovic.osexp","no","mono","no","18","no","white","no","yes","768","legacy","4","4","/Users/andrea/Desktop/Adv. Quant Methods/Lab 2.2/AS-subject-3.csv","legacy","Lentiform Loewenfeld","3.3.12","0","s","s","NA","s","433","1874","NA","433","2","legacy","1024","2","48000","-16","experiment","HHSHH","3","odd","6236","NA","NA","11728","4344","12775","NA","4336","NA","12777","NA","12881","13315","12881","Flanker Test","5","2292","5","yes","1024"
"100","100","454","454","black","legacy","legacy","legacy","0","congruent","uniform","1","undefined","1","h","0","0","0","5","0","5","5","0","5","5","0","5","5","5","Sat Sep 24 13:51:58 2022","1500","The main experiment item","yes","/Users/andrea/Desktop/Adv. Quant Methods/FlankerTest_Savkovic.osexp","no","mono","no","18","no","white","no","yes","768","legacy","5","5","/Users/andrea/Desktop/Adv. Quant Methods/Lab 2.2/AS-subject-3.csv","legacy","Lentiform Loewenfeld","3.3.12","0","h","s","NA","h","432","1874","NA","432","2","legacy","1024","2","48000","-16","experiment","HHHHH","3","odd","6236","NA","NA","13318","4344","14365","NA","4336","NA","14367","NA","14471","14904","14471","Flanker Test","6","2724","6","yes","1024"
"100","100","446.85714285714283","446.85714285714283","black","legacy","legacy","legacy","0","incongruent","uniform","1","undefined","1","s","0","0","0","6","0","6","6","0","6","6","0","6","6","6","Sat Sep 24 13:51:58 2022","1500","The main experiment item","yes","/Users/andrea/Desktop/Adv. Quant Methods/FlankerTest_Savkovic.osexp","no","mono","no","18","no","white","no","yes","768","legacy","6","6","/Users/andrea/Desktop/Adv. Quant Methods/Lab 2.2/AS-subject-3.csv","legacy","Lentiform Loewenfeld","3.3.12","0","s","s","NA","s","404","1874","NA","404","2","legacy","1024","2","48000","-16","experiment","HHSHH","3","odd","6236","NA","NA","14906","4344","15954","NA","4336","NA","15956","NA","16060","16465","16060","Flanker Test","7","3128","7","yes","1024"
"100","100","437.875","437.875","black","legacy","legacy","legacy","0","congruent","uniform","1","undefined","1","h","0","0","0","7","0","7","7","0","7","7","0","7","7","7","Sat Sep 24 13:51:58 2022","1500","The main experiment item","yes","/Users/andrea/Desktop/Adv. Quant Methods/FlankerTest_Savkovic.osexp","no","mono","no","18","no","white","no","yes","768","legacy","7","7","/Users/andrea/Desktop/Adv. Quant Methods/Lab 2.2/AS-subject-3.csv","legacy","Lentiform Loewenfeld","3.3.12","0","h","s","NA","h","375","1874","NA","375","2","legacy","1024","2","48000","-16","experiment","HHHHH","3","odd","6236","NA","NA","16467","4344","17514","NA","4336","NA","17516","NA","17620","17996","17620","Flanker Test","8","3503","8","yes","1024"
"100","100","427.55555555555554","427.55555555555554","black","legacy","legacy","legacy","0","incongruent","uniform","1","undefined","1","s","0","0","0","8","0","8","8","0","8","8","0","8","8","8","Sat Sep 24 13:51:58 2022","1500","The main experiment item","yes","/Users/andrea/Desktop/Adv. Quant Methods/FlankerTest_Savkovic.osexp","no","mono","no","18","no","white","no","yes","768","legacy","8","8","/Users/andrea/Desktop/Adv. Quant Methods/Lab 2.2/AS-subject-3.csv","legacy","Lentiform Loewenfeld","3.3.12","0","s","s","NA","s","345","1874","NA","345","2","legacy","1024","2","48000","-16","experiment","HHSHH","3","odd","6236","NA","NA","17999","4344","19046","NA","4336","NA","19048","NA","19150","19495","19150","Flanker Test","9","3848","9","yes","1024"
"100","100","422","422","black","legacy","legacy","legacy","0","congruent","uniform","1","undefined","1","h","0","0","0","9","0","9","9","0","9","9","0","9","9","9","Sat Sep 24 13:51:58 2022","1500","The main experiment item","yes","/Users/andrea/Desktop/Adv. Quant Methods/FlankerTest_Savkovic.osexp","no","mono","no","18","no","white","no","yes","768","legacy","9","9","/Users/andrea/Desktop/Adv. Quant Methods/Lab 2.2/AS-subject-3.csv","legacy","Lentiform Loewenfeld","3.3.12","0","h","s","NA","h","372","1874","NA","372","2","legacy","1024","2","48000","-16","experiment","HHHHH","3","odd","6236","NA","NA","19499","4344","20547","NA","4336","NA","20549","NA","20653","21026","20653","Flanker Test","10","4220","10","yes","1024"
"100","100","416.09090909090907","416.09090909090907","black","legacy","legacy","legacy","0","congruent","uniform","1","undefined","1","s","0","0","0","10","0","10","10","0","10","10","0","10","10","10","Sat Sep 24 13:51:58 2022","1500","The main experiment item","yes","/Users/andrea/Desktop/Adv. Quant Methods/FlankerTest_Savkovic.osexp","no","mono","no","18","no","white","no","yes","768","legacy","10","10","/Users/andrea/Desktop/Adv. Quant Methods/Lab 2.2/AS-subject-3.csv","legacy","Lentiform Loewenfeld","3.3.12","0","s","s","NA","s","357","1874","NA","357","2","legacy","1024","2","48000","-16","experiment","SSSSS","3","odd","6236","NA","NA","21028","4344","22076","NA","4336","NA","22078","NA","22182","22540","22182","Flanker Test","11","4577","11","yes","1024"
"100","100","425.4166666666667","425.4166666666667","black","legacy","legacy","legacy","0","incongruent","uniform","1","undefined","1","h","0","0","0","11","0","11","11","0","11","11","0","11","11","11","Sat Sep 24 13:51:58 2022","1500","The main experiment item","yes","/Users/andrea/Desktop/Adv. Quant Methods/FlankerTest_Savkovic.osexp","no","mono","no","18","no","white","no","yes","768","legacy","11","11","/Users/andrea/Desktop/Adv. Quant Methods/Lab 2.2/AS-subject-3.csv","legacy","Lentiform Loewenfeld","3.3.12","0","h","s","NA","h","528","1874","NA","528","2","legacy","1024","2","48000","-16","experiment","SSHSS","3","odd","6236","NA","NA","22543","4344","23585","NA","4336","NA","23587","NA","23691","24220","23691","Flanker Test","12","5105","12","yes","1024"
"100","100","423.84615384615387","423.84615384615387","black","legacy","legacy","legacy","0","incongruent","uniform","1","undefined","1","s","0","0","0","12","0","12","12","0","12","12","0","12","12","12","Sat Sep 24 13:51:58 2022","1500","The main experiment item","yes","/Users/andrea/Desktop/Adv. Quant Methods/FlankerTest_Savkovic.osexp","no","mono","no","18","no","white","no","yes","768","legacy","12","12","/Users/andrea/Desktop/Adv. Quant Methods/Lab 2.2/AS-subject-3.csv","legacy","Lentiform Loewenfeld","3.3.12","0","s","s","NA","s","405","1874","NA","405","2","legacy","1024","2","48000","-16","experiment","HHSHH","3","odd","6236","NA","NA","24223","4344","25269","NA","4336","NA","25271","NA","25375","25780","25375","Flanker Test","13","5510","13","yes","1024"
"100","100","422.2857142857143","422.2857142857143","black","legacy","legacy","legacy","0","incongruent","uniform","1","undefined","1","s","0","0","0","13","0","13","13","0","13","13","0","13","13","13","Sat Sep 24 13:51:58 2022","1500","The main experiment item","yes","/Users/andrea/Desktop/Adv. Quant Methods/FlankerTest_Savkovic.osexp","no","mono","no","18","no","white","no","yes","768","legacy","13","13","/Users/andrea/Desktop/Adv. Quant Methods/Lab 2.2/AS-subject-3.csv","legacy","Lentiform Loewenfeld","3.3.12","0","s","s","NA","s","402","1874","NA","402","2","legacy","1024","2","48000","-16","experiment","HHSHH","3","odd","6236","NA","NA","25784","4344","26831","NA","4336","NA","26833","NA","26938","27340","26938","Flanker Test","14","5912","14","yes","1024"
"100","100","420.06666666666666","420.06666666666666","black","legacy","legacy","legacy","0","congruent","uniform","1","undefined","1","s","0","0","0","14","0","14","14","0","14","14","0","14","14","14","Sat Sep 24 13:51:58 2022","1500","The main experiment item","yes","/Users/andrea/Desktop/Adv. Quant Methods/FlankerTest_Savkovic.osexp","no","mono","no","18","no","white","no","yes","768","legacy","14","14","/Users/andrea/Desktop/Adv. Quant Methods/Lab 2.2/AS-subject-3.csv","legacy","Lentiform Loewenfeld","3.3.12","0","s","s","NA","s","389","1874","NA","389","2","legacy","1024","2","48000","-16","experiment","SSSSS","3","odd","6236","NA","NA","27343","4344","28390","NA","4336","NA","28392","NA","28496","28886","28496","Flanker Test","15","6301","15","yes","1024"
"93.75","93.75","414.3125","414.3125","black","legacy","legacy","legacy","0","incongruent","uniform","0","undefined","0","h","0","0","0","15","0","15","15","0","15","15","0","15","15","15","Sat Sep 24 13:51:58 2022","1500","The main experiment item","yes","/Users/andrea/Desktop/Adv. Quant Methods/FlankerTest_Savkovic.osexp","no","mono","no","18","no","white","no","yes","768","legacy","15","15","/Users/andrea/Desktop/Adv. Quant Methods/Lab 2.2/AS-subject-3.csv","legacy","Lentiform Loewenfeld","3.3.12","0","s","s","NA","s","328","1874","NA","328","2","legacy","1024","2","48000","-16","experiment","SSHSS","3","odd","6236","NA","NA","28888","4344","29936","NA","4336","NA","29938","NA","30042","30371","30042","Flanker Test","15","6629","16","yes","1024"
"94.11764705882354","94.11764705882354","410.4117647058824","410.4117647058824","black","legacy","legacy","legacy","0","incongruent","uniform","1","undefined","1","s","0","0","0","16","0","16","16","0","16","16","0","16","16","16","Sat Sep 24 13:51:58 2022","1500","The main experiment item","yes","/Users/andrea/Desktop/Adv. Quant Methods/FlankerTest_Savkovic.osexp","no","mono","no","18","no","white","no","yes","768","legacy","16","16","/Users/andrea/Desktop/Adv. Quant Methods/Lab 2.2/AS-subject-3.csv","legacy","Lentiform Loewenfeld","3.3.12","0","s","s","NA","s","348","1874","NA","348","2","legacy","1024","2","48000","-16","experiment","HHSHH","3","odd","6236","NA","NA","30878","4344","31926","30374","4336","NA","31927","NA","32032","32381","32032","Flanker Test","16","6977","17","yes","1024"
"94.44444444444444","94.44444444444444","409.1666666666667","409.1666666666667","black","legacy","legacy","legacy","0","congruent","uniform","1","undefined","1","s","0","0","0","17","0","17","17","0","17","17","0","17","17","17","Sat Sep 24 13:51:58 2022","1500","The main experiment item","yes","/Users/andrea/Desktop/Adv. Quant Methods/FlankerTest_Savkovic.osexp","no","mono","no","18","no","white","no","yes","768","legacy","17","17","/Users/andrea/Desktop/Adv. Quant Methods/Lab 2.2/AS-subject-3.csv","legacy","Lentiform Loewenfeld","3.3.12","0","s","s","NA","s","388","1874","NA","388","2","legacy","1024","2","48000","-16","experiment","SSSSS","3","odd","6236","NA","NA","32383","4344","33431","30374","4336","NA","33433","NA","33537","33925","33537","Flanker Test","17","7365","18","yes","1024"
"94.73684210526316","94.73684210526316","424.63157894736844","424.63157894736844","black","legacy","legacy","legacy","0","incongruent","uniform","1","undefined","1","h","0","0","0","18","0","18","18","0","18","18","0","18","18","18","Sat Sep 24 13:51:58 2022","1500","The main experiment item","yes","/Users/andrea/Desktop/Adv. Quant Methods/FlankerTest_Savkovic.osexp","no","mono","no","18","no","white","no","yes","768","legacy","18","18","/Users/andrea/Desktop/Adv. Quant Methods/Lab 2.2/AS-subject-3.csv","legacy","Lentiform Loewenfeld","3.3.12","0","h","s","NA","h","703","1874","NA","703","2","legacy","1024","2","48000","-16","experiment","SSHSS","3","odd","6236","NA","NA","33928","4344","34976","30374","4336","NA","34978","NA","35082","35786","35082","Flanker Test","18","8068","19","yes","1024"
"95","95","423.5","423.5","black","legacy","legacy","legacy","0","congruent","uniform","1","undefined","1","h","0","0","0","19","0","19","19","0","19","19","0","19","19","19","Sat Sep 24 13:51:58 2022","1500","The main experiment item","yes","/Users/andrea/Desktop/Adv. Quant Methods/FlankerTest_Savkovic.osexp","no","mono","no","18","no","white","no","yes","768","legacy","19","19","/Users/andrea/Desktop/Adv. Quant Methods/Lab 2.2/AS-subject-3.csv","legacy","Lentiform Loewenfeld","3.3.12","0","h","s","NA","h","402","1874","NA","402","2","legacy","1024","2","48000","-16","experiment","HHHHH","3","odd","6236","NA","NA","35789","4344","36836","30374","4336","NA","36838","NA","36943","37346","36943","Flanker Test","19","8470","20","yes","1024"
"95.23809523809524","95.23809523809524","425.8095238095238","425.8095238095238","black","legacy","legacy","legacy","0","congruent","uniform","1","undefined","1","h","0","0","0","20","0","20","20","0","20","20","0","20","20","20","Sat Sep 24 13:51:58 2022","1500","The main experiment item","yes","/Users/andrea/Desktop/Adv. Quant Methods/FlankerTest_Savkovic.osexp","no","mono","no","18","no","white","no","yes","768","legacy","20","20","/Users/andrea/Desktop/Adv. Quant Methods/Lab 2.2/AS-subject-3.csv","legacy","Lentiform Loewenfeld","3.3.12","0","h","s","NA","h","472","1874","NA","472","2","legacy","1024","2","48000","-16","experiment","HHHHH","3","odd","6236","NA","NA","37349","4344","38387","30374","4336","NA","38389","NA","38493","38966","38493","Flanker Test","20","8942","21","yes","1024"
"95.45454545454545","95.45454545454545","427.5","427.5","black","legacy","legacy","legacy","0","congruent","uniform","1","undefined","1","h","0","0","0","21","0","21","21","0","21","21","0","21","21","21","Sat Sep 24 13:51:58 2022","1500","The main experiment item","yes","/Users/andrea/Desktop/Adv. Quant Methods/FlankerTest_Savkovic.osexp","no","mono","no","18","no","white","no","yes","768","legacy","21","21","/Users/andrea/Desktop/Adv. Quant Methods/Lab 2.2/AS-subject-3.csv","legacy","Lentiform Loewenfeld","3.3.12","0","h","s","NA","h","463","1874","NA","463","2","legacy","1024","2","48000","-16","experiment","HHHHH","3","odd","6236","NA","NA","38969","4344","40016","30374","4336","NA","40018","NA","40122","40586","40122","Flanker Test","21","9405","22","yes","1024"
"95.65217391304348","95.65217391304348","425.7391304347826","425.7391304347826","black","legacy","legacy","legacy","0","incongruent","uniform","1","undefined","1","s","0","0","0","22","0","22","22","0","22","22","0","22","22","22","Sat Sep 24 13:51:58 2022","1500","The main experiment item","yes","/Users/andrea/Desktop/Adv. Quant Methods/FlankerTest_Savkovic.osexp","no","mono","no","18","no","white","no","yes","768","legacy","22","22","/Users/andrea/Desktop/Adv. Quant Methods/Lab 2.2/AS-subject-3.csv","legacy","Lentiform Loewenfeld","3.3.12","0","s","s","NA","s","387","1874","NA","387","2","legacy","1024","2","48000","-16","experiment","HHSHH","3","odd","6236","NA","NA","40589","4344","41637","30374","4336","NA","41639","NA","41743","42131","41743","Flanker Test","22","9792","23","yes","1024"
"95.83333333333333","95.83333333333333","428.5833333333333","428.5833333333333","black","legacy","legacy","legacy","0","incongruent","uniform","1","undefined","1","h","0","0","0","23","0","23","23","0","23","23","0","23","23","23","Sat Sep 24 13:51:58 2022","1500","The main experiment item","yes","/Users/andrea/Desktop/Adv. Quant Methods/FlankerTest_Savkovic.osexp","no","mono","no","18","no","white","no","yes","768","legacy","23","23","/Users/andrea/Desktop/Adv. Quant Methods/Lab 2.2/AS-subject-3.csv","legacy","Lentiform Loewenfeld","3.3.12","0","h","s","NA","h","494","1874","NA","494","2","legacy","1024","2","48000","-16","experiment","SSHSS","3","odd","6236","NA","NA","42134","4344","43180","30374","4336","NA","43182","NA","43286","43781","43286","Flanker Test","23","10286","24","yes","1024"
"96","96","425.12","425.12","black","legacy","legacy","legacy","0","congruent","uniform","1","undefined","1","s","0","0","0","24","0","24","24","0","24","24","0","24","24","24","Sat Sep 24 13:51:58 2022","1500","The main experiment item","yes","/Users/andrea/Desktop/Adv. Quant Methods/FlankerTest_Savkovic.osexp","no","mono","no","18","no","white","no","yes","768","legacy","24","24","/Users/andrea/Desktop/Adv. Quant Methods/Lab 2.2/AS-subject-3.csv","legacy","Lentiform Loewenfeld","3.3.12","0","s","s","NA","s","342","1874","NA","342","2","legacy","1024","2","48000","-16","experiment","SSSSS","3","odd","6236","NA","NA","43784","4344","44831","30374","4336","NA","44833","NA","44938","45281","44938","Flanker Test","24","10628","25","yes","1024"
"96.15384615384616","96.15384615384616","427.15384615384613","427.15384615384613","black","legacy","legacy","legacy","0","incongruent","uniform","1","undefined","1","h","0","0","0","25","0","25","25","0","25","25","0","25","25","25","Sat Sep 24 13:51:58 2022","1500","The main experiment item","yes","/Users/andrea/Desktop/Adv. Quant Methods/FlankerTest_Savkovic.osexp","no","mono","no","18","no","white","no","yes","768","legacy","25","25","/Users/andrea/Desktop/Adv. Quant Methods/Lab 2.2/AS-subject-3.csv","legacy","Lentiform Loewenfeld","3.3.12","0","h","s","NA","h","478","1874","NA","478","2","legacy","1024","2","48000","-16","experiment","SSHSS","3","odd","6236","NA","NA","45284","4344","46331","30374","4336","NA","46333","NA","46438","46916","46437","Flanker Test","25","11106","26","yes","1024"
"96.29629629629629","96.29629629629629","426.81481481481484","426.81481481481484","black","legacy","legacy","legacy","0","congruent","uniform","1","undefined","1","h","0","0","0","26","0","26","26","0","26","26","0","26","26","26","Sat Sep 24 13:51:58 2022","1500","The main experiment item","yes","/Users/andrea/Desktop/Adv. Quant Methods/FlankerTest_Savkovic.osexp","no","mono","no","18","no","white","no","yes","768","legacy","26","26","/Users/andrea/Desktop/Adv. Quant Methods/Lab 2.2/AS-subject-3.csv","legacy","Lentiform Loewenfeld","3.3.12","0","h","s","NA","h","418","1874","NA","418","2","legacy","1024","2","48000","-16","experiment","HHHHH","3","odd","6236","NA","NA","46919","4344","47966","30374","4336","NA","47968","NA","48072","48491","48072","Flanker Test","26","11524","27","yes","1024"
"96.42857142857143","96.42857142857143","427.0357142857143","427.0357142857143","black","legacy","legacy","legacy","0","incongruent","uniform","1","undefined","1","s","0","0","0","27","0","27","27","0","27","27","0","27","27","27","Sat Sep 24 13:51:58 2022","1500","The main experiment item","yes","/Users/andrea/Desktop/Adv. Quant Methods/FlankerTest_Savkovic.osexp","no","mono","no","18","no","white","no","yes","768","legacy","27","27","/Users/andrea/Desktop/Adv. Quant Methods/Lab 2.2/AS-subject-3.csv","legacy","Lentiform Loewenfeld","3.3.12","0","s","s","NA","s","433","1874","NA","433","2","legacy","1024","2","48000","-16","experiment","HHSHH","3","odd","6236","NA","NA","48494","4344","49542","30374","4336","NA","49543","NA","49648","50081","49648","Flanker Test","27","11957","28","yes","1024"
"96.55172413793103","96.55172413793103","427.6551724137931","427.6551724137931","black","legacy","legacy","legacy","0","congruent","uniform","1","undefined","1","s","0","0","0","28","0","28","28","0","28","28","0","28","28","28","Sat Sep 24 13:51:58 2022","1500","The main experiment item","yes","/Users/andrea/Desktop/Adv. Quant Methods/FlankerTest_Savkovic.osexp","no","mono","no","18","no","white","no","yes","768","legacy","28","28","/Users/andrea/Desktop/Adv. Quant Methods/Lab 2.2/AS-subject-3.csv","legacy","Lentiform Loewenfeld","3.3.12","0","s","s","NA","s","445","1874","NA","445","2","legacy","1024","2","48000","-16","experiment","SSSSS","3","odd","6236","NA","NA","50085","4344","51132","30374","4336","NA","51134","NA","51241","51686","51240","Flanker Test","28","12402","29","yes","1024"
"96.66666666666667","96.66666666666667","429.8333333333333","429.8333333333333","black","legacy","legacy","legacy","0","incongruent","uniform","1","undefined","1","s","0","0","0","29","0","29","29","0","29","29","0","29","29","29","Sat Sep 24 13:51:58 2022","1500","The main experiment item","yes","/Users/andrea/Desktop/Adv. Quant Methods/FlankerTest_Savkovic.osexp","no","mono","no","18","no","white","no","yes","768","legacy","29","29","/Users/andrea/Desktop/Adv. Quant Methods/Lab 2.2/AS-subject-3.csv","legacy","Lentiform Loewenfeld","3.3.12","0","s","s","NA","s","493","1874","NA","493","2","legacy","1024","2","48000","-16","experiment","HHSHH","3","odd","6236","NA","NA","51689","4344","52736","30374","4336","NA","52738","NA","52842","53336","52842","Flanker Test","29","12895","30","yes","1024"
"96.7741935483871","96.7741935483871","427.48387096774195","427.48387096774195","black","legacy","legacy","legacy","0","congruent","uniform","1","undefined","1","s","0","0","0","30","0","30","30","0","30","30","0","30","30","30","Sat Sep 24 13:51:58 2022","1500","The main experiment item","yes","/Users/andrea/Desktop/Adv. Quant Methods/FlankerTest_Savkovic.osexp","no","mono","no","18","no","white","no","yes","768","legacy","30","30","/Users/andrea/Desktop/Adv. Quant Methods/Lab 2.2/AS-subject-3.csv","legacy","Lentiform Loewenfeld","3.3.12","0","s","s","NA","s","357","1874","NA","357","2","legacy","1024","2","48000","-16","experiment","SSSSS","3","odd","6236","NA","NA","53339","4344","54386","30374","4336","NA","54388","NA","54493","54851","54493","Flanker Test","30","13252","31","yes","1024"
"96.875","96.875","424.875","424.875","black","legacy","legacy","legacy","0","congruent","uniform","1","undefined","1","s","0","0","0","31","0","31","31","0","31","31","0","31","31","31","Sat Sep 24 13:51:58 2022","1500","The main experiment item","yes","/Users/andrea/Desktop/Adv. Quant Methods/FlankerTest_Savkovic.osexp","no","mono","no","18","no","white","no","yes","768","legacy","31","31","/Users/andrea/Desktop/Adv. Quant Methods/Lab 2.2/AS-subject-3.csv","legacy","Lentiform Loewenfeld","3.3.12","0","s","s","NA","s","344","1874","NA","344","2","legacy","1024","2","48000","-16","experiment","SSSSS","3","odd","6236","NA","NA","54854","4344","55901","30374","4336","NA","55903","NA","56007","56352","56007","Flanker Test","31","13596","32","yes","1024"
"96.96969696969697","96.96969696969697","428.72727272727275","428.72727272727275","black","legacy","legacy","legacy","0","incongruent","uniform","1","undefined","1","s","0","0","0","32","0","32","32","0","32","32","0","32","32","32","Sat Sep 24 13:51:58 2022","1500","The main experiment item","yes","/Users/andrea/Desktop/Adv. Quant Methods/FlankerTest_Savkovic.osexp","no","mono","no","18","no","white","no","yes","768","legacy","32","32","/Users/andrea/Desktop/Adv. Quant Methods/Lab 2.2/AS-subject-3.csv","legacy","Lentiform Loewenfeld","3.3.12","0","s","s","NA","s","552","1874","NA","552","2","legacy","1024","2","48000","-16","experiment","HHSHH","3","odd","6236","NA","NA","56355","4344","57403","30374","4336","NA","57405","NA","57509","58062","57509","Flanker Test","32","14148","33","yes","1024"
"97.05882352941177","97.05882352941177","427.52941176470586","427.52941176470586","black","legacy","legacy","legacy","0","congruent","uniform","1","undefined","1","h","0","0","0","33","0","33","33","0","33","33","0","33","33","33","Sat Sep 24 13:51:58 2022","1500","The main experiment item","yes","/Users/andrea/Desktop/Adv. Quant Methods/FlankerTest_Savkovic.osexp","no","mono","no","18","no","white","no","yes","768","legacy","33","33","/Users/andrea/Desktop/Adv. Quant Methods/Lab 2.2/AS-subject-3.csv","legacy","Lentiform Loewenfeld","3.3.12","0","h","s","NA","h","388","1874","NA","388","2","legacy","1024","2","48000","-16","experiment","HHHHH","3","odd","6236","NA","NA","58065","4344","59112","30374","4336","NA","59114","NA","59218","59607","59218","Flanker Test","33","14536","34","yes","1024"
"97.14285714285714","97.14285714285714","431.9714285714286","431.9714285714286","black","legacy","legacy","legacy","0","incongruent","uniform","1","undefined","1","h","0","0","0","34","0","34","34","0","34","34","0","34","34","34","Sat Sep 24 13:51:58 2022","1500","The main experiment item","yes","/Users/andrea/Desktop/Adv. Quant Methods/FlankerTest_Savkovic.osexp","no","mono","no","18","no","white","no","yes","768","legacy","34","34","/Users/andrea/Desktop/Adv. Quant Methods/Lab 2.2/AS-subject-3.csv","legacy","Lentiform Loewenfeld","3.3.12","0","h","s","NA","h","583","1874","NA","583","2","legacy","1024","2","48000","-16","experiment","SSHSS","3","odd","6236","NA","NA","59610","4344","60657","30374","4336","NA","60659","NA","60763","61347","60763","Flanker Test","34","15119","35","yes","1024"
"97.22222222222223","97.22222222222223","432.4166666666667","432.4166666666667","black","legacy","legacy","legacy","0","congruent","uniform","1","undefined","1","s","0","0","0","35","0","35","35","0","35","35","0","35","35","35","Sat Sep 24 13:51:58 2022","1500","The main experiment item","yes","/Users/andrea/Desktop/Adv. Quant Methods/FlankerTest_Savkovic.osexp","no","mono","no","18","no","white","no","yes","768","legacy","35","35","/Users/andrea/Desktop/Adv. Quant Methods/Lab 2.2/AS-subject-3.csv","legacy","Lentiform Loewenfeld","3.3.12","0","s","s","NA","s","448","1874","NA","448","2","legacy","1024","2","48000","-16","experiment","SSSSS","3","odd","6236","NA","NA","61350","4344","62397","30374","4336","NA","62399","NA","62503","62952","62503","Flanker Test","35","15567","36","yes","1024"
"97.29729729729729","97.29729729729729","435.2162162162162","435.2162162162162","black","legacy","legacy","legacy","0","incongruent","uniform","1","undefined","1","s","0","0","0","36","0","36","36","0","36","36","0","36","36","36","Sat Sep 24 13:51:58 2022","1500","The main experiment item","yes","/Users/andrea/Desktop/Adv. Quant Methods/FlankerTest_Savkovic.osexp","no","mono","no","18","no","white","no","yes","768","legacy","36","36","/Users/andrea/Desktop/Adv. Quant Methods/Lab 2.2/AS-subject-3.csv","legacy","Lentiform Loewenfeld","3.3.12","0","s","s","NA","s","536","1874","NA","536","2","legacy","1024","2","48000","-16","experiment","HHSHH","3","odd","6236","NA","NA","62955","4344","64003","30374","4336","NA","64005","NA","64110","64647","64109","Flanker Test","36","16103","37","yes","1024"
"97.36842105263158","97.36842105263158","434.7368421052632","434.7368421052632","black","legacy","legacy","legacy","0","congruent","uniform","1","undefined","1","s","0","0","0","37","0","37","37","0","37","37","0","37","37","37","Sat Sep 24 13:51:58 2022","1500","The main experiment item","yes","/Users/andrea/Desktop/Adv. Quant Methods/FlankerTest_Savkovic.osexp","no","mono","no","18","no","white","no","yes","768","legacy","37","37","/Users/andrea/Desktop/Adv. Quant Methods/Lab 2.2/AS-subject-3.csv","legacy","Lentiform Loewenfeld","3.3.12","0","s","s","NA","s","417","1874","NA","417","2","legacy","1024","2","48000","-16","experiment","SSSSS","3","odd","6236","NA","NA","64650","4344","65697","30374","4336","NA","65699","NA","65804","66222","65803","Flanker Test","37","16520","38","yes","1024"
"97.43589743589743","97.43589743589743","435.84615384615387","435.84615384615387","black","legacy","legacy","legacy","0","congruent","uniform","1","undefined","1","h","0","0","0","38","0","38","38","0","38","38","0","38","38","38","Sat Sep 24 13:51:58 2022","1500","The main experiment item","yes","/Users/andrea/Desktop/Adv. Quant Methods/FlankerTest_Savkovic.osexp","no","mono","no","18","no","white","no","yes","768","legacy","38","38","/Users/andrea/Desktop/Adv. Quant Methods/Lab 2.2/AS-subject-3.csv","legacy","Lentiform Loewenfeld","3.3.12","0","h","s","NA","h","478","1874","NA","478","2","legacy","1024","2","48000","-16","experiment","HHHHH","3","odd","6236","NA","NA","66225","4344","67272","30374","4336","NA","67274","NA","67378","67857","67378","Flanker Test","38","16998","39","yes","1024"
"97.5","97.5","437.675","437.675","black","legacy","legacy","legacy","0","incongruent","uniform","1","undefined","1","s","0","0","0","39","0","39","39","0","39","39","0","39","39","39","Sat Sep 24 13:51:58 2022","1500","The main experiment item","yes","/Users/andrea/Desktop/Adv. Quant Methods/FlankerTest_Savkovic.osexp","no","mono","no","18","no","white","no","yes","768","legacy","39","39","/Users/andrea/Desktop/Adv. Quant Methods/Lab 2.2/AS-subject-3.csv","legacy","Lentiform Loewenfeld","3.3.12","0","s","s","NA","s","509","1874","NA","509","2","legacy","1024","2","48000","-16","experiment","HHSHH","3","odd","6236","NA","NA","67860","4344","68907","30374","4336","NA","68909","NA","69012","69522","69012","Flanker Test","39","17507","40","yes","1024"
"97.5609756097561","97.5609756097561","436.0975609756098","436.0975609756098","black","legacy","legacy","legacy","0","incongruent","uniform","1","undefined","1","s","0","0","0","40","0","40","40","0","40","40","0","40","40","40","Sat Sep 24 13:51:58 2022","1500","The main experiment item","yes","/Users/andrea/Desktop/Adv. Quant Methods/FlankerTest_Savkovic.osexp","no","mono","no","18","no","white","no","yes","768","legacy","40","40","/Users/andrea/Desktop/Adv. Quant Methods/Lab 2.2/AS-subject-3.csv","legacy","Lentiform Loewenfeld","3.3.12","0","s","s","NA","s","373","1874","NA","373","2","legacy","1024","2","48000","-16","experiment","HHSHH","3","odd","6236","NA","NA","69525","4344","70573","30374","4336","NA","70575","NA","70679","71053","70679","Flanker Test","40","17880","41","yes","1024"
"97.61904761904762","97.61904761904762","437.42857142857144","437.42857142857144","black","legacy","legacy","legacy","0","congruent","uniform","1","undefined","1","h","0","0","0","41","0","41","41","0","41","41","0","41","41","41","Sat Sep 24 13:51:58 2022","1500","The main experiment item","yes","/Users/andrea/Desktop/Adv. Quant Methods/FlankerTest_Savkovic.osexp","no","mono","no","18","no","white","no","yes","768","legacy","41","41","/Users/andrea/Desktop/Adv. Quant Methods/Lab 2.2/AS-subject-3.csv","legacy","Lentiform Loewenfeld","3.3.12","0","h","s","NA","h","492","1874","NA","492","2","legacy","1024","2","48000","-16","experiment","HHHHH","3","odd","6236","NA","NA","71056","4344","72104","30374","4336","NA","72106","NA","72210","72702","72210","Flanker Test","41","18372","42","yes","1024"
"97.67441860465117","97.67441860465117","436.6511627906977","436.6511627906977","black","legacy","legacy","legacy","0","congruent","uniform","1","undefined","1","h","0","0","0","42","0","42","42","0","42","42","0","42","42","42","Sat Sep 24 13:51:58 2022","1500","The main experiment item","yes","/Users/andrea/Desktop/Adv. Quant Methods/FlankerTest_Savkovic.osexp","no","mono","no","18","no","white","no","yes","768","legacy","42","42","/Users/andrea/Desktop/Adv. Quant Methods/Lab 2.2/AS-subject-3.csv","legacy","Lentiform Loewenfeld","3.3.12","0","h","s","NA","h","404","1874","NA","404","2","legacy","1024","2","48000","-16","experiment","HHHHH","3","odd","6236","NA","NA","72705","4344","73752","30374","4336","NA","73754","NA","73858","74263","73858","Flanker Test","42","18776","43","yes","1024"
"97.72727272727273","97.72727272727273","437.27272727272725","437.27272727272725","black","legacy","legacy","legacy","0","incongruent","uniform","1","undefined","1","s","0","0","0","43","0","43","43","0","43","43","0","43","43","43","Sat Sep 24 13:51:58 2022","1500","The main experiment item","yes","/Users/andrea/Desktop/Adv. Quant Methods/FlankerTest_Savkovic.osexp","no","mono","no","18","no","white","no","yes","768","legacy","43","43","/Users/andrea/Desktop/Adv. Quant Methods/Lab 2.2/AS-subject-3.csv","legacy","Lentiform Loewenfeld","3.3.12","0","s","s","NA","s","464","1874","NA","464","2","legacy","1024","2","48000","-16","experiment","HHSHH","3","odd","6236","NA","NA","74266","4344","75313","30374","4336","NA","75315","NA","75418","75882","75418","Flanker Test","43","19240","44","yes","1024"
"97.77777777777777","97.77777777777777","437.2","437.2","black","legacy","legacy","legacy","0","congruent","uniform","1","undefined","1","s","0","0","0","44","0","44","44","0","44","44","0","44","44","44","Sat Sep 24 13:51:58 2022","1500","The main experiment item","yes","/Users/andrea/Desktop/Adv. Quant Methods/FlankerTest_Savkovic.osexp","no","mono","no","18","no","white","no","yes","768","legacy","44","44","/Users/andrea/Desktop/Adv. Quant Methods/Lab 2.2/AS-subject-3.csv","legacy","Lentiform Loewenfeld","3.3.12","0","s","s","NA","s","434","1874","NA","434","2","legacy","1024","2","48000","-16","experiment","SSSSS","3","odd","6236","NA","NA","75885","4344","76931","30374","4336","NA","76933","NA","77038","77473","77037","Flanker Test","44","19674","45","yes","1024"
"97.82608695652173","97.82608695652173","442.30434782608694","442.30434782608694","black","legacy","legacy","legacy","0","incongruent","uniform","1","undefined","1","h","0","0","0","45","0","45","45","0","45","45","0","45","45","45","Sat Sep 24 13:51:58 2022","1500","The main experiment item","yes","/Users/andrea/Desktop/Adv. Quant Methods/FlankerTest_Savkovic.osexp","no","mono","no","18","no","white","no","yes","768","legacy","45","45","/Users/andrea/Desktop/Adv. Quant Methods/Lab 2.2/AS-subject-3.csv","legacy","Lentiform Loewenfeld","3.3.12","0","h","s","NA","h","672","1874","NA","672","2","legacy","1024","2","48000","-16","experiment","SSHSS","3","odd","6236","NA","NA","77476","4344","78523","30374","4336","NA","78526","NA","78630","79302","78630","Flanker Test","45","20346","46","yes","1024"
"97.87234042553192","97.87234042553192","441.48936170212767","441.48936170212767","black","legacy","legacy","legacy","0","congruent","uniform","1","undefined","1","s","0","0","0","46","0","46","46","0","46","46","0","46","46","46","Sat Sep 24 13:51:58 2022","1500","The main experiment item","yes","/Users/andrea/Desktop/Adv. Quant Methods/FlankerTest_Savkovic.osexp","no","mono","no","18","no","white","no","yes","768","legacy","46","46","/Users/andrea/Desktop/Adv. Quant Methods/Lab 2.2/AS-subject-3.csv","legacy","Lentiform Loewenfeld","3.3.12","0","s","s","NA","s","404","1874","NA","404","2","legacy","1024","2","48000","-16","experiment","SSSSS","3","odd","6236","NA","NA","79305","4344","80352","30374","4336","NA","80354","NA","80458","80863","80458","Flanker Test","46","20750","47","yes","1024"
"97.91666666666667","97.91666666666667","442.0208333333333","442.0208333333333","black","legacy","legacy","legacy","0","incongruent","uniform","1","undefined","1","h","0","0","0","47","0","47","47","0","47","47","0","47","47","47","Sat Sep 24 13:51:58 2022","1500","The main experiment item","yes","/Users/andrea/Desktop/Adv. Quant Methods/FlankerTest_Savkovic.osexp","no","mono","no","18","no","white","no","yes","768","legacy","47","47","/Users/andrea/Desktop/Adv. Quant Methods/Lab 2.2/AS-subject-3.csv","legacy","Lentiform Loewenfeld","3.3.12","0","h","s","NA","h","467","1874","NA","467","2","legacy","1024","2","48000","-16","experiment","SSHSS","3","odd","6236","NA","NA","80866","4344","81909","30374","4336","NA","81911","NA","82015","82483","82015","Flanker Test","47","21217","48","yes","1024"
"97.95918367346938","97.95918367346938","441.53061224489795","441.53061224489795","black","legacy","legacy","legacy","0","congruent","uniform","1","undefined","1","h","0","0","0","48","0","48","48","0","48","48","0","48","48","48","Sat Sep 24 13:51:58 2022","1500","The main experiment item","yes","/Users/andrea/Desktop/Adv. Quant Methods/FlankerTest_Savkovic.osexp","no","mono","no","18","no","white","no","yes","768","legacy","48","48","/Users/andrea/Desktop/Adv. Quant Methods/Lab 2.2/AS-subject-3.csv","legacy","Lentiform Loewenfeld","3.3.12","0","h","s","NA","h","418","1874","NA","418","2","legacy","1024","2","48000","-16","experiment","HHHHH","3","odd","6236","NA","NA","82486","4344","83533","30374","4336","NA","83535","NA","83639","84058","83639","Flanker Test","48","21635","49","yes","1024"
"98","98","442.54","442.54","black","legacy","legacy","legacy","0","congruent","uniform","1","undefined","1","h","0","0","0","49","0","49","49","0","49","49","0","49","49","49","Sat Sep 24 13:51:58 2022","1500","The main experiment item","yes","/Users/andrea/Desktop/Adv. Quant Methods/FlankerTest_Savkovic.osexp","no","mono","no","18","no","white","no","yes","768","legacy","49","49","/Users/andrea/Desktop/Adv. Quant Methods/Lab 2.2/AS-subject-3.csv","legacy","Lentiform Loewenfeld","3.3.12","0","h","s","NA","h","492","1874","NA","492","2","legacy","1024","2","48000","-16","experiment","HHHHH","3","odd","6236","NA","NA","84061","4344","85108","30374","4336","NA","85110","NA","85215","85708","85215","Flanker Test","49","22127","50","yes","1024"
"98.03921568627452","98.03921568627452","441.47058823529414","441.47058823529414","black","legacy","legacy","legacy","0","congruent","uniform","1","undefined","1","h","0","0","0","50","0","50","50","0","50","50","0","50","50","50","Sat Sep 24 13:51:58 2022","1500","The main experiment item","yes","/Users/andrea/Desktop/Adv. Quant Methods/FlankerTest_Savkovic.osexp","no","mono","no","18","no","white","no","yes","768","legacy","50","50","/Users/andrea/Desktop/Adv. Quant Methods/Lab 2.2/AS-subject-3.csv","legacy","Lentiform Loewenfeld","3.3.12","0","h","s","NA","h","388","1874","NA","388","2","legacy","1024","2","48000","-16","experiment","HHHHH","3","odd","6236","NA","NA","85711","4344","86758","30374","4336","NA","86760","NA","86864","87253","86864","Flanker Test","50","22515","51","yes","1024"
"98.07692307692308","98.07692307692308","441.59615384615387","441.59615384615387","black","legacy","legacy","legacy","0","congruent","uniform","1","undefined","1","s","0","0","0","51","0","51","51","0","51","51","0","51","51","51","Sat Sep 24 13:51:58 2022","1500","The main experiment item","yes","/Users/andrea/Desktop/Adv. Quant Methods/FlankerTest_Savkovic.osexp","no","mono","no","18","no","white","no","yes","768","legacy","51","51","/Users/andrea/Desktop/Adv. Quant Methods/Lab 2.2/AS-subject-3.csv","legacy","Lentiform Loewenfeld","3.3.12","0","s","s","NA","s","448","1874","NA","448","2","legacy","1024","2","48000","-16","experiment","SSSSS","3","odd","6236","NA","NA","87256","4344","88303","30374","4336","NA","88305","NA","88409","88858","88409","Flanker Test","51","22963","52","yes","1024"
"98.11320754716981","98.11320754716981","446","446","black","legacy","legacy","legacy","0","incongruent","uniform","1","undefined","1","s","0","0","0","52","0","52","52","0","52","52","0","52","52","52","Sat Sep 24 13:51:58 2022","1500","The main experiment item","yes","/Users/andrea/Desktop/Adv. Quant Methods/FlankerTest_Savkovic.osexp","no","mono","no","18","no","white","no","yes","768","legacy","52","52","/Users/andrea/Desktop/Adv. Quant Methods/Lab 2.2/AS-subject-3.csv","legacy","Lentiform Loewenfeld","3.3.12","0","s","s","NA","s","675","1874","NA","675","2","legacy","1024","2","48000","-16","experiment","HHSHH","3","odd","6236","NA","NA","88861","4344","89907","30374","4336","NA","89909","NA","90013","90689","90013","Flanker Test","52","23638","53","yes","1024"
"98.14814814814815","98.14814814814815","446.8703703703704","446.8703703703704","black","legacy","legacy","legacy","0","incongruent","uniform","1","undefined","1","h","0","0","0","53","0","53","53","0","53","53","0","53","53","53","Sat Sep 24 13:51:58 2022","1500","The main experiment item","yes","/Users/andrea/Desktop/Adv. Quant Methods/FlankerTest_Savkovic.osexp","no","mono","no","18","no","white","no","yes","768","legacy","53","53","/Users/andrea/Desktop/Adv. Quant Methods/Lab 2.2/AS-subject-3.csv","legacy","Lentiform Loewenfeld","3.3.12","0","h","s","NA","h","493","1874","NA","493","2","legacy","1024","2","48000","-16","experiment","SSHSS","3","odd","6236","NA","NA","90691","4344","91738","30374","4336","NA","91740","NA","91844","92337","91844","Flanker Test","53","24131","54","yes","1024"
"98.18181818181819","98.18181818181819","445.8181818181818","445.8181818181818","black","legacy","legacy","legacy","0","congruent","uniform","1","undefined","1","s","0","0","0","54","0","54","54","0","54","54","0","54","54","54","Sat Sep 24 13:51:58 2022","1500","The main experiment item","yes","/Users/andrea/Desktop/Adv. Quant Methods/FlankerTest_Savkovic.osexp","no","mono","no","18","no","white","no","yes","768","legacy","54","54","/Users/andrea/Desktop/Adv. Quant Methods/Lab 2.2/AS-subject-3.csv","legacy","Lentiform Loewenfeld","3.3.12","0","s","s","NA","s","389","1874","NA","389","2","legacy","1024","2","48000","-16","experiment","SSSSS","3","odd","6236","NA","NA","92341","4344","93388","30374","4336","NA","93389","NA","93494","93883","93494","Flanker Test","54","24520","55","yes","1024"
"98.21428571428571","98.21428571428571","447.17857142857144","447.17857142857144","black","legacy","legacy","legacy","0","incongruent","uniform","1","undefined","1","s","0","0","0","55","0","55","55","0","55","55","0","55","55","55","Sat Sep 24 13:51:58 2022","1500","The main experiment item","yes","/Users/andrea/Desktop/Adv. Quant Methods/FlankerTest_Savkovic.osexp","no","mono","no","18","no","white","no","yes","768","legacy","55","55","/Users/andrea/Desktop/Adv. Quant Methods/Lab 2.2/AS-subject-3.csv","legacy","Lentiform Loewenfeld","3.3.12","0","s","s","NA","s","522","1874","NA","522","2","legacy","1024","2","48000","-16","experiment","HHSHH","3","odd","6236","NA","NA","93886","4344","94934","30374","4336","NA","94936","NA","95040","95563","95040","Flanker Test","55","25042","56","yes","1024"
"98.24561403508773","98.24561403508773","446.3859649122807","446.3859649122807","black","legacy","legacy","legacy","0","incongruent","uniform","1","undefined","1","s","0","0","0","56","0","56","56","0","56","56","0","56","56","56","Sat Sep 24 13:51:58 2022","1500","The main experiment item","yes","/Users/andrea/Desktop/Adv. Quant Methods/FlankerTest_Savkovic.osexp","no","mono","no","18","no","white","no","yes","768","legacy","56","56","/Users/andrea/Desktop/Adv. Quant Methods/Lab 2.2/AS-subject-3.csv","legacy","Lentiform Loewenfeld","3.3.12","0","s","s","NA","s","402","1874","NA","402","2","legacy","1024","2","48000","-16","experiment","HHSHH","3","odd","6236","NA","NA","95566","4344","96614","30374","4336","NA","96616","NA","96720","97123","96720","Flanker Test","56","25444","57","yes","1024"
"98.27586206896552","98.27586206896552","445.13793103448273","445.13793103448273","black","legacy","legacy","legacy","0","congruent","uniform","1","undefined","1","s","0","0","0","57","0","57","57","0","57","57","0","57","57","57","Sat Sep 24 13:51:58 2022","1500","The main experiment item","yes","/Users/andrea/Desktop/Adv. Quant Methods/FlankerTest_Savkovic.osexp","no","mono","no","18","no","white","no","yes","768","legacy","57","57","/Users/andrea/Desktop/Adv. Quant Methods/Lab 2.2/AS-subject-3.csv","legacy","Lentiform Loewenfeld","3.3.12","0","s","s","NA","s","374","1874","NA","374","2","legacy","1024","2","48000","-16","experiment","SSSSS","3","odd","6236","NA","NA","97126","4344","98173","30374","4336","NA","98175","NA","98279","98653","98279","Flanker Test","57","25818","58","yes","1024"
"96.61016949152543","96.61016949152543","443.66101694915255","443.66101694915255","black","legacy","legacy","legacy","0","incongruent","uniform","0","undefined","0","h","0","0","0","58","0","58","58","0","58","58","0","58","58","58","Sat Sep 24 13:51:58 2022","1500","The main experiment item","yes","/Users/andrea/Desktop/Adv. Quant Methods/FlankerTest_Savkovic.osexp","no","mono","no","18","no","white","no","yes","768","legacy","58","58","/Users/andrea/Desktop/Adv. Quant Methods/Lab 2.2/AS-subject-3.csv","legacy","Lentiform Loewenfeld","3.3.12","0","s","s","NA","s","358","1874","NA","358","2","legacy","1024","2","48000","-16","experiment","SSHSS","3","odd","6236","NA","NA","98656","4344","99703","30374","4336","NA","99705","NA","99809","100168","99809","Flanker Test","57","26176","59","yes","1024"
"96.66666666666667","96.66666666666667","444.1","444.1","black","legacy","legacy","legacy","0","incongruent","uniform","1","undefined","1","h","0","0","0","59","0","59","59","0","59","59","0","59","59","59","Sat Sep 24 13:51:58 2022","1500","The main experiment item","yes","/Users/andrea/Desktop/Adv. Quant Methods/FlankerTest_Savkovic.osexp","no","mono","no","18","no","white","no","yes","768","legacy","59","59","/Users/andrea/Desktop/Adv. Quant Methods/Lab 2.2/AS-subject-3.csv","legacy","Lentiform Loewenfeld","3.3.12","0","h","s","NA","h","470","1874","NA","470","2","legacy","1024","2","48000","-16","experiment","SSHSS","3","odd","6236","NA","NA","100675","4344","101722","100171","4336","NA","101724","NA","101828","102299","101828","Flanker Test","58","26646","60","yes","1024"
"96.72131147540983","96.72131147540983","444.39344262295083","444.39344262295083","black","legacy","legacy","legacy","0","incongruent","uniform","1","undefined","1","h","0","0","0","60","0","60","60","0","60","60","0","60","60","60","Sat Sep 24 13:51:58 2022","1500","The main experiment item","yes","/Users/andrea/Desktop/Adv. Quant Methods/FlankerTest_Savkovic.osexp","no","mono","no","18","no","white","no","yes","768","legacy","60","60","/Users/andrea/Desktop/Adv. Quant Methods/Lab 2.2/AS-subject-3.csv","legacy","Lentiform Loewenfeld","3.3.12","0","h","s","NA","h","462","1874","NA","462","2","legacy","1024","2","48000","-16","experiment","SSHSS","3","odd","6236","NA","NA","102302","4344","103350","100171","4336","NA","103352","NA","103456","103919","103456","Flanker Test","59","27108","61","yes","1024"
"96.7741935483871","96.7741935483871","443.93548387096774","443.93548387096774","black","legacy","legacy","legacy","0","congruent","uniform","1","undefined","1","s","0","0","0","61","0","61","61","0","61","61","0","61","61","61","Sat Sep 24 13:51:58 2022","1500","The main experiment item","yes","/Users/andrea/Desktop/Adv. Quant Methods/FlankerTest_Savkovic.osexp","no","mono","no","18","no","white","no","yes","768","legacy","61","61","/Users/andrea/Desktop/Adv. Quant Methods/Lab 2.2/AS-subject-3.csv","legacy","Lentiform Loewenfeld","3.3.12","0","s","s","NA","s","416","1874","NA","416","2","legacy","1024","2","48000","-16","experiment","SSSSS","3","odd","6236","NA","NA","103922","4344","104970","100171","4336","NA","104972","NA","105077","105494","105076","Flanker Test","60","27524","62","yes","1024"
"96.82539682539682","96.82539682539682","444.93650793650795","444.93650793650795","black","legacy","legacy","legacy","0","incongruent","uniform","1","undefined","1","h","0","0","0","62","0","62","62","0","62","62","0","62","62","62","Sat Sep 24 13:51:58 2022","1500","The main experiment item","yes","/Users/andrea/Desktop/Adv. Quant Methods/FlankerTest_Savkovic.osexp","no","mono","no","18","no","white","no","yes","768","legacy","62","62","/Users/andrea/Desktop/Adv. Quant Methods/Lab 2.2/AS-subject-3.csv","legacy","Lentiform Loewenfeld","3.3.12","0","h","s","NA","h","507","1874","NA","507","2","legacy","1024","2","48000","-16","experiment","SSHSS","3","odd","6236","NA","NA","105497","4344","106545","100171","4336","NA","106547","NA","106651","107159","106651","Flanker Test","61","28031","63","yes","1024"
"96.875","96.875","446.625","446.625","black","legacy","legacy","legacy","0","incongruent","uniform","1","undefined","1","h","0","0","0","63","0","63","63","0","63","63","0","63","63","63","Sat Sep 24 13:51:58 2022","1500","The main experiment item","yes","/Users/andrea/Desktop/Adv. Quant Methods/FlankerTest_Savkovic.osexp","no","mono","no","18","no","white","no","yes","768","legacy","63","63","/Users/andrea/Desktop/Adv. Quant Methods/Lab 2.2/AS-subject-3.csv","legacy","Lentiform Loewenfeld","3.3.12","0","h","s","NA","h","553","1874","NA","553","2","legacy","1024","2","48000","-16","experiment","SSHSS","3","odd","6236","NA","NA","107162","4344","108209","100171","4336","NA","108211","NA","108315","108869","108315","Flanker Test","62","28584","64","yes","1024"
"96.92307692307692","96.92307692307692","445.96923076923076","445.96923076923076","black","legacy","legacy","legacy","0","incongruent","uniform","1","undefined","1","h","0","0","0","64","0","64","64","0","64","64","0","64","64","64","Sat Sep 24 13:51:58 2022","1500","The main experiment item","yes","/Users/andrea/Desktop/Adv. Quant Methods/FlankerTest_Savkovic.osexp","no","mono","no","18","no","white","no","yes","768","legacy","64","64","/Users/andrea/Desktop/Adv. Quant Methods/Lab 2.2/AS-subject-3.csv","legacy","Lentiform Loewenfeld","3.3.12","0","h","s","NA","h","404","1874","NA","404","2","legacy","1024","2","48000","-16","experiment","SSHSS","3","odd","6236","NA","NA","108871","4344","109918","100171","4336","NA","109920","NA","110024","110429","110024","Flanker Test","63","28988","65","yes","1024"
"96.96969696969697","96.96969696969697","444.8484848484849","444.8484848484849","black","legacy","legacy","legacy","0","congruent","uniform","1","undefined","1","s","0","0","0","65","0","65","65","0","65","65","0","65","65","65","Sat Sep 24 13:51:58 2022","1500","The main experiment item","yes","/Users/andrea/Desktop/Adv. Quant Methods/FlankerTest_Savkovic.osexp","no","mono","no","18","no","white","no","yes","768","legacy","65","65","/Users/andrea/Desktop/Adv. Quant Methods/Lab 2.2/AS-subject-3.csv","legacy","Lentiform Loewenfeld","3.3.12","0","s","s","NA","s","372","1874","NA","372","2","legacy","1024","2","48000","-16","experiment","SSSSS","3","odd","6236","NA","NA","110432","4344","111480","100171","4336","NA","111482","NA","111586","111959","111586","Flanker Test","64","29360","66","yes","1024"
"97.01492537313433","97.01492537313433","447.55223880597015","447.55223880597015","black","legacy","legacy","legacy","0","incongruent","uniform","1","undefined","1","s","0","0","0","66","0","66","66","0","66","66","0","66","66","66","Sat Sep 24 13:51:58 2022","1500","The main experiment item","yes","/Users/andrea/Desktop/Adv. Quant Methods/FlankerTest_Savkovic.osexp","no","mono","no","18","no","white","no","yes","768","legacy","66","66","/Users/andrea/Desktop/Adv. Quant Methods/Lab 2.2/AS-subject-3.csv","legacy","Lentiform Loewenfeld","3.3.12","0","s","s","NA","s","626","1874","NA","626","2","legacy","1024","2","48000","-16","experiment","HHSHH","3","odd","6236","NA","NA","111962","4344","113011","100171","4336","NA","113013","NA","113117","113744","113117","Flanker Test","65","29986","67","yes","1024"
"97.05882352941177","97.05882352941177","448.20588235294116","448.20588235294116","black","legacy","legacy","legacy","0","incongruent","uniform","1","undefined","1","s","0","0","0","67","0","67","67","0","67","67","0","67","67","67","Sat Sep 24 13:51:58 2022","1500","The main experiment item","yes","/Users/andrea/Desktop/Adv. Quant Methods/FlankerTest_Savkovic.osexp","no","mono","no","18","no","white","no","yes","768","legacy","67","67","/Users/andrea/Desktop/Adv. Quant Methods/Lab 2.2/AS-subject-3.csv","legacy","Lentiform Loewenfeld","3.3.12","0","s","s","NA","s","492","1874","NA","492","2","legacy","1024","2","48000","-16","experiment","HHSHH","3","odd","6236","NA","NA","113747","4344","114795","100171","4336","NA","114797","NA","114901","115394","114901","Flanker Test","66","30478","68","yes","1024"
"97.10144927536231","97.10144927536231","448.6376811594203","448.6376811594203","black","legacy","legacy","legacy","0","incongruent","uniform","1","undefined","1","h","0","0","0","68","0","68","68","0","68","68","0","68","68","68","Sat Sep 24 13:51:58 2022","1500","The main experiment item","yes","/Users/andrea/Desktop/Adv. Quant Methods/FlankerTest_Savkovic.osexp","no","mono","no","18","no","white","no","yes","768","legacy","68","68","/Users/andrea/Desktop/Adv. Quant Methods/Lab 2.2/AS-subject-3.csv","legacy","Lentiform Loewenfeld","3.3.12","0","h","s","NA","h","478","1874","NA","478","2","legacy","1024","2","48000","-16","experiment","SSHSS","3","odd","6236","NA","NA","115397","4344","116445","100171","4336","NA","116447","NA","116551","117029","116551","Flanker Test","67","30956","69","yes","1024"
"97.14285714285714","97.14285714285714","448.2","448.2","black","legacy","legacy","legacy","0","congruent","uniform","1","undefined","1","s","0","0","0","69","0","69","69","0","69","69","0","69","69","69","Sat Sep 24 13:51:58 2022","1500","The main experiment item","yes","/Users/andrea/Desktop/Adv. Quant Methods/FlankerTest_Savkovic.osexp","no","mono","no","18","no","white","no","yes","768","legacy","69","69","/Users/andrea/Desktop/Adv. Quant Methods/Lab 2.2/AS-subject-3.csv","legacy","Lentiform Loewenfeld","3.3.12","0","s","s","NA","s","418","1874","NA","418","2","legacy","1024","2","48000","-16","experiment","SSSSS","3","odd","6236","NA","NA","117032","4344","118079","100171","4336","NA","118081","NA","118185","118604","118185","Flanker Test","68","31374","70","yes","1024"
"97.1830985915493","97.1830985915493","447.59154929577466","447.59154929577466","black","legacy","legacy","legacy","0","congruent","uniform","1","undefined","1","s","0","0","0","70","0","70","70","0","70","70","0","70","70","70","Sat Sep 24 13:51:58 2022","1500","The main experiment item","yes","/Users/andrea/Desktop/Adv. Quant Methods/FlankerTest_Savkovic.osexp","no","mono","no","18","no","white","no","yes","768","legacy","70","70","/Users/andrea/Desktop/Adv. Quant Methods/Lab 2.2/AS-subject-3.csv","legacy","Lentiform Loewenfeld","3.3.12","0","s","s","NA","s","405","1874","NA","405","2","legacy","1024","2","48000","-16","experiment","SSSSS","3","odd","6236","NA","NA","118607","4344","119653","100171","4336","NA","119655","NA","119759","120164","119759","Flanker Test","69","31779","71","yes","1024"
"97.22222222222223","97.22222222222223","449.47222222222223","449.47222222222223","black","legacy","legacy","legacy","0","congruent","uniform","1","undefined","1","s","0","0","0","71","0","71","71","0","71","71","0","71","71","71","Sat Sep 24 13:51:58 2022","1500","The main experiment item","yes","/Users/andrea/Desktop/Adv. Quant Methods/FlankerTest_Savkovic.osexp","no","mono","no","18","no","white","no","yes","768","legacy","71","71","/Users/andrea/Desktop/Adv. Quant Methods/Lab 2.2/AS-subject-3.csv","legacy","Lentiform Loewenfeld","3.3.12","0","s","s","NA","s","583","1874","NA","583","2","legacy","1024","2","48000","-16","experiment","SSSSS","3","odd","6236","NA","NA","120167","4344","121215","100171","4336","NA","121217","NA","121321","121904","121321","Flanker Test","70","32362","72","yes","1024"
"97.26027397260275","97.26027397260275","450.8767123287671","450.8767123287671","black","legacy","legacy","legacy","0","congruent","uniform","1","undefined","1","h","0","0","0","72","0","72","72","0","72","72","0","72","72","72","Sat Sep 24 13:51:58 2022","1500","The main experiment item","yes","/Users/andrea/Desktop/Adv. Quant Methods/FlankerTest_Savkovic.osexp","no","mono","no","18","no","white","no","yes","768","legacy","72","72","/Users/andrea/Desktop/Adv. Quant Methods/Lab 2.2/AS-subject-3.csv","legacy","Lentiform Loewenfeld","3.3.12","0","h","s","NA","h","552","1874","NA","552","2","legacy","1024","2","48000","-16","experiment","HHHHH","3","odd","6236","NA","NA","121907","4344","122955","100171","4336","NA","122957","NA","123062","123615","123062","Flanker Test","71","32914","73","yes","1024"
"97.29729729729729","97.29729729729729","450.4189189189189","450.4189189189189","black","legacy","legacy","legacy","0","congruent","uniform","1","undefined","1","h","0","0","0","73","0","73","73","0","73","73","0","73","73","73","Sat Sep 24 13:51:58 2022","1500","The main experiment item","yes","/Users/andrea/Desktop/Adv. Quant Methods/FlankerTest_Savkovic.osexp","no","mono","no","18","no","white","no","yes","768","legacy","73","73","/Users/andrea/Desktop/Adv. Quant Methods/Lab 2.2/AS-subject-3.csv","legacy","Lentiform Loewenfeld","3.3.12","0","h","s","NA","h","417","1874","NA","417","2","legacy","1024","2","48000","-16","experiment","HHHHH","3","odd","6236","NA","NA","123618","4344","124665","100171","4336","NA","124667","NA","124771","125189","124771","Flanker Test","72","33331","74","yes","1024"
"97.33333333333333","97.33333333333333","452.2133333333333","452.2133333333333","black","legacy","legacy","legacy","0","incongruent","uniform","1","undefined","1","h","0","0","0","74","0","74","74","0","74","74","0","74","74","74","Sat Sep 24 13:51:58 2022","1500","The main experiment item","yes","/Users/andrea/Desktop/Adv. Quant Methods/FlankerTest_Savkovic.osexp","no","mono","no","18","no","white","no","yes","768","legacy","74","74","/Users/andrea/Desktop/Adv. Quant Methods/Lab 2.2/AS-subject-3.csv","legacy","Lentiform Loewenfeld","3.3.12","0","h","s","NA","h","585","1874","NA","585","2","legacy","1024","2","48000","-16","experiment","SSHSS","3","odd","6236","NA","NA","125192","4344","126238","100171","4336","NA","126240","NA","126344","126930","126344","Flanker Test","73","33916","75","yes","1024"
"97.36842105263158","97.36842105263158","452.14473684210526","452.14473684210526","black","legacy","legacy","legacy","0","congruent","uniform","1","undefined","1","h","0","0","0","75","0","75","75","0","75","75","0","75","75","75","Sat Sep 24 13:51:58 2022","1500","The main experiment item","yes","/Users/andrea/Desktop/Adv. Quant Methods/FlankerTest_Savkovic.osexp","no","mono","no","18","no","white","no","yes","768","legacy","75","75","/Users/andrea/Desktop/Adv. Quant Methods/Lab 2.2/AS-subject-3.csv","legacy","Lentiform Loewenfeld","3.3.12","0","h","s","NA","h","447","1874","NA","447","2","legacy","1024","2","48000","-16","experiment","HHHHH","3","odd","6236","NA","NA","126932","4344","127979","100171","4336","NA","127981","NA","128087","128535","128087","Flanker Test","74","34363","76","yes","1024"
"97.40259740259741","97.40259740259741","452.0779220779221","452.0779220779221","black","legacy","legacy","legacy","0","incongruent","uniform","1","undefined","1","h","0","0","0","76","0","76","76","0","76","76","0","76","76","76","Sat Sep 24 13:51:58 2022","1500","The main experiment item","yes","/Users/andrea/Desktop/Adv. Quant Methods/FlankerTest_Savkovic.osexp","no","mono","no","18","no","white","no","yes","768","legacy","76","76","/Users/andrea/Desktop/Adv. Quant Methods/Lab 2.2/AS-subject-3.csv","legacy","Lentiform Loewenfeld","3.3.12","0","h","s","NA","h","447","1874","NA","447","2","legacy","1024","2","48000","-16","experiment","SSHSS","3","odd","6236","NA","NA","128538","4344","129585","100171","4336","NA","129587","NA","129691","130139","129691","Flanker Test","75","34810","77","yes","1024"
"97.43589743589743","97.43589743589743","451.8333333333333","451.8333333333333","black","legacy","legacy","legacy","0","congruent","uniform","1","undefined","1","h","0","0","0","77","0","77","77","0","77","77","0","77","77","77","Sat Sep 24 13:51:58 2022","1500","The main experiment item","yes","/Users/andrea/Desktop/Adv. Quant Methods/FlankerTest_Savkovic.osexp","no","mono","no","18","no","white","no","yes","768","legacy","77","77","/Users/andrea/Desktop/Adv. Quant Methods/Lab 2.2/AS-subject-3.csv","legacy","Lentiform Loewenfeld","3.3.12","0","h","s","NA","h","433","1874","NA","433","2","legacy","1024","2","48000","-16","experiment","HHHHH","3","odd","6236","NA","NA","130142","4344","131190","100171","4336","NA","131192","NA","131296","131730","131296","Flanker Test","76","35243","78","yes","1024"
"97.46835443037975","97.46835443037975","452.9113924050633","452.9113924050633","black","legacy","legacy","legacy","0","incongruent","uniform","1","undefined","1","h","0","0","0","78","0","78","78","0","78","78","0","78","78","78","Sat Sep 24 13:51:58 2022","1500","The main experiment item","yes","/Users/andrea/Desktop/Adv. Quant Methods/FlankerTest_Savkovic.osexp","no","mono","no","18","no","white","no","yes","768","legacy","78","78","/Users/andrea/Desktop/Adv. Quant Methods/Lab 2.2/AS-subject-3.csv","legacy","Lentiform Loewenfeld","3.3.12","0","h","s","NA","h","537","1874","NA","537","2","legacy","1024","2","48000","-16","experiment","SSHSS","3","odd","6236","NA","NA","131733","4344","132780","100171","4336","NA","132782","NA","132886","133424","132886","Flanker Test","77","35780","79","yes","1024"
"97.5","97.5","452.475","452.475","black","legacy","legacy","legacy","0","congruent","uniform","1","undefined","1","h","0","0","0","79","0","79","79","0","79","79","0","79","79","79","Sat Sep 24 13:51:58 2022","1500","The main experiment item","yes","/Users/andrea/Desktop/Adv. Quant Methods/FlankerTest_Savkovic.osexp","no","mono","no","18","no","white","no","yes","768","legacy","79","79","/Users/andrea/Desktop/Adv. Quant Methods/Lab 2.2/AS-subject-3.csv","legacy","Lentiform Loewenfeld","3.3.12","0","h","s","NA","h","418","1874","NA","418","2","legacy","1024","2","48000","-16","experiment","HHHHH","3","odd","6236","NA","NA","133427","4344","134475","100171","4336","NA","134477","NA","134581","135000","134581","Flanker Test","78","36198","80","yes","1024"
"97.53086419753086","97.53086419753086","453.61728395061726","453.61728395061726","black","legacy","legacy","legacy","0","congruent","uniform","1","undefined","1","s","0","0","0","80","0","80","80","0","80","80","0","80","80","80","Sat Sep 24 13:51:58 2022","600","The main experiment item","yes","/Users/andrea/Desktop/Adv. Quant Methods/FlankerTest_Savkovic.osexp","no","mono","no","18","no","white","no","yes","768","legacy","0","79","/Users/andrea/Desktop/Adv. Quant Methods/Lab 2.2/AS-subject-3.csv","legacy","Lentiform Loewenfeld","3.3.12","0","s","s","s","s","545","1874","48094","545","2","legacy","1024","2","48000","-16","experiment","SSSSS","3","odd","6236","184126","NA","135003","4344","184149","100171","4336","NA","184151","136031","184256","184802","184256","Flanker Test","79","36743","81","yes","1024"
"97.5609756097561","97.5609756097561","452.4390243902439","452.4390243902439","black","legacy","legacy","legacy","0","incongruent","uniform","1","undefined","1","h","0","0","0","81","0","81","81","0","81","81","0","81","81","81","Sat Sep 24 13:51:58 2022","600","The main experiment item","yes","/Users/andrea/Desktop/Adv. Quant Methods/FlankerTest_Savkovic.osexp","no","mono","no","18","no","white","no","yes","768","legacy","1","79","/Users/andrea/Desktop/Adv. Quant Methods/Lab 2.2/AS-subject-3.csv","legacy","Lentiform Loewenfeld","3.3.12","0","h","s","s","h","357","1874","48094","357","2","legacy","1024","2","48000","-16","experiment","SSHSS","3","odd","6236","184126","NA","184805","4344","185853","100171","4336","NA","185855","136031","185959","186317","185959","Flanker Test","80","37100","82","yes","1024"
"97.59036144578313","97.59036144578313","452.0240963855422","452.0240963855422","black","legacy","legacy","legacy","0","congruent","uniform","1","undefined","1","h","0","0","0","82","0","82","82","0","82","82","0","82","82","82","Sat Sep 24 13:51:58 2022","600","The main experiment item","yes","/Users/andrea/Desktop/Adv. Quant Methods/FlankerTest_Savkovic.osexp","no","mono","no","18","no","white","no","yes","768","legacy","2","79","/Users/andrea/Desktop/Adv. Quant Methods/Lab 2.2/AS-subject-3.csv","legacy","Lentiform Loewenfeld","3.3.12","0","h","s","s","h","418","1874","48094","418","2","legacy","1024","2","48000","-16","experiment","HHHHH","3","odd","6236","184126","NA","186320","4344","187367","100171","4336","NA","187369","136031","187473","187893","187473","Flanker Test","81","37518","83","yes","1024"
"97.61904761904762","97.61904761904762","452.14285714285717","452.14285714285717","black","legacy","legacy","legacy","0","incongruent","uniform","1","undefined","1","h","0","0","0","83","0","83","83","0","83","83","0","83","83","83","Sat Sep 24 13:51:58 2022","600","The main experiment item","yes","/Users/andrea/Desktop/Adv. Quant Methods/FlankerTest_Savkovic.osexp","no","mono","no","18","no","white","no","yes","768","legacy","3","79","/Users/andrea/Desktop/Adv. Quant Methods/Lab 2.2/AS-subject-3.csv","legacy","Lentiform Loewenfeld","3.3.12","0","h","s","s","h","462","1874","48094","462","2","legacy","1024","2","48000","-16","experiment","SSHSS","3","odd","6236","184126","NA","187896","4344","188943","100171","4336","NA","188945","136031","189049","189512","189049","Flanker Test","82","37980","84","yes","1024"
"97.6470588235294","97.6470588235294","451.5529411764706","451.5529411764706","black","legacy","legacy","legacy","0","congruent","uniform","1","undefined","1","s","0","0","0","84","0","84","84","0","84","84","0","84","84","84","Sat Sep 24 13:51:58 2022","600","The main experiment item","yes","/Users/andrea/Desktop/Adv. Quant Methods/FlankerTest_Savkovic.osexp","no","mono","no","18","no","white","no","yes","768","legacy","4","79","/Users/andrea/Desktop/Adv. Quant Methods/Lab 2.2/AS-subject-3.csv","legacy","Lentiform Loewenfeld","3.3.12","0","s","s","s","s","402","1874","48094","402","2","legacy","1024","2","48000","-16","experiment","SSSSS","3","odd","6236","184126","NA","189515","4344","190562","100171","4336","NA","190565","136031","190669","191072","190669","Flanker Test","83","38382","85","yes","1024"
"97.67441860465117","97.67441860465117","450.6162790697674","450.6162790697674","black","legacy","legacy","legacy","0","congruent","uniform","1","undefined","1","s","0","0","0","85","0","85","85","0","85","85","0","85","85","85","Sat Sep 24 13:51:58 2022","600","The main experiment item","yes","/Users/andrea/Desktop/Adv. Quant Methods/FlankerTest_Savkovic.osexp","no","mono","no","18","no","white","no","yes","768","legacy","5","79","/Users/andrea/Desktop/Adv. Quant Methods/Lab 2.2/AS-subject-3.csv","legacy","Lentiform Loewenfeld","3.3.12","0","s","s","s","s","371","1874","48094","371","2","legacy","1024","2","48000","-16","experiment","SSSSS","3","odd","6236","184126","NA","191075","4344","192124","100171","4336","NA","192126","136031","192230","192602","192230","Flanker Test","84","38753","86","yes","1024"
"97.70114942528735","97.70114942528735","449.18390804597703","449.18390804597703","black","legacy","legacy","legacy","0","congruent","uniform","1","undefined","1","s","0","0","0","86","0","86","86","0","86","86","0","86","86","86","Sat Sep 24 13:51:58 2022","600","The main experiment item","yes","/Users/andrea/Desktop/Adv. Quant Methods/FlankerTest_Savkovic.osexp","no","mono","no","18","no","white","no","yes","768","legacy","6","79","/Users/andrea/Desktop/Adv. Quant Methods/Lab 2.2/AS-subject-3.csv","legacy","Lentiform Loewenfeld","3.3.12","0","s","s","s","s","326","1874","48094","326","2","legacy","1024","2","48000","-16","experiment","SSSSS","3","odd","6236","184126","NA","192605","4344","193653","100171","4336","NA","193655","136031","193760","194086","193759","Flanker Test","85","39079","87","yes","1024"
"97.72727272727273","97.72727272727273","448.1363636363636","448.1363636363636","black","legacy","legacy","legacy","0","congruent","uniform","1","undefined","1","s","0","0","0","87","0","87","87","0","87","87","0","87","87","87","Sat Sep 24 13:51:58 2022","600","The main experiment item","yes","/Users/andrea/Desktop/Adv. Quant Methods/FlankerTest_Savkovic.osexp","no","mono","no","18","no","white","no","yes","768","legacy","7","79","/Users/andrea/Desktop/Adv. Quant Methods/Lab 2.2/AS-subject-3.csv","legacy","Lentiform Loewenfeld","3.3.12","0","s","s","s","s","357","1874","48094","357","2","legacy","1024","2","48000","-16","experiment","SSSSS","3","odd","6236","184126","NA","194089","4344","195138","100171","4336","NA","195140","136031","195244","195602","195244","Flanker Test","86","39436","88","yes","1024"
"96.62921348314607","96.62921348314607","446.7977528089888","446.7977528089888","black","legacy","legacy","legacy","0","congruent","uniform","0","undefined","0","h","0","0","0","88","0","88","88","0","88","88","0","88","88","88","Sat Sep 24 13:51:58 2022","600","The main experiment item","yes","/Users/andrea/Desktop/Adv. Quant Methods/FlankerTest_Savkovic.osexp","no","mono","no","18","no","white","no","yes","768","legacy","8","79","/Users/andrea/Desktop/Adv. Quant Methods/Lab 2.2/AS-subject-3.csv","legacy","Lentiform Loewenfeld","3.3.12","0","s","s","s","s","329","1874","48094","329","2","legacy","1024","2","48000","-16","experiment","HHHHH","3","odd","6236","184126","NA","195605","4344","196651","100171","4336","NA","196653","136031","196757","197087","196757","Flanker Test","86","39765","89","yes","1024"
"96.66666666666667","96.66666666666667","446.64444444444445","446.64444444444445","black","legacy","legacy","legacy","0","congruent","uniform","1","undefined","1","h","0","0","0","89","0","89","89","0","89","89","0","89","89","89","Sat Sep 24 13:51:58 2022","600","The main experiment item","yes","/Users/andrea/Desktop/Adv. Quant Methods/FlankerTest_Savkovic.osexp","no","mono","no","18","no","white","no","yes","768","legacy","9","79","/Users/andrea/Desktop/Adv. Quant Methods/Lab 2.2/AS-subject-3.csv","legacy","Lentiform Loewenfeld","3.3.12","0","h","s","s","h","433","1874","48094","433","2","legacy","1024","2","48000","-16","experiment","HHHHH","3","odd","6236","184126","NA","197593","4344","198647","197089","4336","NA","198649","136031","198753","199187","198753","Flanker Test","87","40198","90","yes","1024"
"95.6043956043956","95.6043956043956","446","446","black","legacy","legacy","legacy","0","incongruent","uniform","0","undefined","0","h","0","0","0","90","0","90","90","0","90","90","0","90","90","90","Sat Sep 24 13:51:58 2022","600","The main experiment item","yes","/Users/andrea/Desktop/Adv. Quant Methods/FlankerTest_Savkovic.osexp","no","mono","no","18","no","white","no","yes","768","legacy","10","79","/Users/andrea/Desktop/Adv. Quant Methods/Lab 2.2/AS-subject-3.csv","legacy","Lentiform Loewenfeld","3.3.12","0","s","s","s","s","388","1874","48094","388","2","legacy","1024","2","48000","-16","experiment","SSHSS","3","odd","6236","184126","NA","199190","4344","200237","197089","4336","NA","200239","136031","200343","200732","200343","Flanker Test","87","40586","91","yes","1024"
"95.65217391304348","95.65217391304348","446.0652173913044","446.0652173913044","black","legacy","legacy","legacy","0","incongruent","uniform","1","undefined","1","h","0","0","0","91","0","91","91","0","91","91","0","91","91","91","Sat Sep 24 13:51:58 2022","600","The main experiment item","yes","/Users/andrea/Desktop/Adv. Quant Methods/FlankerTest_Savkovic.osexp","no","mono","no","18","no","white","no","yes","768","legacy","11","79","/Users/andrea/Desktop/Adv. Quant Methods/Lab 2.2/AS-subject-3.csv","legacy","Lentiform Loewenfeld","3.3.12","0","h","s","s","h","452","1874","48094","452","2","legacy","1024","2","48000","-16","experiment","SSHSS","3","odd","6236","184126","NA","201239","4344","202287","200735","4336","NA","202289","136031","202394","202847","202393","Flanker Test","88","41038","92","yes","1024"
"95.6989247311828","95.6989247311828","446.40860215053766","446.40860215053766","black","legacy","legacy","legacy","0","incongruent","uniform","1","undefined","1","s","0","0","0","92","0","92","92","0","92","92","0","92","92","92","Sat Sep 24 13:51:58 2022","600","The main experiment item","yes","/Users/andrea/Desktop/Adv. Quant Methods/FlankerTest_Savkovic.osexp","no","mono","no","18","no","white","no","yes","768","legacy","12","79","/Users/andrea/Desktop/Adv. Quant Methods/Lab 2.2/AS-subject-3.csv","legacy","Lentiform Loewenfeld","3.3.12","0","s","s","s","s","478","1874","48094","478","2","legacy","1024","2","48000","-16","experiment","HHSHH","3","odd","6236","184126","NA","202850","4344","203897","200735","4336","NA","203899","136031","204004","204482","204004","Flanker Test","89","41516","93","yes","1024"
"95.74468085106383","95.74468085106383","445.1489361702128","445.1489361702128","black","legacy","legacy","legacy","0","incongruent","uniform","1","undefined","1","h","0","0","0","93","0","93","93","0","93","93","0","93","93","93","Sat Sep 24 13:51:58 2022","600","The main experiment item","yes","/Users/andrea/Desktop/Adv. Quant Methods/FlankerTest_Savkovic.osexp","no","mono","no","18","no","white","no","yes","768","legacy","13","79","/Users/andrea/Desktop/Adv. Quant Methods/Lab 2.2/AS-subject-3.csv","legacy","Lentiform Loewenfeld","3.3.12","0","h","s","s","h","328","1874","48094","328","2","legacy","1024","2","48000","-16","experiment","SSHSS","3","odd","6236","184126","NA","204485","4344","205533","200735","4336","NA","205534","136031","205639","205968","205639","Flanker Test","90","41844","94","yes","1024"
"95.78947368421052","95.78947368421052","445.8","445.8","black","legacy","legacy","legacy","0","incongruent","uniform","1","undefined","1","h","0","0","0","94","0","94","94","0","94","94","0","94","94","94","Sat Sep 24 13:51:58 2022","600","The main experiment item","yes","/Users/andrea/Desktop/Adv. Quant Methods/FlankerTest_Savkovic.osexp","no","mono","no","18","no","white","no","yes","768","legacy","14","79","/Users/andrea/Desktop/Adv. Quant Methods/Lab 2.2/AS-subject-3.csv","legacy","Lentiform Loewenfeld","3.3.12","0","h","s","s","h","507","1874","48094","507","2","legacy","1024","2","48000","-16","experiment","SSHSS","3","odd","6236","184126","NA","205971","4344","207019","200735","4336","NA","207021","136031","207125","207633","207125","Flanker Test","91","42351","95","yes","1024"
"95.83333333333333","95.83333333333333","445.96875","445.96875","black","legacy","legacy","legacy","0","congruent","uniform","1","undefined","1","h","0","0","0","95","0","95","95","0","95","95","0","95","95","95","Sat Sep 24 13:51:58 2022","600","The main experiment item","yes","/Users/andrea/Desktop/Adv. Quant Methods/FlankerTest_Savkovic.osexp","no","mono","no","18","no","white","no","yes","768","legacy","15","79","/Users/andrea/Desktop/Adv. Quant Methods/Lab 2.2/AS-subject-3.csv","legacy","Lentiform Loewenfeld","3.3.12","0","h","s","s","h","462","1874","48094","462","2","legacy","1024","2","48000","-16","experiment","HHHHH","3","odd","6236","184126","NA","207636","4344","208683","200735","4336","NA","208685","136031","208790","209253","208790","Flanker Test","92","42813","96","yes","1024"
"95.87628865979381","95.87628865979381","445.36082474226805","445.36082474226805","black","legacy","legacy","legacy","0","congruent","uniform","1","undefined","1","h","0","0","0","96","0","96","96","0","96","96","0","96","96","96","Sat Sep 24 13:51:58 2022","600","The main experiment item","yes","/Users/andrea/Desktop/Adv. Quant Methods/FlankerTest_Savkovic.osexp","no","mono","no","18","no","white","no","yes","768","legacy","16","79","/Users/andrea/Desktop/Adv. Quant Methods/Lab 2.2/AS-subject-3.csv","legacy","Lentiform Loewenfeld","3.3.12","0","h","s","s","h","387","1874","48094","387","2","legacy","1024","2","48000","-16","experiment","HHHHH","3","odd","6236","184126","NA","209256","4344","210304","200735","4336","NA","210305","136031","210410","210798","210409","Flanker Test","93","43200","97","yes","1024"
"95.91836734693878","95.91836734693878","444.61224489795916","444.61224489795916","black","legacy","legacy","legacy","0","congruent","uniform","1","undefined","1","h","0","0","0","97","0","97","97","0","97","97","0","97","97","97","Sat Sep 24 13:51:58 2022","600","The main experiment item","yes","/Users/andrea/Desktop/Adv. Quant Methods/FlankerTest_Savkovic.osexp","no","mono","no","18","no","white","no","yes","768","legacy","17","79","/Users/andrea/Desktop/Adv. Quant Methods/Lab 2.2/AS-subject-3.csv","legacy","Lentiform Loewenfeld","3.3.12","0","h","s","s","h","372","1874","48094","372","2","legacy","1024","2","48000","-16","experiment","HHHHH","3","odd","6236","184126","NA","210801","4344","211849","200735","4336","NA","211851","136031","211955","212327","211955","Flanker Test","94","43572","98","yes","1024"
"95.95959595959596","95.95959595959596","445.1010101010101","445.1010101010101","black","legacy","legacy","legacy","0","incongruent","uniform","1","undefined","1","s","0","0","0","98","0","98","98","0","98","98","0","98","98","98","Sat Sep 24 13:51:58 2022","600","The main experiment item","yes","/Users/andrea/Desktop/Adv. Quant Methods/FlankerTest_Savkovic.osexp","no","mono","no","18","no","white","no","yes","768","legacy","18","79","/Users/andrea/Desktop/Adv. Quant Methods/Lab 2.2/AS-subject-3.csv","legacy","Lentiform Loewenfeld","3.3.12","0","s","s","s","s","493","1874","48094","493","2","legacy","1024","2","48000","-16","experiment","HHSHH","3","odd","6236","184126","NA","212330","4344","213378","200735","4336","NA","213379","136031","213484","213978","213484","Flanker Test","95","44065","99","yes","1024"
"96","96","444.52","444.52","black","legacy","legacy","legacy","0","congruent","uniform","1","undefined","1","h","0","0","0","99","0","99","99","0","99","99","0","99","99","99","Sat Sep 24 13:51:58 2022","600","The main experiment item","yes","/Users/andrea/Desktop/Adv. Quant Methods/FlankerTest_Savkovic.osexp","no","mono","no","18","no","white","no","yes","768","legacy","19","79","/Users/andrea/Desktop/Adv. Quant Methods/Lab 2.2/AS-subject-3.csv","legacy","Lentiform Loewenfeld","3.3.12","0","h","s","s","h","387","1874","48094","387","2","legacy","1024","2","48000","-16","experiment","HHHHH","3","odd","6236","184126","NA","213981","4344","215029","200735","4336","NA","215031","136031","215135","215523","215135","Flanker Test","96","44452","100","yes","1024"
"96.03960396039604","96.03960396039604","444.4059405940594","444.4059405940594","black","legacy","legacy","legacy","0","congruent","uniform","1","undefined","1","s","0","0","0","100","0","100","100","0","100","100","0","100","100","100","Sat Sep 24 13:51:58 2022","600","The main experiment item","yes","/Users/andrea/Desktop/Adv. Quant Methods/FlankerTest_Savkovic.osexp","no","mono","no","18","no","white","no","yes","768","legacy","20","79","/Users/andrea/Desktop/Adv. Quant Methods/Lab 2.2/AS-subject-3.csv","legacy","Lentiform Loewenfeld","3.3.12","0","s","s","s","s","433","1874","48094","433","2","legacy","1024","2","48000","-16","experiment","SSSSS","3","odd","6236","184126","NA","215526","4344","216573","200735","4336","NA","216575","136031","216679","217113","216679","Flanker Test","97","44885","101","yes","1024"
"96.07843137254902","96.07843137254902","444.2843137254902","444.2843137254902","black","legacy","legacy","legacy","0","incongruent","uniform","1","undefined","1","s","0","0","0","101","0","101","101","0","101","101","0","101","101","101","Sat Sep 24 13:51:58 2022","600","The main experiment item","yes","/Users/andrea/Desktop/Adv. Quant Methods/FlankerTest_Savkovic.osexp","no","mono","no","18","no","white","no","yes","768","legacy","21","79","/Users/andrea/Desktop/Adv. Quant Methods/Lab 2.2/AS-subject-3.csv","legacy","Lentiform Loewenfeld","3.3.12","0","s","s","s","s","432","1874","48094","432","2","legacy","1024","2","48000","-16","experiment","HHSHH","3","odd","6236","184126","NA","217116","4344","218163","200735","4336","NA","218165","136031","218270","218703","218270","Flanker Test","98","45317","102","yes","1024"
"96.11650485436893","96.11650485436893","443.7281553398058","443.7281553398058","black","legacy","legacy","legacy","0","congruent","uniform","1","undefined","1","s","0","0","0","102","0","102","102","0","102","102","0","102","102","102","Sat Sep 24 13:51:58 2022","600","The main experiment item","yes","/Users/andrea/Desktop/Adv. Quant Methods/FlankerTest_Savkovic.osexp","no","mono","no","18","no","white","no","yes","768","legacy","22","79","/Users/andrea/Desktop/Adv. Quant Methods/Lab 2.2/AS-subject-3.csv","legacy","Lentiform Loewenfeld","3.3.12","0","s","s","s","s","387","1874","48094","387","2","legacy","1024","2","48000","-16","experiment","SSSSS","3","odd","6236","184126","NA","218706","4344","219754","200735","4336","NA","219756","136031","219860","220248","219860","Flanker Test","99","45704","103","yes","1024"
"96.15384615384616","96.15384615384616","445.34615384615387","445.34615384615387","black","legacy","legacy","legacy","0","congruent","uniform","1","undefined","1","h","0","0","0","103","0","103","103","0","103","103","0","103","103","103","Sat Sep 24 13:51:58 2022","600","The main experiment item","yes","/Users/andrea/Desktop/Adv. Quant Methods/FlankerTest_Savkovic.osexp","no","mono","no","18","no","white","no","yes","768","legacy","23","79","/Users/andrea/Desktop/Adv. Quant Methods/Lab 2.2/AS-subject-3.csv","legacy","Lentiform Loewenfeld","3.3.12","0","h","s","s","h","612","1874","48094","612","2","legacy","1024","2","48000","-16","experiment","HHHHH","3","odd","6236","184126","NA","220251","4344","221299","200735","4336","NA","221301","136031","221405","222018","221405","Flanker Test","100","46316","104","yes","1024"
"96.19047619047619","96.19047619047619","445.2952380952381","445.2952380952381","black","legacy","legacy","legacy","0","congruent","uniform","1","undefined","1","s","0","0","0","104","0","104","104","0","104","104","0","104","104","104","Sat Sep 24 13:51:58 2022","600","The main experiment item","yes","/Users/andrea/Desktop/Adv. Quant Methods/FlankerTest_Savkovic.osexp","no","mono","no","18","no","white","no","yes","768","legacy","24","79","/Users/andrea/Desktop/Adv. Quant Methods/Lab 2.2/AS-subject-3.csv","legacy","Lentiform Loewenfeld","3.3.12","0","s","s","s","s","440","1874","48094","440","2","legacy","1024","2","48000","-16","experiment","SSSSS","3","odd","6236","184126","NA","222525","4344","223572","200735","4336","222021","223574","136031","223678","224118","223678","Flanker Test","101","46756","105","yes","1024"
"96.22641509433963","96.22641509433963","444.8867924528302","444.8867924528302","black","legacy","legacy","legacy","0","congruent","uniform","1","undefined","1","h","0","0","0","105","0","105","105","0","105","105","0","105","105","105","Sat Sep 24 13:51:58 2022","600","The main experiment item","yes","/Users/andrea/Desktop/Adv. Quant Methods/FlankerTest_Savkovic.osexp","no","mono","no","18","no","white","no","yes","768","legacy","25","79","/Users/andrea/Desktop/Adv. Quant Methods/Lab 2.2/AS-subject-3.csv","legacy","Lentiform Loewenfeld","3.3.12","0","h","s","s","h","402","1874","48094","402","2","legacy","1024","2","48000","-16","experiment","HHHHH","3","odd","6236","184126","NA","224121","4344","225170","200735","4336","222021","225172","136031","225276","225679","225276","Flanker Test","102","47158","106","yes","1024"
"96.26168224299066","96.26168224299066","443.50467289719626","443.50467289719626","black","legacy","legacy","legacy","0","congruent","uniform","1","undefined","1","s","0","0","0","106","0","106","106","0","106","106","0","106","106","106","Sat Sep 24 13:51:58 2022","600","The main experiment item","yes","/Users/andrea/Desktop/Adv. Quant Methods/FlankerTest_Savkovic.osexp","no","mono","no","18","no","white","no","yes","768","legacy","26","79","/Users/andrea/Desktop/Adv. Quant Methods/Lab 2.2/AS-subject-3.csv","legacy","Lentiform Loewenfeld","3.3.12","0","s","s","s","s","297","1874","48094","297","2","legacy","1024","2","48000","-16","experiment","SSSSS","3","odd","6236","184126","NA","225682","4344","226730","200735","4336","222021","226732","136031","226836","227134","226836","Flanker Test","103","47455","107","yes","1024"
"96.29629629629629","96.29629629629629","443.4074074074074","443.4074074074074","black","legacy","legacy","legacy","0","incongruent","uniform","1","undefined","1","s","0","0","0","107","0","107","107","0","107","107","0","107","107","107","Sat Sep 24 13:51:58 2022","600","The main experiment item","yes","/Users/andrea/Desktop/Adv. Quant Methods/FlankerTest_Savkovic.osexp","no","mono","no","18","no","white","no","yes","768","legacy","27","79","/Users/andrea/Desktop/Adv. Quant Methods/Lab 2.2/AS-subject-3.csv","legacy","Lentiform Loewenfeld","3.3.12","0","s","s","s","s","433","1874","48094","433","2","legacy","1024","2","48000","-16","experiment","HHSHH","3","odd","6236","184126","NA","227137","4344","228184","200735","4336","222021","228186","136031","228290","228724","228290","Flanker Test","104","47888","108","yes","1024"
"96.3302752293578","96.3302752293578","442.2110091743119","442.2110091743119","black","legacy","legacy","legacy","0","congruent","uniform","1","undefined","1","h","0","0","0","108","0","108","108","0","108","108","0","108","108","108","Sat Sep 24 13:51:58 2022","600","The main experiment item","yes","/Users/andrea/Desktop/Adv. Quant Methods/FlankerTest_Savkovic.osexp","no","mono","no","18","no","white","no","yes","768","legacy","28","79","/Users/andrea/Desktop/Adv. Quant Methods/Lab 2.2/AS-subject-3.csv","legacy","Lentiform Loewenfeld","3.3.12","0","h","s","s","h","313","1874","48094","313","2","legacy","1024","2","48000","-16","experiment","HHHHH","3","odd","6236","184126","NA","228726","4344","229774","200735","4336","222021","229776","136031","229880","230194","229880","Flanker Test","105","48201","109","yes","1024"
"96.36363636363636","96.36363636363636","441.03636363636366","441.03636363636366","black","legacy","legacy","legacy","0","incongruent","uniform","1","undefined","1","s","0","0","0","109","0","109","109","0","109","109","0","109","109","109","Sat Sep 24 13:51:58 2022","600","The main experiment item","yes","/Users/andrea/Desktop/Adv. Quant Methods/FlankerTest_Savkovic.osexp","no","mono","no","18","no","white","no","yes","768","legacy","29","79","/Users/andrea/Desktop/Adv. Quant Methods/Lab 2.2/AS-subject-3.csv","legacy","Lentiform Loewenfeld","3.3.12","0","s","s","s","s","313","1874","48094","313","2","legacy","1024","2","48000","-16","experiment","HHSHH","3","odd","6236","184126","NA","230197","4344","231244","200735","4336","222021","231246","136031","231350","231664","231350","Flanker Test","106","48514","110","yes","1024"
"95.49549549549549","95.49549549549549","441.0990990990991","441.0990990990991","black","legacy","legacy","legacy","0","incongruent","uniform","0","undefined","0","s","0","0","0","110","0","110","110","0","110","110","0","110","110","110","Sat Sep 24 13:51:58 2022","600","The main experiment item","yes","/Users/andrea/Desktop/Adv. Quant Methods/FlankerTest_Savkovic.osexp","no","mono","no","18","no","white","no","yes","768","legacy","30","79","/Users/andrea/Desktop/Adv. Quant Methods/Lab 2.2/AS-subject-3.csv","legacy","Lentiform Loewenfeld","3.3.12","0","h","s","s","h","448","1874","48094","448","2","legacy","1024","2","48000","-16","experiment","HHSHH","3","odd","6236","184126","NA","231667","4344","232714","200735","4336","222021","232716","136031","232820","233269","232820","Flanker Test","106","48962","111","yes","1024"
"95.53571428571429","95.53571428571429","442.9375","442.9375","black","legacy","legacy","legacy","0","incongruent","uniform","1","undefined","1","h","0","0","0","111","0","111","111","0","111","111","0","111","111","111","Sat Sep 24 13:51:58 2022","600","The main experiment item","yes","/Users/andrea/Desktop/Adv. Quant Methods/FlankerTest_Savkovic.osexp","no","mono","no","18","no","white","no","yes","768","legacy","31","79","/Users/andrea/Desktop/Adv. Quant Methods/Lab 2.2/AS-subject-3.csv","legacy","Lentiform Loewenfeld","3.3.12","0","h","s","s","h","647","1874","48094","647","2","legacy","1024","2","48000","-16","experiment","SSHSS","3","odd","6236","184126","NA","233776","4344","234824","233271","4336","222021","234825","136031","234931","235579","234930","Flanker Test","107","49609","112","yes","1024"
"95.57522123893806","95.57522123893806","443.56637168141594","443.56637168141594","black","legacy","legacy","legacy","0","incongruent","uniform","1","undefined","1","s","0","0","0","112","0","112","112","0","112","112","0","112","112","112","Sat Sep 24 13:51:58 2022","600","The main experiment item","yes","/Users/andrea/Desktop/Adv. Quant Methods/FlankerTest_Savkovic.osexp","no","mono","no","18","no","white","no","yes","768","legacy","32","79","/Users/andrea/Desktop/Adv. Quant Methods/Lab 2.2/AS-subject-3.csv","legacy","Lentiform Loewenfeld","3.3.12","0","s","s","s","s","514","1874","48094","514","2","legacy","1024","2","48000","-16","experiment","HHSHH","3","odd","6236","184126","NA","236086","4344","237133","233271","4336","235582","237135","136031","237239","237754","237239","Flanker Test","108","50123","113","yes","1024"
"95.6140350877193","95.6140350877193","443.4736842105263","443.4736842105263","black","legacy","legacy","legacy","0","congruent","uniform","1","undefined","1","s","0","0","0","113","0","113","113","0","113","113","0","113","113","113","Sat Sep 24 13:51:58 2022","600","The main experiment item","yes","/Users/andrea/Desktop/Adv. Quant Methods/FlankerTest_Savkovic.osexp","no","mono","no","18","no","white","no","yes","768","legacy","33","79","/Users/andrea/Desktop/Adv. Quant Methods/Lab 2.2/AS-subject-3.csv","legacy","Lentiform Loewenfeld","3.3.12","0","s","s","s","s","433","1874","48094","433","2","legacy","1024","2","48000","-16","experiment","SSSSS","3","odd","6236","184126","NA","237757","4344","238805","233271","4336","235582","238807","136031","238911","239345","238911","Flanker Test","109","50556","114","yes","1024"
"95.65217391304348","95.65217391304348","443.25217391304346","443.25217391304346","black","legacy","legacy","legacy","0","incongruent","uniform","1","undefined","1","s","0","0","0","114","0","114","114","0","114","114","0","114","114","114","Sat Sep 24 13:51:58 2022","600","The main experiment item","yes","/Users/andrea/Desktop/Adv. Quant Methods/FlankerTest_Savkovic.osexp","no","mono","no","18","no","white","no","yes","768","legacy","34","79","/Users/andrea/Desktop/Adv. Quant Methods/Lab 2.2/AS-subject-3.csv","legacy","Lentiform Loewenfeld","3.3.12","0","s","s","s","s","418","1874","48094","418","2","legacy","1024","2","48000","-16","experiment","HHSHH","3","odd","6236","184126","NA","239348","4344","240395","233271","4336","235582","240397","136031","240501","240920","240501","Flanker Test","110","50974","115","yes","1024"
"95.6896551724138","95.6896551724138","443.2844827586207","443.2844827586207","black","legacy","legacy","legacy","0","congruent","uniform","1","undefined","1","h","0","0","0","115","0","115","115","0","115","115","0","115","115","115","Sat Sep 24 13:51:58 2022","600","The main experiment item","yes","/Users/andrea/Desktop/Adv. Quant Methods/FlankerTest_Savkovic.osexp","no","mono","no","18","no","white","no","yes","768","legacy","35","79","/Users/andrea/Desktop/Adv. Quant Methods/Lab 2.2/AS-subject-3.csv","legacy","Lentiform Loewenfeld","3.3.12","0","h","s","s","h","447","1874","48094","447","2","legacy","1024","2","48000","-16","experiment","HHHHH","3","odd","6236","184126","NA","240922","4344","241970","233271","4336","235582","241972","136031","242076","242524","242076","Flanker Test","111","51421","116","yes","1024"
"95.72649572649573","95.72649572649573","442.8205128205128","442.8205128205128","black","legacy","legacy","legacy","0","incongruent","uniform","1","undefined","1","s","0","0","0","116","0","116","116","0","116","116","0","116","116","116","Sat Sep 24 13:51:58 2022","600","The main experiment item","yes","/Users/andrea/Desktop/Adv. Quant Methods/FlankerTest_Savkovic.osexp","no","mono","no","18","no","white","no","yes","768","legacy","36","79","/Users/andrea/Desktop/Adv. Quant Methods/Lab 2.2/AS-subject-3.csv","legacy","Lentiform Loewenfeld","3.3.12","0","s","s","s","s","389","1874","48094","389","2","legacy","1024","2","48000","-16","experiment","HHSHH","3","odd","6236","184126","NA","242527","4344","243574","233271","4336","235582","243576","136031","243680","244069","243680","Flanker Test","112","51810","117","yes","1024"
"95.76271186440678","95.76271186440678","442.864406779661","442.864406779661","black","legacy","legacy","legacy","0","congruent","uniform","1","undefined","1","s","0","0","0","117","0","117","117","0","117","117","0","117","117","117","Sat Sep 24 13:51:58 2022","600","The main experiment item","yes","/Users/andrea/Desktop/Adv. Quant Methods/FlankerTest_Savkovic.osexp","no","mono","no","18","no","white","no","yes","768","legacy","37","79","/Users/andrea/Desktop/Adv. Quant Methods/Lab 2.2/AS-subject-3.csv","legacy","Lentiform Loewenfeld","3.3.12","0","s","s","s","s","448","1874","48094","448","2","legacy","1024","2","48000","-16","experiment","SSSSS","3","odd","6236","184126","NA","244073","4344","245120","233271","4336","235582","245122","136031","245226","245675","245226","Flanker Test","113","52258","118","yes","1024"
"95.7983193277311","95.7983193277311","442.2689075630252","442.2689075630252","black","legacy","legacy","legacy","0","incongruent","uniform","1","undefined","1","s","0","0","0","118","0","118","118","0","118","118","0","118","118","118","Sat Sep 24 13:51:58 2022","600","The main experiment item","yes","/Users/andrea/Desktop/Adv. Quant Methods/FlankerTest_Savkovic.osexp","no","mono","no","18","no","white","no","yes","768","legacy","38","79","/Users/andrea/Desktop/Adv. Quant Methods/Lab 2.2/AS-subject-3.csv","legacy","Lentiform Loewenfeld","3.3.12","0","s","s","s","s","372","1874","48094","372","2","legacy","1024","2","48000","-16","experiment","HHSHH","3","odd","6236","184126","NA","245678","4344","246726","233271","4336","235582","246728","136031","246832","247205","246832","Flanker Test","114","52630","119","yes","1024"
"95.83333333333333","95.83333333333333","442.69166666666666","442.69166666666666","black","legacy","legacy","legacy","0","incongruent","uniform","1","undefined","1","h","0","0","0","119","0","119","119","0","119","119","0","119","119","119","Sat Sep 24 13:51:58 2022","600","The main experiment item","yes","/Users/andrea/Desktop/Adv. Quant Methods/FlankerTest_Savkovic.osexp","no","mono","no","18","no","white","no","yes","768","legacy","39","79","/Users/andrea/Desktop/Adv. Quant Methods/Lab 2.2/AS-subject-3.csv","legacy","Lentiform Loewenfeld","3.3.12","0","h","s","s","h","493","1874","48094","493","2","legacy","1024","2","48000","-16","experiment","SSHSS","3","odd","6236","184126","NA","247208","4344","248255","233271","4336","235582","248257","136031","248361","248855","248360","Flanker Test","115","53123","120","yes","1024"
"95.86776859504133","95.86776859504133","442.6115702479339","442.6115702479339","black","legacy","legacy","legacy","0","incongruent","uniform","1","undefined","1","h","0","0","0","120","0","120","120","0","120","120","0","120","120","120","Sat Sep 24 13:51:58 2022","600","The main experiment item","yes","/Users/andrea/Desktop/Adv. Quant Methods/FlankerTest_Savkovic.osexp","no","mono","no","18","no","white","no","yes","768","legacy","40","79","/Users/andrea/Desktop/Adv. Quant Methods/Lab 2.2/AS-subject-3.csv","legacy","Lentiform Loewenfeld","3.3.12","0","h","s","s","h","433","1874","48094","433","2","legacy","1024","2","48000","-16","experiment","SSHSS","3","odd","6236","184126","NA","248857","4344","249904","233271","4336","235582","249906","136031","250010","250444","250010","Flanker Test","116","53556","121","yes","1024"
"95.90163934426229","95.90163934426229","442.9016393442623","442.9016393442623","black","legacy","legacy","legacy","0","incongruent","uniform","1","undefined","1","h","0","0","0","121","0","121","121","0","121","121","0","121","121","121","Sat Sep 24 13:51:58 2022","600","The main experiment item","yes","/Users/andrea/Desktop/Adv. Quant Methods/FlankerTest_Savkovic.osexp","no","mono","no","18","no","white","no","yes","768","legacy","41","79","/Users/andrea/Desktop/Adv. Quant Methods/Lab 2.2/AS-subject-3.csv","legacy","Lentiform Loewenfeld","3.3.12","0","h","s","s","h","478","1874","48094","478","2","legacy","1024","2","48000","-16","experiment","SSHSS","3","odd","6236","184126","NA","250447","4344","251495","233271","4336","235582","251497","136031","251601","252080","251601","Flanker Test","117","54034","122","yes","1024"
