acc,accuracy,average_response_time,avg_rt,background,canvas_backend,clock_backend,color_backend,condition,correct,correct_Instructions1,correct_KeyboardResponse,correct_response,count_Block1,count_Block2,count_Block3,count_ErrorFeedback,count_Faster,count_Finish,count_Fixation,count_ISI,count_Instructions1,count_Instructions2,count_Instructions3,count_KeyboardResponse,count_Logger,count_Sequence,count_Stimulus,count_experiment,datetime,deadline,description,disable_garbage_collection,experiment_file,experiment_path,font_bold,font_family,font_italic,font_size,font_underline,foreground,form_clicks,fullscreen,height,keyboard_backend,live_row,live_row_Block1,logfile,mouse_backend,opensesame_codename,opensesame_version,repeat_cycle,response,response_Finish,response_Instructions1,response_Instructions2,response_Instructions3,response_KeyboardResponse,response_time,response_time_Finish,response_time_Instructions1,response_time_Instructions2,response_time_Instructions3,response_time_KeyboardResponse,round_decimals,sampler_backend,sound_buf_size,sound_channels,sound_freq,sound_sample_size,start,stimulus,subject_nr,subject_parity,time_Block1,time_Block2,time_Block3,time_ErrorFeedback,time_Faster,time_Finish,time_Fixation,time_ISI,time_Instructions1,time_Instructions2,time_Instructions3,time_KeyboardResponse,time_Logger,time_Sequence,time_Stimulus,time_experiment,title,total_correct,total_response_time,total_responses,width
0,0,735,735,#000000,legacy,legacy,legacy,incongruent,0,undefined,0,s,0,0,0,0,0,0,0,0,0,0,0,0,0,0,0,0,Fri Sep 15 17:01:01 2023,1500,The main experiment item,FALSE,Flanker Task.osexp,/Users/RMILLER1/Library/CloudStorage/OneDrive-tarleton.edu(NTNET)/TSU Online Classes/Graduate Class/ Adv Quant Methods and Design,FALSE,mono,FALSE,18,no,white,no,no,768,legacy,0,0,/Users/RMILLER1/Library/CloudStorage/OneDrive-tarleton.edu(NTNET)/TSU Online Classes/Graduate Class/ Adv Quant Methods and Design/RM-subject1.csv,legacy,Melodramatic Milgram,4.0.5,0,h,NA,s,NA,NA,h,735,NA,2791,NA,NA,735,2,legacy,1024,2,48000,-16,experiment,HHSHH,0,even,15466,NA,NA,NA,NA,NA,15489,NA,12661,NA,NA,15591,16326,15486,15591,12610,Flanker Task,0,735,1,1024
50,50,681,681,#000000,legacy,legacy,legacy,congruent,1,undefined,1,s,0,0,0,1,1,0,1,1,0,0,0,1,1,1,1,0,Fri Sep 15 17:01:01 2023,1500,The main experiment item,FALSE,Flanker Task.osexp,/Users/RMILLER1/Library/CloudStorage/OneDrive-tarleton.edu(NTNET)/TSU Online Classes/Graduate Class/ Adv Quant Methods and Design,FALSE,mono,FALSE,18,no,white,no,no,768,legacy,1,1,/Users/RMILLER1/Library/CloudStorage/OneDrive-tarleton.edu(NTNET)/TSU Online Classes/Graduate Class/ Adv Quant Methods and Design/RM-subject1.csv,legacy,Melodramatic Milgram,4.0.5,0,s,NA,s,NA,NA,s,627,NA,2791,NA,NA,627,2,legacy,1024,2,48000,-16,experiment,SSSSS,0,even,15466,NA,NA,16330,NA,NA,17870,16835,12661,NA,NA,17973,18601,17866,17973,12610,Flanker Task,1,1362,2,1024
66,66,592,592,#000000,legacy,legacy,legacy,incongruent,1,undefined,1,s,0,0,0,2,2,0,2,2,0,0,0,2,2,2,2,0,Fri Sep 15 17:01:01 2023,1500,The main experiment item,FALSE,Flanker Task.osexp,/Users/RMILLER1/Library/CloudStorage/OneDrive-tarleton.edu(NTNET)/TSU Online Classes/Graduate Class/ Adv Quant Methods and Design,FALSE,mono,FALSE,18,no,white,no,no,768,legacy,2,2,/Users/RMILLER1/Library/CloudStorage/OneDrive-tarleton.edu(NTNET)/TSU Online Classes/Graduate Class/ Adv Quant Methods and Design/RM-subject1.csv,legacy,Melodramatic Milgram,4.0.5,0,s,NA,s,NA,NA,s,416,NA,2791,NA,NA,416,2,legacy,1024,2,48000,-16,experiment,HHSHH,0,even,15466,NA,NA,16330,NA,NA,19631,18603,12661,NA,NA,19736,20158,19627,19736,12610,Flanker Task,2,1778,3,1024
75,75,566,566,#000000,legacy,legacy,legacy,incongruent,1,undefined,1,h,0,0,0,3,3,0,3,3,0,0,0,3,3,3,3,0,Fri Sep 15 17:01:01 2023,1500,The main experiment item,FALSE,Flanker Task.osexp,/Users/RMILLER1/Library/CloudStorage/OneDrive-tarleton.edu(NTNET)/TSU Online Classes/Graduate Class/ Adv Quant Methods and Design,FALSE,mono,FALSE,18,no,white,no,no,768,legacy,3,3,/Users/RMILLER1/Library/CloudStorage/OneDrive-tarleton.edu(NTNET)/TSU Online Classes/Graduate Class/ Adv Quant Methods and Design/RM-subject1.csv,legacy,Melodramatic Milgram,4.0.5,0,h,NA,s,NA,NA,h,489,NA,2791,NA,NA,489,2,legacy,1024,2,48000,-16,experiment,SSHSS,0,even,15466,NA,NA,16330,NA,NA,21177,20161,12661,NA,NA,21283,21773,21175,21283,12610,Flanker Task,3,2267,4,1024
80,80,536,536,#000000,legacy,legacy,legacy,incongruent,1,undefined,1,h,0,0,0,4,4,0,4,4,0,0,0,4,4,4,4,0,Fri Sep 15 17:01:01 2023,1500,The main experiment item,FALSE,Flanker Task.osexp,/Users/RMILLER1/Library/CloudStorage/OneDrive-tarleton.edu(NTNET)/TSU Online Classes/Graduate Class/ Adv Quant Methods and Design,FALSE,mono,FALSE,18,no,white,no,no,768,legacy,4,4,/Users/RMILLER1/Library/CloudStorage/OneDrive-tarleton.edu(NTNET)/TSU Online Classes/Graduate Class/ Adv Quant Methods and Design/RM-subject1.csv,legacy,Melodramatic Milgram,4.0.5,0,h,NA,s,NA,NA,h,415,NA,2791,NA,NA,415,2,legacy,1024,2,48000,-16,experiment,SSHSS,0,even,15466,NA,NA,16330,NA,NA,22803,21775,12661,NA,NA,22906,23321,22800,22906,12610,Flanker Task,4,2682,5,1024
83,83,512,512,#000000,legacy,legacy,legacy,congruent,1,undefined,1,h,0,0,0,5,5,0,5,5,0,0,0,5,5,5,5,0,Fri Sep 15 17:01:01 2023,1500,The main experiment item,FALSE,Flanker Task.osexp,/Users/RMILLER1/Library/CloudStorage/OneDrive-tarleton.edu(NTNET)/TSU Online Classes/Graduate Class/ Adv Quant Methods and Design,FALSE,mono,FALSE,18,no,white,no,no,768,legacy,5,5,/Users/RMILLER1/Library/CloudStorage/OneDrive-tarleton.edu(NTNET)/TSU Online Classes/Graduate Class/ Adv Quant Methods and Design/RM-subject1.csv,legacy,Melodramatic Milgram,4.0.5,0,h,NA,s,NA,NA,h,394,NA,2791,NA,NA,394,2,legacy,1024,2,48000,-16,experiment,HHHHH,0,even,15466,NA,NA,16330,NA,NA,24354,23323,12661,NA,NA,24458,24852,24346,24457,12610,Flanker Task,5,3076,6,1024
85,85,512,512,#000000,legacy,legacy,legacy,incongruent,1,undefined,1,s,0,0,0,6,6,0,6,6,0,0,0,6,6,6,6,0,Fri Sep 15 17:01:01 2023,1500,The main experiment item,FALSE,Flanker Task.osexp,/Users/RMILLER1/Library/CloudStorage/OneDrive-tarleton.edu(NTNET)/TSU Online Classes/Graduate Class/ Adv Quant Methods and Design,FALSE,mono,FALSE,18,no,white,no,no,768,legacy,6,6,/Users/RMILLER1/Library/CloudStorage/OneDrive-tarleton.edu(NTNET)/TSU Online Classes/Graduate Class/ Adv Quant Methods and Design/RM-subject1.csv,legacy,Melodramatic Milgram,4.0.5,0,s,NA,s,NA,NA,s,509,NA,2791,NA,NA,509,2,legacy,1024,2,48000,-16,experiment,HHSHH,0,even,15466,NA,NA,16330,NA,NA,25886,24855,12661,NA,NA,25989,26498,25879,25989,12610,Flanker Task,6,3585,7,1024
87,87,494,494,#000000,legacy,legacy,legacy,congruent,1,undefined,1,h,0,0,0,7,7,0,7,7,0,0,0,7,7,7,7,0,Fri Sep 15 17:01:01 2023,1500,The main experiment item,FALSE,Flanker Task.osexp,/Users/RMILLER1/Library/CloudStorage/OneDrive-tarleton.edu(NTNET)/TSU Online Classes/Graduate Class/ Adv Quant Methods and Design,FALSE,mono,FALSE,18,no,white,no,no,768,legacy,7,7,/Users/RMILLER1/Library/CloudStorage/OneDrive-tarleton.edu(NTNET)/TSU Online Classes/Graduate Class/ Adv Quant Methods and Design/RM-subject1.csv,legacy,Melodramatic Milgram,4.0.5,0,h,NA,s,NA,NA,h,370,NA,2791,NA,NA,370,2,legacy,1024,2,48000,-16,experiment,HHHHH,0,even,15466,NA,NA,16330,NA,NA,27531,26501,12661,NA,NA,27634,28005,27525,27634,12610,Flanker Task,7,3955,8,1024
88,88,480,480,#000000,legacy,legacy,legacy,incongruent,1,undefined,1,s,0,0,0,8,8,0,8,8,0,0,0,8,8,8,8,0,Fri Sep 15 17:01:01 2023,1500,The main experiment item,FALSE,Flanker Task.osexp,/Users/RMILLER1/Library/CloudStorage/OneDrive-tarleton.edu(NTNET)/TSU Online Classes/Graduate Class/ Adv Quant Methods and Design,FALSE,mono,FALSE,18,no,white,no,no,768,legacy,8,8,/Users/RMILLER1/Library/CloudStorage/OneDrive-tarleton.edu(NTNET)/TSU Online Classes/Graduate Class/ Adv Quant Methods and Design/RM-subject1.csv,legacy,Melodramatic Milgram,4.0.5,0,s,NA,s,NA,NA,s,373,NA,2791,NA,NA,373,2,legacy,1024,2,48000,-16,experiment,HHSHH,0,even,15466,NA,NA,16330,NA,NA,29035,28008,12661,NA,NA,29137,29511,29031,29137,12610,Flanker Task,8,4328,9,1024
90,90,475,475,#000000,legacy,legacy,legacy,congruent,1,undefined,1,h,0,0,0,9,9,0,9,9,0,0,0,9,9,9,9,0,Fri Sep 15 17:01:01 2023,1500,The main experiment item,FALSE,Flanker Task.osexp,/Users/RMILLER1/Library/CloudStorage/OneDrive-tarleton.edu(NTNET)/TSU Online Classes/Graduate Class/ Adv Quant Methods and Design,FALSE,mono,FALSE,18,no,white,no,no,768,legacy,9,9,/Users/RMILLER1/Library/CloudStorage/OneDrive-tarleton.edu(NTNET)/TSU Online Classes/Graduate Class/ Adv Quant Methods and Design/RM-subject1.csv,legacy,Melodramatic Milgram,4.0.5,0,h,NA,s,NA,NA,h,425,NA,2791,NA,NA,425,2,legacy,1024,2,48000,-16,experiment,HHHHH,0,even,15466,NA,NA,16330,NA,NA,30537,29513,12661,NA,NA,30641,31067,30533,30641,12610,Flanker Task,9,4753,10,1024
90,90,468,468,#000000,legacy,legacy,legacy,incongruent,1,undefined,1,s,0,0,0,10,10,0,10,10,0,0,0,10,10,10,10,0,Fri Sep 15 17:01:01 2023,1500,The main experiment item,FALSE,Flanker Task.osexp,/Users/RMILLER1/Library/CloudStorage/OneDrive-tarleton.edu(NTNET)/TSU Online Classes/Graduate Class/ Adv Quant Methods and Design,FALSE,mono,FALSE,18,no,white,no,no,768,legacy,10,10,/Users/RMILLER1/Library/CloudStorage/OneDrive-tarleton.edu(NTNET)/TSU Online Classes/Graduate Class/ Adv Quant Methods and Design/RM-subject1.csv,legacy,Melodramatic Milgram,4.0.5,0,s,NA,s,NA,NA,s,397,NA,2791,NA,NA,397,2,legacy,1024,2,48000,-16,experiment,HHSHH,0,even,15466,NA,NA,16330,NA,NA,32092,31069,12661,NA,NA,32195,32592,32089,32195,12610,Flanker Task,10,5150,11,1024
91,91,471,471,#000000,legacy,legacy,legacy,incongruent,1,undefined,1,h,0,0,0,11,11,0,11,11,0,0,0,11,11,11,11,0,Fri Sep 15 17:01:01 2023,1500,The main experiment item,FALSE,Flanker Task.osexp,/Users/RMILLER1/Library/CloudStorage/OneDrive-tarleton.edu(NTNET)/TSU Online Classes/Graduate Class/ Adv Quant Methods and Design,FALSE,mono,FALSE,18,no,white,no,no,768,legacy,11,11,/Users/RMILLER1/Library/CloudStorage/OneDrive-tarleton.edu(NTNET)/TSU Online Classes/Graduate Class/ Adv Quant Methods and Design/RM-subject1.csv,legacy,Melodramatic Milgram,4.0.5,0,h,NA,s,NA,NA,h,513,NA,2791,NA,NA,513,2,legacy,1024,2,48000,-16,experiment,SSHSS,0,even,15466,NA,NA,16330,NA,NA,33619,32594,12661,NA,NA,33722,34236,33614,33721,12610,Flanker Task,11,5663,12,1024
92,92,471,471,#000000,legacy,legacy,legacy,incongruent,1,undefined,1,h,0,0,0,12,12,0,12,12,0,0,0,12,12,12,12,0,Fri Sep 15 17:01:01 2023,1500,The main experiment item,FALSE,Flanker Task.osexp,/Users/RMILLER1/Library/CloudStorage/OneDrive-tarleton.edu(NTNET)/TSU Online Classes/Graduate Class/ Adv Quant Methods and Design,FALSE,mono,FALSE,18,no,white,no,no,768,legacy,12,12,/Users/RMILLER1/Library/CloudStorage/OneDrive-tarleton.edu(NTNET)/TSU Online Classes/Graduate Class/ Adv Quant Methods and Design/RM-subject1.csv,legacy,Melodramatic Milgram,4.0.5,0,h,NA,s,NA,NA,h,466,NA,2791,NA,NA,466,2,legacy,1024,2,48000,-16,experiment,SSHSS,0,even,15466,NA,NA,16330,NA,NA,35268,34238,12661,NA,NA,35369,35836,35259,35369,12610,Flanker Task,12,6129,13,1024
92,92,466,466,#000000,legacy,legacy,legacy,congruent,1,undefined,1,s,0,0,0,13,13,0,13,13,0,0,0,13,13,13,13,0,Fri Sep 15 17:01:01 2023,1500,The main experiment item,FALSE,Flanker Task.osexp,/Users/RMILLER1/Library/CloudStorage/OneDrive-tarleton.edu(NTNET)/TSU Online Classes/Graduate Class/ Adv Quant Methods and Design,FALSE,mono,FALSE,18,no,white,no,no,768,legacy,13,13,/Users/RMILLER1/Library/CloudStorage/OneDrive-tarleton.edu(NTNET)/TSU Online Classes/Graduate Class/ Adv Quant Methods and Design/RM-subject1.csv,legacy,Melodramatic Milgram,4.0.5,0,s,NA,s,NA,NA,s,400,NA,2791,NA,NA,400,2,legacy,1024,2,48000,-16,experiment,SSSSS,0,even,15466,NA,NA,16330,NA,NA,36860,35838,12661,NA,NA,36963,37364,36857,36963,12610,Flanker Task,13,6529,14,1024
93,93,464,464,#000000,legacy,legacy,legacy,incongruent,1,undefined,1,h,0,0,0,14,14,0,14,14,0,0,0,14,14,14,14,0,Fri Sep 15 17:01:01 2023,1500,The main experiment item,FALSE,Flanker Task.osexp,/Users/RMILLER1/Library/CloudStorage/OneDrive-tarleton.edu(NTNET)/TSU Online Classes/Graduate Class/ Adv Quant Methods and Design,FALSE,mono,FALSE,18,no,white,no,no,768,legacy,14,14,/Users/RMILLER1/Library/CloudStorage/OneDrive-tarleton.edu(NTNET)/TSU Online Classes/Graduate Class/ Adv Quant Methods and Design/RM-subject1.csv,legacy,Melodramatic Milgram,4.0.5,0,h,NA,s,NA,NA,h,441,NA,2791,NA,NA,441,2,legacy,1024,2,48000,-16,experiment,SSHSS,0,even,15466,NA,NA,16330,NA,NA,38397,37366,12661,NA,NA,38499,38940,38394,38499,12610,Flanker Task,14,6970,15,1024
93,93,460,460,#000000,legacy,legacy,legacy,congruent,1,undefined,1,h,0,0,0,15,15,0,15,15,0,0,0,15,15,15,15,0,Fri Sep 15 17:01:01 2023,1500,The main experiment item,FALSE,Flanker Task.osexp,/Users/RMILLER1/Library/CloudStorage/OneDrive-tarleton.edu(NTNET)/TSU Online Classes/Graduate Class/ Adv Quant Methods and Design,FALSE,mono,FALSE,18,no,white,no,no,768,legacy,15,15,/Users/RMILLER1/Library/CloudStorage/OneDrive-tarleton.edu(NTNET)/TSU Online Classes/Graduate Class/ Adv Quant Methods and Design/RM-subject1.csv,legacy,Melodramatic Milgram,4.0.5,0,h,NA,s,NA,NA,h,399,NA,2791,NA,NA,399,2,legacy,1024,2,48000,-16,experiment,HHHHH,0,even,15466,NA,NA,16330,NA,NA,39965,38942,12661,NA,NA,40068,40468,39961,40068,12610,Flanker Task,15,7369,16,1024
94,94,454,454,#000000,legacy,legacy,legacy,congruent,1,undefined,1,h,0,0,0,16,16,0,16,16,0,0,0,16,16,16,16,0,Fri Sep 15 17:01:01 2023,1500,The main experiment item,FALSE,Flanker Task.osexp,/Users/RMILLER1/Library/CloudStorage/OneDrive-tarleton.edu(NTNET)/TSU Online Classes/Graduate Class/ Adv Quant Methods and Design,FALSE,mono,FALSE,18,no,white,no,no,768,legacy,16,16,/Users/RMILLER1/Library/CloudStorage/OneDrive-tarleton.edu(NTNET)/TSU Online Classes/Graduate Class/ Adv Quant Methods and Design/RM-subject1.csv,legacy,Melodramatic Milgram,4.0.5,0,h,NA,s,NA,NA,h,363,NA,2791,NA,NA,363,2,legacy,1024,2,48000,-16,experiment,HHHHH,0,even,15466,NA,NA,16330,NA,NA,41487,40471,12661,NA,NA,41589,41952,41484,41589,12610,Flanker Task,16,7732,17,1024
94,94,452,452,#000000,legacy,legacy,legacy,congruent,1,undefined,1,s,0,0,0,17,17,0,17,17,0,0,0,17,17,17,17,0,Fri Sep 15 17:01:01 2023,1500,The main experiment item,FALSE,Flanker Task.osexp,/Users/RMILLER1/Library/CloudStorage/OneDrive-tarleton.edu(NTNET)/TSU Online Classes/Graduate Class/ Adv Quant Methods and Design,FALSE,mono,FALSE,18,no,white,no,no,768,legacy,17,17,/Users/RMILLER1/Library/CloudStorage/OneDrive-tarleton.edu(NTNET)/TSU Online Classes/Graduate Class/ Adv Quant Methods and Design/RM-subject1.csv,legacy,Melodramatic Milgram,4.0.5,0,s,NA,s,NA,NA,s,420,NA,2791,NA,NA,420,2,legacy,1024,2,48000,-16,experiment,SSSSS,0,even,15466,NA,NA,16330,NA,NA,42977,41954,12661,NA,NA,43084,43505,42974,43084,12610,Flanker Task,17,8152,18,1024
94,94,447,447,#000000,legacy,legacy,legacy,congruent,1,undefined,1,h,0,0,0,18,18,0,18,18,0,0,0,18,18,18,18,0,Fri Sep 15 17:01:01 2023,1500,The main experiment item,FALSE,Flanker Task.osexp,/Users/RMILLER1/Library/CloudStorage/OneDrive-tarleton.edu(NTNET)/TSU Online Classes/Graduate Class/ Adv Quant Methods and Design,FALSE,mono,FALSE,18,no,white,no,no,768,legacy,18,18,/Users/RMILLER1/Library/CloudStorage/OneDrive-tarleton.edu(NTNET)/TSU Online Classes/Graduate Class/ Adv Quant Methods and Design/RM-subject1.csv,legacy,Melodramatic Milgram,4.0.5,0,h,NA,s,NA,NA,h,342,NA,2791,NA,NA,342,2,legacy,1024,2,48000,-16,experiment,HHHHH,0,even,15466,NA,NA,16330,NA,NA,44523,43507,12661,NA,NA,44626,44968,44521,44626,12610,Flanker Task,18,8494,19,1024
95,95,445,445,#000000,legacy,legacy,legacy,congruent,1,undefined,1,s,0,0,0,19,19,0,19,19,0,0,0,19,19,19,19,0,Fri Sep 15 17:01:01 2023,1500,The main experiment item,FALSE,Flanker Task.osexp,/Users/RMILLER1/Library/CloudStorage/OneDrive-tarleton.edu(NTNET)/TSU Online Classes/Graduate Class/ Adv Quant Methods and Design,FALSE,mono,FALSE,18,no,white,no,no,768,legacy,19,19,/Users/RMILLER1/Library/CloudStorage/OneDrive-tarleton.edu(NTNET)/TSU Online Classes/Graduate Class/ Adv Quant Methods and Design/RM-subject1.csv,legacy,Melodramatic Milgram,4.0.5,0,s,NA,s,NA,NA,s,420,NA,2791,NA,NA,420,2,legacy,1024,2,48000,-16,experiment,SSSSS,0,even,15466,NA,NA,16330,NA,NA,45992,44970,12661,NA,NA,46100,46520,45988,46100,12610,Flanker Task,19,8914,20,1024
95,95,444,444,#000000,legacy,legacy,legacy,congruent,1,undefined,1,s,0,0,0,20,20,0,20,20,0,0,0,20,20,20,20,0,Fri Sep 15 17:01:01 2023,1500,The main experiment item,FALSE,Flanker Task.osexp,/Users/RMILLER1/Library/CloudStorage/OneDrive-tarleton.edu(NTNET)/TSU Online Classes/Graduate Class/ Adv Quant Methods and Design,FALSE,mono,FALSE,18,no,white,no,no,768,legacy,20,20,/Users/RMILLER1/Library/CloudStorage/OneDrive-tarleton.edu(NTNET)/TSU Online Classes/Graduate Class/ Adv Quant Methods and Design/RM-subject1.csv,legacy,Melodramatic Milgram,4.0.5,0,s,NA,s,NA,NA,s,430,NA,2791,NA,NA,430,2,legacy,1024,2,48000,-16,experiment,SSSSS,0,even,15466,NA,NA,16330,NA,NA,47542,46522,12661,NA,NA,47644,48074,47539,47644,12610,Flanker Task,20,9344,21,1024
95,95,443,443,#000000,legacy,legacy,legacy,incongruent,1,undefined,1,h,0,0,0,21,21,0,21,21,0,0,0,21,21,21,21,0,Fri Sep 15 17:01:01 2023,1500,The main experiment item,FALSE,Flanker Task.osexp,/Users/RMILLER1/Library/CloudStorage/OneDrive-tarleton.edu(NTNET)/TSU Online Classes/Graduate Class/ Adv Quant Methods and Design,FALSE,mono,FALSE,18,no,white,no,no,768,legacy,21,21,/Users/RMILLER1/Library/CloudStorage/OneDrive-tarleton.edu(NTNET)/TSU Online Classes/Graduate Class/ Adv Quant Methods and Design/RM-subject1.csv,legacy,Melodramatic Milgram,4.0.5,0,h,NA,s,NA,NA,h,422,NA,2791,NA,NA,422,2,legacy,1024,2,48000,-16,experiment,SSHSS,0,even,15466,NA,NA,16330,NA,NA,49101,48076,12661,NA,NA,49204,49627,49097,49204,12610,Flanker Task,21,9766,22,1024
95,95,440,440,#000000,legacy,legacy,legacy,congruent,1,undefined,1,s,0,0,0,22,22,0,22,22,0,0,0,22,22,22,22,0,Fri Sep 15 17:01:01 2023,1500,The main experiment item,FALSE,Flanker Task.osexp,/Users/RMILLER1/Library/CloudStorage/OneDrive-tarleton.edu(NTNET)/TSU Online Classes/Graduate Class/ Adv Quant Methods and Design,FALSE,mono,FALSE,18,no,white,no,no,768,legacy,22,22,/Users/RMILLER1/Library/CloudStorage/OneDrive-tarleton.edu(NTNET)/TSU Online Classes/Graduate Class/ Adv Quant Methods and Design/RM-subject1.csv,legacy,Melodramatic Milgram,4.0.5,0,s,NA,s,NA,NA,s,366,NA,2791,NA,NA,366,2,legacy,1024,2,48000,-16,experiment,SSSSS,0,even,15466,NA,NA,16330,NA,NA,50643,49630,12661,NA,NA,50749,51116,50641,50749,12610,Flanker Task,22,10132,23,1024
95,95,440,440,#000000,legacy,legacy,legacy,congruent,1,undefined,1,s,0,0,0,23,23,0,23,23,0,0,0,23,23,23,23,0,Fri Sep 15 17:01:01 2023,1500,The main experiment item,FALSE,Flanker Task.osexp,/Users/RMILLER1/Library/CloudStorage/OneDrive-tarleton.edu(NTNET)/TSU Online Classes/Graduate Class/ Adv Quant Methods and Design,FALSE,mono,FALSE,18,no,white,no,no,768,legacy,23,23,/Users/RMILLER1/Library/CloudStorage/OneDrive-tarleton.edu(NTNET)/TSU Online Classes/Graduate Class/ Adv Quant Methods and Design/RM-subject1.csv,legacy,Melodramatic Milgram,4.0.5,0,s,NA,s,NA,NA,s,434,NA,2791,NA,NA,434,2,legacy,1024,2,48000,-16,experiment,SSSSS,0,even,15466,NA,NA,16330,NA,NA,52143,51118,12661,NA,NA,52252,52687,52140,52251,12610,Flanker Task,23,10566,24,1024
96,96,441,441,#000000,legacy,legacy,legacy,incongruent,1,undefined,1,h,0,0,0,24,24,0,24,24,0,0,0,24,24,24,24,0,Fri Sep 15 17:01:01 2023,1500,The main experiment item,FALSE,Flanker Task.osexp,/Users/RMILLER1/Library/CloudStorage/OneDrive-tarleton.edu(NTNET)/TSU Online Classes/Graduate Class/ Adv Quant Methods and Design,FALSE,mono,FALSE,18,no,white,no,no,768,legacy,24,24,/Users/RMILLER1/Library/CloudStorage/OneDrive-tarleton.edu(NTNET)/TSU Online Classes/Graduate Class/ Adv Quant Methods and Design/RM-subject1.csv,legacy,Melodramatic Milgram,4.0.5,0,h,NA,s,NA,NA,h,481,NA,2791,NA,NA,481,2,legacy,1024,2,48000,-16,experiment,SSHSS,0,even,15466,NA,NA,16330,NA,NA,53701,52688,12661,NA,NA,53804,54286,53699,53804,12610,Flanker Task,24,11047,25,1024
96,96,442,442,#000000,legacy,legacy,legacy,incongruent,1,undefined,1,s,0,0,0,25,25,0,25,25,0,0,0,25,25,25,25,0,Fri Sep 15 17:01:01 2023,1500,The main experiment item,FALSE,Flanker Task.osexp,/Users/RMILLER1/Library/CloudStorage/OneDrive-tarleton.edu(NTNET)/TSU Online Classes/Graduate Class/ Adv Quant Methods and Design,FALSE,mono,FALSE,18,no,white,no,no,768,legacy,25,25,/Users/RMILLER1/Library/CloudStorage/OneDrive-tarleton.edu(NTNET)/TSU Online Classes/Graduate Class/ Adv Quant Methods and Design/RM-subject1.csv,legacy,Melodramatic Milgram,4.0.5,0,s,NA,s,NA,NA,s,460,NA,2791,NA,NA,460,2,legacy,1024,2,48000,-16,experiment,HHSHH,0,even,15466,NA,NA,16330,NA,NA,55321,54288,12661,NA,NA,55425,55885,55310,55424,12610,Flanker Task,25,11507,26,1024
96,96,442,442,#000000,legacy,legacy,legacy,incongruent,1,undefined,1,h,0,0,0,26,26,0,26,26,0,0,0,26,26,26,26,0,Fri Sep 15 17:01:01 2023,1500,The main experiment item,FALSE,Flanker Task.osexp,/Users/RMILLER1/Library/CloudStorage/OneDrive-tarleton.edu(NTNET)/TSU Online Classes/Graduate Class/ Adv Quant Methods and Design,FALSE,mono,FALSE,18,no,white,no,no,768,legacy,26,26,/Users/RMILLER1/Library/CloudStorage/OneDrive-tarleton.edu(NTNET)/TSU Online Classes/Graduate Class/ Adv Quant Methods and Design/RM-subject1.csv,legacy,Melodramatic Milgram,4.0.5,0,h,NA,s,NA,NA,h,434,NA,2791,NA,NA,434,2,legacy,1024,2,48000,-16,experiment,SSHSS,0,even,15466,NA,NA,16330,NA,NA,56918,55888,12661,NA,NA,57021,57455,56910,57020,12610,Flanker Task,26,11941,27,1024
96,96,441,441,#000000,legacy,legacy,legacy,incongruent,1,undefined,1,s,0,0,0,27,27,0,27,27,0,0,0,27,27,27,27,0,Fri Sep 15 17:01:01 2023,1500,The main experiment item,FALSE,Flanker Task.osexp,/Users/RMILLER1/Library/CloudStorage/OneDrive-tarleton.edu(NTNET)/TSU Online Classes/Graduate Class/ Adv Quant Methods and Design,FALSE,mono,FALSE,18,no,white,no,no,768,legacy,27,27,/Users/RMILLER1/Library/CloudStorage/OneDrive-tarleton.edu(NTNET)/TSU Online Classes/Graduate Class/ Adv Quant Methods and Design/RM-subject1.csv,legacy,Melodramatic Milgram,4.0.5,0,s,NA,s,NA,NA,s,418,NA,2791,NA,NA,418,2,legacy,1024,2,48000,-16,experiment,HHSHH,0,even,15466,NA,NA,16330,NA,NA,58488,57458,12661,NA,NA,58591,59010,58481,58591,12610,Flanker Task,27,12359,28,1024
96,96,440,440,#000000,legacy,legacy,legacy,incongruent,1,undefined,1,h,0,0,0,28,28,0,28,28,0,0,0,28,28,28,28,0,Fri Sep 15 17:01:01 2023,1500,The main experiment item,FALSE,Flanker Task.osexp,/Users/RMILLER1/Library/CloudStorage/OneDrive-tarleton.edu(NTNET)/TSU Online Classes/Graduate Class/ Adv Quant Methods and Design,FALSE,mono,FALSE,18,no,white,no,no,768,legacy,28,28,/Users/RMILLER1/Library/CloudStorage/OneDrive-tarleton.edu(NTNET)/TSU Online Classes/Graduate Class/ Adv Quant Methods and Design/RM-subject1.csv,legacy,Melodramatic Milgram,4.0.5,0,h,NA,s,NA,NA,h,421,NA,2791,NA,NA,421,2,legacy,1024,2,48000,-16,experiment,SSHSS,0,even,15466,NA,NA,16330,NA,NA,60040,59015,12661,NA,NA,60143,60565,60036,60142,12610,Flanker Task,28,12780,29,1024
96,96,441,441,#000000,legacy,legacy,legacy,incongruent,1,undefined,1,h,0,0,0,29,29,0,29,29,0,0,0,29,29,29,29,0,Fri Sep 15 17:01:01 2023,1500,The main experiment item,FALSE,Flanker Task.osexp,/Users/RMILLER1/Library/CloudStorage/OneDrive-tarleton.edu(NTNET)/TSU Online Classes/Graduate Class/ Adv Quant Methods and Design,FALSE,mono,FALSE,18,no,white,no,no,768,legacy,29,29,/Users/RMILLER1/Library/CloudStorage/OneDrive-tarleton.edu(NTNET)/TSU Online Classes/Graduate Class/ Adv Quant Methods and Design/RM-subject1.csv,legacy,Melodramatic Milgram,4.0.5,0,h,NA,s,NA,NA,h,463,NA,2791,NA,NA,463,2,legacy,1024,2,48000,-16,experiment,SSHSS,0,even,15466,NA,NA,16330,NA,NA,61591,60568,12661,NA,NA,61694,62158,61587,61694,12610,Flanker Task,29,13243,30,1024
96,96,443,443,#000000,legacy,legacy,legacy,congruent,1,undefined,1,s,0,0,0,30,30,0,30,30,0,0,0,30,30,30,30,0,Fri Sep 15 17:01:01 2023,1500,The main experiment item,FALSE,Flanker Task.osexp,/Users/RMILLER1/Library/CloudStorage/OneDrive-tarleton.edu(NTNET)/TSU Online Classes/Graduate Class/ Adv Quant Methods and Design,FALSE,mono,FALSE,18,no,white,no,no,768,legacy,30,30,/Users/RMILLER1/Library/CloudStorage/OneDrive-tarleton.edu(NTNET)/TSU Online Classes/Graduate Class/ Adv Quant Methods and Design/RM-subject1.csv,legacy,Melodramatic Milgram,4.0.5,0,s,NA,s,NA,NA,s,512,NA,2791,NA,NA,512,2,legacy,1024,2,48000,-16,experiment,SSSSS,0,even,15466,NA,NA,16330,NA,NA,63186,62160,12661,NA,NA,63289,63802,63178,63289,12610,Flanker Task,30,13755,31,1024
96,96,442,442,#000000,legacy,legacy,legacy,congruent,1,undefined,1,s,0,0,0,31,31,0,31,31,0,0,0,31,31,31,31,0,Fri Sep 15 17:01:01 2023,1500,The main experiment item,FALSE,Flanker Task.osexp,/Users/RMILLER1/Library/CloudStorage/OneDrive-tarleton.edu(NTNET)/TSU Online Classes/Graduate Class/ Adv Quant Methods and Design,FALSE,mono,FALSE,18,no,white,no,no,768,legacy,31,31,/Users/RMILLER1/Library/CloudStorage/OneDrive-tarleton.edu(NTNET)/TSU Online Classes/Graduate Class/ Adv Quant Methods and Design/RM-subject1.csv,legacy,Melodramatic Milgram,4.0.5,0,s,NA,s,NA,NA,s,414,NA,2791,NA,NA,414,2,legacy,1024,2,48000,-16,experiment,SSSSS,0,even,15466,NA,NA,16330,NA,NA,64818,63804,12661,NA,NA,64920,65334,64816,64920,12610,Flanker Task,31,14169,32,1024
96,96,444,444,#000000,legacy,legacy,legacy,incongruent,1,undefined,1,h,0,0,0,32,32,0,32,32,0,0,0,32,32,32,32,0,Fri Sep 15 17:01:01 2023,1500,The main experiment item,FALSE,Flanker Task.osexp,/Users/RMILLER1/Library/CloudStorage/OneDrive-tarleton.edu(NTNET)/TSU Online Classes/Graduate Class/ Adv Quant Methods and Design,FALSE,mono,FALSE,18,no,white,no,no,768,legacy,32,32,/Users/RMILLER1/Library/CloudStorage/OneDrive-tarleton.edu(NTNET)/TSU Online Classes/Graduate Class/ Adv Quant Methods and Design/RM-subject1.csv,legacy,Melodramatic Milgram,4.0.5,0,h,NA,s,NA,NA,h,513,NA,2791,NA,NA,513,2,legacy,1024,2,48000,-16,experiment,SSHSS,0,even,15466,NA,NA,16330,NA,NA,66358,65336,12661,NA,NA,66461,66974,66354,66461,12610,Flanker Task,32,14682,33,1024
97,97,445,445,#000000,legacy,legacy,legacy,congruent,1,undefined,1,h,0,0,0,33,33,0,33,33,0,0,0,33,33,33,33,0,Fri Sep 15 17:01:01 2023,1500,The main experiment item,FALSE,Flanker Task.osexp,/Users/RMILLER1/Library/CloudStorage/OneDrive-tarleton.edu(NTNET)/TSU Online Classes/Graduate Class/ Adv Quant Methods and Design,FALSE,mono,FALSE,18,no,white,no,no,768,legacy,33,33,/Users/RMILLER1/Library/CloudStorage/OneDrive-tarleton.edu(NTNET)/TSU Online Classes/Graduate Class/ Adv Quant Methods and Design/RM-subject1.csv,legacy,Melodramatic Milgram,4.0.5,0,h,NA,s,NA,NA,h,454,NA,2791,NA,NA,454,2,legacy,1024,2,48000,-16,experiment,HHHHH,0,even,15466,NA,NA,16330,NA,NA,67994,66977,12661,NA,NA,68098,68552,67990,68098,12610,Flanker Task,33,15136,34,1024
97,97,446,446,#000000,legacy,legacy,legacy,incongruent,1,undefined,1,h,0,0,0,34,34,0,34,34,0,0,0,34,34,34,34,0,Fri Sep 15 17:01:01 2023,1500,The main experiment item,FALSE,Flanker Task.osexp,/Users/RMILLER1/Library/CloudStorage/OneDrive-tarleton.edu(NTNET)/TSU Online Classes/Graduate Class/ Adv Quant Methods and Design,FALSE,mono,FALSE,18,no,white,no,no,768,legacy,34,34,/Users/RMILLER1/Library/CloudStorage/OneDrive-tarleton.edu(NTNET)/TSU Online Classes/Graduate Class/ Adv Quant Methods and Design/RM-subject1.csv,legacy,Melodramatic Milgram,4.0.5,0,h,NA,s,NA,NA,h,494,NA,2791,NA,NA,494,2,legacy,1024,2,48000,-16,experiment,SSHSS,0,even,15466,NA,NA,16330,NA,NA,69573,68554,12661,NA,NA,69675,70170,69570,69675,12610,Flanker Task,34,15630,35,1024
97,97,447,447,#000000,legacy,legacy,legacy,incongruent,1,undefined,1,h,0,0,0,35,35,0,35,35,0,0,0,35,35,35,35,0,Fri Sep 15 17:01:01 2023,1500,The main experiment item,FALSE,Flanker Task.osexp,/Users/RMILLER1/Library/CloudStorage/OneDrive-tarleton.edu(NTNET)/TSU Online Classes/Graduate Class/ Adv Quant Methods and Design,FALSE,mono,FALSE,18,no,white,no,no,768,legacy,35,35,/Users/RMILLER1/Library/CloudStorage/OneDrive-tarleton.edu(NTNET)/TSU Online Classes/Graduate Class/ Adv Quant Methods and Design/RM-subject1.csv,legacy,Melodramatic Milgram,4.0.5,0,h,NA,s,NA,NA,h,469,NA,2791,NA,NA,469,2,legacy,1024,2,48000,-16,experiment,SSHSS,0,even,15466,NA,NA,16330,NA,NA,71194,70172,12661,NA,NA,71297,71767,71190,71297,12610,Flanker Task,35,16099,36,1024
97,97,448,448,#000000,legacy,legacy,legacy,incongruent,1,undefined,1,s,0,0,0,36,36,0,36,36,0,0,0,36,36,36,36,0,Fri Sep 15 17:01:01 2023,1500,The main experiment item,FALSE,Flanker Task.osexp,/Users/RMILLER1/Library/CloudStorage/OneDrive-tarleton.edu(NTNET)/TSU Online Classes/Graduate Class/ Adv Quant Methods and Design,FALSE,mono,FALSE,18,no,white,no,no,768,legacy,36,36,/Users/RMILLER1/Library/CloudStorage/OneDrive-tarleton.edu(NTNET)/TSU Online Classes/Graduate Class/ Adv Quant Methods and Design/RM-subject1.csv,legacy,Melodramatic Milgram,4.0.5,0,s,NA,s,NA,NA,s,492,NA,2791,NA,NA,492,2,legacy,1024,2,48000,-16,experiment,HHSHH,0,even,15466,NA,NA,16330,NA,NA,72790,71769,12661,NA,NA,72894,73386,72786,72893,12610,Flanker Task,36,16591,37,1024
97,97,447,447,#000000,legacy,legacy,legacy,congruent,1,undefined,1,s,0,0,0,37,37,0,37,37,0,0,0,37,37,37,37,0,Fri Sep 15 17:01:01 2023,1500,The main experiment item,FALSE,Flanker Task.osexp,/Users/RMILLER1/Library/CloudStorage/OneDrive-tarleton.edu(NTNET)/TSU Online Classes/Graduate Class/ Adv Quant Methods and Design,FALSE,mono,FALSE,18,no,white,no,no,768,legacy,37,37,/Users/RMILLER1/Library/CloudStorage/OneDrive-tarleton.edu(NTNET)/TSU Online Classes/Graduate Class/ Adv Quant Methods and Design/RM-subject1.csv,legacy,Melodramatic Milgram,4.0.5,0,s,NA,s,NA,NA,s,397,NA,2791,NA,NA,397,2,legacy,1024,2,48000,-16,experiment,SSSSS,0,even,15466,NA,NA,16330,NA,NA,74418,73388,12661,NA,NA,74521,74919,74409,74521,12610,Flanker Task,37,16988,38,1024
97,97,446,446,#000000,legacy,legacy,legacy,congruent,1,undefined,1,h,0,0,0,38,38,0,38,38,0,0,0,38,38,38,38,0,Fri Sep 15 17:01:01 2023,1500,The main experiment item,FALSE,Flanker Task.osexp,/Users/RMILLER1/Library/CloudStorage/OneDrive-tarleton.edu(NTNET)/TSU Online Classes/Graduate Class/ Adv Quant Methods and Design,FALSE,mono,FALSE,18,no,white,no,no,768,legacy,38,38,/Users/RMILLER1/Library/CloudStorage/OneDrive-tarleton.edu(NTNET)/TSU Online Classes/Graduate Class/ Adv Quant Methods and Design/RM-subject1.csv,legacy,Melodramatic Milgram,4.0.5,0,h,NA,s,NA,NA,h,415,NA,2791,NA,NA,415,2,legacy,1024,2,48000,-16,experiment,HHHHH,0,even,15466,NA,NA,16330,NA,NA,75952,74921,12661,NA,NA,76053,76468,75942,76053,12610,Flanker Task,38,17403,39,1024
97,97,444,444,#000000,legacy,legacy,legacy,congruent,1,undefined,1,s,0,0,0,39,39,0,39,39,0,0,0,39,39,39,39,0,Fri Sep 15 17:01:01 2023,1500,The main experiment item,FALSE,Flanker Task.osexp,/Users/RMILLER1/Library/CloudStorage/OneDrive-tarleton.edu(NTNET)/TSU Online Classes/Graduate Class/ Adv Quant Methods and Design,FALSE,mono,FALSE,18,no,white,no,no,768,legacy,39,39,/Users/RMILLER1/Library/CloudStorage/OneDrive-tarleton.edu(NTNET)/TSU Online Classes/Graduate Class/ Adv Quant Methods and Design/RM-subject1.csv,legacy,Melodramatic Milgram,4.0.5,0,s,NA,s,NA,NA,s,382,NA,2791,NA,NA,382,2,legacy,1024,2,48000,-16,experiment,SSSSS,0,even,15466,NA,NA,16330,NA,NA,77491,76471,12661,NA,NA,77594,77977,77487,77594,12610,Flanker Task,39,17785,40,1024
97,97,443,443,#000000,legacy,legacy,legacy,congruent,1,undefined,1,h,0,0,0,40,40,0,40,40,0,0,0,40,40,40,40,0,Fri Sep 15 17:01:01 2023,1500,The main experiment item,FALSE,Flanker Task.osexp,/Users/RMILLER1/Library/CloudStorage/OneDrive-tarleton.edu(NTNET)/TSU Online Classes/Graduate Class/ Adv Quant Methods and Design,FALSE,mono,FALSE,18,no,white,no,no,768,legacy,40,40,/Users/RMILLER1/Library/CloudStorage/OneDrive-tarleton.edu(NTNET)/TSU Online Classes/Graduate Class/ Adv Quant Methods and Design/RM-subject1.csv,legacy,Melodramatic Milgram,4.0.5,0,h,NA,s,NA,NA,h,381,NA,2791,NA,NA,381,2,legacy,1024,2,48000,-16,experiment,HHHHH,0,even,15466,NA,NA,16330,NA,NA,79002,77982,12661,NA,NA,79104,79486,78998,79104,12610,Flanker Task,40,18166,41,1024
97,97,441,441,#000000,legacy,legacy,legacy,congruent,1,undefined,1,s,0,0,0,41,41,0,41,41,0,0,0,41,41,41,41,0,Fri Sep 15 17:01:01 2023,1500,The main experiment item,FALSE,Flanker Task.osexp,/Users/RMILLER1/Library/CloudStorage/OneDrive-tarleton.edu(NTNET)/TSU Online Classes/Graduate Class/ Adv Quant Methods and Design,FALSE,mono,FALSE,18,no,white,no,no,768,legacy,41,41,/Users/RMILLER1/Library/CloudStorage/OneDrive-tarleton.edu(NTNET)/TSU Online Classes/Graduate Class/ Adv Quant Methods and Design/RM-subject1.csv,legacy,Melodramatic Milgram,4.0.5,0,s,NA,s,NA,NA,s,374,NA,2791,NA,NA,374,2,legacy,1024,2,48000,-16,experiment,SSSSS,0,even,15466,NA,NA,16330,NA,NA,80508,79489,12661,NA,NA,80617,80991,80504,80617,12610,Flanker Task,41,18540,42,1024
97,97,440,440,#000000,legacy,legacy,legacy,incongruent,1,undefined,1,h,0,0,0,42,42,0,42,42,0,0,0,42,42,42,42,0,Fri Sep 15 17:01:01 2023,1500,The main experiment item,FALSE,Flanker Task.osexp,/Users/RMILLER1/Library/CloudStorage/OneDrive-tarleton.edu(NTNET)/TSU Online Classes/Graduate Class/ Adv Quant Methods and Design,FALSE,mono,FALSE,18,no,white,no,no,768,legacy,42,42,/Users/RMILLER1/Library/CloudStorage/OneDrive-tarleton.edu(NTNET)/TSU Online Classes/Graduate Class/ Adv Quant Methods and Design/RM-subject1.csv,legacy,Melodramatic Milgram,4.0.5,0,h,NA,s,NA,NA,h,381,NA,2791,NA,NA,381,2,legacy,1024,2,48000,-16,experiment,SSHSS,0,even,15466,NA,NA,16330,NA,NA,82019,80994,12661,NA,NA,82120,82501,82011,82120,12610,Flanker Task,42,18921,43,1024
95,95,438,438,#000000,legacy,legacy,legacy,incongruent,0,undefined,0,s,0,0,0,43,43,0,43,43,0,0,0,43,43,43,43,0,Fri Sep 15 17:01:01 2023,1500,The main experiment item,FALSE,Flanker Task.osexp,/Users/RMILLER1/Library/CloudStorage/OneDrive-tarleton.edu(NTNET)/TSU Online Classes/Graduate Class/ Adv Quant Methods and Design,FALSE,mono,FALSE,18,no,white,no,no,768,legacy,43,43,/Users/RMILLER1/Library/CloudStorage/OneDrive-tarleton.edu(NTNET)/TSU Online Classes/Graduate Class/ Adv Quant Methods and Design/RM-subject1.csv,legacy,Melodramatic Milgram,4.0.5,0,h,NA,s,NA,NA,h,371,NA,2791,NA,NA,371,2,legacy,1024,2,48000,-16,experiment,HHSHH,0,even,15466,NA,NA,16330,NA,NA,83525,82503,12661,NA,NA,83634,84005,83522,83634,12610,Flanker Task,42,19292,44,1024
95,95,436,436,#000000,legacy,legacy,legacy,congruent,1,undefined,1,h,0,0,0,44,44,0,44,44,0,0,0,44,44,44,44,0,Fri Sep 15 17:01:01 2023,1500,The main experiment item,FALSE,Flanker Task.osexp,/Users/RMILLER1/Library/CloudStorage/OneDrive-tarleton.edu(NTNET)/TSU Online Classes/Graduate Class/ Adv Quant Methods and Design,FALSE,mono,FALSE,18,no,white,no,no,768,legacy,44,44,/Users/RMILLER1/Library/CloudStorage/OneDrive-tarleton.edu(NTNET)/TSU Online Classes/Graduate Class/ Adv Quant Methods and Design/RM-subject1.csv,legacy,Melodramatic Milgram,4.0.5,0,h,NA,s,NA,NA,h,342,NA,2791,NA,NA,342,2,legacy,1024,2,48000,-16,experiment,HHHHH,0,even,15466,NA,NA,84007,NA,NA,85540,84511,12661,NA,NA,85643,85986,85536,85642,12610,Flanker Task,43,19634,45,1024
95,95,434,434,#000000,legacy,legacy,legacy,congruent,1,undefined,1,h,0,0,0,45,45,0,45,45,0,0,0,45,45,45,45,0,Fri Sep 15 17:01:01 2023,1500,The main experiment item,FALSE,Flanker Task.osexp,/Users/RMILLER1/Library/CloudStorage/OneDrive-tarleton.edu(NTNET)/TSU Online Classes/Graduate Class/ Adv Quant Methods and Design,FALSE,mono,FALSE,18,no,white,no,no,768,legacy,45,45,/Users/RMILLER1/Library/CloudStorage/OneDrive-tarleton.edu(NTNET)/TSU Online Classes/Graduate Class/ Adv Quant Methods and Design/RM-subject1.csv,legacy,Melodramatic Milgram,4.0.5,0,h,NA,s,NA,NA,h,349,NA,2791,NA,NA,349,2,legacy,1024,2,48000,-16,experiment,HHHHH,0,even,15466,NA,NA,84007,NA,NA,87010,85988,12661,NA,NA,87123,87472,87006,87123,12610,Flanker Task,44,19983,46,1024
95,95,432,432,#000000,legacy,legacy,legacy,congruent,1,undefined,1,s,0,0,0,46,46,0,46,46,0,0,0,46,46,46,46,0,Fri Sep 15 17:01:01 2023,1500,The main experiment item,FALSE,Flanker Task.osexp,/Users/RMILLER1/Library/CloudStorage/OneDrive-tarleton.edu(NTNET)/TSU Online Classes/Graduate Class/ Adv Quant Methods and Design,FALSE,mono,FALSE,18,no,white,no,no,768,legacy,46,46,/Users/RMILLER1/Library/CloudStorage/OneDrive-tarleton.edu(NTNET)/TSU Online Classes/Graduate Class/ Adv Quant Methods and Design/RM-subject1.csv,legacy,Melodramatic Milgram,4.0.5,0,s,NA,s,NA,NA,s,333,NA,2791,NA,NA,333,2,legacy,1024,2,48000,-16,experiment,SSSSS,0,even,15466,NA,NA,84007,NA,NA,88498,87474,12661,NA,NA,88601,88935,88493,88601,12610,Flanker Task,45,20316,47,1024
95,95,430,430,#000000,legacy,legacy,legacy,congruent,1,undefined,1,h,0,0,0,47,47,0,47,47,0,0,0,47,47,47,47,0,Fri Sep 15 17:01:01 2023,1500,The main experiment item,FALSE,Flanker Task.osexp,/Users/RMILLER1/Library/CloudStorage/OneDrive-tarleton.edu(NTNET)/TSU Online Classes/Graduate Class/ Adv Quant Methods and Design,FALSE,mono,FALSE,18,no,white,no,no,768,legacy,47,47,/Users/RMILLER1/Library/CloudStorage/OneDrive-tarleton.edu(NTNET)/TSU Online Classes/Graduate Class/ Adv Quant Methods and Design/RM-subject1.csv,legacy,Melodramatic Milgram,4.0.5,0,h,NA,s,NA,NA,h,356,NA,2791,NA,NA,356,2,legacy,1024,2,48000,-16,experiment,HHHHH,0,even,15466,NA,NA,84007,NA,NA,89959,88937,12661,NA,NA,90064,90420,89955,90063,12610,Flanker Task,46,20672,48,1024
95,95,430,430,#000000,legacy,legacy,legacy,incongruent,1,undefined,1,s,0,0,0,48,48,0,48,48,0,0,0,48,48,48,48,0,Fri Sep 15 17:01:01 2023,1500,The main experiment item,FALSE,Flanker Task.osexp,/Users/RMILLER1/Library/CloudStorage/OneDrive-tarleton.edu(NTNET)/TSU Online Classes/Graduate Class/ Adv Quant Methods and Design,FALSE,mono,FALSE,18,no,white,no,no,768,legacy,48,48,/Users/RMILLER1/Library/CloudStorage/OneDrive-tarleton.edu(NTNET)/TSU Online Classes/Graduate Class/ Adv Quant Methods and Design/RM-subject1.csv,legacy,Melodramatic Milgram,4.0.5,0,s,NA,s,NA,NA,s,437,NA,2791,NA,NA,437,2,legacy,1024,2,48000,-16,experiment,HHSHH,0,even,15466,NA,NA,84007,NA,NA,91454,90422,12661,NA,NA,91557,91995,91446,91557,12610,Flanker Task,47,21109,49,1024
96,96,430,430,#000000,legacy,legacy,legacy,congruent,1,undefined,1,s,0,0,0,49,49,0,49,49,0,0,0,49,49,49,49,0,Fri Sep 15 17:01:01 2023,1500,The main experiment item,FALSE,Flanker Task.osexp,/Users/RMILLER1/Library/CloudStorage/OneDrive-tarleton.edu(NTNET)/TSU Online Classes/Graduate Class/ Adv Quant Methods and Design,FALSE,mono,FALSE,18,no,white,no,no,768,legacy,49,49,/Users/RMILLER1/Library/CloudStorage/OneDrive-tarleton.edu(NTNET)/TSU Online Classes/Graduate Class/ Adv Quant Methods and Design/RM-subject1.csv,legacy,Melodramatic Milgram,4.0.5,0,s,NA,s,NA,NA,s,400,NA,2791,NA,NA,400,2,legacy,1024,2,48000,-16,experiment,SSSSS,0,even,15466,NA,NA,84007,NA,NA,93020,91997,12661,NA,NA,93123,93523,93013,93123,12610,Flanker Task,48,21509,50,1024
96,96,429,429,#000000,legacy,legacy,legacy,congruent,1,undefined,1,s,0,0,0,50,50,0,50,50,0,0,0,50,50,50,50,0,Fri Sep 15 17:01:01 2023,1500,The main experiment item,FALSE,Flanker Task.osexp,/Users/RMILLER1/Library/CloudStorage/OneDrive-tarleton.edu(NTNET)/TSU Online Classes/Graduate Class/ Adv Quant Methods and Design,FALSE,mono,FALSE,18,no,white,no,no,768,legacy,50,50,/Users/RMILLER1/Library/CloudStorage/OneDrive-tarleton.edu(NTNET)/TSU Online Classes/Graduate Class/ Adv Quant Methods and Design/RM-subject1.csv,legacy,Melodramatic Milgram,4.0.5,0,s,NA,s,NA,NA,s,399,NA,2791,NA,NA,399,2,legacy,1024,2,48000,-16,experiment,SSSSS,0,even,15466,NA,NA,84007,NA,NA,94552,93526,12661,NA,NA,94654,95054,94543,94654,12610,Flanker Task,49,21908,51,1024
94,94,428,428,#000000,legacy,legacy,legacy,congruent,0,undefined,0,s,0,0,0,51,51,0,51,51,0,0,0,51,51,51,51,0,Fri Sep 15 17:01:01 2023,1500,The main experiment item,FALSE,Flanker Task.osexp,/Users/RMILLER1/Library/CloudStorage/OneDrive-tarleton.edu(NTNET)/TSU Online Classes/Graduate Class/ Adv Quant Methods and Design,FALSE,mono,FALSE,18,no,white,no,no,768,legacy,51,51,/Users/RMILLER1/Library/CloudStorage/OneDrive-tarleton.edu(NTNET)/TSU Online Classes/Graduate Class/ Adv Quant Methods and Design/RM-subject1.csv,legacy,Melodramatic Milgram,4.0.5,0,h,NA,s,NA,NA,h,354,NA,2791,NA,NA,354,2,legacy,1024,2,48000,-16,experiment,SSSSS,0,even,15466,NA,NA,84007,NA,NA,96077,95056,12661,NA,NA,96185,96540,96073,96185,12610,Flanker Task,49,22262,52,1024
92,92,426,426,#000000,legacy,legacy,legacy,incongruent,0,undefined,0,h,0,0,0,52,52,0,52,52,0,0,0,52,52,52,52,0,Fri Sep 15 17:01:01 2023,1500,The main experiment item,FALSE,Flanker Task.osexp,/Users/RMILLER1/Library/CloudStorage/OneDrive-tarleton.edu(NTNET)/TSU Online Classes/Graduate Class/ Adv Quant Methods and Design,FALSE,mono,FALSE,18,no,white,no,no,768,legacy,52,52,/Users/RMILLER1/Library/CloudStorage/OneDrive-tarleton.edu(NTNET)/TSU Online Classes/Graduate Class/ Adv Quant Methods and Design/RM-subject1.csv,legacy,Melodramatic Milgram,4.0.5,0,s,NA,s,NA,NA,s,363,NA,2791,NA,NA,363,2,legacy,1024,2,48000,-16,experiment,SSHSS,0,even,15466,NA,NA,96541,NA,NA,98074,97044,12661,NA,NA,98177,98540,98071,98177,12610,Flanker Task,49,22625,53,1024
92,92,428,428,#000000,legacy,legacy,legacy,incongruent,1,undefined,1,s,0,0,0,53,53,0,53,53,0,0,0,53,53,53,53,0,Fri Sep 15 17:01:01 2023,1500,The main experiment item,FALSE,Flanker Task.osexp,/Users/RMILLER1/Library/CloudStorage/OneDrive-tarleton.edu(NTNET)/TSU Online Classes/Graduate Class/ Adv Quant Methods and Design,FALSE,mono,FALSE,18,no,white,no,no,768,legacy,53,53,/Users/RMILLER1/Library/CloudStorage/OneDrive-tarleton.edu(NTNET)/TSU Online Classes/Graduate Class/ Adv Quant Methods and Design/RM-subject1.csv,legacy,Melodramatic Milgram,4.0.5,0,s,NA,s,NA,NA,s,496,NA,2791,NA,NA,496,2,legacy,1024,2,48000,-16,experiment,HHSHH,0,even,15466,NA,NA,98542,NA,NA,100088,99051,12661,NA,NA,100191,100687,100081,100191,12610,Flanker Task,50,23121,54,1024
92,92,426,426,#000000,legacy,legacy,legacy,congruent,1,undefined,1,h,0,0,0,54,54,0,54,54,0,0,0,54,54,54,54,0,Fri Sep 15 17:01:01 2023,1500,The main experiment item,FALSE,Flanker Task.osexp,/Users/RMILLER1/Library/CloudStorage/OneDrive-tarleton.edu(NTNET)/TSU Online Classes/Graduate Class/ Adv Quant Methods and Design,FALSE,mono,FALSE,18,no,white,no,no,768,legacy,54,54,/Users/RMILLER1/Library/CloudStorage/OneDrive-tarleton.edu(NTNET)/TSU Online Classes/Graduate Class/ Adv Quant Methods and Design/RM-subject1.csv,legacy,Melodramatic Milgram,4.0.5,0,h,NA,s,NA,NA,h,358,NA,2791,NA,NA,358,2,legacy,1024,2,48000,-16,experiment,HHHHH,0,even,15466,NA,NA,98542,NA,NA,101708,100689,12661,NA,NA,101810,102168,101705,101810,12610,Flanker Task,51,23479,55,1024
92,92,426,426,#000000,legacy,legacy,legacy,incongruent,1,undefined,1,s,0,0,0,55,55,0,55,55,0,0,0,55,55,55,55,0,Fri Sep 15 17:01:01 2023,1500,The main experiment item,FALSE,Flanker Task.osexp,/Users/RMILLER1/Library/CloudStorage/OneDrive-tarleton.edu(NTNET)/TSU Online Classes/Graduate Class/ Adv Quant Methods and Design,FALSE,mono,FALSE,18,no,white,no,no,768,legacy,55,55,/Users/RMILLER1/Library/CloudStorage/OneDrive-tarleton.edu(NTNET)/TSU Online Classes/Graduate Class/ Adv Quant Methods and Design/RM-subject1.csv,legacy,Melodramatic Milgram,4.0.5,0,s,NA,s,NA,NA,s,414,NA,2791,NA,NA,414,2,legacy,1024,2,48000,-16,experiment,HHSHH,0,even,15466,NA,NA,98542,NA,NA,103200,102171,12661,NA,NA,103304,103718,103194,103304,12610,Flanker Task,52,23893,56,1024
92,92,425,425,#000000,legacy,legacy,legacy,congruent,1,undefined,1,h,0,0,0,56,56,0,56,56,0,0,0,56,56,56,56,0,Fri Sep 15 17:01:01 2023,1500,The main experiment item,FALSE,Flanker Task.osexp,/Users/RMILLER1/Library/CloudStorage/OneDrive-tarleton.edu(NTNET)/TSU Online Classes/Graduate Class/ Adv Quant Methods and Design,FALSE,mono,FALSE,18,no,white,no,no,768,legacy,56,56,/Users/RMILLER1/Library/CloudStorage/OneDrive-tarleton.edu(NTNET)/TSU Online Classes/Graduate Class/ Adv Quant Methods and Design/RM-subject1.csv,legacy,Melodramatic Milgram,4.0.5,0,h,NA,s,NA,NA,h,370,NA,2791,NA,NA,370,2,legacy,1024,2,48000,-16,experiment,HHHHH,0,even,15466,NA,NA,98542,NA,NA,104742,103720,12661,NA,NA,104852,105223,104739,104851,12610,Flanker Task,53,24263,57,1024
93,93,426,426,#000000,legacy,legacy,legacy,incongruent,1,undefined,1,s,0,0,0,57,57,0,57,57,0,0,0,57,57,57,57,0,Fri Sep 15 17:01:01 2023,1500,The main experiment item,FALSE,Flanker Task.osexp,/Users/RMILLER1/Library/CloudStorage/OneDrive-tarleton.edu(NTNET)/TSU Online Classes/Graduate Class/ Adv Quant Methods and Design,FALSE,mono,FALSE,18,no,white,no,no,768,legacy,57,57,/Users/RMILLER1/Library/CloudStorage/OneDrive-tarleton.edu(NTNET)/TSU Online Classes/Graduate Class/ Adv Quant Methods and Design/RM-subject1.csv,legacy,Melodramatic Milgram,4.0.5,0,s,NA,s,NA,NA,s,446,NA,2791,NA,NA,446,2,legacy,1024,2,48000,-16,experiment,HHSHH,0,even,15466,NA,NA,98542,NA,NA,106251,105225,12661,NA,NA,106354,106801,106242,106353,12610,Flanker Task,54,24709,58,1024
93,93,425,425,#000000,legacy,legacy,legacy,congruent,1,undefined,1,s,0,0,0,58,58,0,58,58,0,0,0,58,58,58,58,0,Fri Sep 15 17:01:01 2023,1500,The main experiment item,FALSE,Flanker Task.osexp,/Users/RMILLER1/Library/CloudStorage/OneDrive-tarleton.edu(NTNET)/TSU Online Classes/Graduate Class/ Adv Quant Methods and Design,FALSE,mono,FALSE,18,no,white,no,no,768,legacy,58,58,/Users/RMILLER1/Library/CloudStorage/OneDrive-tarleton.edu(NTNET)/TSU Online Classes/Graduate Class/ Adv Quant Methods and Design/RM-subject1.csv,legacy,Melodramatic Milgram,4.0.5,0,s,NA,s,NA,NA,s,378,NA,2791,NA,NA,378,2,legacy,1024,2,48000,-16,experiment,SSSSS,0,even,15466,NA,NA,98542,NA,NA,107824,106803,12661,NA,NA,107927,108306,107819,107927,12610,Flanker Task,55,25087,59,1024
93,93,424,424,#000000,legacy,legacy,legacy,congruent,1,undefined,1,h,0,0,0,59,59,0,59,59,0,0,0,59,59,59,59,0,Fri Sep 15 17:01:01 2023,1500,The main experiment item,FALSE,Flanker Task.osexp,/Users/RMILLER1/Library/CloudStorage/OneDrive-tarleton.edu(NTNET)/TSU Online Classes/Graduate Class/ Adv Quant Methods and Design,FALSE,mono,FALSE,18,no,white,no,no,768,legacy,59,59,/Users/RMILLER1/Library/CloudStorage/OneDrive-tarleton.edu(NTNET)/TSU Online Classes/Graduate Class/ Adv Quant Methods and Design/RM-subject1.csv,legacy,Melodramatic Milgram,4.0.5,0,h,NA,s,NA,NA,h,355,NA,2791,NA,NA,355,2,legacy,1024,2,48000,-16,experiment,HHHHH,0,even,15466,NA,NA,98542,NA,NA,109332,108308,12661,NA,NA,109435,109791,109326,109435,12610,Flanker Task,56,25442,60,1024
93,93,424,424,#000000,legacy,legacy,legacy,incongruent,1,undefined,1,h,0,0,0,60,60,0,60,60,0,0,0,60,60,60,60,0,Fri Sep 15 17:01:01 2023,1500,The main experiment item,FALSE,Flanker Task.osexp,/Users/RMILLER1/Library/CloudStorage/OneDrive-tarleton.edu(NTNET)/TSU Online Classes/Graduate Class/ Adv Quant Methods and Design,FALSE,mono,FALSE,18,no,white,no,no,768,legacy,60,60,/Users/RMILLER1/Library/CloudStorage/OneDrive-tarleton.edu(NTNET)/TSU Online Classes/Graduate Class/ Adv Quant Methods and Design/RM-subject1.csv,legacy,Melodramatic Milgram,4.0.5,0,h,NA,s,NA,NA,h,445,NA,2791,NA,NA,445,2,legacy,1024,2,48000,-16,experiment,SSHSS,0,even,15466,NA,NA,98542,NA,NA,110817,109793,12661,NA,NA,110920,111365,110810,110920,12610,Flanker Task,57,25887,61,1024
93,93,424,424,#000000,legacy,legacy,legacy,congruent,1,undefined,1,h,0,0,0,61,61,0,61,61,0,0,0,61,61,61,61,0,Fri Sep 15 17:01:01 2023,1500,The main experiment item,FALSE,Flanker Task.osexp,/Users/RMILLER1/Library/CloudStorage/OneDrive-tarleton.edu(NTNET)/TSU Online Classes/Graduate Class/ Adv Quant Methods and Design,FALSE,mono,FALSE,18,no,white,no,no,768,legacy,61,61,/Users/RMILLER1/Library/CloudStorage/OneDrive-tarleton.edu(NTNET)/TSU Online Classes/Graduate Class/ Adv Quant Methods and Design/RM-subject1.csv,legacy,Melodramatic Milgram,4.0.5,0,h,NA,s,NA,NA,h,451,NA,2791,NA,NA,451,2,legacy,1024,2,48000,-16,experiment,HHHHH,0,even,15466,NA,NA,98542,NA,NA,112388,111367,12661,NA,NA,112491,112942,112385,112491,12610,Flanker Task,58,26338,62,1024
93,93,425,425,#000000,legacy,legacy,legacy,congruent,1,undefined,1,s,0,0,0,62,62,0,62,62,0,0,0,62,62,62,62,0,Fri Sep 15 17:01:01 2023,1500,The main experiment item,FALSE,Flanker Task.osexp,/Users/RMILLER1/Library/CloudStorage/OneDrive-tarleton.edu(NTNET)/TSU Online Classes/Graduate Class/ Adv Quant Methods and Design,FALSE,mono,FALSE,18,no,white,no,no,768,legacy,62,62,/Users/RMILLER1/Library/CloudStorage/OneDrive-tarleton.edu(NTNET)/TSU Online Classes/Graduate Class/ Adv Quant Methods and Design/RM-subject1.csv,legacy,Melodramatic Milgram,4.0.5,0,s,NA,s,NA,NA,s,447,NA,2791,NA,NA,447,2,legacy,1024,2,48000,-16,experiment,SSSSS,0,even,15466,NA,NA,98542,NA,NA,113968,112944,12661,NA,NA,114071,114519,113960,114070,12610,Flanker Task,59,26785,63,1024
93,93,425,425,#000000,legacy,legacy,legacy,incongruent,1,undefined,1,s,0,0,0,63,63,0,63,63,0,0,0,63,63,63,63,0,Fri Sep 15 17:01:01 2023,1500,The main experiment item,FALSE,Flanker Task.osexp,/Users/RMILLER1/Library/CloudStorage/OneDrive-tarleton.edu(NTNET)/TSU Online Classes/Graduate Class/ Adv Quant Methods and Design,FALSE,mono,FALSE,18,no,white,no,no,768,legacy,63,63,/Users/RMILLER1/Library/CloudStorage/OneDrive-tarleton.edu(NTNET)/TSU Online Classes/Graduate Class/ Adv Quant Methods and Design/RM-subject1.csv,legacy,Melodramatic Milgram,4.0.5,0,s,NA,s,NA,NA,s,447,NA,2791,NA,NA,447,2,legacy,1024,2,48000,-16,experiment,HHSHH,0,even,15466,NA,NA,98542,NA,NA,115542,114521,12661,NA,NA,115644,116091,115538,115643,12610,Flanker Task,60,27232,64,1024
93,93,426,426,#000000,legacy,legacy,legacy,incongruent,1,undefined,1,s,0,0,0,64,64,0,64,64,0,0,0,64,64,64,64,0,Fri Sep 15 17:01:01 2023,1500,The main experiment item,FALSE,Flanker Task.osexp,/Users/RMILLER1/Library/CloudStorage/OneDrive-tarleton.edu(NTNET)/TSU Online Classes/Graduate Class/ Adv Quant Methods and Design,FALSE,mono,FALSE,18,no,white,no,no,768,legacy,64,64,/Users/RMILLER1/Library/CloudStorage/OneDrive-tarleton.edu(NTNET)/TSU Online Classes/Graduate Class/ Adv Quant Methods and Design/RM-subject1.csv,legacy,Melodramatic Milgram,4.0.5,0,s,NA,s,NA,NA,s,488,NA,2791,NA,NA,488,2,legacy,1024,2,48000,-16,experiment,HHSHH,0,even,15466,NA,NA,98542,NA,NA,117119,116093,12661,NA,NA,117222,117711,117112,117222,12610,Flanker Task,61,27720,65,1024
93,93,425,425,#000000,legacy,legacy,legacy,congruent,1,undefined,1,s,0,0,0,65,65,0,65,65,0,0,0,65,65,65,65,0,Fri Sep 15 17:01:01 2023,1500,The main experiment item,FALSE,Flanker Task.osexp,/Users/RMILLER1/Library/CloudStorage/OneDrive-tarleton.edu(NTNET)/TSU Online Classes/Graduate Class/ Adv Quant Methods and Design,FALSE,mono,FALSE,18,no,white,no,no,768,legacy,65,65,/Users/RMILLER1/Library/CloudStorage/OneDrive-tarleton.edu(NTNET)/TSU Online Classes/Graduate Class/ Adv Quant Methods and Design/RM-subject1.csv,legacy,Melodramatic Milgram,4.0.5,0,s,NA,s,NA,NA,s,386,NA,2791,NA,NA,386,2,legacy,1024,2,48000,-16,experiment,SSSSS,0,even,15466,NA,NA,98542,NA,NA,118730,117715,12661,NA,NA,118832,119219,118726,118832,12610,Flanker Task,62,28106,66,1024
94,94,426,426,#000000,legacy,legacy,legacy,congruent,1,undefined,1,h,0,0,0,66,66,0,66,66,0,0,0,66,66,66,66,0,Fri Sep 15 17:01:01 2023,1500,The main experiment item,FALSE,Flanker Task.osexp,/Users/RMILLER1/Library/CloudStorage/OneDrive-tarleton.edu(NTNET)/TSU Online Classes/Graduate Class/ Adv Quant Methods and Design,FALSE,mono,FALSE,18,no,white,no,no,768,legacy,66,66,/Users/RMILLER1/Library/CloudStorage/OneDrive-tarleton.edu(NTNET)/TSU Online Classes/Graduate Class/ Adv Quant Methods and Design/RM-subject1.csv,legacy,Melodramatic Milgram,4.0.5,0,h,NA,s,NA,NA,h,488,NA,2791,NA,NA,488,2,legacy,1024,2,48000,-16,experiment,HHHHH,0,even,15466,NA,NA,98542,NA,NA,120242,119221,12661,NA,NA,120352,120840,120238,120351,12610,Flanker Task,63,28594,67,1024
94,94,427,427,#000000,legacy,legacy,legacy,incongruent,1,undefined,1,s,0,0,0,67,67,0,67,67,0,0,0,67,67,67,67,0,Fri Sep 15 17:01:01 2023,1500,The main experiment item,FALSE,Flanker Task.osexp,/Users/RMILLER1/Library/CloudStorage/OneDrive-tarleton.edu(NTNET)/TSU Online Classes/Graduate Class/ Adv Quant Methods and Design,FALSE,mono,FALSE,18,no,white,no,no,768,legacy,67,67,/Users/RMILLER1/Library/CloudStorage/OneDrive-tarleton.edu(NTNET)/TSU Online Classes/Graduate Class/ Adv Quant Methods and Design/RM-subject1.csv,legacy,Melodramatic Milgram,4.0.5,0,s,NA,s,NA,NA,s,492,NA,2791,NA,NA,492,2,legacy,1024,2,48000,-16,experiment,HHSHH,0,even,15466,NA,NA,98542,NA,NA,121864,120842,12661,NA,NA,121967,122460,121859,121967,12610,Flanker Task,64,29086,68,1024
94,94,427,427,#000000,legacy,legacy,legacy,incongruent,1,undefined,1,s,0,0,0,68,68,0,68,68,0,0,0,68,68,68,68,0,Fri Sep 15 17:01:01 2023,1500,The main experiment item,FALSE,Flanker Task.osexp,/Users/RMILLER1/Library/CloudStorage/OneDrive-tarleton.edu(NTNET)/TSU Online Classes/Graduate Class/ Adv Quant Methods and Design,FALSE,mono,FALSE,18,no,white,no,no,768,legacy,68,68,/Users/RMILLER1/Library/CloudStorage/OneDrive-tarleton.edu(NTNET)/TSU Online Classes/Graduate Class/ Adv Quant Methods and Design/RM-subject1.csv,legacy,Melodramatic Milgram,4.0.5,0,s,NA,s,NA,NA,s,397,NA,2791,NA,NA,397,2,legacy,1024,2,48000,-16,experiment,HHSHH,0,even,15466,NA,NA,98542,NA,NA,123487,122463,12661,NA,NA,123590,123988,123481,123589,12610,Flanker Task,65,29483,69,1024
94,94,428,428,#000000,legacy,legacy,legacy,congruent,1,undefined,1,s,0,0,0,69,69,0,69,69,0,0,0,69,69,69,69,0,Fri Sep 15 17:01:01 2023,1500,The main experiment item,FALSE,Flanker Task.osexp,/Users/RMILLER1/Library/CloudStorage/OneDrive-tarleton.edu(NTNET)/TSU Online Classes/Graduate Class/ Adv Quant Methods and Design,FALSE,mono,FALSE,18,no,white,no,no,768,legacy,69,69,/Users/RMILLER1/Library/CloudStorage/OneDrive-tarleton.edu(NTNET)/TSU Online Classes/Graduate Class/ Adv Quant Methods and Design/RM-subject1.csv,legacy,Melodramatic Milgram,4.0.5,0,s,NA,s,NA,NA,s,524,NA,2791,NA,NA,524,2,legacy,1024,2,48000,-16,experiment,SSSSS,0,even,15466,NA,NA,98542,NA,NA,125009,123990,12661,NA,NA,125111,125636,125006,125111,12610,Flanker Task,66,30007,70,1024
94,94,429,429,#000000,legacy,legacy,legacy,incongruent,1,undefined,1,h,0,0,0,70,70,0,70,70,0,0,0,70,70,70,70,0,Fri Sep 15 17:01:01 2023,1500,The main experiment item,FALSE,Flanker Task.osexp,/Users/RMILLER1/Library/CloudStorage/OneDrive-tarleton.edu(NTNET)/TSU Online Classes/Graduate Class/ Adv Quant Methods and Design,FALSE,mono,FALSE,18,no,white,no,no,768,legacy,70,70,/Users/RMILLER1/Library/CloudStorage/OneDrive-tarleton.edu(NTNET)/TSU Online Classes/Graduate Class/ Adv Quant Methods and Design/RM-subject1.csv,legacy,Melodramatic Milgram,4.0.5,0,h,NA,s,NA,NA,h,482,NA,2791,NA,NA,482,2,legacy,1024,2,48000,-16,experiment,SSHSS,0,even,15466,NA,NA,98542,NA,NA,126668,125640,12661,NA,NA,126769,127252,126661,126769,12610,Flanker Task,67,30489,71,1024
94,94,431,431,#000000,legacy,legacy,legacy,incongruent,1,undefined,1,h,0,0,0,71,71,0,71,71,0,0,0,71,71,71,71,0,Fri Sep 15 17:01:01 2023,1500,The main experiment item,FALSE,Flanker Task.osexp,/Users/RMILLER1/Library/CloudStorage/OneDrive-tarleton.edu(NTNET)/TSU Online Classes/Graduate Class/ Adv Quant Methods and Design,FALSE,mono,FALSE,18,no,white,no,no,768,legacy,71,71,/Users/RMILLER1/Library/CloudStorage/OneDrive-tarleton.edu(NTNET)/TSU Online Classes/Graduate Class/ Adv Quant Methods and Design/RM-subject1.csv,legacy,Melodramatic Milgram,4.0.5,0,h,NA,s,NA,NA,h,590,NA,2791,NA,NA,590,2,legacy,1024,2,48000,-16,experiment,SSHSS,0,even,15466,NA,NA,98542,NA,NA,128274,127254,12661,NA,NA,128375,128966,128271,128375,12610,Flanker Task,68,31079,72,1024
94,94,433,433,#000000,legacy,legacy,legacy,incongruent,1,undefined,1,s,0,0,0,72,72,0,72,72,0,0,0,72,72,72,72,0,Fri Sep 15 17:01:01 2023,1500,The main experiment item,FALSE,Flanker Task.osexp,/Users/RMILLER1/Library/CloudStorage/OneDrive-tarleton.edu(NTNET)/TSU Online Classes/Graduate Class/ Adv Quant Methods and Design,FALSE,mono,FALSE,18,no,white,no,no,768,legacy,72,72,/Users/RMILLER1/Library/CloudStorage/OneDrive-tarleton.edu(NTNET)/TSU Online Classes/Graduate Class/ Adv Quant Methods and Design/RM-subject1.csv,legacy,Melodramatic Milgram,4.0.5,0,s,NA,s,NA,NA,s,560,NA,2791,NA,NA,560,2,legacy,1024,2,48000,-16,experiment,HHSHH,0,even,15466,NA,NA,98542,NA,NA,129989,128968,12661,NA,NA,130092,130653,129985,130092,12610,Flanker Task,69,31639,73,1024
94,94,435,435,#000000,legacy,legacy,legacy,incongruent,1,undefined,1,h,0,0,0,73,73,0,73,73,0,0,0,73,73,73,73,0,Fri Sep 15 17:01:01 2023,1500,The main experiment item,FALSE,Flanker Task.osexp,/Users/RMILLER1/Library/CloudStorage/OneDrive-tarleton.edu(NTNET)/TSU Online Classes/Graduate Class/ Adv Quant Methods and Design,FALSE,mono,FALSE,18,no,white,no,no,768,legacy,73,73,/Users/RMILLER1/Library/CloudStorage/OneDrive-tarleton.edu(NTNET)/TSU Online Classes/Graduate Class/ Adv Quant Methods and Design/RM-subject1.csv,legacy,Melodramatic Milgram,4.0.5,0,h,NA,s,NA,NA,h,559,NA,2791,NA,NA,559,2,legacy,1024,2,48000,-16,experiment,SSHSS,0,even,15466,NA,NA,98542,NA,NA,131674,130655,12661,NA,NA,131778,132338,131671,131778,12610,Flanker Task,70,32198,74,1024
94,94,434,434,#000000,legacy,legacy,legacy,congruent,1,undefined,1,h,0,0,0,74,74,0,74,74,0,0,0,74,74,74,74,0,Fri Sep 15 17:01:01 2023,1500,The main experiment item,FALSE,Flanker Task.osexp,/Users/RMILLER1/Library/CloudStorage/OneDrive-tarleton.edu(NTNET)/TSU Online Classes/Graduate Class/ Adv Quant Methods and Design,FALSE,mono,FALSE,18,no,white,no,no,768,legacy,74,74,/Users/RMILLER1/Library/CloudStorage/OneDrive-tarleton.edu(NTNET)/TSU Online Classes/Graduate Class/ Adv Quant Methods and Design/RM-subject1.csv,legacy,Melodramatic Milgram,4.0.5,0,h,NA,s,NA,NA,h,417,NA,2791,NA,NA,417,2,legacy,1024,2,48000,-16,experiment,HHHHH,0,even,15466,NA,NA,98542,NA,NA,133368,132340,12661,NA,NA,133470,133888,133359,133470,12610,Flanker Task,71,32615,75,1024
94,94,433,433,#000000,legacy,legacy,legacy,incongruent,1,undefined,1,s,0,0,0,75,75,0,75,75,0,0,0,75,75,75,75,0,Fri Sep 15 17:01:01 2023,1500,The main experiment item,FALSE,Flanker Task.osexp,/Users/RMILLER1/Library/CloudStorage/OneDrive-tarleton.edu(NTNET)/TSU Online Classes/Graduate Class/ Adv Quant Methods and Design,FALSE,mono,FALSE,18,no,white,no,no,768,legacy,75,75,/Users/RMILLER1/Library/CloudStorage/OneDrive-tarleton.edu(NTNET)/TSU Online Classes/Graduate Class/ Adv Quant Methods and Design/RM-subject1.csv,legacy,Melodramatic Milgram,4.0.5,0,s,NA,s,NA,NA,s,342,NA,2791,NA,NA,342,2,legacy,1024,2,48000,-16,experiment,HHSHH,0,even,15466,NA,NA,98542,NA,NA,134908,133890,12661,NA,NA,135010,135353,134906,135010,12610,Flanker Task,72,32957,76,1024
94,94,434,434,#000000,legacy,legacy,legacy,incongruent,1,undefined,1,s,0,0,0,76,76,0,76,76,0,0,0,76,76,76,76,0,Fri Sep 15 17:01:01 2023,1500,The main experiment item,FALSE,Flanker Task.osexp,/Users/RMILLER1/Library/CloudStorage/OneDrive-tarleton.edu(NTNET)/TSU Online Classes/Graduate Class/ Adv Quant Methods and Design,FALSE,mono,FALSE,18,no,white,no,no,768,legacy,76,76,/Users/RMILLER1/Library/CloudStorage/OneDrive-tarleton.edu(NTNET)/TSU Online Classes/Graduate Class/ Adv Quant Methods and Design/RM-subject1.csv,legacy,Melodramatic Milgram,4.0.5,0,s,NA,s,NA,NA,s,465,NA,2791,NA,NA,465,2,legacy,1024,2,48000,-16,experiment,HHSHH,0,even,15466,NA,NA,98542,NA,NA,136384,135355,12661,NA,NA,136487,136953,136376,136486,12610,Flanker Task,73,33422,77,1024
93,93,433,433,#000000,legacy,legacy,legacy,congruent,0,undefined,0,h,0,0,0,77,77,0,77,77,0,0,0,77,77,77,77,0,Fri Sep 15 17:01:01 2023,1500,The main experiment item,FALSE,Flanker Task.osexp,/Users/RMILLER1/Library/CloudStorage/OneDrive-tarleton.edu(NTNET)/TSU Online Classes/Graduate Class/ Adv Quant Methods and Design,FALSE,mono,FALSE,18,no,white,no,no,768,legacy,77,77,/Users/RMILLER1/Library/CloudStorage/OneDrive-tarleton.edu(NTNET)/TSU Online Classes/Graduate Class/ Adv Quant Methods and Design/RM-subject1.csv,legacy,Melodramatic Milgram,4.0.5,0,s,NA,s,NA,NA,s,365,NA,2791,NA,NA,365,2,legacy,1024,2,48000,-16,experiment,HHHHH,0,even,15466,NA,NA,98542,NA,NA,137967,136955,12661,NA,NA,138069,138435,137964,138069,12610,Flanker Task,73,33787,78,1024
93,93,432,432,#000000,legacy,legacy,legacy,congruent,1,undefined,1,h,0,0,0,78,78,0,78,78,0,0,0,78,78,78,78,0,Fri Sep 15 17:01:01 2023,1500,The main experiment item,FALSE,Flanker Task.osexp,/Users/RMILLER1/Library/CloudStorage/OneDrive-tarleton.edu(NTNET)/TSU Online Classes/Graduate Class/ Adv Quant Methods and Design,FALSE,mono,FALSE,18,no,white,no,no,768,legacy,78,78,/Users/RMILLER1/Library/CloudStorage/OneDrive-tarleton.edu(NTNET)/TSU Online Classes/Graduate Class/ Adv Quant Methods and Design/RM-subject1.csv,legacy,Melodramatic Milgram,4.0.5,0,h,NA,s,NA,NA,h,398,NA,2791,NA,NA,398,2,legacy,1024,2,48000,-16,experiment,HHHHH,0,even,15466,NA,NA,138437,NA,NA,139985,138946,12661,NA,NA,140087,140486,139979,140087,12610,Flanker Task,74,34185,79,1024
93,93,434,434,#000000,legacy,legacy,legacy,incongruent,1,undefined,1,h,0,0,0,79,79,0,79,79,0,0,0,79,79,79,79,0,Fri Sep 15 17:01:01 2023,1500,The main experiment item,FALSE,Flanker Task.osexp,/Users/RMILLER1/Library/CloudStorage/OneDrive-tarleton.edu(NTNET)/TSU Online Classes/Graduate Class/ Adv Quant Methods and Design,FALSE,mono,FALSE,18,no,white,no,no,768,legacy,79,79,/Users/RMILLER1/Library/CloudStorage/OneDrive-tarleton.edu(NTNET)/TSU Online Classes/Graduate Class/ Adv Quant Methods and Design/RM-subject1.csv,legacy,Melodramatic Milgram,4.0.5,0,h,NA,s,NA,NA,h,574,NA,2791,NA,NA,574,2,legacy,1024,2,48000,-16,experiment,SSHSS,0,even,15466,NA,NA,138437,NA,NA,141510,140489,12661,NA,NA,141617,142192,141506,141617,12610,Flanker Task,75,34759,80,1024
93,93,437,437,#000000,legacy,legacy,legacy,incongruent,1,undefined,1,s,0,0,0,80,80,0,80,80,0,0,0,80,80,80,80,0,Fri Sep 15 17:01:01 2023,600,The main experiment item,FALSE,Flanker Task.osexp,/Users/RMILLER1/Library/CloudStorage/OneDrive-tarleton.edu(NTNET)/TSU Online Classes/Graduate Class/ Adv Quant Methods and Design,FALSE,mono,FALSE,18,no,white,no,no,768,legacy,0,79,/Users/RMILLER1/Library/CloudStorage/OneDrive-tarleton.edu(NTNET)/TSU Online Classes/Graduate Class/ Adv Quant Methods and Design/RM-subject1.csv,legacy,Melodramatic Milgram,4.0.5,0,s,NA,s,s,NA,s,667,NA,2791,1267,NA,667,2,legacy,1024,2,48000,-16,experiment,HHSHH,0,even,15466,144467,NA,138437,NA,NA,144483,142194,12661,143199,NA,144585,145253,144480,144585,12610,Flanker Task,76,35426,81,1024
92,92,437,437,#000000,legacy,legacy,legacy,incongruent,0,undefined,0,h,0,0,0,81,81,0,81,81,0,0,0,81,81,81,81,0,Fri Sep 15 17:01:01 2023,600,The main experiment item,FALSE,Flanker Task.osexp,/Users/RMILLER1/Library/CloudStorage/OneDrive-tarleton.edu(NTNET)/TSU Online Classes/Graduate Class/ Adv Quant Methods and Design,FALSE,mono,FALSE,18,no,white,no,no,768,legacy,1,79,/Users/RMILLER1/Library/CloudStorage/OneDrive-tarleton.edu(NTNET)/TSU Online Classes/Graduate Class/ Adv Quant Methods and Design/RM-subject1.csv,legacy,Melodramatic Milgram,4.0.5,0,s,NA,s,s,NA,s,410,NA,2791,1267,NA,410,2,legacy,1024,2,48000,-16,experiment,SSHSS,0,even,15466,144467,NA,138437,145254,NA,146787,145757,12661,143199,NA,146890,147301,146782,146889,12610,Flanker Task,76,35836,82,1024
92,92,437,437,#000000,legacy,legacy,legacy,incongruent,1,undefined,1,s,0,0,0,82,82,0,82,82,0,0,0,82,82,82,82,0,Fri Sep 15 17:01:01 2023,600,The main experiment item,FALSE,Flanker Task.osexp,/Users/RMILLER1/Library/CloudStorage/OneDrive-tarleton.edu(NTNET)/TSU Online Classes/Graduate Class/ Adv Quant Methods and Design,FALSE,mono,FALSE,18,no,white,no,no,768,legacy,2,79,/Users/RMILLER1/Library/CloudStorage/OneDrive-tarleton.edu(NTNET)/TSU Online Classes/Graduate Class/ Adv Quant Methods and Design/RM-subject1.csv,legacy,Melodramatic Milgram,4.0.5,0,s,NA,s,s,NA,s,480,NA,2791,1267,NA,480,2,legacy,1024,2,48000,-16,experiment,HHSHH,0,even,15466,144467,NA,147303,145254,NA,148833,147806,12661,143199,NA,148937,149418,148830,148937,12610,Flanker Task,77,36316,83,1024
92,92,437,437,#000000,legacy,legacy,legacy,congruent,1,undefined,1,s,0,0,0,83,83,0,83,83,0,0,0,83,83,83,83,0,Fri Sep 15 17:01:01 2023,600,The main experiment item,FALSE,Flanker Task.osexp,/Users/RMILLER1/Library/CloudStorage/OneDrive-tarleton.edu(NTNET)/TSU Online Classes/Graduate Class/ Adv Quant Methods and Design,FALSE,mono,FALSE,18,no,white,no,no,768,legacy,3,79,/Users/RMILLER1/Library/CloudStorage/OneDrive-tarleton.edu(NTNET)/TSU Online Classes/Graduate Class/ Adv Quant Methods and Design/RM-subject1.csv,legacy,Melodramatic Milgram,4.0.5,0,s,NA,s,s,NA,s,407,NA,2791,1267,NA,407,2,legacy,1024,2,48000,-16,experiment,SSSSS,0,even,15466,144467,NA,147303,145254,NA,150440,149420,12661,143199,NA,150543,150951,150437,150543,12610,Flanker Task,78,36723,84,1024
91,91,436,436,#000000,legacy,legacy,legacy,incongruent,0,undefined,0,h,0,0,0,84,84,0,84,84,0,0,0,84,84,84,84,0,Fri Sep 15 17:01:01 2023,600,The main experiment item,FALSE,Flanker Task.osexp,/Users/RMILLER1/Library/CloudStorage/OneDrive-tarleton.edu(NTNET)/TSU Online Classes/Graduate Class/ Adv Quant Methods and Design,FALSE,mono,FALSE,18,no,white,no,no,768,legacy,4,79,/Users/RMILLER1/Library/CloudStorage/OneDrive-tarleton.edu(NTNET)/TSU Online Classes/Graduate Class/ Adv Quant Methods and Design/RM-subject1.csv,legacy,Melodramatic Milgram,4.0.5,0,s,NA,s,s,NA,s,355,NA,2791,1267,NA,355,2,legacy,1024,2,48000,-16,experiment,SSHSS,0,even,15466,144467,NA,147303,145254,NA,151973,150953,12661,143199,NA,152076,152431,151969,152075,12610,Flanker Task,78,37078,85,1024
91,91,435,435,#000000,legacy,legacy,legacy,incongruent,1,undefined,1,h,0,0,0,85,85,0,85,85,0,0,0,85,85,85,85,0,Fri Sep 15 17:01:01 2023,600,The main experiment item,FALSE,Flanker Task.osexp,/Users/RMILLER1/Library/CloudStorage/OneDrive-tarleton.edu(NTNET)/TSU Online Classes/Graduate Class/ Adv Quant Methods and Design,FALSE,mono,FALSE,18,no,white,no,no,768,legacy,5,79,/Users/RMILLER1/Library/CloudStorage/OneDrive-tarleton.edu(NTNET)/TSU Online Classes/Graduate Class/ Adv Quant Methods and Design/RM-subject1.csv,legacy,Melodramatic Milgram,4.0.5,0,h,NA,s,s,NA,h,406,NA,2791,1267,NA,406,2,legacy,1024,2,48000,-16,experiment,SSHSS,0,even,15466,144467,NA,152433,145254,NA,153968,152936,12661,143199,NA,154070,154477,153962,154070,12610,Flanker Task,79,37484,86,1024
91,91,435,435,#000000,legacy,legacy,legacy,congruent,1,undefined,1,h,0,0,0,86,86,0,86,86,0,0,0,86,86,86,86,0,Fri Sep 15 17:01:01 2023,600,The main experiment item,FALSE,Flanker Task.osexp,/Users/RMILLER1/Library/CloudStorage/OneDrive-tarleton.edu(NTNET)/TSU Online Classes/Graduate Class/ Adv Quant Methods and Design,FALSE,mono,FALSE,18,no,white,no,no,768,legacy,6,79,/Users/RMILLER1/Library/CloudStorage/OneDrive-tarleton.edu(NTNET)/TSU Online Classes/Graduate Class/ Adv Quant Methods and Design/RM-subject1.csv,legacy,Melodramatic Milgram,4.0.5,0,h,NA,s,s,NA,h,373,NA,2791,1267,NA,373,2,legacy,1024,2,48000,-16,experiment,HHHHH,0,even,15466,144467,NA,152433,145254,NA,155508,154482,12661,143199,NA,155611,155985,155504,155611,12610,Flanker Task,80,37857,87,1024
92,92,434,434,#000000,legacy,legacy,legacy,congruent,1,undefined,1,s,0,0,0,87,87,0,87,87,0,0,0,87,87,87,87,0,Fri Sep 15 17:01:01 2023,600,The main experiment item,FALSE,Flanker Task.osexp,/Users/RMILLER1/Library/CloudStorage/OneDrive-tarleton.edu(NTNET)/TSU Online Classes/Graduate Class/ Adv Quant Methods and Design,FALSE,mono,FALSE,18,no,white,no,no,768,legacy,7,79,/Users/RMILLER1/Library/CloudStorage/OneDrive-tarleton.edu(NTNET)/TSU Online Classes/Graduate Class/ Adv Quant Methods and Design/RM-subject1.csv,legacy,Melodramatic Milgram,4.0.5,0,s,NA,s,s,NA,s,339,NA,2791,1267,NA,339,2,legacy,1024,2,48000,-16,experiment,SSSSS,0,even,15466,144467,NA,152433,145254,NA,157007,155987,12661,143199,NA,157111,157451,157004,157111,12610,Flanker Task,81,38196,88,1024
92,92,434,434,#000000,legacy,legacy,legacy,incongruent,1,undefined,1,s,0,0,0,88,88,0,88,88,0,0,0,88,88,88,88,0,Fri Sep 15 17:01:01 2023,600,The main experiment item,FALSE,Flanker Task.osexp,/Users/RMILLER1/Library/CloudStorage/OneDrive-tarleton.edu(NTNET)/TSU Online Classes/Graduate Class/ Adv Quant Methods and Design,FALSE,mono,FALSE,18,no,white,no,no,768,legacy,8,79,/Users/RMILLER1/Library/CloudStorage/OneDrive-tarleton.edu(NTNET)/TSU Online Classes/Graduate Class/ Adv Quant Methods and Design/RM-subject1.csv,legacy,Melodramatic Milgram,4.0.5,0,s,NA,s,s,NA,s,466,NA,2791,1267,NA,466,2,legacy,1024,2,48000,-16,experiment,HHSHH,0,even,15466,144467,NA,152433,145254,NA,158477,157453,12661,143199,NA,158585,159052,158474,158585,12610,Flanker Task,82,38662,89,1024
91,91,433,433,#000000,legacy,legacy,legacy,incongruent,0,undefined,0,h,0,0,0,89,89,0,89,89,0,0,0,89,89,89,89,0,Fri Sep 15 17:01:01 2023,600,The main experiment item,FALSE,Flanker Task.osexp,/Users/RMILLER1/Library/CloudStorage/OneDrive-tarleton.edu(NTNET)/TSU Online Classes/Graduate Class/ Adv Quant Methods and Design,FALSE,mono,FALSE,18,no,white,no,no,768,legacy,9,79,/Users/RMILLER1/Library/CloudStorage/OneDrive-tarleton.edu(NTNET)/TSU Online Classes/Graduate Class/ Adv Quant Methods and Design/RM-subject1.csv,legacy,Melodramatic Milgram,4.0.5,0,s,NA,s,s,NA,s,374,NA,2791,1267,NA,374,2,legacy,1024,2,48000,-16,experiment,SSHSS,0,even,15466,144467,NA,152433,145254,NA,160075,159054,12661,143199,NA,160178,160553,160071,160178,12610,Flanker Task,82,39036,90,1024
91,91,434,434,#000000,legacy,legacy,legacy,congruent,1,undefined,1,s,0,0,0,90,90,0,90,90,0,0,0,90,90,90,90,0,Fri Sep 15 17:01:01 2023,600,The main experiment item,FALSE,Flanker Task.osexp,/Users/RMILLER1/Library/CloudStorage/OneDrive-tarleton.edu(NTNET)/TSU Online Classes/Graduate Class/ Adv Quant Methods and Design,FALSE,mono,FALSE,18,no,white,no,no,768,legacy,10,79,/Users/RMILLER1/Library/CloudStorage/OneDrive-tarleton.edu(NTNET)/TSU Online Classes/Graduate Class/ Adv Quant Methods and Design/RM-subject1.csv,legacy,Melodramatic Milgram,4.0.5,0,s,NA,s,s,NA,s,491,NA,2791,1267,NA,491,2,legacy,1024,2,48000,-16,experiment,SSSSS,0,even,15466,144467,NA,160555,145254,NA,162090,161059,12661,143199,NA,162193,162684,162087,162193,12610,Flanker Task,83,39527,91,1024
91,91,434,434,#000000,legacy,legacy,legacy,congruent,1,undefined,1,s,0,0,0,91,91,0,91,91,0,0,0,91,91,91,91,0,Fri Sep 15 17:01:01 2023,600,The main experiment item,FALSE,Flanker Task.osexp,/Users/RMILLER1/Library/CloudStorage/OneDrive-tarleton.edu(NTNET)/TSU Online Classes/Graduate Class/ Adv Quant Methods and Design,FALSE,mono,FALSE,18,no,white,no,no,768,legacy,11,79,/Users/RMILLER1/Library/CloudStorage/OneDrive-tarleton.edu(NTNET)/TSU Online Classes/Graduate Class/ Adv Quant Methods and Design/RM-subject1.csv,legacy,Melodramatic Milgram,4.0.5,0,s,NA,s,s,NA,s,476,NA,2791,1267,NA,476,2,legacy,1024,2,48000,-16,experiment,SSSSS,0,even,15466,144467,NA,160555,145254,NA,163707,162687,12661,143199,NA,163810,164287,163703,163810,12610,Flanker Task,84,40003,92,1024
91,91,434,434,#000000,legacy,legacy,legacy,congruent,1,undefined,1,h,0,0,0,92,92,0,92,92,0,0,0,92,92,92,92,0,Fri Sep 15 17:01:01 2023,600,The main experiment item,FALSE,Flanker Task.osexp,/Users/RMILLER1/Library/CloudStorage/OneDrive-tarleton.edu(NTNET)/TSU Online Classes/Graduate Class/ Adv Quant Methods and Design,FALSE,mono,FALSE,18,no,white,no,no,768,legacy,12,79,/Users/RMILLER1/Library/CloudStorage/OneDrive-tarleton.edu(NTNET)/TSU Online Classes/Graduate Class/ Adv Quant Methods and Design/RM-subject1.csv,legacy,Melodramatic Milgram,4.0.5,0,h,NA,s,s,NA,h,418,NA,2791,1267,NA,418,2,legacy,1024,2,48000,-16,experiment,HHHHH,0,even,15466,144467,NA,160555,145254,NA,165319,164289,12661,143199,NA,165420,165839,165311,165420,12610,Flanker Task,85,40421,93,1024
91,91,434,434,#000000,legacy,legacy,legacy,incongruent,1,undefined,1,s,0,0,0,93,93,0,93,93,0,0,0,93,93,93,93,0,Fri Sep 15 17:01:01 2023,600,The main experiment item,FALSE,Flanker Task.osexp,/Users/RMILLER1/Library/CloudStorage/OneDrive-tarleton.edu(NTNET)/TSU Online Classes/Graduate Class/ Adv Quant Methods and Design,FALSE,mono,FALSE,18,no,white,no,no,768,legacy,13,79,/Users/RMILLER1/Library/CloudStorage/OneDrive-tarleton.edu(NTNET)/TSU Online Classes/Graduate Class/ Adv Quant Methods and Design/RM-subject1.csv,legacy,Melodramatic Milgram,4.0.5,0,s,NA,s,s,NA,s,418,NA,2791,1267,NA,418,2,legacy,1024,2,48000,-16,experiment,HHSHH,0,even,15466,144467,NA,160555,145254,NA,166869,165841,12661,143199,NA,166973,167392,166865,166973,12610,Flanker Task,86,40839,94,1024
91,91,434,434,#000000,legacy,legacy,legacy,congruent,1,undefined,1,h,0,0,0,94,94,0,94,94,0,0,0,94,94,94,94,0,Fri Sep 15 17:01:01 2023,600,The main experiment item,FALSE,Flanker Task.osexp,/Users/RMILLER1/Library/CloudStorage/OneDrive-tarleton.edu(NTNET)/TSU Online Classes/Graduate Class/ Adv Quant Methods and Design,FALSE,mono,FALSE,18,no,white,no,no,768,legacy,14,79,/Users/RMILLER1/Library/CloudStorage/OneDrive-tarleton.edu(NTNET)/TSU Online Classes/Graduate Class/ Adv Quant Methods and Design/RM-subject1.csv,legacy,Melodramatic Milgram,4.0.5,0,h,NA,s,s,NA,h,445,NA,2791,1267,NA,445,2,legacy,1024,2,48000,-16,experiment,HHHHH,0,even,15466,144467,NA,160555,145254,NA,168420,167394,12661,143199,NA,168522,168968,168415,168522,12610,Flanker Task,87,41284,95,1024
91,91,435,435,#000000,legacy,legacy,legacy,congruent,1,undefined,1,h,0,0,0,95,95,0,95,95,0,0,0,95,95,95,95,0,Fri Sep 15 17:01:01 2023,600,The main experiment item,FALSE,Flanker Task.osexp,/Users/RMILLER1/Library/CloudStorage/OneDrive-tarleton.edu(NTNET)/TSU Online Classes/Graduate Class/ Adv Quant Methods and Design,FALSE,mono,FALSE,18,no,white,no,no,768,legacy,15,79,/Users/RMILLER1/Library/CloudStorage/OneDrive-tarleton.edu(NTNET)/TSU Online Classes/Graduate Class/ Adv Quant Methods and Design/RM-subject1.csv,legacy,Melodramatic Milgram,4.0.5,0,h,NA,s,s,NA,h,538,NA,2791,1267,NA,538,2,legacy,1024,2,48000,-16,experiment,HHHHH,0,even,15466,144467,NA,160555,145254,NA,169991,168970,12661,143199,NA,170094,170633,169988,170094,12610,Flanker Task,88,41822,96,1024
90,90,434,434,#000000,legacy,legacy,legacy,incongruent,0,undefined,0,h,0,0,0,96,96,0,96,96,0,0,0,96,96,96,96,0,Fri Sep 15 17:01:01 2023,600,The main experiment item,FALSE,Flanker Task.osexp,/Users/RMILLER1/Library/CloudStorage/OneDrive-tarleton.edu(NTNET)/TSU Online Classes/Graduate Class/ Adv Quant Methods and Design,FALSE,mono,FALSE,18,no,white,no,no,768,legacy,16,79,/Users/RMILLER1/Library/CloudStorage/OneDrive-tarleton.edu(NTNET)/TSU Online Classes/Graduate Class/ Adv Quant Methods and Design/RM-subject1.csv,legacy,Melodramatic Milgram,4.0.5,0,s,NA,s,s,NA,s,362,NA,2791,1267,NA,362,2,legacy,1024,2,48000,-16,experiment,SSHSS,0,even,15466,144467,NA,160555,145254,NA,171656,170635,12661,143199,NA,171759,172123,171652,171759,12610,Flanker Task,88,42184,97,1024
90,90,434,434,#000000,legacy,legacy,legacy,incongruent,1,undefined,1,h,0,0,0,97,97,0,97,97,0,0,0,97,97,97,97,0,Fri Sep 15 17:01:01 2023,600,The main experiment item,FALSE,Flanker Task.osexp,/Users/RMILLER1/Library/CloudStorage/OneDrive-tarleton.edu(NTNET)/TSU Online Classes/Graduate Class/ Adv Quant Methods and Design,FALSE,mono,FALSE,18,no,white,no,no,768,legacy,17,79,/Users/RMILLER1/Library/CloudStorage/OneDrive-tarleton.edu(NTNET)/TSU Online Classes/Graduate Class/ Adv Quant Methods and Design/RM-subject1.csv,legacy,Melodramatic Milgram,4.0.5,0,h,NA,s,s,NA,h,409,NA,2791,1267,NA,409,2,legacy,1024,2,48000,-16,experiment,SSHSS,0,even,15466,144467,NA,172125,145254,NA,173656,172628,12661,143199,NA,173759,174169,173653,173758,12610,Flanker Task,89,42593,98,1024
90,90,434,434,#000000,legacy,legacy,legacy,congruent,1,undefined,1,s,0,0,0,98,98,0,98,98,0,0,0,98,98,98,98,0,Fri Sep 15 17:01:01 2023,600,The main experiment item,FALSE,Flanker Task.osexp,/Users/RMILLER1/Library/CloudStorage/OneDrive-tarleton.edu(NTNET)/TSU Online Classes/Graduate Class/ Adv Quant Methods and Design,FALSE,mono,FALSE,18,no,white,no,no,768,legacy,18,79,/Users/RMILLER1/Library/CloudStorage/OneDrive-tarleton.edu(NTNET)/TSU Online Classes/Graduate Class/ Adv Quant Methods and Design/RM-subject1.csv,legacy,Melodramatic Milgram,4.0.5,0,s,NA,s,s,NA,s,390,NA,2791,1267,NA,390,2,legacy,1024,2,48000,-16,experiment,SSSSS,0,even,15466,144467,NA,172125,145254,NA,175201,174171,12661,143199,NA,175304,175695,175194,175303,12610,Flanker Task,90,42983,99,1024
91,91,434,434,#000000,legacy,legacy,legacy,congruent,1,undefined,1,h,0,0,0,99,99,0,99,99,0,0,0,99,99,99,99,0,Fri Sep 15 17:01:01 2023,600,The main experiment item,FALSE,Flanker Task.osexp,/Users/RMILLER1/Library/CloudStorage/OneDrive-tarleton.edu(NTNET)/TSU Online Classes/Graduate Class/ Adv Quant Methods and Design,FALSE,mono,FALSE,18,no,white,no,no,768,legacy,19,79,/Users/RMILLER1/Library/CloudStorage/OneDrive-tarleton.edu(NTNET)/TSU Online Classes/Graduate Class/ Adv Quant Methods and Design/RM-subject1.csv,legacy,Melodramatic Milgram,4.0.5,0,h,NA,s,s,NA,h,448,NA,2791,1267,NA,448,2,legacy,1024,2,48000,-16,experiment,HHHHH,0,even,15466,144467,NA,172125,145254,NA,176718,175699,12661,143199,NA,176821,177269,176714,176821,12610,Flanker Task,91,43431,100,1024
91,91,433,433,#000000,legacy,legacy,legacy,congruent,1,undefined,1,h,0,0,0,100,100,0,100,100,0,0,0,100,100,100,100,0,Fri Sep 15 17:01:01 2023,600,The main experiment item,FALSE,Flanker Task.osexp,/Users/RMILLER1/Library/CloudStorage/OneDrive-tarleton.edu(NTNET)/TSU Online Classes/Graduate Class/ Adv Quant Methods and Design,FALSE,mono,FALSE,18,no,white,no,no,768,legacy,20,79,/Users/RMILLER1/Library/CloudStorage/OneDrive-tarleton.edu(NTNET)/TSU Online Classes/Graduate Class/ Adv Quant Methods and Design/RM-subject1.csv,legacy,Melodramatic Milgram,4.0.5,0,h,NA,s,s,NA,h,352,NA,2791,1267,NA,352,2,legacy,1024,2,48000,-16,experiment,HHHHH,0,even,15466,144467,NA,172125,145254,NA,178293,177271,12661,143199,NA,178401,178754,178289,178400,12610,Flanker Task,92,43783,101,1024
91,91,433,433,#000000,legacy,legacy,legacy,congruent,1,undefined,1,h,0,0,0,101,101,0,101,101,0,0,0,101,101,101,101,0,Fri Sep 15 17:01:01 2023,600,The main experiment item,FALSE,Flanker Task.osexp,/Users/RMILLER1/Library/CloudStorage/OneDrive-tarleton.edu(NTNET)/TSU Online Classes/Graduate Class/ Adv Quant Methods and Design,FALSE,mono,FALSE,18,no,white,no,no,768,legacy,21,79,/Users/RMILLER1/Library/CloudStorage/OneDrive-tarleton.edu(NTNET)/TSU Online Classes/Graduate Class/ Adv Quant Methods and Design/RM-subject1.csv,legacy,Melodramatic Milgram,4.0.5,0,h,NA,s,s,NA,h,386,NA,2791,1267,NA,386,2,legacy,1024,2,48000,-16,experiment,HHHHH,0,even,15466,144467,NA,172125,145254,NA,179774,178756,12661,143199,NA,179877,180264,179771,179877,12610,Flanker Task,93,44169,102,1024
91,91,433,433,#000000,legacy,legacy,legacy,incongruent,1,undefined,1,s,0,0,0,102,102,0,102,102,0,0,0,102,102,102,102,0,Fri Sep 15 17:01:01 2023,600,The main experiment item,FALSE,Flanker Task.osexp,/Users/RMILLER1/Library/CloudStorage/OneDrive-tarleton.edu(NTNET)/TSU Online Classes/Graduate Class/ Adv Quant Methods and Design,FALSE,mono,FALSE,18,no,white,no,no,768,legacy,22,79,/Users/RMILLER1/Library/CloudStorage/OneDrive-tarleton.edu(NTNET)/TSU Online Classes/Graduate Class/ Adv Quant Methods and Design/RM-subject1.csv,legacy,Melodramatic Milgram,4.0.5,0,s,NA,s,s,NA,s,445,NA,2791,1267,NA,445,2,legacy,1024,2,48000,-16,experiment,HHSHH,0,even,15466,144467,NA,172125,145254,NA,181288,180266,12661,143199,NA,181392,181838,181284,181392,12610,Flanker Task,94,44614,103,1024
91,91,432,432,#000000,legacy,legacy,legacy,incongruent,1,undefined,1,h,0,0,0,103,103,0,103,103,0,0,0,103,103,103,103,0,Fri Sep 15 17:01:01 2023,600,The main experiment item,FALSE,Flanker Task.osexp,/Users/RMILLER1/Library/CloudStorage/OneDrive-tarleton.edu(NTNET)/TSU Online Classes/Graduate Class/ Adv Quant Methods and Design,FALSE,mono,FALSE,18,no,white,no,no,768,legacy,23,79,/Users/RMILLER1/Library/CloudStorage/OneDrive-tarleton.edu(NTNET)/TSU Online Classes/Graduate Class/ Adv Quant Methods and Design/RM-subject1.csv,legacy,Melodramatic Milgram,4.0.5,0,h,NA,s,s,NA,h,402,NA,2791,1267,NA,402,2,legacy,1024,2,48000,-16,experiment,SSHSS,0,even,15466,144467,NA,172125,145254,NA,182864,181840,12661,143199,NA,182967,183370,182859,182966,12610,Flanker Task,95,45016,104,1024
91,91,432,432,#000000,legacy,legacy,legacy,incongruent,1,undefined,1,s,0,0,0,104,104,0,104,104,0,0,0,104,104,104,104,0,Fri Sep 15 17:01:01 2023,600,The main experiment item,FALSE,Flanker Task.osexp,/Users/RMILLER1/Library/CloudStorage/OneDrive-tarleton.edu(NTNET)/TSU Online Classes/Graduate Class/ Adv Quant Methods and Design,FALSE,mono,FALSE,18,no,white,no,no,768,legacy,24,79,/Users/RMILLER1/Library/CloudStorage/OneDrive-tarleton.edu(NTNET)/TSU Online Classes/Graduate Class/ Adv Quant Methods and Design/RM-subject1.csv,legacy,Melodramatic Milgram,4.0.5,0,s,NA,s,s,NA,s,398,NA,2791,1267,NA,398,2,legacy,1024,2,48000,-16,experiment,HHSHH,0,even,15466,144467,NA,172125,145254,NA,184394,183372,12661,143199,NA,184501,184900,184390,184501,12610,Flanker Task,96,45414,105,1024
90,90,431,431,#000000,legacy,legacy,legacy,congruent,0,undefined,0,s,0,0,0,105,105,0,105,105,0,0,0,105,105,105,105,0,Fri Sep 15 17:01:01 2023,600,The main experiment item,FALSE,Flanker Task.osexp,/Users/RMILLER1/Library/CloudStorage/OneDrive-tarleton.edu(NTNET)/TSU Online Classes/Graduate Class/ Adv Quant Methods and Design,FALSE,mono,FALSE,18,no,white,no,no,768,legacy,25,79,/Users/RMILLER1/Library/CloudStorage/OneDrive-tarleton.edu(NTNET)/TSU Online Classes/Graduate Class/ Adv Quant Methods and Design/RM-subject1.csv,legacy,Melodramatic Milgram,4.0.5,0,h,NA,s,s,NA,h,376,NA,2791,1267,NA,376,2,legacy,1024,2,48000,-16,experiment,SSSSS,0,even,15466,144467,NA,172125,145254,NA,185923,184902,12661,143199,NA,186027,186404,185920,186027,12610,Flanker Task,96,45790,106,1024
90,90,431,431,#000000,legacy,legacy,legacy,congruent,1,undefined,1,h,0,0,0,106,106,0,106,106,0,0,0,106,106,106,106,0,Fri Sep 15 17:01:01 2023,600,The main experiment item,FALSE,Flanker Task.osexp,/Users/RMILLER1/Library/CloudStorage/OneDrive-tarleton.edu(NTNET)/TSU Online Classes/Graduate Class/ Adv Quant Methods and Design,FALSE,mono,FALSE,18,no,white,no,no,768,legacy,26,79,/Users/RMILLER1/Library/CloudStorage/OneDrive-tarleton.edu(NTNET)/TSU Online Classes/Graduate Class/ Adv Quant Methods and Design/RM-subject1.csv,legacy,Melodramatic Milgram,4.0.5,0,h,NA,s,s,NA,h,394,NA,2791,1267,NA,394,2,legacy,1024,2,48000,-16,experiment,HHHHH,0,even,15466,144467,NA,186406,145254,NA,187936,186909,12661,143199,NA,188039,188434,187933,188038,12610,Flanker Task,97,46184,107,1024
90,90,431,431,#000000,legacy,legacy,legacy,congruent,1,undefined,1,s,0,0,0,107,107,0,107,107,0,0,0,107,107,107,107,0,Fri Sep 15 17:01:01 2023,600,The main experiment item,FALSE,Flanker Task.osexp,/Users/RMILLER1/Library/CloudStorage/OneDrive-tarleton.edu(NTNET)/TSU Online Classes/Graduate Class/ Adv Quant Methods and Design,FALSE,mono,FALSE,18,no,white,no,no,768,legacy,27,79,/Users/RMILLER1/Library/CloudStorage/OneDrive-tarleton.edu(NTNET)/TSU Online Classes/Graduate Class/ Adv Quant Methods and Design/RM-subject1.csv,legacy,Melodramatic Milgram,4.0.5,0,s,NA,s,s,NA,s,400,NA,2791,1267,NA,400,2,legacy,1024,2,48000,-16,experiment,SSSSS,0,even,15466,144467,NA,186406,145254,NA,189457,188436,12661,143199,NA,189560,189961,189453,189560,12610,Flanker Task,98,46584,108,1024
90,90,430,430,#000000,legacy,legacy,legacy,congruent,1,undefined,1,h,0,0,0,108,108,0,108,108,0,0,0,108,108,108,108,0,Fri Sep 15 17:01:01 2023,600,The main experiment item,FALSE,Flanker Task.osexp,/Users/RMILLER1/Library/CloudStorage/OneDrive-tarleton.edu(NTNET)/TSU Online Classes/Graduate Class/ Adv Quant Methods and Design,FALSE,mono,FALSE,18,no,white,no,no,768,legacy,28,79,/Users/RMILLER1/Library/CloudStorage/OneDrive-tarleton.edu(NTNET)/TSU Online Classes/Graduate Class/ Adv Quant Methods and Design/RM-subject1.csv,legacy,Melodramatic Milgram,4.0.5,0,h,NA,s,s,NA,h,380,NA,2791,1267,NA,380,2,legacy,1024,2,48000,-16,experiment,HHHHH,0,even,15466,144467,NA,186406,145254,NA,190986,189963,12661,143199,NA,191089,191471,190981,191089,12610,Flanker Task,99,46964,109,1024
90,90,431,431,#000000,legacy,legacy,legacy,incongruent,1,undefined,1,s,0,0,0,109,109,0,109,109,0,0,0,109,109,109,109,0,Fri Sep 15 17:01:01 2023,600,The main experiment item,FALSE,Flanker Task.osexp,/Users/RMILLER1/Library/CloudStorage/OneDrive-tarleton.edu(NTNET)/TSU Online Classes/Graduate Class/ Adv Quant Methods and Design,FALSE,mono,FALSE,18,no,white,no,no,768,legacy,29,79,/Users/RMILLER1/Library/CloudStorage/OneDrive-tarleton.edu(NTNET)/TSU Online Classes/Graduate Class/ Adv Quant Methods and Design/RM-subject1.csv,legacy,Melodramatic Milgram,4.0.5,0,s,NA,s,s,NA,s,535,NA,2791,1267,NA,535,2,legacy,1024,2,48000,-16,experiment,HHSHH,0,even,15466,144467,NA,186406,145254,NA,192493,191473,12661,143199,NA,192597,193133,192490,192596,12610,Flanker Task,100,47499,110,1024
90,90,432,432,#000000,legacy,legacy,legacy,incongruent,1,undefined,1,s,0,0,0,110,110,0,110,110,0,0,0,110,110,110,110,0,Fri Sep 15 17:01:01 2023,600,The main experiment item,FALSE,Flanker Task.osexp,/Users/RMILLER1/Library/CloudStorage/OneDrive-tarleton.edu(NTNET)/TSU Online Classes/Graduate Class/ Adv Quant Methods and Design,FALSE,mono,FALSE,18,no,white,no,no,768,legacy,30,79,/Users/RMILLER1/Library/CloudStorage/OneDrive-tarleton.edu(NTNET)/TSU Online Classes/Graduate Class/ Adv Quant Methods and Design/RM-subject1.csv,legacy,Melodramatic Milgram,4.0.5,0,s,NA,s,s,NA,s,475,NA,2791,1267,NA,475,2,legacy,1024,2,48000,-16,experiment,HHSHH,0,even,15466,144467,NA,186406,145254,NA,194156,193135,12661,143199,NA,194259,194734,194152,194259,12610,Flanker Task,101,47974,111,1024
91,91,431,431,#000000,legacy,legacy,legacy,congruent,1,undefined,1,h,0,0,0,111,111,0,111,111,0,0,0,111,111,111,111,0,Fri Sep 15 17:01:01 2023,600,The main experiment item,FALSE,Flanker Task.osexp,/Users/RMILLER1/Library/CloudStorage/OneDrive-tarleton.edu(NTNET)/TSU Online Classes/Graduate Class/ Adv Quant Methods and Design,FALSE,mono,FALSE,18,no,white,no,no,768,legacy,31,79,/Users/RMILLER1/Library/CloudStorage/OneDrive-tarleton.edu(NTNET)/TSU Online Classes/Graduate Class/ Adv Quant Methods and Design/RM-subject1.csv,legacy,Melodramatic Milgram,4.0.5,0,h,NA,s,s,NA,h,375,NA,2791,1267,NA,375,2,legacy,1024,2,48000,-16,experiment,HHHHH,0,even,15466,144467,NA,186406,145254,NA,195757,194737,12661,143199,NA,195861,196237,195754,195861,12610,Flanker Task,102,48349,112,1024
91,91,431,431,#000000,legacy,legacy,legacy,congruent,1,undefined,1,s,0,0,0,112,112,0,112,112,0,0,0,112,112,112,112,0,Fri Sep 15 17:01:01 2023,600,The main experiment item,FALSE,Flanker Task.osexp,/Users/RMILLER1/Library/CloudStorage/OneDrive-tarleton.edu(NTNET)/TSU Online Classes/Graduate Class/ Adv Quant Methods and Design,FALSE,mono,FALSE,18,no,white,no,no,768,legacy,32,79,/Users/RMILLER1/Library/CloudStorage/OneDrive-tarleton.edu(NTNET)/TSU Online Classes/Graduate Class/ Adv Quant Methods and Design/RM-subject1.csv,legacy,Melodramatic Milgram,4.0.5,0,s,NA,s,s,NA,s,354,NA,2791,1267,NA,354,2,legacy,1024,2,48000,-16,experiment,SSSSS,0,even,15466,144467,NA,186406,145254,NA,197260,196239,12661,143199,NA,197367,197722,197257,197367,12610,Flanker Task,103,48703,113,1024
91,91,431,431,#000000,legacy,legacy,legacy,incongruent,1,undefined,1,h,0,0,0,113,113,0,113,113,0,0,0,113,113,113,113,0,Fri Sep 15 17:01:01 2023,600,The main experiment item,FALSE,Flanker Task.osexp,/Users/RMILLER1/Library/CloudStorage/OneDrive-tarleton.edu(NTNET)/TSU Online Classes/Graduate Class/ Adv Quant Methods and Design,FALSE,mono,FALSE,18,no,white,no,no,768,legacy,33,79,/Users/RMILLER1/Library/CloudStorage/OneDrive-tarleton.edu(NTNET)/TSU Online Classes/Graduate Class/ Adv Quant Methods and Design/RM-subject1.csv,legacy,Melodramatic Milgram,4.0.5,0,h,NA,s,s,NA,h,468,NA,2791,1267,NA,468,2,legacy,1024,2,48000,-16,experiment,SSHSS,0,even,15466,144467,NA,186406,145254,NA,198750,197724,12661,143199,NA,198853,199321,198742,198853,12610,Flanker Task,104,49171,114,1024
91,91,431,431,#000000,legacy,legacy,legacy,congruent,1,undefined,1,s,0,0,0,114,114,0,114,114,0,0,0,114,114,114,114,0,Fri Sep 15 17:01:01 2023,600,The main experiment item,FALSE,Flanker Task.osexp,/Users/RMILLER1/Library/CloudStorage/OneDrive-tarleton.edu(NTNET)/TSU Online Classes/Graduate Class/ Adv Quant Methods and Design,FALSE,mono,FALSE,18,no,white,no,no,768,legacy,34,79,/Users/RMILLER1/Library/CloudStorage/OneDrive-tarleton.edu(NTNET)/TSU Online Classes/Graduate Class/ Adv Quant Methods and Design/RM-subject1.csv,legacy,Melodramatic Milgram,4.0.5,0,s,NA,s,s,NA,s,398,NA,2791,1267,NA,398,2,legacy,1024,2,48000,-16,experiment,SSSSS,0,even,15466,144467,NA,186406,145254,NA,200351,199324,12661,143199,NA,200454,200853,200341,200453,12610,Flanker Task,105,49569,115,1024
91,91,431,431,#000000,legacy,legacy,legacy,incongruent,1,undefined,1,s,0,0,0,115,115,0,115,115,0,0,0,115,115,115,115,0,Fri Sep 15 17:01:01 2023,600,The main experiment item,FALSE,Flanker Task.osexp,/Users/RMILLER1/Library/CloudStorage/OneDrive-tarleton.edu(NTNET)/TSU Online Classes/Graduate Class/ Adv Quant Methods and Design,FALSE,mono,FALSE,18,no,white,no,no,768,legacy,35,79,/Users/RMILLER1/Library/CloudStorage/OneDrive-tarleton.edu(NTNET)/TSU Online Classes/Graduate Class/ Adv Quant Methods and Design/RM-subject1.csv,legacy,Melodramatic Milgram,4.0.5,0,s,NA,s,s,NA,s,505,NA,2791,1267,NA,505,2,legacy,1024,2,48000,-16,experiment,HHSHH,0,even,15466,144467,NA,186406,145254,NA,201877,200855,12661,143199,NA,201987,202493,201873,201987,12610,Flanker Task,106,50074,116,1024
90,90,431,431,#000000,legacy,legacy,legacy,incongruent,0,undefined,0,h,0,0,0,116,116,0,116,116,0,0,0,116,116,116,116,0,Fri Sep 15 17:01:01 2023,600,The main experiment item,FALSE,Flanker Task.osexp,/Users/RMILLER1/Library/CloudStorage/OneDrive-tarleton.edu(NTNET)/TSU Online Classes/Graduate Class/ Adv Quant Methods and Design,FALSE,mono,FALSE,18,no,white,no,no,768,legacy,36,79,/Users/RMILLER1/Library/CloudStorage/OneDrive-tarleton.edu(NTNET)/TSU Online Classes/Graduate Class/ Adv Quant Methods and Design/RM-subject1.csv,legacy,Melodramatic Milgram,4.0.5,0,s,NA,s,s,NA,s,428,NA,2791,1267,NA,428,2,legacy,1024,2,48000,-16,experiment,SSHSS,0,even,15466,144467,NA,186406,145254,NA,203519,202495,12661,143199,NA,203622,204051,203511,203622,12610,Flanker Task,106,50502,117,1024
90,90,430,430,#000000,legacy,legacy,legacy,incongruent,1,undefined,1,h,0,0,0,117,117,0,117,117,0,0,0,117,117,117,117,0,Fri Sep 15 17:01:01 2023,600,The main experiment item,FALSE,Flanker Task.osexp,/Users/RMILLER1/Library/CloudStorage/OneDrive-tarleton.edu(NTNET)/TSU Online Classes/Graduate Class/ Adv Quant Methods and Design,FALSE,mono,FALSE,18,no,white,no,no,768,legacy,37,79,/Users/RMILLER1/Library/CloudStorage/OneDrive-tarleton.edu(NTNET)/TSU Online Classes/Graduate Class/ Adv Quant Methods and Design/RM-subject1.csv,legacy,Melodramatic Milgram,4.0.5,0,h,NA,s,s,NA,h,295,NA,2791,1267,NA,295,2,legacy,1024,2,48000,-16,experiment,SSHSS,0,even,15466,144467,NA,204054,145254,NA,205586,204557,12661,143199,NA,205688,205984,205582,205688,12610,Flanker Task,107,50797,118,1024
89,89,430,430,#000000,legacy,legacy,legacy,congruent,0,undefined,0,s,0,0,0,118,118,0,118,118,0,0,0,118,118,118,118,0,Fri Sep 15 17:01:01 2023,600,The main experiment item,FALSE,Flanker Task.osexp,/Users/RMILLER1/Library/CloudStorage/OneDrive-tarleton.edu(NTNET)/TSU Online Classes/Graduate Class/ Adv Quant Methods and Design,FALSE,mono,FALSE,18,no,white,no,no,768,legacy,38,79,/Users/RMILLER1/Library/CloudStorage/OneDrive-tarleton.edu(NTNET)/TSU Online Classes/Graduate Class/ Adv Quant Methods and Design/RM-subject1.csv,legacy,Melodramatic Milgram,4.0.5,0,h,NA,s,s,NA,h,392,NA,2791,1267,NA,392,2,legacy,1024,2,48000,-16,experiment,SSSSS,0,even,15466,144467,NA,204054,145254,NA,207010,205986,12661,143199,NA,207116,207509,207006,207116,12610,Flanker Task,107,51189,119,1024
90,90,429,429,#000000,legacy,legacy,legacy,congruent,1,undefined,1,h,0,0,0,119,119,0,119,119,0,0,0,119,119,119,119,0,Fri Sep 15 17:01:01 2023,600,The main experiment item,FALSE,Flanker Task.osexp,/Users/RMILLER1/Library/CloudStorage/OneDrive-tarleton.edu(NTNET)/TSU Online Classes/Graduate Class/ Adv Quant Methods and Design,FALSE,mono,FALSE,18,no,white,no,no,768,legacy,39,79,/Users/RMILLER1/Library/CloudStorage/OneDrive-tarleton.edu(NTNET)/TSU Online Classes/Graduate Class/ Adv Quant Methods and Design/RM-subject1.csv,legacy,Melodramatic Milgram,4.0.5,0,h,NA,s,s,NA,h,383,NA,2791,1267,NA,383,2,legacy,1024,2,48000,-16,experiment,HHHHH,0,even,15466,144467,NA,207516,145254,NA,209050,208019,12661,143199,NA,209151,209535,209043,209151,12610,Flanker Task,108,51572,120,1024
90,90,429,429,#000000,legacy,legacy,legacy,incongruent,1,undefined,1,s,0,0,0,120,120,0,120,120,0,0,0,120,120,120,120,0,Fri Sep 15 17:01:01 2023,600,The main experiment item,FALSE,Flanker Task.osexp,/Users/RMILLER1/Library/CloudStorage/OneDrive-tarleton.edu(NTNET)/TSU Online Classes/Graduate Class/ Adv Quant Methods and Design,FALSE,mono,FALSE,18,no,white,no,no,768,legacy,40,79,/Users/RMILLER1/Library/CloudStorage/OneDrive-tarleton.edu(NTNET)/TSU Online Classes/Graduate Class/ Adv Quant Methods and Design/RM-subject1.csv,legacy,Melodramatic Milgram,4.0.5,0,s,NA,s,s,NA,s,347,NA,2791,1267,NA,347,2,legacy,1024,2,48000,-16,experiment,HHSHH,0,even,15466,144467,NA,207516,145254,NA,210551,209537,12661,143199,NA,210653,211000,210548,210653,12610,Flanker Task,109,51919,121,1024
90,90,429,429,#000000,legacy,legacy,legacy,incongruent,1,undefined,1,s,0,0,0,121,121,0,121,121,0,0,0,121,121,121,121,0,Fri Sep 15 17:01:01 2023,600,The main experiment item,FALSE,Flanker Task.osexp,/Users/RMILLER1/Library/CloudStorage/OneDrive-tarleton.edu(NTNET)/TSU Online Classes/Graduate Class/ Adv Quant Methods and Design,FALSE,mono,FALSE,18,no,white,no,no,768,legacy,41,79,/Users/RMILLER1/Library/CloudStorage/OneDrive-tarleton.edu(NTNET)/TSU Online Classes/Graduate Class/ Adv Quant Methods and Design/RM-subject1.csv,legacy,Melodramatic Milgram,4.0.5,0,s,NA,s,s,NA,s,443,NA,2791,1267,NA,443,2,legacy,1024,2,48000,-16,experiment,HHSHH,0,even,15466,144467,NA,207516,145254,NA,212025,211003,12661,143199,NA,212131,212575,212022,212131,12610,Flanker Task,110,52362,122,1024
90,90,430,430,#000000,legacy,legacy,legacy,incongruent,1,undefined,1,s,0,0,0,122,122,0,122,122,0,0,0,122,122,122,122,0,Fri Sep 15 17:01:01 2023,600,The main experiment item,FALSE,Flanker Task.osexp,/Users/RMILLER1/Library/CloudStorage/OneDrive-tarleton.edu(NTNET)/TSU Online Classes/Graduate Class/ Adv Quant Methods and Design,FALSE,mono,FALSE,18,no,white,no,no,768,legacy,42,79,/Users/RMILLER1/Library/CloudStorage/OneDrive-tarleton.edu(NTNET)/TSU Online Classes/Graduate Class/ Adv Quant Methods and Design/RM-subject1.csv,legacy,Melodramatic Milgram,4.0.5,0,s,NA,s,s,NA,s,582,NA,2791,1267,NA,582,2,legacy,1024,2,48000,-16,experiment,HHSHH,0,even,15466,144467,NA,207516,145254,NA,213599,212578,12661,143199,NA,213700,214283,213595,213700,12610,Flanker Task,111,52944,123,1024
90,90,430,430,#000000,legacy,legacy,legacy,incongruent,1,undefined,1,h,0,0,0,123,123,0,123,123,0,0,0,123,123,123,123,0,Fri Sep 15 17:01:01 2023,600,The main experiment item,FALSE,Flanker Task.osexp,/Users/RMILLER1/Library/CloudStorage/OneDrive-tarleton.edu(NTNET)/TSU Online Classes/Graduate Class/ Adv Quant Methods and Design,FALSE,mono,FALSE,18,no,white,no,no,768,legacy,43,79,/Users/RMILLER1/Library/CloudStorage/OneDrive-tarleton.edu(NTNET)/TSU Online Classes/Graduate Class/ Adv Quant Methods and Design/RM-subject1.csv,legacy,Melodramatic Milgram,4.0.5,0,h,NA,s,s,NA,h,499,NA,2791,1267,NA,499,2,legacy,1024,2,48000,-16,experiment,SSHSS,0,even,15466,144467,NA,207516,145254,NA,215300,214285,12661,143199,NA,215402,215902,215295,215402,12610,Flanker Task,112,53443,124,1024
90,90,430,430,#000000,legacy,legacy,legacy,congruent,1,undefined,1,h,0,0,0,124,124,0,124,124,0,0,0,124,124,124,124,0,Fri Sep 15 17:01:01 2023,600,The main experiment item,FALSE,Flanker Task.osexp,/Users/RMILLER1/Library/CloudStorage/OneDrive-tarleton.edu(NTNET)/TSU Online Classes/Graduate Class/ Adv Quant Methods and Design,FALSE,mono,FALSE,18,no,white,no,no,768,legacy,44,79,/Users/RMILLER1/Library/CloudStorage/OneDrive-tarleton.edu(NTNET)/TSU Online Classes/Graduate Class/ Adv Quant Methods and Design/RM-subject1.csv,legacy,Melodramatic Milgram,4.0.5,0,h,NA,s,s,NA,h,421,NA,2791,1267,NA,421,2,legacy,1024,2,48000,-16,experiment,HHHHH,0,even,15466,144467,NA,207516,145254,NA,216926,215904,12661,143199,NA,217033,217454,216922,217033,12610,Flanker Task,113,53864,125,1024
90,90,430,430,#000000,legacy,legacy,legacy,congruent,1,undefined,1,s,0,0,0,125,125,0,125,125,0,0,0,125,125,125,125,0,Fri Sep 15 17:01:01 2023,600,The main experiment item,FALSE,Flanker Task.osexp,/Users/RMILLER1/Library/CloudStorage/OneDrive-tarleton.edu(NTNET)/TSU Online Classes/Graduate Class/ Adv Quant Methods and Design,FALSE,mono,FALSE,18,no,white,no,no,768,legacy,45,79,/Users/RMILLER1/Library/CloudStorage/OneDrive-tarleton.edu(NTNET)/TSU Online Classes/Graduate Class/ Adv Quant Methods and Design/RM-subject1.csv,legacy,Melodramatic Milgram,4.0.5,0,s,NA,s,s,NA,s,380,NA,2791,1267,NA,380,2,legacy,1024,2,48000,-16,experiment,SSSSS,0,even,15466,144467,NA,207516,145254,NA,218478,217456,12661,143199,NA,218584,218965,218474,218584,12610,Flanker Task,114,54244,126,1024
90,90,430,430,#000000,legacy,legacy,legacy,incongruent,1,undefined,1,h,0,0,0,126,126,0,126,126,0,0,0,126,126,126,126,0,Fri Sep 15 17:01:01 2023,600,The main experiment item,FALSE,Flanker Task.osexp,/Users/RMILLER1/Library/CloudStorage/OneDrive-tarleton.edu(NTNET)/TSU Online Classes/Graduate Class/ Adv Quant Methods and Design,FALSE,mono,FALSE,18,no,white,no,no,768,legacy,46,79,/Users/RMILLER1/Library/CloudStorage/OneDrive-tarleton.edu(NTNET)/TSU Online Classes/Graduate Class/ Adv Quant Methods and Design/RM-subject1.csv,legacy,Melodramatic Milgram,4.0.5,0,h,NA,s,s,NA,h,463,NA,2791,1267,NA,463,2,legacy,1024,2,48000,-16,experiment,SSHSS,0,even,15466,144467,NA,207516,145254,NA,219990,218967,12661,143199,NA,220097,220561,219986,220097,12610,Flanker Task,115,54707,127,1024
90,90,430,430,#000000,legacy,legacy,legacy,congruent,1,undefined,1,s,0,0,0,127,127,0,127,127,0,0,0,127,127,127,127,0,Fri Sep 15 17:01:01 2023,600,The main experiment item,FALSE,Flanker Task.osexp,/Users/RMILLER1/Library/CloudStorage/OneDrive-tarleton.edu(NTNET)/TSU Online Classes/Graduate Class/ Adv Quant Methods and Design,FALSE,mono,FALSE,18,no,white,no,no,768,legacy,47,79,/Users/RMILLER1/Library/CloudStorage/OneDrive-tarleton.edu(NTNET)/TSU Online Classes/Graduate Class/ Adv Quant Methods and Design/RM-subject1.csv,legacy,Melodramatic Milgram,4.0.5,0,s,NA,s,s,NA,s,377,NA,2791,1267,NA,377,2,legacy,1024,2,48000,-16,experiment,SSSSS,0,even,15466,144467,NA,207516,145254,NA,221588,220563,12661,143199,NA,221691,222069,221579,221691,12610,Flanker Task,116,55084,128,1024
90,90,430,430,#000000,legacy,legacy,legacy,congruent,1,undefined,1,h,0,0,0,128,128,0,128,128,0,0,0,128,128,128,128,0,Fri Sep 15 17:01:01 2023,600,The main experiment item,FALSE,Flanker Task.osexp,/Users/RMILLER1/Library/CloudStorage/OneDrive-tarleton.edu(NTNET)/TSU Online Classes/Graduate Class/ Adv Quant Methods and Design,FALSE,mono,FALSE,18,no,white,no,no,768,legacy,48,79,/Users/RMILLER1/Library/CloudStorage/OneDrive-tarleton.edu(NTNET)/TSU Online Classes/Graduate Class/ Adv Quant Methods and Design/RM-subject1.csv,legacy,Melodramatic Milgram,4.0.5,0,h,NA,s,s,NA,h,404,NA,2791,1267,NA,404,2,legacy,1024,2,48000,-16,experiment,HHHHH,0,even,15466,144467,NA,207516,145254,NA,223091,222071,12661,143199,NA,223194,223598,223087,223194,12610,Flanker Task,117,55488,129,1024
