"acc","accuracy","average_response_time","avg_rt","background","canvas_backend","clock_backend","color_backend","condition","correct","correct_Instructions1","correct_Keyboard_response","correct_response","count_Block1","count_Block2","count_Block3","count_ErrorFeedback","count_Faster","count_Finish","count_Fixation","count_ISI","count_Instructions1","count_Instructions2","count_Instructions3","count_Keyboard_response","count_Logger","count_Sequence","count_Stimulus","count_experiment","datetime","deadline","description","disable_garbage_collection","experiment_file","experiment_path","font_bold","font_family","font_italic","font_size","font_underline","foreground","form_clicks","fullscreen","height","keyboard_backend","live_row","live_row_Block1","logfile","mouse_backend","opensesame_codename","opensesame_version","repeat_cycle","response","response_Finish","response_Instructions1","response_Instructions2","response_Instructions3","response_Keyboard_response","response_time","response_time_Finish","response_time_Instructions1","response_time_Instructions2","response_time_Instructions3","response_time_Keyboard_response","round_decimals","sampler_backend","sound_buf_size","sound_channels","sound_freq","sound_sample_size","start","stimulus","subject_nr","subject_parity","time_Block1","time_Block2","time_Block3","time_ErrorFeedback","time_Faster","time_Finish","time_Fixation","time_ISI","time_Instructions1","time_Instructions2","time_Instructions3","time_Keyboard_response","time_Logger","time_Sequence","time_Stimulus","time_experiment","title","total_correct","total_response_time","total_responses","width"
"100","100","1327","1327","#3d3846","legacy","legacy","legacy","incongruent","1","undefined","1","h","0","0","0","0","0","0","0","0","0","0","0","0","0","0","0","0","Sun Sep 24 13:51:45 2023","1500","The main experiment item","False","FlankerEffectTest.osexp","C:\Users\stcka\OneDrive\Sam Docs\Psychology Program\AP Textbooks\Quantitative Methods","False","mono","False","18","no","white","no","yes","768","legacy","0","0","C:/Users/stcka/OneDrive/Sam Docs/Psychology Program/AP Textbooks/Quantitative Methods/SA-subject-3.csv","legacy","Melodramatic Milgram","4.0.5","0","h","NA","s","NA","NA","h","1327.0","NA","2557","NA","NA","1327","2","legacy","1024","2","48000","-16","experiment","SSHSS","3","odd","4646","NA","NA","NA","NA","NA","4732","NA","2087","NA","NA","4834","6162","4731","4833","2084","Flanker Effect Test","1","1327.0","1","1024"
"100","100","985","985","#3d3846","legacy","legacy","legacy","incongruent","1","undefined","1","s","0","0","0","1","1","0","1","1","0","0","0","1","1","1","1","0","Sun Sep 24 13:51:45 2023","1500","The main experiment item","False","FlankerEffectTest.osexp","C:\Users\stcka\OneDrive\Sam Docs\Psychology Program\AP Textbooks\Quantitative Methods","False","mono","False","18","no","white","no","yes","768","legacy","1","1","C:/Users/stcka/OneDrive/Sam Docs/Psychology Program/AP Textbooks/Quantitative Methods/SA-subject-3.csv","legacy","Melodramatic Milgram","4.0.5","0","s","NA","s","NA","NA","s","644.0","NA","2557","NA","NA","644","2","legacy","1024","2","48000","-16","experiment","HHSHH","3","odd","4646","NA","NA","NA","NA","NA","7201","6172","2087","NA","NA","7302","7946","7200","7302","2084","Flanker Effect Test","2","1971.0","2","1024"
"100","100","870","870","#3d3846","legacy","legacy","legacy","incongruent","1","undefined","1","s","0","0","0","2","2","0","2","2","0","0","0","2","2","2","2","0","Sun Sep 24 13:51:45 2023","1500","The main experiment item","False","FlankerEffectTest.osexp","C:\Users\stcka\OneDrive\Sam Docs\Psychology Program\AP Textbooks\Quantitative Methods","False","mono","False","18","no","white","no","yes","768","legacy","2","2","C:/Users/stcka/OneDrive/Sam Docs/Psychology Program/AP Textbooks/Quantitative Methods/SA-subject-3.csv","legacy","Melodramatic Milgram","4.0.5","0","s","NA","s","NA","NA","s","639.0","NA","2557","NA","NA","639","2","legacy","1024","2","48000","-16","experiment","HHSHH","3","odd","4646","NA","NA","NA","NA","NA","8982","7951","2087","NA","NA","9083","9723","8980","9083","2084","Flanker Effect Test","3","2610.0","3","1024"
"100","100","788","788","#3d3846","legacy","legacy","legacy","incongruent","1","undefined","1","s","0","0","0","3","3","0","3","3","0","0","0","3","3","3","3","0","Sun Sep 24 13:51:45 2023","1500","The main experiment item","False","FlankerEffectTest.osexp","C:\Users\stcka\OneDrive\Sam Docs\Psychology Program\AP Textbooks\Quantitative Methods","False","mono","False","18","no","white","no","yes","768","legacy","3","3","C:/Users/stcka/OneDrive/Sam Docs/Psychology Program/AP Textbooks/Quantitative Methods/SA-subject-3.csv","legacy","Melodramatic Milgram","4.0.5","0","s","NA","s","NA","NA","s","545.0","NA","2557","NA","NA","545","2","legacy","1024","2","48000","-16","experiment","HHSHH","3","odd","4646","NA","NA","NA","NA","NA","10758","9728","2087","NA","NA","10859","11405","10756","10859","2084","Flanker Effect Test","4","3155.0","4","1024"
"100","100","724","724","#3d3846","legacy","legacy","legacy","congruent","1","undefined","1","h","0","0","0","4","4","0","4","4","0","0","0","4","4","4","4","0","Sun Sep 24 13:51:45 2023","1500","The main experiment item","False","FlankerEffectTest.osexp","C:\Users\stcka\OneDrive\Sam Docs\Psychology Program\AP Textbooks\Quantitative Methods","False","mono","False","18","no","white","no","yes","768","legacy","4","4","C:/Users/stcka/OneDrive/Sam Docs/Psychology Program/AP Textbooks/Quantitative Methods/SA-subject-3.csv","legacy","Melodramatic Milgram","4.0.5","0","h","NA","s","NA","NA","h","467.0","NA","2557","NA","NA","467","2","legacy","1024","2","48000","-16","experiment","HHHHH","3","odd","4646","NA","NA","NA","NA","NA","12436","11410","2087","NA","NA","12537","13004","12434","12537","2084","Flanker Effect Test","5","3622.0","5","1024"
"100","100","683","683","#3d3846","legacy","legacy","legacy","congruent","1","undefined","1","s","0","0","0","5","5","0","5","5","0","0","0","5","5","5","5","0","Sun Sep 24 13:51:45 2023","1500","The main experiment item","False","FlankerEffectTest.osexp","C:\Users\stcka\OneDrive\Sam Docs\Psychology Program\AP Textbooks\Quantitative Methods","False","mono","False","18","no","white","no","yes","768","legacy","5","5","C:/Users/stcka/OneDrive/Sam Docs/Psychology Program/AP Textbooks/Quantitative Methods/SA-subject-3.csv","legacy","Melodramatic Milgram","4.0.5","0","s","NA","s","NA","NA","s","479.0","NA","2557","NA","NA","479","2","legacy","1024","2","48000","-16","experiment","SSSSS","3","odd","4646","NA","NA","NA","NA","NA","14036","13009","2087","NA","NA","14137","14617","14035","14136","2084","Flanker Effect Test","6","4101.0","6","1024"
"100","100","658","658","#3d3846","legacy","legacy","legacy","congruent","1","undefined","1","h","0","0","0","6","6","0","6","6","0","0","0","6","6","6","6","0","Sun Sep 24 13:51:45 2023","1500","The main experiment item","False","FlankerEffectTest.osexp","C:\Users\stcka\OneDrive\Sam Docs\Psychology Program\AP Textbooks\Quantitative Methods","False","mono","False","18","no","white","no","yes","768","legacy","6","6","C:/Users/stcka/OneDrive/Sam Docs/Psychology Program/AP Textbooks/Quantitative Methods/SA-subject-3.csv","legacy","Melodramatic Milgram","4.0.5","0","h","NA","s","NA","NA","h","511.0","NA","2557","NA","NA","511","2","legacy","1024","2","48000","-16","experiment","HHHHH","3","odd","4646","NA","NA","NA","NA","NA","15649","14621","2087","NA","NA","15750","16262","15648","15749","2084","Flanker Effect Test","7","4612.0","7","1024"
"100","100","633","633","#3d3846","legacy","legacy","legacy","congruent","1","undefined","1","h","0","0","0","7","7","0","7","7","0","0","0","7","7","7","7","0","Sun Sep 24 13:51:45 2023","1500","The main experiment item","False","FlankerEffectTest.osexp","C:\Users\stcka\OneDrive\Sam Docs\Psychology Program\AP Textbooks\Quantitative Methods","False","mono","False","18","no","white","no","yes","768","legacy","7","7","C:/Users/stcka/OneDrive/Sam Docs/Psychology Program/AP Textbooks/Quantitative Methods/SA-subject-3.csv","legacy","Melodramatic Milgram","4.0.5","0","h","NA","s","NA","NA","h","459.0","NA","2557","NA","NA","459","2","legacy","1024","2","48000","-16","experiment","HHHHH","3","odd","4646","NA","NA","NA","NA","NA","17296","16267","2087","NA","NA","17397","17857","17294","17396","2084","Flanker Effect Test","8","5071.0","8","1024"
"100","100","611","611","#3d3846","legacy","legacy","legacy","congruent","1","undefined","1","s","0","0","0","8","8","0","8","8","0","0","0","8","8","8","8","0","Sun Sep 24 13:51:45 2023","1500","The main experiment item","False","FlankerEffectTest.osexp","C:\Users\stcka\OneDrive\Sam Docs\Psychology Program\AP Textbooks\Quantitative Methods","False","mono","False","18","no","white","no","yes","768","legacy","8","8","C:/Users/stcka/OneDrive/Sam Docs/Psychology Program/AP Textbooks/Quantitative Methods/SA-subject-3.csv","legacy","Melodramatic Milgram","4.0.5","0","s","NA","s","NA","NA","s","429.0","NA","2557","NA","NA","429","2","legacy","1024","2","48000","-16","experiment","SSSSS","3","odd","4646","NA","NA","NA","NA","NA","18900","17861","2087","NA","NA","19002","19431","18899","19002","2084","Flanker Effect Test","9","5500.0","9","1024"
"100","100","600","600","#3d3846","legacy","legacy","legacy","congruent","1","undefined","1","h","0","0","0","9","9","0","9","9","0","0","0","9","9","9","9","0","Sun Sep 24 13:51:45 2023","1500","The main experiment item","False","FlankerEffectTest.osexp","C:\Users\stcka\OneDrive\Sam Docs\Psychology Program\AP Textbooks\Quantitative Methods","False","mono","False","18","no","white","no","yes","768","legacy","9","9","C:/Users/stcka/OneDrive/Sam Docs/Psychology Program/AP Textbooks/Quantitative Methods/SA-subject-3.csv","legacy","Melodramatic Milgram","4.0.5","0","h","NA","s","NA","NA","h","504.0","NA","2557","NA","NA","504","2","legacy","1024","2","48000","-16","experiment","HHHHH","3","odd","4646","NA","NA","NA","NA","NA","20462","19436","2087","NA","NA","20563","21068","20460","20562","2084","Flanker Effect Test","10","6004.0","10","1024"
"100","100","599","599","#3d3846","legacy","legacy","legacy","incongruent","1","undefined","1","h","0","0","0","10","10","0","10","10","0","0","0","10","10","10","10","0","Sun Sep 24 13:51:45 2023","1500","The main experiment item","False","FlankerEffectTest.osexp","C:\Users\stcka\OneDrive\Sam Docs\Psychology Program\AP Textbooks\Quantitative Methods","False","mono","False","18","no","white","no","yes","768","legacy","10","10","C:/Users/stcka/OneDrive/Sam Docs/Psychology Program/AP Textbooks/Quantitative Methods/SA-subject-3.csv","legacy","Melodramatic Milgram","4.0.5","0","h","NA","s","NA","NA","h","589.0","NA","2557","NA","NA","589","2","legacy","1024","2","48000","-16","experiment","SSHSS","3","odd","4646","NA","NA","NA","NA","NA","22100","21073","2087","NA","NA","22202","22792","22099","22201","2084","Flanker Effect Test","11","6593.0","11","1024"
"100","100","584","584","#3d3846","legacy","legacy","legacy","congruent","1","undefined","1","h","0","0","0","11","11","0","11","11","0","0","0","11","11","11","11","0","Sun Sep 24 13:51:45 2023","1500","The main experiment item","False","FlankerEffectTest.osexp","C:\Users\stcka\OneDrive\Sam Docs\Psychology Program\AP Textbooks\Quantitative Methods","False","mono","False","18","no","white","no","yes","768","legacy","11","11","C:/Users/stcka/OneDrive/Sam Docs/Psychology Program/AP Textbooks/Quantitative Methods/SA-subject-3.csv","legacy","Melodramatic Milgram","4.0.5","0","h","NA","s","NA","NA","h","422.0","NA","2557","NA","NA","422","2","legacy","1024","2","48000","-16","experiment","HHHHH","3","odd","4646","NA","NA","NA","NA","NA","23825","22797","2087","NA","NA","23926","24349","23823","23926","2084","Flanker Effect Test","12","7015.0","12","1024"
"100","100","577","577","#3d3846","legacy","legacy","legacy","congruent","1","undefined","1","h","0","0","0","12","12","0","12","12","0","0","0","12","12","12","12","0","Sun Sep 24 13:51:45 2023","1500","The main experiment item","False","FlankerEffectTest.osexp","C:\Users\stcka\OneDrive\Sam Docs\Psychology Program\AP Textbooks\Quantitative Methods","False","mono","False","18","no","white","no","yes","768","legacy","12","12","C:/Users/stcka/OneDrive/Sam Docs/Psychology Program/AP Textbooks/Quantitative Methods/SA-subject-3.csv","legacy","Melodramatic Milgram","4.0.5","0","h","NA","s","NA","NA","h","494.0","NA","2557","NA","NA","494","2","legacy","1024","2","48000","-16","experiment","HHHHH","3","odd","4646","NA","NA","NA","NA","NA","25384","24354","2087","NA","NA","25485","25979","25382","25485","2084","Flanker Effect Test","13","7509.0","13","1024"
"100","100","565","565","#3d3846","legacy","legacy","legacy","congruent","1","undefined","1","s","0","0","0","13","13","0","13","13","0","0","0","13","13","13","13","0","Sun Sep 24 13:51:45 2023","1500","The main experiment item","False","FlankerEffectTest.osexp","C:\Users\stcka\OneDrive\Sam Docs\Psychology Program\AP Textbooks\Quantitative Methods","False","mono","False","18","no","white","no","yes","768","legacy","13","13","C:/Users/stcka/OneDrive/Sam Docs/Psychology Program/AP Textbooks/Quantitative Methods/SA-subject-3.csv","legacy","Melodramatic Milgram","4.0.5","0","s","NA","s","NA","NA","s","412.0","NA","2557","NA","NA","412","2","legacy","1024","2","48000","-16","experiment","SSSSS","3","odd","4646","NA","NA","NA","NA","NA","27015","25984","2087","NA","NA","27116","27529","27013","27116","2084","Flanker Effect Test","14","7921.0","14","1024"
"100","100","578","578","#3d3846","legacy","legacy","legacy","incongruent","1","undefined","1","s","0","0","0","14","14","0","14","14","0","0","0","14","14","14","14","0","Sun Sep 24 13:51:45 2023","1500","The main experiment item","False","FlankerEffectTest.osexp","C:\Users\stcka\OneDrive\Sam Docs\Psychology Program\AP Textbooks\Quantitative Methods","False","mono","False","18","no","white","no","yes","768","legacy","14","14","C:/Users/stcka/OneDrive/Sam Docs/Psychology Program/AP Textbooks/Quantitative Methods/SA-subject-3.csv","legacy","Melodramatic Milgram","4.0.5","0","s","NA","s","NA","NA","s","759.0","NA","2557","NA","NA","759","2","legacy","1024","2","48000","-16","experiment","HHSHH","3","odd","4646","NA","NA","NA","NA","NA","28562","27534","2087","NA","NA","28663","29423","28560","28663","2084","Flanker Effect Test","15","8680.0","15","1024"
"93","93","575","575","#3d3846","legacy","legacy","legacy","incongruent","0","undefined","0","h","0","0","0","15","15","0","15","15","0","0","0","15","15","15","15","0","Sun Sep 24 13:51:45 2023","1500","The main experiment item","False","FlankerEffectTest.osexp","C:\Users\stcka\OneDrive\Sam Docs\Psychology Program\AP Textbooks\Quantitative Methods","False","mono","False","18","no","white","no","yes","768","legacy","15","15","C:/Users/stcka/OneDrive/Sam Docs/Psychology Program/AP Textbooks/Quantitative Methods/SA-subject-3.csv","legacy","Melodramatic Milgram","4.0.5","0","s","NA","s","NA","NA","s","532.0","NA","2557","NA","NA","532","2","legacy","1024","2","48000","-16","experiment","SSHSS","3","odd","4646","NA","NA","NA","NA","NA","30458","29428","2087","NA","NA","30558","31090","30456","30558","2084","Flanker Effect Test","15","9212.0","16","1024"
"94","94","568","568","#3d3846","legacy","legacy","legacy","congruent","1","undefined","1","h","0","0","0","16","16","0","16","16","0","0","0","16","16","16","16","0","Sun Sep 24 13:51:45 2023","1500","The main experiment item","False","FlankerEffectTest.osexp","C:\Users\stcka\OneDrive\Sam Docs\Psychology Program\AP Textbooks\Quantitative Methods","False","mono","False","18","no","white","no","yes","768","legacy","16","16","C:/Users/stcka/OneDrive/Sam Docs/Psychology Program/AP Textbooks/Quantitative Methods/SA-subject-3.csv","legacy","Melodramatic Milgram","4.0.5","0","h","NA","s","NA","NA","h","459.0","NA","2557","NA","NA","459","2","legacy","1024","2","48000","-16","experiment","HHHHH","3","odd","4646","NA","NA","31094","NA","NA","32624","31595","2087","NA","NA","32726","33185","32623","32726","2084","Flanker Effect Test","16","9671.0","17","1024"
"94","94","569","569","#3d3846","legacy","legacy","legacy","congruent","1","undefined","1","s","0","0","0","17","17","0","17","17","0","0","0","17","17","17","17","0","Sun Sep 24 13:51:45 2023","1500","The main experiment item","False","FlankerEffectTest.osexp","C:\Users\stcka\OneDrive\Sam Docs\Psychology Program\AP Textbooks\Quantitative Methods","False","mono","False","18","no","white","no","yes","768","legacy","17","17","C:/Users/stcka/OneDrive/Sam Docs/Psychology Program/AP Textbooks/Quantitative Methods/SA-subject-3.csv","legacy","Melodramatic Milgram","4.0.5","0","s","NA","s","NA","NA","s","573.0","NA","2557","NA","NA","573","2","legacy","1024","2","48000","-16","experiment","SSSSS","3","odd","4646","NA","NA","31094","NA","NA","34227","33190","2087","NA","NA","34328","34902","34225","34328","2084","Flanker Effect Test","17","10244.0","18","1024"
"89","89","566","566","#3d3846","legacy","legacy","legacy","incongruent","0","undefined","0","s","0","0","0","18","18","0","18","18","0","0","0","18","18","18","18","0","Sun Sep 24 13:51:45 2023","1500","The main experiment item","False","FlankerEffectTest.osexp","C:\Users\stcka\OneDrive\Sam Docs\Psychology Program\AP Textbooks\Quantitative Methods","False","mono","False","18","no","white","no","yes","768","legacy","18","18","C:/Users/stcka/OneDrive/Sam Docs/Psychology Program/AP Textbooks/Quantitative Methods/SA-subject-3.csv","legacy","Melodramatic Milgram","4.0.5","0","h","NA","s","NA","NA","h","517.0","NA","2557","NA","NA","517","2","legacy","1024","2","48000","-16","experiment","HHSHH","3","odd","4646","NA","NA","31094","NA","NA","35939","34906","2087","NA","NA","36040","36557","35938","36040","2084","Flanker Effect Test","17","10761.0","19","1024"
"90","90","571","571","#3d3846","legacy","legacy","legacy","congruent","1","undefined","1","s","0","0","0","19","19","0","19","19","0","0","0","19","19","19","19","0","Sun Sep 24 13:51:45 2023","1500","The main experiment item","False","FlankerEffectTest.osexp","C:\Users\stcka\OneDrive\Sam Docs\Psychology Program\AP Textbooks\Quantitative Methods","False","mono","False","18","no","white","no","yes","768","legacy","19","19","C:/Users/stcka/OneDrive/Sam Docs/Psychology Program/AP Textbooks/Quantitative Methods/SA-subject-3.csv","legacy","Melodramatic Milgram","4.0.5","0","s","NA","s","NA","NA","s","669.0","NA","2557","NA","NA","669","2","legacy","1024","2","48000","-16","experiment","SSSSS","3","odd","4646","NA","NA","36562","NA","NA","38098","37064","2087","NA","NA","38199","38868","38096","38199","2084","Flanker Effect Test","18","11430.0","20","1024"
"90","90","566","566","#3d3846","legacy","legacy","legacy","congruent","1","undefined","1","s","0","0","0","20","20","0","20","20","0","0","0","20","20","20","20","0","Sun Sep 24 13:51:45 2023","1500","The main experiment item","False","FlankerEffectTest.osexp","C:\Users\stcka\OneDrive\Sam Docs\Psychology Program\AP Textbooks\Quantitative Methods","False","mono","False","18","no","white","no","yes","768","legacy","20","20","C:/Users/stcka/OneDrive/Sam Docs/Psychology Program/AP Textbooks/Quantitative Methods/SA-subject-3.csv","legacy","Melodramatic Milgram","4.0.5","0","s","NA","s","NA","NA","s","462.0","NA","2557","NA","NA","462","2","legacy","1024","2","48000","-16","experiment","SSSSS","3","odd","4646","NA","NA","36562","NA","NA","39901","38873","2087","NA","NA","40002","40465","39899","40002","2084","Flanker Effect Test","19","11892.0","21","1024"
"90","90","560","560","#3d3846","legacy","legacy","legacy","congruent","1","undefined","1","h","0","0","0","21","21","0","21","21","0","0","0","21","21","21","21","0","Sun Sep 24 13:51:45 2023","1500","The main experiment item","False","FlankerEffectTest.osexp","C:\Users\stcka\OneDrive\Sam Docs\Psychology Program\AP Textbooks\Quantitative Methods","False","mono","False","18","no","white","no","yes","768","legacy","21","21","C:/Users/stcka/OneDrive/Sam Docs/Psychology Program/AP Textbooks/Quantitative Methods/SA-subject-3.csv","legacy","Melodramatic Milgram","4.0.5","0","h","NA","s","NA","NA","h","443.0","NA","2557","NA","NA","443","2","legacy","1024","2","48000","-16","experiment","HHHHH","3","odd","4646","NA","NA","36562","NA","NA","41496","40469","2087","NA","NA","41597","42041","41495","41597","2084","Flanker Effect Test","20","12335.0","22","1024"
"91","91","561","561","#3d3846","legacy","legacy","legacy","incongruent","1","undefined","1","s","0","0","0","22","22","0","22","22","0","0","0","22","22","22","22","0","Sun Sep 24 13:51:45 2023","1500","The main experiment item","False","FlankerEffectTest.osexp","C:\Users\stcka\OneDrive\Sam Docs\Psychology Program\AP Textbooks\Quantitative Methods","False","mono","False","18","no","white","no","yes","768","legacy","22","22","C:/Users/stcka/OneDrive/Sam Docs/Psychology Program/AP Textbooks/Quantitative Methods/SA-subject-3.csv","legacy","Melodramatic Milgram","4.0.5","0","s","NA","s","NA","NA","s","588.0","NA","2557","NA","NA","588","2","legacy","1024","2","48000","-16","experiment","HHSHH","3","odd","4646","NA","NA","36562","NA","NA","43076","42046","2087","NA","NA","43177","43765","43075","43177","2084","Flanker Effect Test","21","12923.0","23","1024"
"91","91","558","558","#3d3846","legacy","legacy","legacy","incongruent","1","undefined","1","s","0","0","0","23","23","0","23","23","0","0","0","23","23","23","23","0","Sun Sep 24 13:51:45 2023","1500","The main experiment item","False","FlankerEffectTest.osexp","C:\Users\stcka\OneDrive\Sam Docs\Psychology Program\AP Textbooks\Quantitative Methods","False","mono","False","18","no","white","no","yes","768","legacy","23","23","C:/Users/stcka/OneDrive/Sam Docs/Psychology Program/AP Textbooks/Quantitative Methods/SA-subject-3.csv","legacy","Melodramatic Milgram","4.0.5","0","s","NA","s","NA","NA","s","482.0","NA","2557","NA","NA","482","2","legacy","1024","2","48000","-16","experiment","HHSHH","3","odd","4646","NA","NA","36562","NA","NA","44798","43770","2087","NA","NA","44900","45383","44797","44900","2084","Flanker Effect Test","22","13405.0","24","1024"
"92","92","558","558","#3d3846","legacy","legacy","legacy","incongruent","1","undefined","1","h","0","0","0","24","24","0","24","24","0","0","0","24","24","24","24","0","Sun Sep 24 13:51:45 2023","1500","The main experiment item","False","FlankerEffectTest.osexp","C:\Users\stcka\OneDrive\Sam Docs\Psychology Program\AP Textbooks\Quantitative Methods","False","mono","False","18","no","white","no","yes","768","legacy","24","24","C:/Users/stcka/OneDrive/Sam Docs/Psychology Program/AP Textbooks/Quantitative Methods/SA-subject-3.csv","legacy","Melodramatic Milgram","4.0.5","0","h","NA","s","NA","NA","h","563.0","NA","2557","NA","NA","563","2","legacy","1024","2","48000","-16","experiment","SSHSS","3","odd","4646","NA","NA","36562","NA","NA","46416","45387","2087","NA","NA","46517","47081","46415","46517","2084","Flanker Effect Test","23","13968.0","25","1024"
"92","92","557","557","#3d3846","legacy","legacy","legacy","congruent","1","undefined","1","h","0","0","0","25","25","0","25","25","0","0","0","25","25","25","25","0","Sun Sep 24 13:51:45 2023","1500","The main experiment item","False","FlankerEffectTest.osexp","C:\Users\stcka\OneDrive\Sam Docs\Psychology Program\AP Textbooks\Quantitative Methods","False","mono","False","18","no","white","no","yes","768","legacy","25","25","C:/Users/stcka/OneDrive/Sam Docs/Psychology Program/AP Textbooks/Quantitative Methods/SA-subject-3.csv","legacy","Melodramatic Milgram","4.0.5","0","h","NA","s","NA","NA","h","523.0","NA","2557","NA","NA","523","2","legacy","1024","2","48000","-16","experiment","HHHHH","3","odd","4646","NA","NA","36562","NA","NA","48112","47084","2087","NA","NA","48213","48737","48111","48213","2084","Flanker Effect Test","24","14491.0","26","1024"
"92","92","555","555","#3d3846","legacy","legacy","legacy","congruent","1","undefined","1","s","0","0","0","26","26","0","26","26","0","0","0","26","26","26","26","0","Sun Sep 24 13:51:45 2023","1500","The main experiment item","False","FlankerEffectTest.osexp","C:\Users\stcka\OneDrive\Sam Docs\Psychology Program\AP Textbooks\Quantitative Methods","False","mono","False","18","no","white","no","yes","768","legacy","26","26","C:/Users/stcka/OneDrive/Sam Docs/Psychology Program/AP Textbooks/Quantitative Methods/SA-subject-3.csv","legacy","Melodramatic Milgram","4.0.5","0","s","NA","s","NA","NA","s","502.0","NA","2557","NA","NA","502","2","legacy","1024","2","48000","-16","experiment","SSSSS","3","odd","4646","NA","NA","36562","NA","NA","49776","48743","2087","NA","NA","49878","50380","49775","49878","2084","Flanker Effect Test","25","14993.0","27","1024"
"92","92","559","559","#3d3846","legacy","legacy","legacy","incongruent","1","undefined","1","s","0","0","0","27","27","0","27","27","0","0","0","27","27","27","27","0","Sun Sep 24 13:51:45 2023","1500","The main experiment item","False","FlankerEffectTest.osexp","C:\Users\stcka\OneDrive\Sam Docs\Psychology Program\AP Textbooks\Quantitative Methods","False","mono","False","18","no","white","no","yes","768","legacy","27","27","C:/Users/stcka/OneDrive/Sam Docs/Psychology Program/AP Textbooks/Quantitative Methods/SA-subject-3.csv","legacy","Melodramatic Milgram","4.0.5","0","s","NA","s","NA","NA","s","669.0","NA","2557","NA","NA","669","2","legacy","1024","2","48000","-16","experiment","HHSHH","3","odd","4646","NA","NA","36562","NA","NA","51415","50387","2087","NA","NA","51516","52185","51414","51516","2084","Flanker Effect Test","26","15662.0","28","1024"
"93","93","558","558","#3d3846","legacy","legacy","legacy","incongruent","1","undefined","1","h","0","0","0","28","28","0","28","28","0","0","0","28","28","28","28","0","Sun Sep 24 13:51:45 2023","1500","The main experiment item","False","FlankerEffectTest.osexp","C:\Users\stcka\OneDrive\Sam Docs\Psychology Program\AP Textbooks\Quantitative Methods","False","mono","False","18","no","white","no","yes","768","legacy","28","28","C:/Users/stcka/OneDrive/Sam Docs/Psychology Program/AP Textbooks/Quantitative Methods/SA-subject-3.csv","legacy","Melodramatic Milgram","4.0.5","0","h","NA","s","NA","NA","h","539.0","NA","2557","NA","NA","539","2","legacy","1024","2","48000","-16","experiment","SSHSS","3","odd","4646","NA","NA","36562","NA","NA","53220","52190","2087","NA","NA","53321","53861","53218","53321","2084","Flanker Effect Test","27","16201.0","29","1024"
"93","93","556","556","#3d3846","legacy","legacy","legacy","incongruent","1","undefined","1","s","0","0","0","29","29","0","29","29","0","0","0","29","29","29","29","0","Sun Sep 24 13:51:45 2023","1500","The main experiment item","False","FlankerEffectTest.osexp","C:\Users\stcka\OneDrive\Sam Docs\Psychology Program\AP Textbooks\Quantitative Methods","False","mono","False","18","no","white","no","yes","768","legacy","29","29","C:/Users/stcka/OneDrive/Sam Docs/Psychology Program/AP Textbooks/Quantitative Methods/SA-subject-3.csv","legacy","Melodramatic Milgram","4.0.5","0","s","NA","s","NA","NA","s","489.0","NA","2557","NA","NA","489","2","legacy","1024","2","48000","-16","experiment","HHSHH","3","odd","4646","NA","NA","36562","NA","NA","54891","53865","2087","NA","NA","54992","55483","54890","54992","2084","Flanker Effect Test","28","16690.0","30","1024"
"93","93","552","552","#3d3846","legacy","legacy","legacy","incongruent","1","undefined","1","s","0","0","0","30","30","0","30","30","0","0","0","30","30","30","30","0","Sun Sep 24 13:51:45 2023","1500","The main experiment item","False","FlankerEffectTest.osexp","C:\Users\stcka\OneDrive\Sam Docs\Psychology Program\AP Textbooks\Quantitative Methods","False","mono","False","18","no","white","no","yes","768","legacy","30","30","C:/Users/stcka/OneDrive/Sam Docs/Psychology Program/AP Textbooks/Quantitative Methods/SA-subject-3.csv","legacy","Melodramatic Milgram","4.0.5","0","s","NA","s","NA","NA","s","445.0","NA","2557","NA","NA","445","2","legacy","1024","2","48000","-16","experiment","HHSHH","3","odd","4646","NA","NA","36562","NA","NA","56518","55488","2087","NA","NA","56619","57065","56517","56619","2084","Flanker Effect Test","29","17135.0","31","1024"
"93","93","550","550","#3d3846","legacy","legacy","legacy","congruent","1","undefined","1","s","0","0","0","31","31","0","31","31","0","0","0","31","31","31","31","0","Sun Sep 24 13:51:45 2023","1500","The main experiment item","False","FlankerEffectTest.osexp","C:\Users\stcka\OneDrive\Sam Docs\Psychology Program\AP Textbooks\Quantitative Methods","False","mono","False","18","no","white","no","yes","768","legacy","31","31","C:/Users/stcka/OneDrive/Sam Docs/Psychology Program/AP Textbooks/Quantitative Methods/SA-subject-3.csv","legacy","Melodramatic Milgram","4.0.5","0","s","NA","s","NA","NA","s","475.0","NA","2557","NA","NA","475","2","legacy","1024","2","48000","-16","experiment","SSSSS","3","odd","4646","NA","NA","36562","NA","NA","58099","57070","2087","NA","NA","58200","58676","58097","58200","2084","Flanker Effect Test","30","17610.0","32","1024"
"93","93","549","549","#3d3846","legacy","legacy","legacy","incongruent","1","undefined","1","s","0","0","0","32","32","0","32","32","0","0","0","32","32","32","32","0","Sun Sep 24 13:51:45 2023","1500","The main experiment item","False","FlankerEffectTest.osexp","C:\Users\stcka\OneDrive\Sam Docs\Psychology Program\AP Textbooks\Quantitative Methods","False","mono","False","18","no","white","no","yes","768","legacy","32","32","C:/Users/stcka/OneDrive/Sam Docs/Psychology Program/AP Textbooks/Quantitative Methods/SA-subject-3.csv","legacy","Melodramatic Milgram","4.0.5","0","s","NA","s","NA","NA","s","509.0","NA","2557","NA","NA","509","2","legacy","1024","2","48000","-16","experiment","HHSHH","3","odd","4646","NA","NA","36562","NA","NA","59714","58680","2087","NA","NA","59815","60325","59712","59815","2084","Flanker Effect Test","31","18119.0","33","1024"
"94","94","545","545","#3d3846","legacy","legacy","legacy","congruent","1","undefined","1","s","0","0","0","33","33","0","33","33","0","0","0","33","33","33","33","0","Sun Sep 24 13:51:45 2023","1500","The main experiment item","False","FlankerEffectTest.osexp","C:\Users\stcka\OneDrive\Sam Docs\Psychology Program\AP Textbooks\Quantitative Methods","False","mono","False","18","no","white","no","yes","768","legacy","33","33","C:/Users/stcka/OneDrive/Sam Docs/Psychology Program/AP Textbooks/Quantitative Methods/SA-subject-3.csv","legacy","Melodramatic Milgram","4.0.5","0","s","NA","s","NA","NA","s","418.0","NA","2557","NA","NA","418","2","legacy","1024","2","48000","-16","experiment","SSSSS","3","odd","4646","NA","NA","36562","NA","NA","61356","60328","2087","NA","NA","61457","61875","61355","61456","2084","Flanker Effect Test","32","18537.0","34","1024"
"94","94","543","543","#3d3846","legacy","legacy","legacy","congruent","1","undefined","1","h","0","0","0","34","34","0","34","34","0","0","0","34","34","34","34","0","Sun Sep 24 13:51:45 2023","1500","The main experiment item","False","FlankerEffectTest.osexp","C:\Users\stcka\OneDrive\Sam Docs\Psychology Program\AP Textbooks\Quantitative Methods","False","mono","False","18","no","white","no","yes","768","legacy","34","34","C:/Users/stcka/OneDrive/Sam Docs/Psychology Program/AP Textbooks/Quantitative Methods/SA-subject-3.csv","legacy","Melodramatic Milgram","4.0.5","0","h","NA","s","NA","NA","h","469.0","NA","2557","NA","NA","469","2","legacy","1024","2","48000","-16","experiment","HHHHH","3","odd","4646","NA","NA","36562","NA","NA","62915","61880","2087","NA","NA","63016","63485","62913","63016","2084","Flanker Effect Test","33","19006.0","35","1024"
"94","94","540","540","#3d3846","legacy","legacy","legacy","congruent","1","undefined","1","h","0","0","0","35","35","0","35","35","0","0","0","35","35","35","35","0","Sun Sep 24 13:51:45 2023","1500","The main experiment item","False","FlankerEffectTest.osexp","C:\Users\stcka\OneDrive\Sam Docs\Psychology Program\AP Textbooks\Quantitative Methods","False","mono","False","18","no","white","no","yes","768","legacy","35","35","C:/Users/stcka/OneDrive/Sam Docs/Psychology Program/AP Textbooks/Quantitative Methods/SA-subject-3.csv","legacy","Melodramatic Milgram","4.0.5","0","h","NA","s","NA","NA","h","449.0","NA","2557","NA","NA","449","2","legacy","1024","2","48000","-16","experiment","HHHHH","3","odd","4646","NA","NA","36562","NA","NA","64524","63490","2087","NA","NA","64625","65074","64522","64624","2084","Flanker Effect Test","34","19455.0","36","1024"
"94","94","538","538","#3d3846","legacy","legacy","legacy","congruent","1","undefined","1","h","0","0","0","36","36","0","36","36","0","0","0","36","36","36","36","0","Sun Sep 24 13:51:45 2023","1500","The main experiment item","False","FlankerEffectTest.osexp","C:\Users\stcka\OneDrive\Sam Docs\Psychology Program\AP Textbooks\Quantitative Methods","False","mono","False","18","no","white","no","yes","768","legacy","36","36","C:/Users/stcka/OneDrive/Sam Docs/Psychology Program/AP Textbooks/Quantitative Methods/SA-subject-3.csv","legacy","Melodramatic Milgram","4.0.5","0","h","NA","s","NA","NA","h","476.0","NA","2557","NA","NA","476","2","legacy","1024","2","48000","-16","experiment","HHHHH","3","odd","4646","NA","NA","36562","NA","NA","66109","65079","2087","NA","NA","66210","66686","66108","66210","2084","Flanker Effect Test","35","19931.0","37","1024"
"92","92","535","535","#3d3846","legacy","legacy","legacy","incongruent","0","undefined","0","h","0","0","0","37","37","0","37","37","0","0","0","37","37","37","37","0","Sun Sep 24 13:51:45 2023","1500","The main experiment item","False","FlankerEffectTest.osexp","C:\Users\stcka\OneDrive\Sam Docs\Psychology Program\AP Textbooks\Quantitative Methods","False","mono","False","18","no","white","no","yes","768","legacy","37","37","C:/Users/stcka/OneDrive/Sam Docs/Psychology Program/AP Textbooks/Quantitative Methods/SA-subject-3.csv","legacy","Melodramatic Milgram","4.0.5","0","s","NA","s","NA","NA","s","415.0","NA","2557","NA","NA","415","2","legacy","1024","2","48000","-16","experiment","SSHSS","3","odd","4646","NA","NA","36562","NA","NA","67719","66691","2087","NA","NA","67820","68236","67718","67820","2084","Flanker Effect Test","35","20346.0","38","1024"
"92","92","532","532","#3d3846","legacy","legacy","legacy","incongruent","1","undefined","1","s","0","0","0","38","38","0","38","38","0","0","0","38","38","38","38","0","Sun Sep 24 13:51:45 2023","1500","The main experiment item","False","FlankerEffectTest.osexp","C:\Users\stcka\OneDrive\Sam Docs\Psychology Program\AP Textbooks\Quantitative Methods","False","mono","False","18","no","white","no","yes","768","legacy","38","38","C:/Users/stcka/OneDrive/Sam Docs/Psychology Program/AP Textbooks/Quantitative Methods/SA-subject-3.csv","legacy","Melodramatic Milgram","4.0.5","0","s","NA","s","NA","NA","s","428.0","NA","2557","NA","NA","428","2","legacy","1024","2","48000","-16","experiment","HHSHH","3","odd","4646","NA","NA","68241","NA","NA","69770","68742","2087","NA","NA","69871","70300","69768","69871","2084","Flanker Effect Test","36","20774.0","39","1024"
"92","92","535","535","#3d3846","legacy","legacy","legacy","incongruent","1","undefined","1","s","0","0","0","39","39","0","39","39","0","0","0","39","39","39","39","0","Sun Sep 24 13:51:45 2023","1500","The main experiment item","False","FlankerEffectTest.osexp","C:\Users\stcka\OneDrive\Sam Docs\Psychology Program\AP Textbooks\Quantitative Methods","False","mono","False","18","no","white","no","yes","768","legacy","39","39","C:/Users/stcka/OneDrive/Sam Docs/Psychology Program/AP Textbooks/Quantitative Methods/SA-subject-3.csv","legacy","Melodramatic Milgram","4.0.5","0","s","NA","s","NA","NA","s","634.0","NA","2557","NA","NA","634","2","legacy","1024","2","48000","-16","experiment","HHSHH","3","odd","4646","NA","NA","68241","NA","NA","71334","70305","2087","NA","NA","71435","72070","71332","71435","2084","Flanker Effect Test","37","21408.0","40","1024"
"92","92","535","535","#3d3846","legacy","legacy","legacy","incongruent","1","undefined","1","h","0","0","0","40","40","0","40","40","0","0","0","40","40","40","40","0","Sun Sep 24 13:51:45 2023","1500","The main experiment item","False","FlankerEffectTest.osexp","C:\Users\stcka\OneDrive\Sam Docs\Psychology Program\AP Textbooks\Quantitative Methods","False","mono","False","18","no","white","no","yes","768","legacy","40","40","C:/Users/stcka/OneDrive/Sam Docs/Psychology Program/AP Textbooks/Quantitative Methods/SA-subject-3.csv","legacy","Melodramatic Milgram","4.0.5","0","h","NA","s","NA","NA","h","556.0","NA","2557","NA","NA","556","2","legacy","1024","2","48000","-16","experiment","SSHSS","3","odd","4646","NA","NA","68241","NA","NA","73105","72074","2087","NA","NA","73206","73764","73103","73206","2084","Flanker Effect Test","38","21964.0","41","1024"
"92","92","535","535","#3d3846","legacy","legacy","legacy","congruent","1","undefined","1","h","0","0","0","41","41","0","41","41","0","0","0","41","41","41","41","0","Sun Sep 24 13:51:45 2023","1500","The main experiment item","False","FlankerEffectTest.osexp","C:\Users\stcka\OneDrive\Sam Docs\Psychology Program\AP Textbooks\Quantitative Methods","False","mono","False","18","no","white","no","yes","768","legacy","41","41","C:/Users/stcka/OneDrive/Sam Docs/Psychology Program/AP Textbooks/Quantitative Methods/SA-subject-3.csv","legacy","Melodramatic Milgram","4.0.5","0","h","NA","s","NA","NA","h","512.0","NA","2557","NA","NA","512","2","legacy","1024","2","48000","-16","experiment","HHHHH","3","odd","4646","NA","NA","68241","NA","NA","74795","73769","2087","NA","NA","74896","75409","74793","74896","2084","Flanker Effect Test","39","22476.0","42","1024"
"93","93","537","537","#3d3846","legacy","legacy","legacy","incongruent","1","undefined","1","h","0","0","0","42","42","0","42","42","0","0","0","42","42","42","42","0","Sun Sep 24 13:51:45 2023","1500","The main experiment item","False","FlankerEffectTest.osexp","C:\Users\stcka\OneDrive\Sam Docs\Psychology Program\AP Textbooks\Quantitative Methods","False","mono","False","18","no","white","no","yes","768","legacy","42","42","C:/Users/stcka/OneDrive/Sam Docs/Psychology Program/AP Textbooks/Quantitative Methods/SA-subject-3.csv","legacy","Melodramatic Milgram","4.0.5","0","h","NA","s","NA","NA","h","652.0","NA","2557","NA","NA","652","2","legacy","1024","2","48000","-16","experiment","SSHSS","3","odd","4646","NA","NA","68241","NA","NA","76442","75413","2087","NA","NA","76543","77196","76440","76543","2084","Flanker Effect Test","40","23128.0","43","1024"
"93","93","537","537","#3d3846","legacy","legacy","legacy","incongruent","1","undefined","1","h","0","0","0","43","43","0","43","43","0","0","0","43","43","43","43","0","Sun Sep 24 13:51:45 2023","1500","The main experiment item","False","FlankerEffectTest.osexp","C:\Users\stcka\OneDrive\Sam Docs\Psychology Program\AP Textbooks\Quantitative Methods","False","mono","False","18","no","white","no","yes","768","legacy","43","43","C:/Users/stcka/OneDrive/Sam Docs/Psychology Program/AP Textbooks/Quantitative Methods/SA-subject-3.csv","legacy","Melodramatic Milgram","4.0.5","0","h","NA","s","NA","NA","h","505.0","NA","2557","NA","NA","505","2","legacy","1024","2","48000","-16","experiment","SSHSS","3","odd","4646","NA","NA","68241","NA","NA","78230","77201","2087","NA","NA","78331","78837","78229","78330","2084","Flanker Effect Test","41","23633.0","44","1024"
"93","93","537","537","#3d3846","legacy","legacy","legacy","congruent","1","undefined","1","h","0","0","0","44","44","0","44","44","0","0","0","44","44","44","44","0","Sun Sep 24 13:51:45 2023","1500","The main experiment item","False","FlankerEffectTest.osexp","C:\Users\stcka\OneDrive\Sam Docs\Psychology Program\AP Textbooks\Quantitative Methods","False","mono","False","18","no","white","no","yes","768","legacy","44","44","C:/Users/stcka/OneDrive/Sam Docs/Psychology Program/AP Textbooks/Quantitative Methods/SA-subject-3.csv","legacy","Melodramatic Milgram","4.0.5","0","h","NA","s","NA","NA","h","571.0","NA","2557","NA","NA","571","2","legacy","1024","2","48000","-16","experiment","HHHHH","3","odd","4646","NA","NA","68241","NA","NA","79882","78842","2087","NA","NA","79983","80555","79879","79982","2084","Flanker Effect Test","42","24204.0","45","1024"
"93","93","536","536","#3d3846","legacy","legacy","legacy","congruent","1","undefined","1","h","0","0","0","45","45","0","45","45","0","0","0","45","45","45","45","0","Sun Sep 24 13:51:45 2023","1500","The main experiment item","False","FlankerEffectTest.osexp","C:\Users\stcka\OneDrive\Sam Docs\Psychology Program\AP Textbooks\Quantitative Methods","False","mono","False","18","no","white","no","yes","768","legacy","45","45","C:/Users/stcka/OneDrive/Sam Docs/Psychology Program/AP Textbooks/Quantitative Methods/SA-subject-3.csv","legacy","Melodramatic Milgram","4.0.5","0","h","NA","s","NA","NA","h","470.0","NA","2557","NA","NA","470","2","legacy","1024","2","48000","-16","experiment","HHHHH","3","odd","4646","NA","NA","68241","NA","NA","81588","80560","2087","NA","NA","81689","82160","81586","81689","2084","Flanker Effect Test","43","24674.0","46","1024"
"93","93","535","535","#3d3846","legacy","legacy","legacy","incongruent","1","undefined","1","h","0","0","0","46","46","0","46","46","0","0","0","46","46","46","46","0","Sun Sep 24 13:51:45 2023","1500","The main experiment item","False","FlankerEffectTest.osexp","C:\Users\stcka\OneDrive\Sam Docs\Psychology Program\AP Textbooks\Quantitative Methods","False","mono","False","18","no","white","no","yes","768","legacy","46","46","C:/Users/stcka/OneDrive/Sam Docs/Psychology Program/AP Textbooks/Quantitative Methods/SA-subject-3.csv","legacy","Melodramatic Milgram","4.0.5","0","h","NA","s","NA","NA","h","512.0","NA","2557","NA","NA","512","2","legacy","1024","2","48000","-16","experiment","SSHSS","3","odd","4646","NA","NA","68241","NA","NA","83193","82164","2087","NA","NA","83295","83807","83192","83295","2084","Flanker Effect Test","44","25186.0","47","1024"
"93","93","533","533","#3d3846","legacy","legacy","legacy","congruent","1","undefined","1","h","0","0","0","47","47","0","47","47","0","0","0","47","47","47","47","0","Sun Sep 24 13:51:45 2023","1500","The main experiment item","False","FlankerEffectTest.osexp","C:\Users\stcka\OneDrive\Sam Docs\Psychology Program\AP Textbooks\Quantitative Methods","False","mono","False","18","no","white","no","yes","768","legacy","47","47","C:/Users/stcka/OneDrive/Sam Docs/Psychology Program/AP Textbooks/Quantitative Methods/SA-subject-3.csv","legacy","Melodramatic Milgram","4.0.5","0","h","NA","s","NA","NA","h","428.0","NA","2557","NA","NA","428","2","legacy","1024","2","48000","-16","experiment","HHHHH","3","odd","4646","NA","NA","68241","NA","NA","84849","83817","2087","NA","NA","84950","85379","84847","84950","2084","Flanker Effect Test","45","25614.0","48","1024"
"93","93","534","534","#3d3846","legacy","legacy","legacy","incongruent","1","undefined","1","h","0","0","0","48","48","0","48","48","0","0","0","48","48","48","48","0","Sun Sep 24 13:51:45 2023","1500","The main experiment item","False","FlankerEffectTest.osexp","C:\Users\stcka\OneDrive\Sam Docs\Psychology Program\AP Textbooks\Quantitative Methods","False","mono","False","18","no","white","no","yes","768","legacy","48","48","C:/Users/stcka/OneDrive/Sam Docs/Psychology Program/AP Textbooks/Quantitative Methods/SA-subject-3.csv","legacy","Melodramatic Milgram","4.0.5","0","h","NA","s","NA","NA","h","574.0","NA","2557","NA","NA","574","2","legacy","1024","2","48000","-16","experiment","SSHSS","3","odd","4646","NA","NA","68241","NA","NA","86414","85384","2087","NA","NA","86515","87090","86413","86515","2084","Flanker Effect Test","46","26188.0","49","1024"
"94","94","533","533","#3d3846","legacy","legacy","legacy","incongruent","1","undefined","1","h","0","0","0","49","49","0","49","49","0","0","0","49","49","49","49","0","Sun Sep 24 13:51:45 2023","1500","The main experiment item","False","FlankerEffectTest.osexp","C:\Users\stcka\OneDrive\Sam Docs\Psychology Program\AP Textbooks\Quantitative Methods","False","mono","False","18","no","white","no","yes","768","legacy","49","49","C:/Users/stcka/OneDrive/Sam Docs/Psychology Program/AP Textbooks/Quantitative Methods/SA-subject-3.csv","legacy","Melodramatic Milgram","4.0.5","0","h","NA","s","NA","NA","h","506.0","NA","2557","NA","NA","506","2","legacy","1024","2","48000","-16","experiment","SSHSS","3","odd","4646","NA","NA","68241","NA","NA","88126","87095","2087","NA","NA","88227","88734","88125","88226","2084","Flanker Effect Test","47","26694.0","50","1024"
"94","94","533","533","#3d3846","legacy","legacy","legacy","incongruent","1","undefined","1","h","0","0","0","50","50","0","50","50","0","0","0","50","50","50","50","0","Sun Sep 24 13:51:45 2023","1500","The main experiment item","False","FlankerEffectTest.osexp","C:\Users\stcka\OneDrive\Sam Docs\Psychology Program\AP Textbooks\Quantitative Methods","False","mono","False","18","no","white","no","yes","768","legacy","50","50","C:/Users/stcka/OneDrive/Sam Docs/Psychology Program/AP Textbooks/Quantitative Methods/SA-subject-3.csv","legacy","Melodramatic Milgram","4.0.5","0","h","NA","s","NA","NA","h","514.0","NA","2557","NA","NA","514","2","legacy","1024","2","48000","-16","experiment","SSHSS","3","odd","4646","NA","NA","68241","NA","NA","89773","88740","2087","NA","NA","89874","90389","89772","89873","2084","Flanker Effect Test","48","27208.0","51","1024"
"94","94","534","534","#3d3846","legacy","legacy","legacy","congruent","1","undefined","1","s","0","0","0","51","51","0","51","51","0","0","0","51","51","51","51","0","Sun Sep 24 13:51:45 2023","1500","The main experiment item","False","FlankerEffectTest.osexp","C:\Users\stcka\OneDrive\Sam Docs\Psychology Program\AP Textbooks\Quantitative Methods","False","mono","False","18","no","white","no","yes","768","legacy","51","51","C:/Users/stcka/OneDrive/Sam Docs/Psychology Program/AP Textbooks/Quantitative Methods/SA-subject-3.csv","legacy","Melodramatic Milgram","4.0.5","0","s","NA","s","NA","NA","s","596.0","NA","2557","NA","NA","596","2","legacy","1024","2","48000","-16","experiment","SSSSS","3","odd","4646","NA","NA","68241","NA","NA","91424","90394","2087","NA","NA","91525","92122","91423","91525","2084","Flanker Effect Test","49","27804.0","52","1024"
"94","94","533","533","#3d3846","legacy","legacy","legacy","congruent","1","undefined","1","h","0","0","0","52","52","0","52","52","0","0","0","52","52","52","52","0","Sun Sep 24 13:51:45 2023","1500","The main experiment item","False","FlankerEffectTest.osexp","C:\Users\stcka\OneDrive\Sam Docs\Psychology Program\AP Textbooks\Quantitative Methods","False","mono","False","18","no","white","no","yes","768","legacy","52","52","C:/Users/stcka/OneDrive/Sam Docs/Psychology Program/AP Textbooks/Quantitative Methods/SA-subject-3.csv","legacy","Melodramatic Milgram","4.0.5","0","h","NA","s","NA","NA","h","480.0","NA","2557","NA","NA","480","2","legacy","1024","2","48000","-16","experiment","HHHHH","3","odd","4646","NA","NA","68241","NA","NA","93155","92126","2087","NA","NA","93256","93737","93154","93256","2084","Flanker Effect Test","50","28284.0","53","1024"
"94","94","532","532","#3d3846","legacy","legacy","legacy","incongruent","1","undefined","1","h","0","0","0","53","53","0","53","53","0","0","0","53","53","53","53","0","Sun Sep 24 13:51:45 2023","1500","The main experiment item","False","FlankerEffectTest.osexp","C:\Users\stcka\OneDrive\Sam Docs\Psychology Program\AP Textbooks\Quantitative Methods","False","mono","False","18","no","white","no","yes","768","legacy","53","53","C:/Users/stcka/OneDrive/Sam Docs/Psychology Program/AP Textbooks/Quantitative Methods/SA-subject-3.csv","legacy","Melodramatic Milgram","4.0.5","0","h","NA","s","NA","NA","h","484.0","NA","2557","NA","NA","484","2","legacy","1024","2","48000","-16","experiment","SSHSS","3","odd","4646","NA","NA","68241","NA","NA","94780","93742","2087","NA","NA","94881","95366","94778","94881","2084","Flanker Effect Test","51","28768.0","54","1024"
"94","94","535","535","#3d3846","legacy","legacy","legacy","congruent","1","undefined","1","h","0","0","0","54","54","0","54","54","0","0","0","54","54","54","54","0","Sun Sep 24 13:51:45 2023","1500","The main experiment item","False","FlankerEffectTest.osexp","C:\Users\stcka\OneDrive\Sam Docs\Psychology Program\AP Textbooks\Quantitative Methods","False","mono","False","18","no","white","no","yes","768","legacy","54","54","C:/Users/stcka/OneDrive/Sam Docs/Psychology Program/AP Textbooks/Quantitative Methods/SA-subject-3.csv","legacy","Melodramatic Milgram","4.0.5","0","h","NA","s","NA","NA","h","675.0","NA","2557","NA","NA","675","2","legacy","1024","2","48000","-16","experiment","HHHHH","3","odd","4646","NA","NA","68241","NA","NA","96398","95371","2087","NA","NA","96499","97174","96397","96499","2084","Flanker Effect Test","52","29443.0","55","1024"
"92","92","534","534","#3d3846","legacy","legacy","legacy","congruent","0","undefined","0","s","0","0","0","55","55","0","55","55","0","0","0","55","55","55","55","0","Sun Sep 24 13:51:45 2023","1500","The main experiment item","False","FlankerEffectTest.osexp","C:\Users\stcka\OneDrive\Sam Docs\Psychology Program\AP Textbooks\Quantitative Methods","False","mono","False","18","no","white","no","yes","768","legacy","55","55","C:/Users/stcka/OneDrive/Sam Docs/Psychology Program/AP Textbooks/Quantitative Methods/SA-subject-3.csv","legacy","Melodramatic Milgram","4.0.5","0","h","NA","s","NA","NA","h","474.0","NA","2557","NA","NA","474","2","legacy","1024","2","48000","-16","experiment","SSSSS","3","odd","4646","NA","NA","68241","NA","NA","98207","97179","2087","NA","NA","98308","98783","98206","98308","2084","Flanker Effect Test","52","29917.0","56","1024"
"92","92","536","536","#3d3846","legacy","legacy","legacy","incongruent","1","undefined","1","s","0","0","0","56","56","0","56","56","0","0","0","56","56","56","56","0","Sun Sep 24 13:51:45 2023","1500","The main experiment item","False","FlankerEffectTest.osexp","C:\Users\stcka\OneDrive\Sam Docs\Psychology Program\AP Textbooks\Quantitative Methods","False","mono","False","18","no","white","no","yes","768","legacy","56","56","C:/Users/stcka/OneDrive/Sam Docs/Psychology Program/AP Textbooks/Quantitative Methods/SA-subject-3.csv","legacy","Melodramatic Milgram","4.0.5","0","s","NA","s","NA","NA","s","666.0","NA","2557","NA","NA","666","2","legacy","1024","2","48000","-16","experiment","HHSHH","3","odd","4646","NA","NA","98788","NA","NA","100318","99289","2087","NA","NA","100419","101086","100316","100419","2084","Flanker Effect Test","53","30583.0","57","1024"
"93","93","536","536","#3d3846","legacy","legacy","legacy","congruent","1","undefined","1","s","0","0","0","57","57","0","57","57","0","0","0","57","57","57","57","0","Sun Sep 24 13:51:45 2023","1500","The main experiment item","False","FlankerEffectTest.osexp","C:\Users\stcka\OneDrive\Sam Docs\Psychology Program\AP Textbooks\Quantitative Methods","False","mono","False","18","no","white","no","yes","768","legacy","57","57","C:/Users/stcka/OneDrive/Sam Docs/Psychology Program/AP Textbooks/Quantitative Methods/SA-subject-3.csv","legacy","Melodramatic Milgram","4.0.5","0","s","NA","s","NA","NA","s","528.0","NA","2557","NA","NA","528","2","legacy","1024","2","48000","-16","experiment","SSSSS","3","odd","4646","NA","NA","98788","NA","NA","102125","101091","2087","NA","NA","102233","102762","102118","102227","2084","Flanker Effect Test","54","31111.0","58","1024"
"93","93","535","535","#3d3846","legacy","legacy","legacy","congruent","1","undefined","1","s","0","0","0","58","58","0","58","58","0","0","0","58","58","58","58","0","Sun Sep 24 13:51:45 2023","1500","The main experiment item","False","FlankerEffectTest.osexp","C:\Users\stcka\OneDrive\Sam Docs\Psychology Program\AP Textbooks\Quantitative Methods","False","mono","False","18","no","white","no","yes","768","legacy","58","58","C:/Users/stcka/OneDrive/Sam Docs/Psychology Program/AP Textbooks/Quantitative Methods/SA-subject-3.csv","legacy","Melodramatic Milgram","4.0.5","0","s","NA","s","NA","NA","s","456.0","NA","2557","NA","NA","456","2","legacy","1024","2","48000","-16","experiment","SSSSS","3","odd","4646","NA","NA","98788","NA","NA","103794","102767","2087","NA","NA","103895","104352","103793","103895","2084","Flanker Effect Test","55","31567.0","59","1024"
"93","93","535","535","#3d3846","legacy","legacy","legacy","incongruent","1","undefined","1","h","0","0","0","59","59","0","59","59","0","0","0","59","59","59","59","0","Sun Sep 24 13:51:45 2023","1500","The main experiment item","False","FlankerEffectTest.osexp","C:\Users\stcka\OneDrive\Sam Docs\Psychology Program\AP Textbooks\Quantitative Methods","False","mono","False","18","no","white","no","yes","768","legacy","59","59","C:/Users/stcka/OneDrive/Sam Docs/Psychology Program/AP Textbooks/Quantitative Methods/SA-subject-3.csv","legacy","Melodramatic Milgram","4.0.5","0","h","NA","s","NA","NA","h","561.0","NA","2557","NA","NA","561","2","legacy","1024","2","48000","-16","experiment","SSHSS","3","odd","4646","NA","NA","98788","NA","NA","105385","104357","2087","NA","NA","105486","106048","105384","105486","2084","Flanker Effect Test","56","32128.0","60","1024"
"93","93","537","537","#3d3846","legacy","legacy","legacy","incongruent","1","undefined","1","s","0","0","0","60","60","0","60","60","0","0","0","60","60","60","60","0","Sun Sep 24 13:51:45 2023","1500","The main experiment item","False","FlankerEffectTest.osexp","C:\Users\stcka\OneDrive\Sam Docs\Psychology Program\AP Textbooks\Quantitative Methods","False","mono","False","18","no","white","no","yes","768","legacy","60","60","C:/Users/stcka/OneDrive/Sam Docs/Psychology Program/AP Textbooks/Quantitative Methods/SA-subject-3.csv","legacy","Melodramatic Milgram","4.0.5","0","s","NA","s","NA","NA","s","647.0","NA","2557","NA","NA","647","2","legacy","1024","2","48000","-16","experiment","HHSHH","3","odd","4646","NA","NA","98788","NA","NA","107088","106053","2087","NA","NA","107195","107843","107080","107189","2084","Flanker Effect Test","57","32775.0","61","1024"
"93","93","537","537","#3d3846","legacy","legacy","legacy","incongruent","1","undefined","1","s","0","0","0","61","61","0","61","61","0","0","0","61","61","61","61","0","Sun Sep 24 13:51:45 2023","1500","The main experiment item","False","FlankerEffectTest.osexp","C:\Users\stcka\OneDrive\Sam Docs\Psychology Program\AP Textbooks\Quantitative Methods","False","mono","False","18","no","white","no","yes","768","legacy","61","61","C:/Users/stcka/OneDrive/Sam Docs/Psychology Program/AP Textbooks/Quantitative Methods/SA-subject-3.csv","legacy","Melodramatic Milgram","4.0.5","0","s","NA","s","NA","NA","s","533.0","NA","2557","NA","NA","533","2","legacy","1024","2","48000","-16","experiment","HHSHH","3","odd","4646","NA","NA","98788","NA","NA","108877","107848","2087","NA","NA","108978","109512","108875","108978","2084","Flanker Effect Test","58","33308.0","62","1024"
"93","93","537","537","#3d3846","legacy","legacy","legacy","incongruent","1","undefined","1","h","0","0","0","62","62","0","62","62","0","0","0","62","62","62","62","0","Sun Sep 24 13:51:45 2023","1500","The main experiment item","False","FlankerEffectTest.osexp","C:\Users\stcka\OneDrive\Sam Docs\Psychology Program\AP Textbooks\Quantitative Methods","False","mono","False","18","no","white","no","yes","768","legacy","62","62","C:/Users/stcka/OneDrive/Sam Docs/Psychology Program/AP Textbooks/Quantitative Methods/SA-subject-3.csv","legacy","Melodramatic Milgram","4.0.5","0","h","NA","s","NA","NA","h","533.0","NA","2557","NA","NA","533","2","legacy","1024","2","48000","-16","experiment","SSHSS","3","odd","4646","NA","NA","98788","NA","NA","110562","109517","2087","NA","NA","110663","111197","110560","110663","2084","Flanker Effect Test","59","33841.0","63","1024"
"93","93","537","537","#3d3846","legacy","legacy","legacy","incongruent","1","undefined","1","s","0","0","0","63","63","0","63","63","0","0","0","63","63","63","63","0","Sun Sep 24 13:51:45 2023","1500","The main experiment item","False","FlankerEffectTest.osexp","C:\Users\stcka\OneDrive\Sam Docs\Psychology Program\AP Textbooks\Quantitative Methods","False","mono","False","18","no","white","no","yes","768","legacy","63","63","C:/Users/stcka/OneDrive/Sam Docs/Psychology Program/AP Textbooks/Quantitative Methods/SA-subject-3.csv","legacy","Melodramatic Milgram","4.0.5","0","s","NA","s","NA","NA","s","542.0","NA","2557","NA","NA","542","2","legacy","1024","2","48000","-16","experiment","HHSHH","3","odd","4646","NA","NA","98788","NA","NA","112230","111200","2087","NA","NA","112331","112874","112228","112331","2084","Flanker Effect Test","60","34383.0","64","1024"
"93","93","540","540","#3d3846","legacy","legacy","legacy","incongruent","1","undefined","1","s","0","0","0","64","64","0","64","64","0","0","0","64","64","64","64","0","Sun Sep 24 13:51:45 2023","1500","The main experiment item","False","FlankerEffectTest.osexp","C:\Users\stcka\OneDrive\Sam Docs\Psychology Program\AP Textbooks\Quantitative Methods","False","mono","False","18","no","white","no","yes","768","legacy","64","64","C:/Users/stcka/OneDrive/Sam Docs/Psychology Program/AP Textbooks/Quantitative Methods/SA-subject-3.csv","legacy","Melodramatic Milgram","4.0.5","0","s","NA","s","NA","NA","s","749.0","NA","2557","NA","NA","749","2","legacy","1024","2","48000","-16","experiment","HHSHH","3","odd","4646","NA","NA","98788","NA","NA","113909","112880","2087","NA","NA","114011","114761","113908","114011","2084","Flanker Effect Test","61","35132.0","65","1024"
"93","93","541","541","#3d3846","legacy","legacy","legacy","incongruent","1","undefined","1","h","0","0","0","65","65","0","65","65","0","0","0","65","65","65","65","0","Sun Sep 24 13:51:45 2023","1500","The main experiment item","False","FlankerEffectTest.osexp","C:\Users\stcka\OneDrive\Sam Docs\Psychology Program\AP Textbooks\Quantitative Methods","False","mono","False","18","no","white","no","yes","768","legacy","65","65","C:/Users/stcka/OneDrive/Sam Docs/Psychology Program/AP Textbooks/Quantitative Methods/SA-subject-3.csv","legacy","Melodramatic Milgram","4.0.5","0","h","NA","s","NA","NA","h","622.0","NA","2557","NA","NA","622","2","legacy","1024","2","48000","-16","experiment","SSHSS","3","odd","4646","NA","NA","98788","NA","NA","115797","114764","2087","NA","NA","115898","116521","115795","115898","2084","Flanker Effect Test","62","35754.0","66","1024"
"94","94","540","540","#3d3846","legacy","legacy","legacy","congruent","1","undefined","1","s","0","0","0","66","66","0","66","66","0","0","0","66","66","66","66","0","Sun Sep 24 13:51:45 2023","1500","The main experiment item","False","FlankerEffectTest.osexp","C:\Users\stcka\OneDrive\Sam Docs\Psychology Program\AP Textbooks\Quantitative Methods","False","mono","False","18","no","white","no","yes","768","legacy","66","66","C:/Users/stcka/OneDrive/Sam Docs/Psychology Program/AP Textbooks/Quantitative Methods/SA-subject-3.csv","legacy","Melodramatic Milgram","4.0.5","0","s","NA","s","NA","NA","s","490.0","NA","2557","NA","NA","490","2","legacy","1024","2","48000","-16","experiment","SSSSS","3","odd","4646","NA","NA","98788","NA","NA","117555","116526","2087","NA","NA","117656","118147","117553","117656","2084","Flanker Effect Test","63","36244.0","67","1024"
"94","94","540","540","#3d3846","legacy","legacy","legacy","incongruent","1","undefined","1","h","0","0","0","67","67","0","67","67","0","0","0","67","67","67","67","0","Sun Sep 24 13:51:45 2023","1500","The main experiment item","False","FlankerEffectTest.osexp","C:\Users\stcka\OneDrive\Sam Docs\Psychology Program\AP Textbooks\Quantitative Methods","False","mono","False","18","no","white","no","yes","768","legacy","67","67","C:/Users/stcka/OneDrive/Sam Docs/Psychology Program/AP Textbooks/Quantitative Methods/SA-subject-3.csv","legacy","Melodramatic Milgram","4.0.5","0","h","NA","s","NA","NA","h","516.0","NA","2557","NA","NA","516","2","legacy","1024","2","48000","-16","experiment","SSHSS","3","odd","4646","NA","NA","98788","NA","NA","119184","118153","2087","NA","NA","119285","119802","119183","119284","2084","Flanker Effect Test","64","36760.0","68","1024"
"94","94","541","541","#3d3846","legacy","legacy","legacy","congruent","1","undefined","1","s","0","0","0","68","68","0","68","68","0","0","0","68","68","68","68","0","Sun Sep 24 13:51:45 2023","1500","The main experiment item","False","FlankerEffectTest.osexp","C:\Users\stcka\OneDrive\Sam Docs\Psychology Program\AP Textbooks\Quantitative Methods","False","mono","False","18","no","white","no","yes","768","legacy","68","68","C:/Users/stcka/OneDrive/Sam Docs/Psychology Program/AP Textbooks/Quantitative Methods/SA-subject-3.csv","legacy","Melodramatic Milgram","4.0.5","0","s","NA","s","NA","NA","s","616.0","NA","2557","NA","NA","616","2","legacy","1024","2","48000","-16","experiment","SSSSS","3","odd","4646","NA","NA","98788","NA","NA","120836","119808","2087","NA","NA","120937","121554","120835","120937","2084","Flanker Effect Test","65","37376.0","69","1024"
"94","94","542","542","#3d3846","legacy","legacy","legacy","congruent","1","undefined","1","s","0","0","0","69","69","0","69","69","0","0","0","69","69","69","69","0","Sun Sep 24 13:51:45 2023","1500","The main experiment item","False","FlankerEffectTest.osexp","C:\Users\stcka\OneDrive\Sam Docs\Psychology Program\AP Textbooks\Quantitative Methods","False","mono","False","18","no","white","no","yes","768","legacy","69","69","C:/Users/stcka/OneDrive/Sam Docs/Psychology Program/AP Textbooks/Quantitative Methods/SA-subject-3.csv","legacy","Melodramatic Milgram","4.0.5","0","s","NA","s","NA","NA","s","615.0","NA","2557","NA","NA","615","2","legacy","1024","2","48000","-16","experiment","SSSSS","3","odd","4646","NA","NA","98788","NA","NA","122587","121559","2087","NA","NA","122688","123306","122585","122688","2084","Flanker Effect Test","66","37991.0","70","1024"
"94","94","543","543","#3d3846","legacy","legacy","legacy","congruent","1","undefined","1","s","0","0","0","70","70","0","70","70","0","0","0","70","70","70","70","0","Sun Sep 24 13:51:45 2023","1500","The main experiment item","False","FlankerEffectTest.osexp","C:\Users\stcka\OneDrive\Sam Docs\Psychology Program\AP Textbooks\Quantitative Methods","False","mono","False","18","no","white","no","yes","768","legacy","70","70","C:/Users/stcka/OneDrive/Sam Docs/Psychology Program/AP Textbooks/Quantitative Methods/SA-subject-3.csv","legacy","Melodramatic Milgram","4.0.5","0","s","NA","s","NA","NA","s","611.0","NA","2557","NA","NA","611","2","legacy","1024","2","48000","-16","experiment","SSSSS","3","odd","4646","NA","NA","98788","NA","NA","124341","123309","2087","NA","NA","124441","125053","124335","124441","2084","Flanker Effect Test","67","38602.0","71","1024"
"94","94","542","542","#3d3846","legacy","legacy","legacy","congruent","1","undefined","1","h","0","0","0","71","71","0","71","71","0","0","0","71","71","71","71","0","Sun Sep 24 13:51:45 2023","1500","The main experiment item","False","FlankerEffectTest.osexp","C:\Users\stcka\OneDrive\Sam Docs\Psychology Program\AP Textbooks\Quantitative Methods","False","mono","False","18","no","white","no","yes","768","legacy","71","71","C:/Users/stcka/OneDrive/Sam Docs/Psychology Program/AP Textbooks/Quantitative Methods/SA-subject-3.csv","legacy","Melodramatic Milgram","4.0.5","0","h","NA","s","NA","NA","h","480.0","NA","2557","NA","NA","480","2","legacy","1024","2","48000","-16","experiment","HHHHH","3","odd","4646","NA","NA","98788","NA","NA","126096","125058","2087","NA","NA","126197","126679","126094","126196","2084","Flanker Effect Test","68","39082.0","72","1024"
"94","94","543","543","#3d3846","legacy","legacy","legacy","incongruent","1","undefined","1","h","0","0","0","72","72","0","72","72","0","0","0","72","72","72","72","0","Sun Sep 24 13:51:45 2023","1500","The main experiment item","False","FlankerEffectTest.osexp","C:\Users\stcka\OneDrive\Sam Docs\Psychology Program\AP Textbooks\Quantitative Methods","False","mono","False","18","no","white","no","yes","768","legacy","72","72","C:/Users/stcka/OneDrive/Sam Docs/Psychology Program/AP Textbooks/Quantitative Methods/SA-subject-3.csv","legacy","Melodramatic Milgram","4.0.5","0","h","NA","s","NA","NA","h","575.0","NA","2557","NA","NA","575","2","legacy","1024","2","48000","-16","experiment","SSHSS","3","odd","4646","NA","NA","98788","NA","NA","127714","126683","2087","NA","NA","127815","128391","127713","127815","2084","Flanker Effect Test","69","39657.0","73","1024"
"94","94","546","546","#3d3846","legacy","legacy","legacy","congruent","1","undefined","1","s","0","0","0","73","73","0","73","73","0","0","0","73","73","73","73","0","Sun Sep 24 13:51:45 2023","1500","The main experiment item","False","FlankerEffectTest.osexp","C:\Users\stcka\OneDrive\Sam Docs\Psychology Program\AP Textbooks\Quantitative Methods","False","mono","False","18","no","white","no","yes","768","legacy","73","73","C:/Users/stcka/OneDrive/Sam Docs/Psychology Program/AP Textbooks/Quantitative Methods/SA-subject-3.csv","legacy","Melodramatic Milgram","4.0.5","0","s","NA","s","NA","NA","s","768.0","NA","2557","NA","NA","768","2","legacy","1024","2","48000","-16","experiment","SSSSS","3","odd","4646","NA","NA","98788","NA","NA","129427","128396","2087","NA","NA","129528","130297","129425","129528","2084","Flanker Effect Test","70","40425.0","74","1024"
"94","94","550","550","#3d3846","legacy","legacy","legacy","incongruent","1","undefined","1","s","0","0","0","74","74","0","74","74","0","0","0","74","74","74","74","0","Sun Sep 24 13:51:45 2023","1500","The main experiment item","False","FlankerEffectTest.osexp","C:\Users\stcka\OneDrive\Sam Docs\Psychology Program\AP Textbooks\Quantitative Methods","False","mono","False","18","no","white","no","yes","768","legacy","74","74","C:/Users/stcka/OneDrive/Sam Docs/Psychology Program/AP Textbooks/Quantitative Methods/SA-subject-3.csv","legacy","Melodramatic Milgram","4.0.5","0","s","NA","s","NA","NA","s","895.0","NA","2557","NA","NA","895","2","legacy","1024","2","48000","-16","experiment","HHSHH","3","odd","4646","NA","NA","98788","NA","NA","131331","130302","2087","NA","NA","131432","132328","131329","131432","2084","Flanker Effect Test","71","41320.0","75","1024"
"94","94","550","550","#3d3846","legacy","legacy","legacy","congruent","1","undefined","1","s","0","0","0","75","75","0","75","75","0","0","0","75","75","75","75","0","Sun Sep 24 13:51:45 2023","1500","The main experiment item","False","FlankerEffectTest.osexp","C:\Users\stcka\OneDrive\Sam Docs\Psychology Program\AP Textbooks\Quantitative Methods","False","mono","False","18","no","white","no","yes","768","legacy","75","75","C:/Users/stcka/OneDrive/Sam Docs/Psychology Program/AP Textbooks/Quantitative Methods/SA-subject-3.csv","legacy","Melodramatic Milgram","4.0.5","0","s","NA","s","NA","NA","s","497.0","NA","2557","NA","NA","497","2","legacy","1024","2","48000","-16","experiment","SSSSS","3","odd","4646","NA","NA","98788","NA","NA","133363","132333","2087","NA","NA","133464","133962","133361","133464","2084","Flanker Effect Test","72","41817.0","76","1024"
"94","94","551","551","#3d3846","legacy","legacy","legacy","congruent","1","undefined","1","h","0","0","0","76","76","0","76","76","0","0","0","76","76","76","76","0","Sun Sep 24 13:51:45 2023","1500","The main experiment item","False","FlankerEffectTest.osexp","C:\Users\stcka\OneDrive\Sam Docs\Psychology Program\AP Textbooks\Quantitative Methods","False","mono","False","18","no","white","no","yes","768","legacy","76","76","C:/Users/stcka/OneDrive/Sam Docs/Psychology Program/AP Textbooks/Quantitative Methods/SA-subject-3.csv","legacy","Melodramatic Milgram","4.0.5","0","h","NA","s","NA","NA","h","648.0","NA","2557","NA","NA","648","2","legacy","1024","2","48000","-16","experiment","HHHHH","3","odd","4646","NA","NA","98788","NA","NA","134996","133967","2087","NA","NA","135097","135746","134994","135097","2084","Flanker Effect Test","73","42465.0","77","1024"
"94","94","550","550","#3d3846","legacy","legacy","legacy","incongruent","1","undefined","1","h","0","0","0","77","77","0","77","77","0","0","0","77","77","77","77","0","Sun Sep 24 13:51:45 2023","1500","The main experiment item","False","FlankerEffectTest.osexp","C:\Users\stcka\OneDrive\Sam Docs\Psychology Program\AP Textbooks\Quantitative Methods","False","mono","False","18","no","white","no","yes","768","legacy","77","77","C:/Users/stcka/OneDrive/Sam Docs/Psychology Program/AP Textbooks/Quantitative Methods/SA-subject-3.csv","legacy","Melodramatic Milgram","4.0.5","0","h","NA","s","NA","NA","h","469.0","NA","2557","NA","NA","469","2","legacy","1024","2","48000","-16","experiment","SSHSS","3","odd","4646","NA","NA","98788","NA","NA","136780","135751","2087","NA","NA","136881","137351","136779","136881","2084","Flanker Effect Test","74","42934.0","78","1024"
"94","94","552","552","#3d3846","legacy","legacy","legacy","congruent","1","undefined","1","s","0","0","0","78","78","0","78","78","0","0","0","78","78","78","78","0","Sun Sep 24 13:51:45 2023","1500","The main experiment item","False","FlankerEffectTest.osexp","C:\Users\stcka\OneDrive\Sam Docs\Psychology Program\AP Textbooks\Quantitative Methods","False","mono","False","18","no","white","no","yes","768","legacy","78","78","C:/Users/stcka/OneDrive/Sam Docs/Psychology Program/AP Textbooks/Quantitative Methods/SA-subject-3.csv","legacy","Melodramatic Milgram","4.0.5","0","s","NA","s","NA","NA","s","686.0","NA","2557","NA","NA","686","2","legacy","1024","2","48000","-16","experiment","SSSSS","3","odd","4646","NA","NA","98788","NA","NA","138386","137356","2087","NA","NA","138487","139174","138384","138486","2084","Flanker Effect Test","75","43620.0","79","1024"
"93","93","552","552","#3d3846","legacy","legacy","legacy","incongruent","0","undefined","0","s","0","0","0","79","79","0","79","79","0","0","0","79","79","79","79","0","Sun Sep 24 13:51:45 2023","1500","The main experiment item","False","FlankerEffectTest.osexp","C:\Users\stcka\OneDrive\Sam Docs\Psychology Program\AP Textbooks\Quantitative Methods","False","mono","False","18","no","white","no","yes","768","legacy","79","79","C:/Users/stcka/OneDrive/Sam Docs/Psychology Program/AP Textbooks/Quantitative Methods/SA-subject-3.csv","legacy","Melodramatic Milgram","4.0.5","0","h","NA","s","NA","NA","h","571.0","NA","2557","NA","NA","571","2","legacy","1024","2","48000","-16","experiment","HHSHH","3","odd","4646","NA","NA","98788","NA","NA","140204","139179","2087","NA","NA","140305","140877","140202","140305","2084","Flanker Effect Test","75","44191.0","80","1024"
"93","93","552","552","#3d3846","legacy","legacy","legacy","congruent","1","undefined","1","h","0","0","0","80","80","0","80","80","0","0","0","80","80","80","80","0","Sun Sep 24 13:51:45 2023","600","The main experiment item","False","FlankerEffectTest.osexp","C:\Users\stcka\OneDrive\Sam Docs\Psychology Program\AP Textbooks\Quantitative Methods","False","mono","False","18","no","white","no","yes","768","legacy","0","79","C:/Users/stcka/OneDrive/Sam Docs/Psychology Program/AP Textbooks/Quantitative Methods/SA-subject-3.csv","legacy","Melodramatic Milgram","4.0.5","0","h","NA","s","s","NA","h","601.0","NA","2557","4671","NA","601","2","legacy","1024","2","48000","-16","experiment","HHHHH","3","odd","4646","147058","NA","140883","NA","NA","147095","141384","2087","142385","NA","147196","147798","147094","147196","2084","Flanker Effect Test","76","44792.0","81","1024"
"93","93","553","553","#3d3846","legacy","legacy","legacy","congruent","1","undefined","1","h","0","0","0","81","81","0","81","81","0","0","0","81","81","81","81","0","Sun Sep 24 13:51:45 2023","600","The main experiment item","False","FlankerEffectTest.osexp","C:\Users\stcka\OneDrive\Sam Docs\Psychology Program\AP Textbooks\Quantitative Methods","False","mono","False","18","no","white","no","yes","768","legacy","1","79","C:/Users/stcka/OneDrive/Sam Docs/Psychology Program/AP Textbooks/Quantitative Methods/SA-subject-3.csv","legacy","Melodramatic Milgram","4.0.5","0","h","NA","s","s","NA","h","563.0","NA","2557","4671","NA","563","2","legacy","1024","2","48000","-16","experiment","HHHHH","3","odd","4646","147058","NA","140883","147802","NA","149336","148303","2087","142385","NA","149437","150001","149334","149437","2084","Flanker Effect Test","77","45355.0","82","1024"
"93","93","552","552","#3d3846","legacy","legacy","legacy","congruent","1","undefined","1","h","0","0","0","82","82","0","82","82","0","0","0","82","82","82","82","0","Sun Sep 24 13:51:45 2023","600","The main experiment item","False","FlankerEffectTest.osexp","C:\Users\stcka\OneDrive\Sam Docs\Psychology Program\AP Textbooks\Quantitative Methods","False","mono","False","18","no","white","no","yes","768","legacy","2","79","C:/Users/stcka/OneDrive/Sam Docs/Psychology Program/AP Textbooks/Quantitative Methods/SA-subject-3.csv","legacy","Melodramatic Milgram","4.0.5","0","h","NA","s","s","NA","h","530.0","NA","2557","4671","NA","530","2","legacy","1024","2","48000","-16","experiment","HHHHH","3","odd","4646","147058","NA","140883","147802","NA","151036","150006","2087","142385","NA","151137","151668","151034","151137","2084","Flanker Effect Test","78","45885.0","83","1024"
"94","94","552","552","#3d3846","legacy","legacy","legacy","congruent","1","undefined","1","h","0","0","0","83","83","0","83","83","0","0","0","83","83","83","83","0","Sun Sep 24 13:51:45 2023","600","The main experiment item","False","FlankerEffectTest.osexp","C:\Users\stcka\OneDrive\Sam Docs\Psychology Program\AP Textbooks\Quantitative Methods","False","mono","False","18","no","white","no","yes","768","legacy","3","79","C:/Users/stcka/OneDrive/Sam Docs/Psychology Program/AP Textbooks/Quantitative Methods/SA-subject-3.csv","legacy","Melodramatic Milgram","4.0.5","0","h","NA","s","s","NA","h","502.0","NA","2557","4671","NA","502","2","legacy","1024","2","48000","-16","experiment","HHHHH","3","odd","4646","147058","NA","140883","147802","NA","152702","151674","2087","142385","NA","152803","153306","152700","152803","2084","Flanker Effect Test","79","46387.0","84","1024"
"94","94","552","552","#3d3846","legacy","legacy","legacy","congruent","1","undefined","1","s","0","0","0","84","84","0","84","84","0","0","0","84","84","84","84","0","Sun Sep 24 13:51:45 2023","600","The main experiment item","False","FlankerEffectTest.osexp","C:\Users\stcka\OneDrive\Sam Docs\Psychology Program\AP Textbooks\Quantitative Methods","False","mono","False","18","no","white","no","yes","768","legacy","4","79","C:/Users/stcka/OneDrive/Sam Docs/Psychology Program/AP Textbooks/Quantitative Methods/SA-subject-3.csv","legacy","Melodramatic Milgram","4.0.5","0","s","NA","s","s","NA","s","549.0","NA","2557","4671","NA","549","2","legacy","1024","2","48000","-16","experiment","SSSSS","3","odd","4646","147058","NA","140883","147802","NA","154339","153311","2087","142385","NA","154440","154990","154337","154440","2084","Flanker Effect Test","80","46936.0","85","1024"
"94","94","551","551","#3d3846","legacy","legacy","legacy","congruent","1","undefined","1","s","0","0","0","85","85","0","85","85","0","0","0","85","85","85","85","0","Sun Sep 24 13:51:45 2023","600","The main experiment item","False","FlankerEffectTest.osexp","C:\Users\stcka\OneDrive\Sam Docs\Psychology Program\AP Textbooks\Quantitative Methods","False","mono","False","18","no","white","no","yes","768","legacy","5","79","C:/Users/stcka/OneDrive/Sam Docs/Psychology Program/AP Textbooks/Quantitative Methods/SA-subject-3.csv","legacy","Melodramatic Milgram","4.0.5","0","s","NA","s","s","NA","s","512.0","NA","2557","4671","NA","512","2","legacy","1024","2","48000","-16","experiment","SSSSS","3","odd","4646","147058","NA","140883","147802","NA","156025","154996","2087","142385","NA","156126","156639","156024","156126","2084","Flanker Effect Test","81","47448.0","86","1024"
"94","94","550","550","#3d3846","legacy","legacy","legacy","congruent","1","undefined","1","s","0","0","0","86","86","0","86","86","0","0","0","86","86","86","86","0","Sun Sep 24 13:51:45 2023","600","The main experiment item","False","FlankerEffectTest.osexp","C:\Users\stcka\OneDrive\Sam Docs\Psychology Program\AP Textbooks\Quantitative Methods","False","mono","False","18","no","white","no","yes","768","legacy","6","79","C:/Users/stcka/OneDrive/Sam Docs/Psychology Program/AP Textbooks/Quantitative Methods/SA-subject-3.csv","legacy","Melodramatic Milgram","4.0.5","0","s","NA","s","s","NA","s","451.0","NA","2557","4671","NA","451","2","legacy","1024","2","48000","-16","experiment","SSSSS","3","odd","4646","147058","NA","140883","147802","NA","157677","156644","2087","142385","NA","157778","158230","157675","157778","2084","Flanker Effect Test","82","47899.0","87","1024"
"94","94","550","550","#3d3846","legacy","legacy","legacy","congruent","1","undefined","1","h","0","0","0","87","87","0","87","87","0","0","0","87","87","87","87","0","Sun Sep 24 13:51:45 2023","600","The main experiment item","False","FlankerEffectTest.osexp","C:\Users\stcka\OneDrive\Sam Docs\Psychology Program\AP Textbooks\Quantitative Methods","False","mono","False","18","no","white","no","yes","768","legacy","7","79","C:/Users/stcka/OneDrive/Sam Docs/Psychology Program/AP Textbooks/Quantitative Methods/SA-subject-3.csv","legacy","Melodramatic Milgram","4.0.5","0","h","NA","s","s","NA","h","550.0","NA","2557","4671","NA","550","2","legacy","1024","2","48000","-16","experiment","HHHHH","3","odd","4646","147058","NA","140883","147802","NA","159264","158235","2087","142385","NA","159365","159916","159263","159365","2084","Flanker Effect Test","83","48449.0","88","1024"
"94","94","551","551","#3d3846","legacy","legacy","legacy","incongruent","1","undefined","1","h","0","0","0","88","88","0","88","88","0","0","0","88","88","88","88","0","Sun Sep 24 13:51:45 2023","600","The main experiment item","False","FlankerEffectTest.osexp","C:\Users\stcka\OneDrive\Sam Docs\Psychology Program\AP Textbooks\Quantitative Methods","False","mono","False","18","no","white","no","yes","768","legacy","8","79","C:/Users/stcka/OneDrive/Sam Docs/Psychology Program/AP Textbooks/Quantitative Methods/SA-subject-3.csv","legacy","Melodramatic Milgram","4.0.5","0","h","NA","s","s","NA","h","630.0","NA","2557","4671","NA","630","2","legacy","1024","2","48000","-16","experiment","SSHSS","3","odd","4646","147058","NA","140883","147802","NA","160957","159921","2087","142385","NA","161063","161694","160948","161058","2084","Flanker Effect Test","84","49079.0","89","1024"
"94","94","550","550","#3d3846","legacy","legacy","legacy","congruent","1","undefined","1","s","0","0","0","89","89","0","89","89","0","0","0","89","89","89","89","0","Sun Sep 24 13:51:45 2023","600","The main experiment item","False","FlankerEffectTest.osexp","C:\Users\stcka\OneDrive\Sam Docs\Psychology Program\AP Textbooks\Quantitative Methods","False","mono","False","18","no","white","no","yes","768","legacy","9","79","C:/Users/stcka/OneDrive/Sam Docs/Psychology Program/AP Textbooks/Quantitative Methods/SA-subject-3.csv","legacy","Melodramatic Milgram","4.0.5","0","s","NA","s","s","NA","s","429.0","NA","2557","4671","NA","429","2","legacy","1024","2","48000","-16","experiment","SSSSS","3","odd","4646","147058","NA","140883","161699","NA","163234","162200","2087","142385","NA","163340","163770","163225","163335","2084","Flanker Effect Test","85","49508.0","90","1024"
"94","94","549","549","#3d3846","legacy","legacy","legacy","incongruent","1","undefined","1","s","0","0","0","90","90","0","90","90","0","0","0","90","90","90","90","0","Sun Sep 24 13:51:45 2023","600","The main experiment item","False","FlankerEffectTest.osexp","C:\Users\stcka\OneDrive\Sam Docs\Psychology Program\AP Textbooks\Quantitative Methods","False","mono","False","18","no","white","no","yes","768","legacy","10","79","C:/Users/stcka/OneDrive/Sam Docs/Psychology Program/AP Textbooks/Quantitative Methods/SA-subject-3.csv","legacy","Melodramatic Milgram","4.0.5","0","s","NA","s","s","NA","s","517.0","NA","2557","4671","NA","517","2","legacy","1024","2","48000","-16","experiment","HHSHH","3","odd","4646","147058","NA","140883","161699","NA","164805","163775","2087","142385","NA","164906","165425","164803","164906","2084","Flanker Effect Test","86","50025.0","91","1024"
"94","94","548","548","#3d3846","legacy","legacy","legacy","congruent","1","undefined","1","s","0","0","0","91","91","0","91","91","0","0","0","91","91","91","91","0","Sun Sep 24 13:51:45 2023","600","The main experiment item","False","FlankerEffectTest.osexp","C:\Users\stcka\OneDrive\Sam Docs\Psychology Program\AP Textbooks\Quantitative Methods","False","mono","False","18","no","white","no","yes","768","legacy","11","79","C:/Users/stcka/OneDrive/Sam Docs/Psychology Program/AP Textbooks/Quantitative Methods/SA-subject-3.csv","legacy","Melodramatic Milgram","4.0.5","0","s","NA","s","s","NA","s","412.0","NA","2557","4671","NA","412","2","legacy","1024","2","48000","-16","experiment","SSSSS","3","odd","4646","147058","NA","140883","161699","NA","166458","165429","2087","142385","NA","166559","166972","166456","166559","2084","Flanker Effect Test","87","50437.0","92","1024"
"93","93","547","547","#3d3846","legacy","legacy","legacy","incongruent","0","undefined","0","h","0","0","0","92","92","0","92","92","0","0","0","92","92","92","92","0","Sun Sep 24 13:51:45 2023","600","The main experiment item","False","FlankerEffectTest.osexp","C:\Users\stcka\OneDrive\Sam Docs\Psychology Program\AP Textbooks\Quantitative Methods","False","mono","False","18","no","white","no","yes","768","legacy","12","79","C:/Users/stcka/OneDrive/Sam Docs/Psychology Program/AP Textbooks/Quantitative Methods/SA-subject-3.csv","legacy","Melodramatic Milgram","4.0.5","0","s","NA","s","s","NA","s","437.0","NA","2557","4671","NA","437","2","legacy","1024","2","48000","-16","experiment","SSHSS","3","odd","4646","147058","NA","140883","161699","NA","168009","166977","2087","142385","NA","168111","168549","168008","168111","2084","Flanker Effect Test","87","50874.0","93","1024"
"93","93","544","544","#3d3846","legacy","legacy","legacy","incongruent","1","undefined","1","s","0","0","0","93","93","0","93","93","0","0","0","93","93","93","93","0","Sun Sep 24 13:51:45 2023","600","The main experiment item","False","FlankerEffectTest.osexp","C:\Users\stcka\OneDrive\Sam Docs\Psychology Program\AP Textbooks\Quantitative Methods","False","mono","False","18","no","white","no","yes","768","legacy","13","79","C:/Users/stcka/OneDrive/Sam Docs/Psychology Program/AP Textbooks/Quantitative Methods/SA-subject-3.csv","legacy","Melodramatic Milgram","4.0.5","0","s","NA","s","s","NA","s","331.0","NA","2557","4671","NA","331","2","legacy","1024","2","48000","-16","experiment","HHSHH","3","odd","4646","147058","NA","168553","161699","NA","170082","169054","2087","142385","NA","170183","170514","170080","170182","2084","Flanker Effect Test","88","51205.0","94","1024"
"93","93","543","543","#3d3846","legacy","legacy","legacy","congruent","1","undefined","1","s","0","0","0","94","94","0","94","94","0","0","0","94","94","94","94","0","Sun Sep 24 13:51:45 2023","600","The main experiment item","False","FlankerEffectTest.osexp","C:\Users\stcka\OneDrive\Sam Docs\Psychology Program\AP Textbooks\Quantitative Methods","False","mono","False","18","no","white","no","yes","768","legacy","14","79","C:/Users/stcka/OneDrive/Sam Docs/Psychology Program/AP Textbooks/Quantitative Methods/SA-subject-3.csv","legacy","Melodramatic Milgram","4.0.5","0","s","NA","s","s","NA","s","409.0","NA","2557","4671","NA","409","2","legacy","1024","2","48000","-16","experiment","SSSSS","3","odd","4646","147058","NA","168553","161699","NA","171546","170518","2087","142385","NA","171647","172057","171545","171647","2084","Flanker Effect Test","89","51614.0","95","1024"
"93","93","543","543","#3d3846","legacy","legacy","legacy","incongruent","1","undefined","1","h","0","0","0","95","95","0","95","95","0","0","0","95","95","95","95","0","Sun Sep 24 13:51:45 2023","600","The main experiment item","False","FlankerEffectTest.osexp","C:\Users\stcka\OneDrive\Sam Docs\Psychology Program\AP Textbooks\Quantitative Methods","False","mono","False","18","no","white","no","yes","768","legacy","15","79","C:/Users/stcka/OneDrive/Sam Docs/Psychology Program/AP Textbooks/Quantitative Methods/SA-subject-3.csv","legacy","Melodramatic Milgram","4.0.5","0","h","NA","s","s","NA","h","558.0","NA","2557","4671","NA","558","2","legacy","1024","2","48000","-16","experiment","SSHSS","3","odd","4646","147058","NA","168553","161699","NA","173099","172062","2087","142385","NA","173200","173759","173097","173200","2084","Flanker Effect Test","90","52172.0","96","1024"
"93","93","544","544","#3d3846","legacy","legacy","legacy","incongruent","1","undefined","1","s","0","0","0","96","96","0","96","96","0","0","0","96","96","96","96","0","Sun Sep 24 13:51:45 2023","600","The main experiment item","False","FlankerEffectTest.osexp","C:\Users\stcka\OneDrive\Sam Docs\Psychology Program\AP Textbooks\Quantitative Methods","False","mono","False","18","no","white","no","yes","768","legacy","16","79","C:/Users/stcka/OneDrive/Sam Docs/Psychology Program/AP Textbooks/Quantitative Methods/SA-subject-3.csv","legacy","Melodramatic Milgram","4.0.5","0","s","NA","s","s","NA","s","670.0","NA","2557","4671","NA","670","2","legacy","1024","2","48000","-16","experiment","HHSHH","3","odd","4646","147058","NA","168553","161699","NA","174792","173764","2087","142385","NA","174893","175564","174790","174893","2084","Flanker Effect Test","91","52842.0","97","1024"
"93","93","545","545","#3d3846","legacy","legacy","legacy","congruent","1","undefined","1","s","0","0","0","97","97","0","97","97","0","0","0","97","97","97","97","0","Sun Sep 24 13:51:45 2023","600","The main experiment item","False","FlankerEffectTest.osexp","C:\Users\stcka\OneDrive\Sam Docs\Psychology Program\AP Textbooks\Quantitative Methods","False","mono","False","18","no","white","no","yes","768","legacy","17","79","C:/Users/stcka/OneDrive/Sam Docs/Psychology Program/AP Textbooks/Quantitative Methods/SA-subject-3.csv","legacy","Melodramatic Milgram","4.0.5","0","s","NA","s","s","NA","s","583.0","NA","2557","4671","NA","583","2","legacy","1024","2","48000","-16","experiment","SSSSS","3","odd","4646","147058","NA","168553","175568","NA","186658","176069","2087","142385","NA","186759","187343","177095","186759","2084","Flanker Effect Test","92","53425.0","98","1024"
"93","93","547","547","#3d3846","legacy","legacy","legacy","congruent","1","undefined","1","h","0","0","0","98","98","0","98","98","0","0","0","98","98","98","98","0","Sun Sep 24 13:51:45 2023","600","The main experiment item","False","FlankerEffectTest.osexp","C:\Users\stcka\OneDrive\Sam Docs\Psychology Program\AP Textbooks\Quantitative Methods","False","mono","False","18","no","white","no","yes","768","legacy","18","79","C:/Users/stcka/OneDrive/Sam Docs/Psychology Program/AP Textbooks/Quantitative Methods/SA-subject-3.csv","legacy","Melodramatic Milgram","4.0.5","0","h","NA","s","s","NA","h","782.0","NA","2557","4671","NA","782","2","legacy","1024","2","48000","-16","experiment","HHHHH","3","odd","4646","147058","NA","168553","175568","NA","188378","187349","2087","142385","NA","188479","189262","188376","188479","2084","Flanker Effect Test","93","54207.0","99","1024"
"94","94","547","547","#3d3846","legacy","legacy","legacy","incongruent","1","undefined","1","s","0","0","0","99","99","0","99","99","0","0","0","99","99","99","99","0","Sun Sep 24 13:51:45 2023","600","The main experiment item","False","FlankerEffectTest.osexp","C:\Users\stcka\OneDrive\Sam Docs\Psychology Program\AP Textbooks\Quantitative Methods","False","mono","False","18","no","white","no","yes","768","legacy","19","79","C:/Users/stcka/OneDrive/Sam Docs/Psychology Program/AP Textbooks/Quantitative Methods/SA-subject-3.csv","legacy","Melodramatic Milgram","4.0.5","0","s","NA","s","s","NA","s","552.0","NA","2557","4671","NA","552","2","legacy","1024","2","48000","-16","experiment","HHSHH","3","odd","4646","147058","NA","168553","189267","NA","190795","189768","2087","142385","NA","190896","191449","190793","190896","2084","Flanker Effect Test","94","54759.0","100","1024"
"93","93","545","545","#3d3846","legacy","legacy","legacy","incongruent","0","undefined","0","h","0","0","0","100","100","0","100","100","0","0","0","100","100","100","100","0","Sun Sep 24 13:51:45 2023","600","The main experiment item","False","FlankerEffectTest.osexp","C:\Users\stcka\OneDrive\Sam Docs\Psychology Program\AP Textbooks\Quantitative Methods","False","mono","False","18","no","white","no","yes","768","legacy","20","79","C:/Users/stcka/OneDrive/Sam Docs/Psychology Program/AP Textbooks/Quantitative Methods/SA-subject-3.csv","legacy","Melodramatic Milgram","4.0.5","0","s","NA","s","s","NA","s","362.0","NA","2557","4671","NA","362","2","legacy","1024","2","48000","-16","experiment","SSHSS","3","odd","4646","147058","NA","168553","189267","NA","192479","191454","2087","142385","NA","192580","192944","192477","192580","2084","Flanker Effect Test","94","55121.0","101","1024"
"93","93","546","546","#3d3846","legacy","legacy","legacy","congruent","1","undefined","1","s","0","0","0","101","101","0","101","101","0","0","0","101","101","101","101","0","Sun Sep 24 13:51:45 2023","600","The main experiment item","False","FlankerEffectTest.osexp","C:\Users\stcka\OneDrive\Sam Docs\Psychology Program\AP Textbooks\Quantitative Methods","False","mono","False","18","no","white","no","yes","768","legacy","21","79","C:/Users/stcka/OneDrive/Sam Docs/Psychology Program/AP Textbooks/Quantitative Methods/SA-subject-3.csv","legacy","Melodramatic Milgram","4.0.5","0","s","NA","s","s","NA","s","663.0","NA","2557","4671","NA","663","2","legacy","1024","2","48000","-16","experiment","SSSSS","3","odd","4646","147058","NA","192949","189267","NA","194480","193450","2087","142385","NA","194581","195245","194478","194581","2084","Flanker Effect Test","95","55784.0","102","1024"
"93","93","545","545","#3d3846","legacy","legacy","legacy","congruent","1","undefined","1","h","0","0","0","102","102","0","102","102","0","0","0","102","102","102","102","0","Sun Sep 24 13:51:45 2023","600","The main experiment item","False","FlankerEffectTest.osexp","C:\Users\stcka\OneDrive\Sam Docs\Psychology Program\AP Textbooks\Quantitative Methods","False","mono","False","18","no","white","no","yes","768","legacy","22","79","C:/Users/stcka/OneDrive/Sam Docs/Psychology Program/AP Textbooks/Quantitative Methods/SA-subject-3.csv","legacy","Melodramatic Milgram","4.0.5","0","h","NA","s","s","NA","h","438.0","NA","2557","4671","NA","438","2","legacy","1024","2","48000","-16","experiment","HHHHH","3","odd","4646","147058","NA","192949","195253","NA","196799","195754","2087","142385","NA","196900","197340","196796","196900","2084","Flanker Effect Test","96","56222.0","103","1024"
"92","92","545","545","#3d3846","legacy","legacy","legacy","incongruent","0","undefined","0","h","0","0","0","103","103","0","103","103","0","0","0","103","103","103","103","0","Sun Sep 24 13:51:45 2023","600","The main experiment item","False","FlankerEffectTest.osexp","C:\Users\stcka\OneDrive\Sam Docs\Psychology Program\AP Textbooks\Quantitative Methods","False","mono","False","18","no","white","no","yes","768","legacy","23","79","C:/Users/stcka/OneDrive/Sam Docs/Psychology Program/AP Textbooks/Quantitative Methods/SA-subject-3.csv","legacy","Melodramatic Milgram","4.0.5","0","s","NA","s","s","NA","s","459.0","NA","2557","4671","NA","459","2","legacy","1024","2","48000","-16","experiment","SSHSS","3","odd","4646","147058","NA","192949","195253","NA","198380","197343","2087","142385","NA","198481","198941","198378","198480","2084","Flanker Effect Test","96","56681.0","104","1024"
"92","92","544","544","#3d3846","legacy","legacy","legacy","congruent","1","undefined","1","s","0","0","0","104","104","0","104","104","0","0","0","104","104","104","104","0","Sun Sep 24 13:51:45 2023","600","The main experiment item","False","FlankerEffectTest.osexp","C:\Users\stcka\OneDrive\Sam Docs\Psychology Program\AP Textbooks\Quantitative Methods","False","mono","False","18","no","white","no","yes","768","legacy","24","79","C:/Users/stcka/OneDrive/Sam Docs/Psychology Program/AP Textbooks/Quantitative Methods/SA-subject-3.csv","legacy","Melodramatic Milgram","4.0.5","0","s","NA","s","s","NA","s","512.0","NA","2557","4671","NA","512","2","legacy","1024","2","48000","-16","experiment","SSSSS","3","odd","4646","147058","NA","198946","195253","NA","200482","199447","2087","142385","NA","200583","201096","200480","200583","2084","Flanker Effect Test","97","57193.0","105","1024"
"91","91","544","544","#3d3846","legacy","legacy","legacy","incongruent","0","undefined","0","s","0","0","0","105","105","0","105","105","0","0","0","105","105","105","105","0","Sun Sep 24 13:51:45 2023","600","The main experiment item","False","FlankerEffectTest.osexp","C:\Users\stcka\OneDrive\Sam Docs\Psychology Program\AP Textbooks\Quantitative Methods","False","mono","False","18","no","white","no","yes","768","legacy","25","79","C:/Users/stcka/OneDrive/Sam Docs/Psychology Program/AP Textbooks/Quantitative Methods/SA-subject-3.csv","legacy","Melodramatic Milgram","4.0.5","0","h","NA","s","s","NA","h","494.0","NA","2557","4671","NA","494","2","legacy","1024","2","48000","-16","experiment","HHSHH","3","odd","4646","147058","NA","198946","195253","NA","202136","201101","2087","142385","NA","202237","202732","202134","202237","2084","Flanker Effect Test","97","57687.0","106","1024"
"91","91","543","543","#3d3846","legacy","legacy","legacy","incongruent","1","undefined","1","h","0","0","0","106","106","0","106","106","0","0","0","106","106","106","106","0","Sun Sep 24 13:51:45 2023","600","The main experiment item","False","FlankerEffectTest.osexp","C:\Users\stcka\OneDrive\Sam Docs\Psychology Program\AP Textbooks\Quantitative Methods","False","mono","False","18","no","white","no","yes","768","legacy","26","79","C:/Users/stcka/OneDrive/Sam Docs/Psychology Program/AP Textbooks/Quantitative Methods/SA-subject-3.csv","legacy","Melodramatic Milgram","4.0.5","0","h","NA","s","s","NA","h","492.0","NA","2557","4671","NA","492","2","legacy","1024","2","48000","-16","experiment","SSHSS","3","odd","4646","147058","NA","202736","195253","NA","204268","203237","2087","142385","NA","204369","204863","204267","204369","2084","Flanker Effect Test","98","58179.0","107","1024"
"91","91","542","542","#3d3846","legacy","legacy","legacy","congruent","1","undefined","1","h","0","0","0","107","107","0","107","107","0","0","0","107","107","107","107","0","Sun Sep 24 13:51:45 2023","600","The main experiment item","False","FlankerEffectTest.osexp","C:\Users\stcka\OneDrive\Sam Docs\Psychology Program\AP Textbooks\Quantitative Methods","False","mono","False","18","no","white","no","yes","768","legacy","27","79","C:/Users/stcka/OneDrive/Sam Docs/Psychology Program/AP Textbooks/Quantitative Methods/SA-subject-3.csv","legacy","Melodramatic Milgram","4.0.5","0","h","NA","s","s","NA","h","456.0","NA","2557","4671","NA","456","2","legacy","1024","2","48000","-16","experiment","HHHHH","3","odd","4646","147058","NA","202736","195253","NA","205904","204869","2087","142385","NA","206005","206463","205901","206005","2084","Flanker Effect Test","99","58635.0","108","1024"
"91","91","541","541","#3d3846","legacy","legacy","legacy","congruent","1","undefined","1","h","0","0","0","108","108","0","108","108","0","0","0","108","108","108","108","0","Sun Sep 24 13:51:45 2023","600","The main experiment item","False","FlankerEffectTest.osexp","C:\Users\stcka\OneDrive\Sam Docs\Psychology Program\AP Textbooks\Quantitative Methods","False","mono","False","18","no","white","no","yes","768","legacy","28","79","C:/Users/stcka/OneDrive/Sam Docs/Psychology Program/AP Textbooks/Quantitative Methods/SA-subject-3.csv","legacy","Melodramatic Milgram","4.0.5","0","h","NA","s","s","NA","h","441.0","NA","2557","4671","NA","441","2","legacy","1024","2","48000","-16","experiment","HHHHH","3","odd","4646","147058","NA","202736","195253","NA","207504","206469","2087","142385","NA","207605","208048","207502","207605","2084","Flanker Effect Test","100","59076.0","109","1024"
"91","91","541","541","#3d3846","legacy","legacy","legacy","congruent","1","undefined","1","h","0","0","0","109","109","0","109","109","0","0","0","109","109","109","109","0","Sun Sep 24 13:51:45 2023","600","The main experiment item","False","FlankerEffectTest.osexp","C:\Users\stcka\OneDrive\Sam Docs\Psychology Program\AP Textbooks\Quantitative Methods","False","mono","False","18","no","white","no","yes","768","legacy","29","79","C:/Users/stcka/OneDrive/Sam Docs/Psychology Program/AP Textbooks/Quantitative Methods/SA-subject-3.csv","legacy","Melodramatic Milgram","4.0.5","0","h","NA","s","s","NA","h","437.0","NA","2557","4671","NA","437","2","legacy","1024","2","48000","-16","experiment","HHHHH","3","odd","4646","147058","NA","202736","195253","NA","209086","208052","2087","142385","NA","209187","209625","209084","209187","2084","Flanker Effect Test","101","59513.0","110","1024"
"90","90","540","540","#3d3846","legacy","legacy","legacy","congruent","0","undefined","0","s","0","0","0","110","110","0","110","110","0","0","0","110","110","110","110","0","Sun Sep 24 13:51:45 2023","600","The main experiment item","False","FlankerEffectTest.osexp","C:\Users\stcka\OneDrive\Sam Docs\Psychology Program\AP Textbooks\Quantitative Methods","False","mono","False","18","no","white","no","yes","768","legacy","30","79","C:/Users/stcka/OneDrive/Sam Docs/Psychology Program/AP Textbooks/Quantitative Methods/SA-subject-3.csv","legacy","Melodramatic Milgram","4.0.5","0","h","NA","s","s","NA","h","456.0","NA","2557","4671","NA","456","2","legacy","1024","2","48000","-16","experiment","SSSSS","3","odd","4646","147058","NA","202736","195253","NA","210663","209629","2087","142385","NA","210764","211222","210661","210764","2084","Flanker Effect Test","101","59969.0","111","1024"
"91","91","538","538","#3d3846","legacy","legacy","legacy","congruent","1","undefined","1","s","0","0","0","111","111","0","111","111","0","0","0","111","111","111","111","0","Sun Sep 24 13:51:45 2023","600","The main experiment item","False","FlankerEffectTest.osexp","C:\Users\stcka\OneDrive\Sam Docs\Psychology Program\AP Textbooks\Quantitative Methods","False","mono","False","18","no","white","no","yes","768","legacy","31","79","C:/Users/stcka/OneDrive/Sam Docs/Psychology Program/AP Textbooks/Quantitative Methods/SA-subject-3.csv","legacy","Melodramatic Milgram","4.0.5","0","s","NA","s","s","NA","s","394.0","NA","2557","4671","NA","394","2","legacy","1024","2","48000","-16","experiment","SSSSS","3","odd","4646","147058","NA","211227","195253","NA","212760","211728","2087","142385","NA","212862","213258","212758","212862","2084","Flanker Effect Test","102","60363.0","112","1024"
