acc,accuracy,average_response_time,avg_rt,background,canvas_backend,clock_backend,color_backend,compensation,condition,coordinates,correct,correct_Instructions1,correct_keyboard_response,correct_response,count_Faster,count_ISI,count_Instructions1,count_Instructions2,count_Instructions3,count_Stimulus,count_block1,count_block2,count_block3,count_errorFeedback,count_experiment,count_finish,count_fixation,count_keyboard_response,count_new_logger,count_sequence,datetime,deadline,description,disable_garbage_collection,experiment_file,experiment_path,font_bold,font_family,font_italic,font_size,font_underline,foreground,form_clicks,fullscreen,height,keyboard_backend,live_row,live_row_block1,logfile,mouse_backend,opensesame_codename,opensesame_version,repeat_cycle,response,response_Instructions1,response_Instructions2,response_Instructions3,response_finish,response_keyboard_response,response_time,response_time_Instructions1,response_time_Instructions2,response_time_Instructions3,response_time_finish,response_time_keyboard_response,round_decimals,sampler_backend,sound_buf_size,sound_channels,sound_freq,sound_sample_size,start,stimulus,subject_nr,subject_parity,time_Faster,time_ISI,time_Instructions1,time_Instructions2,time_Instructions3,time_Stimulus,time_block1,time_block2,time_block3,time_errorFeedback,time_experiment,time_finish,time_fixation,time_keyboard_response,time_new_logger,time_sequence,title,total_correct,total_response_time,total_responses,uniform_coordinates,width
100,100,863,863,black,legacy,legacy,legacy,0,congruent,uniform,1,undefined,1,h,0,0,0,0,0,0,0,0,0,0,0,0,0,0,0,0,9/20/19 10:00,1500,The main experiment item,yes,FlankerTask.osexp,C:\Users\Jeanette\Desktop\Jeanette Master's\AQM&ED,no,mono,no,18,no,white,no,yes,768,legacy,0,0,C:/Users/Jeanette/Desktop/Jeanette Master's/AQM&ED/jh-subject-1.csv,legacy,Kafkaesque Koffka,3.2.8,0,h,h,NA,NA,NA,h,863,3013,NA,NA,NA,863,2,legacy,1024,2,48000,-16,experiment,HHHHH,1,odd,NA,NA,2304,NA,NA,5502,5318,NA,NA,NA,2296,NA,5396,5502,6365,5394,Flanker Task,1,863,1,yes,1024
100,100,618,618,black,legacy,legacy,legacy,0,congruent,uniform,1,undefined,1,s,1,1,0,0,0,1,0,0,0,1,0,0,1,1,1,1,9/20/19 10:00,1500,The main experiment item,yes,FlankerTask.osexp,C:\Users\Jeanette\Desktop\Jeanette Master's\AQM&ED,no,mono,no,18,no,white,no,yes,768,legacy,1,1,C:/Users/Jeanette/Desktop/Jeanette Master's/AQM&ED/jh-subject-1.csv,legacy,Kafkaesque Koffka,3.2.8,0,s,h,NA,NA,NA,s,373,3013,NA,NA,NA,373,2,legacy,1024,2,48000,-16,experiment,SSSSS,1,odd,NA,6415,2304,NA,NA,7623,5318,NA,NA,NA,2296,NA,7518,7623,7997,7515,Flanker Task,2,1236,2,yes,1024
66.66666667,66.66666667,556.3333333,556.3333333,black,legacy,legacy,legacy,0,incongruent,uniform,0,undefined,0,h,2,2,0,0,0,2,0,0,0,2,0,0,2,2,2,2,9/20/19 10:00,1500,The main experiment item,yes,FlankerTask.osexp,C:\Users\Jeanette\Desktop\Jeanette Master's\AQM&ED,no,mono,no,18,no,white,no,yes,768,legacy,2,2,C:/Users/Jeanette/Desktop/Jeanette Master's/AQM&ED/jh-subject-1.csv,legacy,Kafkaesque Koffka,3.2.8,0,s,h,NA,NA,NA,s,433,3013,NA,NA,NA,433,2,legacy,1024,2,48000,-16,experiment,SSHSS,1,odd,NA,8034,2304,NA,NA,9228,5318,NA,NA,NA,2296,NA,9123,9228,9661,9120,Flanker Task,2,1669,3,yes,1024
75,75,574.75,574.75,black,legacy,legacy,legacy,0,congruent,uniform,1,undefined,1,h,3,3,0,0,0,3,0,0,0,3,0,0,3,3,3,3,9/20/19 10:00,1500,The main experiment item,yes,FlankerTask.osexp,C:\Users\Jeanette\Desktop\Jeanette Master's\AQM&ED,no,mono,no,18,no,white,no,yes,768,legacy,3,3,C:/Users/Jeanette/Desktop/Jeanette Master's/AQM&ED/jh-subject-1.csv,legacy,Kafkaesque Koffka,3.2.8,0,h,h,NA,NA,NA,h,630,3013,NA,NA,NA,630,2,legacy,1024,2,48000,-16,experiment,HHHHH,1,odd,NA,10187,2304,NA,NA,11399,5318,NA,NA,9681,2296,NA,11294,11399,12030,11291,Flanker Task,3,2299,4,yes,1024
80,80,552.4,552.4,black,legacy,legacy,legacy,0,congruent,uniform,1,undefined,1,s,4,4,0,0,0,4,0,0,0,4,0,0,4,4,4,4,9/20/19 10:00,1500,The main experiment item,yes,FlankerTask.osexp,C:\Users\Jeanette\Desktop\Jeanette Master's\AQM&ED,no,mono,no,18,no,white,no,yes,768,legacy,4,4,C:/Users/Jeanette/Desktop/Jeanette Master's/AQM&ED/jh-subject-1.csv,legacy,Kafkaesque Koffka,3.2.8,0,s,h,NA,NA,NA,s,463,3013,NA,NA,NA,463,2,legacy,1024,2,48000,-16,experiment,SSSSS,1,odd,NA,12052,2304,NA,NA,13262,5318,NA,NA,9681,2296,NA,13157,13262,13726,13154,Flanker Task,4,2762,5,yes,1024
83.33333333,83.33333333,536,536,black,legacy,legacy,legacy,0,incongruent,uniform,1,undefined,1,h,5,5,0,0,0,5,0,0,0,5,0,0,5,5,5,5,9/20/19 10:00,1500,The main experiment item,yes,FlankerTask.osexp,C:\Users\Jeanette\Desktop\Jeanette Master's\AQM&ED,no,mono,no,18,no,white,no,yes,768,legacy,5,5,C:/Users/Jeanette/Desktop/Jeanette Master's/AQM&ED/jh-subject-1.csv,legacy,Kafkaesque Koffka,3.2.8,0,h,h,NA,NA,NA,h,454,3013,NA,NA,NA,454,2,legacy,1024,2,48000,-16,experiment,SSHSS,1,odd,NA,13749,2304,NA,NA,14959,5318,NA,NA,9681,2296,NA,14854,14959,15413,14851,Flanker Task,5,3216,6,yes,1024
85.71428571,85.71428571,537.8571429,537.8571429,black,legacy,legacy,legacy,0,incongruent,uniform,1,undefined,1,s,6,6,0,0,0,6,0,0,0,6,0,0,6,6,6,6,9/20/19 10:00,1500,The main experiment item,yes,FlankerTask.osexp,C:\Users\Jeanette\Desktop\Jeanette Master's\AQM&ED,no,mono,no,18,no,white,no,yes,768,legacy,6,6,C:/Users/Jeanette/Desktop/Jeanette Master's/AQM&ED/jh-subject-1.csv,legacy,Kafkaesque Koffka,3.2.8,0,s,h,NA,NA,NA,s,549,3013,NA,NA,NA,549,2,legacy,1024,2,48000,-16,experiment,HHSHH,1,odd,NA,15441,2304,NA,NA,16648,5318,NA,NA,9681,2296,NA,16543,16648,17197,16541,Flanker Task,6,3765,7,yes,1024
87.5,87.5,529.125,529.125,black,legacy,legacy,legacy,0,congruent,uniform,1,undefined,1,s,7,7,0,0,0,7,0,0,0,7,0,0,7,7,7,7,9/20/19 10:00,1500,The main experiment item,yes,FlankerTask.osexp,C:\Users\Jeanette\Desktop\Jeanette Master's\AQM&ED,no,mono,no,18,no,white,no,yes,768,legacy,7,7,C:/Users/Jeanette/Desktop/Jeanette Master's/AQM&ED/jh-subject-1.csv,legacy,Kafkaesque Koffka,3.2.8,0,s,h,NA,NA,NA,s,468,3013,NA,NA,NA,468,2,legacy,1024,2,48000,-16,experiment,SSSSS,1,odd,NA,17226,2304,NA,NA,18433,5318,NA,NA,9681,2296,NA,18328,18433,18902,18325,Flanker Task,7,4233,8,yes,1024
88.88888889,88.88888889,526.1111111,526.1111111,black,legacy,legacy,legacy,0,congruent,uniform,1,undefined,1,h,8,8,0,0,0,8,0,0,0,8,0,0,8,8,8,8,9/20/19 10:00,1500,The main experiment item,yes,FlankerTask.osexp,C:\Users\Jeanette\Desktop\Jeanette Master's\AQM&ED,no,mono,no,18,no,white,no,yes,768,legacy,8,8,C:/Users/Jeanette/Desktop/Jeanette Master's/AQM&ED/jh-subject-1.csv,legacy,Kafkaesque Koffka,3.2.8,0,h,h,NA,NA,NA,h,502,3013,NA,NA,NA,502,2,legacy,1024,2,48000,-16,experiment,HHHHH,1,odd,NA,18927,2304,NA,NA,20127,5318,NA,NA,9681,2296,NA,20022,20127,20629,20019,Flanker Task,8,4735,9,yes,1024
90,90,523.7,523.7,black,legacy,legacy,legacy,0,congruent,uniform,1,undefined,1,s,9,9,0,0,0,9,0,0,0,9,0,0,9,9,9,9,9/20/19 10:00,1500,The main experiment item,yes,FlankerTask.osexp,C:\Users\Jeanette\Desktop\Jeanette Master's\AQM&ED,no,mono,no,18,no,white,no,yes,768,legacy,9,9,C:/Users/Jeanette/Desktop/Jeanette Master's/AQM&ED/jh-subject-1.csv,legacy,Kafkaesque Koffka,3.2.8,0,s,h,NA,NA,NA,s,502,3013,NA,NA,NA,502,2,legacy,1024,2,48000,-16,experiment,SSSSS,1,odd,NA,20658,2304,NA,NA,21863,5318,NA,NA,9681,2296,NA,21758,21863,22365,21755,Flanker Task,9,5237,10,yes,1024
81.81818182,81.81818182,517.1818182,517.1818182,black,legacy,legacy,legacy,0,incongruent,uniform,0,undefined,0,s,10,10,0,0,0,10,0,0,0,10,0,0,10,10,10,10,9/20/19 10:00,1500,The main experiment item,yes,FlankerTask.osexp,C:\Users\Jeanette\Desktop\Jeanette Master's\AQM&ED,no,mono,no,18,no,white,no,yes,768,legacy,10,10,C:/Users/Jeanette/Desktop/Jeanette Master's/AQM&ED/jh-subject-1.csv,legacy,Kafkaesque Koffka,3.2.8,0,h,h,NA,NA,NA,h,452,3013,NA,NA,NA,452,2,legacy,1024,2,48000,-16,experiment,HHSHH,1,odd,NA,22386,2304,NA,NA,23585,5318,NA,NA,9681,2296,NA,23481,23585,24037,23478,Flanker Task,9,5689,11,yes,1024
83.33333333,83.33333333,511.1666667,511.1666667,black,legacy,legacy,legacy,0,incongruent,uniform,1,undefined,1,h,11,11,0,0,0,11,0,0,0,11,0,0,11,11,11,11,9/20/19 10:00,1500,The main experiment item,yes,FlankerTask.osexp,C:\Users\Jeanette\Desktop\Jeanette Master's\AQM&ED,no,mono,no,18,no,white,no,yes,768,legacy,11,11,C:/Users/Jeanette/Desktop/Jeanette Master's/AQM&ED/jh-subject-1.csv,legacy,Kafkaesque Koffka,3.2.8,0,h,h,NA,NA,NA,h,445,3013,NA,NA,NA,445,2,legacy,1024,2,48000,-16,experiment,SSHSS,1,odd,NA,24574,2304,NA,NA,25792,5318,NA,NA,24068,2296,NA,25687,25792,26238,25684,Flanker Task,10,6134,12,yes,1024
84.61538462,84.61538462,505.4615385,505.4615385,black,legacy,legacy,legacy,0,congruent,uniform,1,undefined,1,h,12,12,0,0,0,12,0,0,0,12,0,0,12,12,12,12,9/20/19 10:00,1500,The main experiment item,yes,FlankerTask.osexp,C:\Users\Jeanette\Desktop\Jeanette Master's\AQM&ED,no,mono,no,18,no,white,no,yes,768,legacy,12,12,C:/Users/Jeanette/Desktop/Jeanette Master's/AQM&ED/jh-subject-1.csv,legacy,Kafkaesque Koffka,3.2.8,0,h,h,NA,NA,NA,h,437,3013,NA,NA,NA,437,2,legacy,1024,2,48000,-16,experiment,HHHHH,1,odd,NA,26261,2304,NA,NA,27472,5318,NA,NA,24068,2296,NA,27367,27472,27910,27364,Flanker Task,11,6571,13,yes,1024
85.71428571,85.71428571,505.8571429,505.8571429,black,legacy,legacy,legacy,0,congruent,uniform,1,undefined,1,s,13,13,0,0,0,13,0,0,0,13,0,0,13,13,13,13,9/20/19 10:00,1500,The main experiment item,yes,FlankerTask.osexp,C:\Users\Jeanette\Desktop\Jeanette Master's\AQM&ED,no,mono,no,18,no,white,no,yes,768,legacy,13,13,C:/Users/Jeanette/Desktop/Jeanette Master's/AQM&ED/jh-subject-1.csv,legacy,Kafkaesque Koffka,3.2.8,0,s,h,NA,NA,NA,s,511,3013,NA,NA,NA,511,2,legacy,1024,2,48000,-16,experiment,SSSSS,1,odd,NA,27934,2304,NA,NA,29133,5318,NA,NA,24068,2296,NA,29027,29133,29645,29025,Flanker Task,12,7082,14,yes,1024
86.66666667,86.66666667,502.6666667,502.6666667,black,legacy,legacy,legacy,0,congruent,uniform,1,undefined,1,h,14,14,0,0,0,14,0,0,0,14,0,0,14,14,14,14,9/20/19 10:00,1500,The main experiment item,yes,FlankerTask.osexp,C:\Users\Jeanette\Desktop\Jeanette Master's\AQM&ED,no,mono,no,18,no,white,no,yes,768,legacy,14,14,C:/Users/Jeanette/Desktop/Jeanette Master's/AQM&ED/jh-subject-1.csv,legacy,Kafkaesque Koffka,3.2.8,0,h,h,NA,NA,NA,h,458,3013,NA,NA,NA,458,2,legacy,1024,2,48000,-16,experiment,HHHHH,1,odd,NA,29669,2304,NA,NA,30867,5318,NA,NA,24068,2296,NA,30762,30867,31326,30761,Flanker Task,13,7540,15,yes,1024
87.5,87.5,502.6875,502.6875,black,legacy,legacy,legacy,0,congruent,uniform,1,undefined,1,s,15,15,0,0,0,15,0,0,0,15,0,0,15,15,15,15,9/20/19 10:00,1500,The main experiment item,yes,FlankerTask.osexp,C:\Users\Jeanette\Desktop\Jeanette Master's\AQM&ED,no,mono,no,18,no,white,no,yes,768,legacy,15,15,C:/Users/Jeanette/Desktop/Jeanette Master's/AQM&ED/jh-subject-1.csv,legacy,Kafkaesque Koffka,3.2.8,0,s,h,NA,NA,NA,s,503,3013,NA,NA,NA,503,2,legacy,1024,2,48000,-16,experiment,SSSSS,1,odd,NA,31345,2304,NA,NA,32550,5318,NA,NA,24068,2296,NA,32445,32550,33053,32442,Flanker Task,14,8043,16,yes,1024
88.23529412,88.23529412,504.7058824,504.7058824,black,legacy,legacy,legacy,0,incongruent,uniform,1,undefined,1,h,16,16,0,0,0,16,0,0,0,16,0,0,16,16,16,16,9/20/19 10:00,1500,The main experiment item,yes,FlankerTask.osexp,C:\Users\Jeanette\Desktop\Jeanette Master's\AQM&ED,no,mono,no,18,no,white,no,yes,768,legacy,16,16,C:/Users/Jeanette/Desktop/Jeanette Master's/AQM&ED/jh-subject-1.csv,legacy,Kafkaesque Koffka,3.2.8,0,h,h,NA,NA,NA,h,537,3013,NA,NA,NA,537,2,legacy,1024,2,48000,-16,experiment,SSHSS,1,odd,NA,33078,2304,NA,NA,34284,5318,NA,NA,24068,2296,NA,34178,34284,34822,34176,Flanker Task,15,8580,17,yes,1024
88.88888889,88.88888889,497.6111111,497.6111111,black,legacy,legacy,legacy,0,incongruent,uniform,1,undefined,1,s,17,17,0,0,0,17,0,0,0,17,0,0,17,17,17,17,9/20/19 10:00,1500,The main experiment item,yes,FlankerTask.osexp,C:\Users\Jeanette\Desktop\Jeanette Master's\AQM&ED,no,mono,no,18,no,white,no,yes,768,legacy,17,17,C:/Users/Jeanette/Desktop/Jeanette Master's/AQM&ED/jh-subject-1.csv,legacy,Kafkaesque Koffka,3.2.8,0,s,h,NA,NA,NA,s,377,3013,NA,NA,NA,377,2,legacy,1024,2,48000,-16,experiment,HHSHH,1,odd,NA,34846,2304,NA,NA,36059,5318,NA,NA,24068,2296,NA,35954,36059,36437,35951,Flanker Task,16,8957,18,yes,1024
84.21052632,84.21052632,490.2105263,490.2105263,black,legacy,legacy,legacy,0,congruent,uniform,0,undefined,0,s,18,18,0,0,0,18,0,0,0,18,0,0,18,18,18,18,9/20/19 10:00,1500,The main experiment item,yes,FlankerTask.osexp,C:\Users\Jeanette\Desktop\Jeanette Master's\AQM&ED,no,mono,no,18,no,white,no,yes,768,legacy,18,18,C:/Users/Jeanette/Desktop/Jeanette Master's/AQM&ED/jh-subject-1.csv,legacy,Kafkaesque Koffka,3.2.8,0,h,h,NA,NA,NA,h,357,3013,NA,NA,NA,357,2,legacy,1024,2,48000,-16,experiment,SSSSS,1,odd,NA,36459,2304,NA,NA,37663,5318,NA,NA,24068,2296,NA,37558,37663,38021,37556,Flanker Task,16,9314,19,yes,1024
85,85,491,491,black,legacy,legacy,legacy,0,incongruent,uniform,1,undefined,1,h,19,19,0,0,0,19,0,0,0,19,0,0,19,19,19,19,9/20/19 10:00,1500,The main experiment item,yes,FlankerTask.osexp,C:\Users\Jeanette\Desktop\Jeanette Master's\AQM&ED,no,mono,no,18,no,white,no,yes,768,legacy,19,19,C:/Users/Jeanette/Desktop/Jeanette Master's/AQM&ED/jh-subject-1.csv,legacy,Kafkaesque Koffka,3.2.8,0,h,h,NA,NA,NA,h,506,3013,NA,NA,NA,506,2,legacy,1024,2,48000,-16,experiment,SSHSS,1,odd,NA,38550,2304,NA,NA,39771,5318,NA,NA,38045,2296,NA,39666,39771,40277,39663,Flanker Task,17,9820,20,yes,1024
85.71428571,85.71428571,492.7142857,492.7142857,black,legacy,legacy,legacy,0,congruent,uniform,1,undefined,1,h,20,20,0,0,0,20,0,0,0,20,0,0,20,20,20,20,9/20/19 10:00,1500,The main experiment item,yes,FlankerTask.osexp,C:\Users\Jeanette\Desktop\Jeanette Master's\AQM&ED,no,mono,no,18,no,white,no,yes,768,legacy,20,20,C:/Users/Jeanette/Desktop/Jeanette Master's/AQM&ED/jh-subject-1.csv,legacy,Kafkaesque Koffka,3.2.8,0,h,h,NA,NA,NA,h,527,3013,NA,NA,NA,527,2,legacy,1024,2,48000,-16,experiment,HHHHH,1,odd,NA,40296,2304,NA,NA,41494,5318,NA,NA,38045,2296,NA,41389,41494,42021,41386,Flanker Task,18,10347,21,yes,1024
86.36363636,86.36363636,491.0909091,491.0909091,black,legacy,legacy,legacy,0,congruent,uniform,1,undefined,1,h,21,21,0,0,0,21,0,0,0,21,0,0,21,21,21,21,9/20/19 10:00,1500,The main experiment item,yes,FlankerTask.osexp,C:\Users\Jeanette\Desktop\Jeanette Master's\AQM&ED,no,mono,no,18,no,white,no,yes,768,legacy,21,21,C:/Users/Jeanette/Desktop/Jeanette Master's/AQM&ED/jh-subject-1.csv,legacy,Kafkaesque Koffka,3.2.8,0,h,h,NA,NA,NA,h,457,3013,NA,NA,NA,457,2,legacy,1024,2,48000,-16,experiment,HHHHH,1,odd,NA,42043,2304,NA,NA,43252,5318,NA,NA,38045,2296,NA,43147,43252,43709,43144,Flanker Task,19,10804,22,yes,1024
86.95652174,86.95652174,488.7391304,488.7391304,black,legacy,legacy,legacy,0,congruent,uniform,1,undefined,1,s,22,22,0,0,0,22,0,0,0,22,0,0,22,22,22,22,9/20/19 10:00,1500,The main experiment item,yes,FlankerTask.osexp,C:\Users\Jeanette\Desktop\Jeanette Master's\AQM&ED,no,mono,no,18,no,white,no,yes,768,legacy,22,22,C:/Users/Jeanette/Desktop/Jeanette Master's/AQM&ED/jh-subject-1.csv,legacy,Kafkaesque Koffka,3.2.8,0,s,h,NA,NA,NA,s,437,3013,NA,NA,NA,437,2,legacy,1024,2,48000,-16,experiment,SSSSS,1,odd,NA,43730,2304,NA,NA,44936,5318,NA,NA,38045,2296,NA,44831,44936,45374,44829,Flanker Task,20,11241,23,yes,1024
87.5,87.5,490.125,490.125,black,legacy,legacy,legacy,0,incongruent,uniform,1,undefined,1,h,23,23,0,0,0,23,0,0,0,23,0,0,23,23,23,23,9/20/19 10:00,1500,The main experiment item,yes,FlankerTask.osexp,C:\Users\Jeanette\Desktop\Jeanette Master's\AQM&ED,no,mono,no,18,no,white,no,yes,768,legacy,23,23,C:/Users/Jeanette/Desktop/Jeanette Master's/AQM&ED/jh-subject-1.csv,legacy,Kafkaesque Koffka,3.2.8,0,h,h,NA,NA,NA,h,522,3013,NA,NA,NA,522,2,legacy,1024,2,48000,-16,experiment,SSHSS,1,odd,NA,45397,2304,NA,NA,46602,5318,NA,NA,38045,2296,NA,46497,46602,47125,46495,Flanker Task,21,11763,24,yes,1024
88,88,492.08,492.08,black,legacy,legacy,legacy,0,incongruent,uniform,1,undefined,1,s,24,24,0,0,0,24,0,0,0,24,0,0,24,24,24,24,9/20/19 10:00,1500,The main experiment item,yes,FlankerTask.osexp,C:\Users\Jeanette\Desktop\Jeanette Master's\AQM&ED,no,mono,no,18,no,white,no,yes,768,legacy,24,24,C:/Users/Jeanette/Desktop/Jeanette Master's/AQM&ED/jh-subject-1.csv,legacy,Kafkaesque Koffka,3.2.8,0,s,h,NA,NA,NA,s,539,3013,NA,NA,NA,539,2,legacy,1024,2,48000,-16,experiment,HHSHH,1,odd,NA,47146,2304,NA,NA,48361,5318,NA,NA,38045,2296,NA,48255,48361,48901,48252,Flanker Task,22,12302,25,yes,1024
88.46153846,88.46153846,493.0384615,493.0384615,black,legacy,legacy,legacy,0,congruent,uniform,1,undefined,1,s,25,25,0,0,0,25,0,0,0,25,0,0,25,25,25,25,9/20/19 10:00,1500,The main experiment item,yes,FlankerTask.osexp,C:\Users\Jeanette\Desktop\Jeanette Master's\AQM&ED,no,mono,no,18,no,white,no,yes,768,legacy,25,25,C:/Users/Jeanette/Desktop/Jeanette Master's/AQM&ED/jh-subject-1.csv,legacy,Kafkaesque Koffka,3.2.8,0,s,h,NA,NA,NA,s,517,3013,NA,NA,NA,517,2,legacy,1024,2,48000,-16,experiment,SSSSS,1,odd,NA,48922,2304,NA,NA,50127,5318,NA,NA,38045,2296,NA,50022,50127,50645,50019,Flanker Task,23,12819,26,yes,1024
85.18518519,85.18518519,488.2222222,488.2222222,black,legacy,legacy,legacy,0,incongruent,uniform,0,undefined,0,s,26,26,0,0,0,26,0,0,0,26,0,0,26,26,26,26,9/20/19 10:00,1500,The main experiment item,yes,FlankerTask.osexp,C:\Users\Jeanette\Desktop\Jeanette Master's\AQM&ED,no,mono,no,18,no,white,no,yes,768,legacy,26,26,C:/Users/Jeanette/Desktop/Jeanette Master's/AQM&ED/jh-subject-1.csv,legacy,Kafkaesque Koffka,3.2.8,0,h,h,NA,NA,NA,h,363,3013,NA,NA,NA,363,2,legacy,1024,2,48000,-16,experiment,HHSHH,1,odd,NA,50663,2304,NA,NA,51850,5318,NA,NA,38045,2296,NA,51745,51850,52213,51742,Flanker Task,23,13182,27,yes,1024
85.71428571,85.71428571,487.8214286,487.8214286,black,legacy,legacy,legacy,0,incongruent,uniform,1,undefined,1,s,27,27,0,0,0,27,0,0,0,27,0,0,27,27,27,27,9/20/19 10:00,1500,The main experiment item,yes,FlankerTask.osexp,C:\Users\Jeanette\Desktop\Jeanette Master's\AQM&ED,no,mono,no,18,no,white,no,yes,768,legacy,27,27,C:/Users/Jeanette/Desktop/Jeanette Master's/AQM&ED/jh-subject-1.csv,legacy,Kafkaesque Koffka,3.2.8,0,s,h,NA,NA,NA,s,477,3013,NA,NA,NA,477,2,legacy,1024,2,48000,-16,experiment,HHSHH,1,odd,NA,52741,2304,NA,NA,53944,5318,NA,NA,52236,2296,NA,53839,53944,54421,53836,Flanker Task,24,13659,28,yes,1024
86.20689655,86.20689655,490.0689655,490.0689655,black,legacy,legacy,legacy,0,incongruent,uniform,1,undefined,1,h,28,28,0,0,0,28,0,0,0,28,0,0,28,28,28,28,9/20/19 10:00,1500,The main experiment item,yes,FlankerTask.osexp,C:\Users\Jeanette\Desktop\Jeanette Master's\AQM&ED,no,mono,no,18,no,white,no,yes,768,legacy,28,28,C:/Users/Jeanette/Desktop/Jeanette Master's/AQM&ED/jh-subject-1.csv,legacy,Kafkaesque Koffka,3.2.8,0,h,h,NA,NA,NA,h,553,3013,NA,NA,NA,553,2,legacy,1024,2,48000,-16,experiment,SSHSS,1,odd,NA,54447,2304,NA,NA,55651,5318,NA,NA,52236,2296,NA,55545,55652,56205,55542,Flanker Task,25,14212,29,yes,1024
86.66666667,86.66666667,489.8333333,489.8333333,black,legacy,legacy,legacy,0,congruent,uniform,1,undefined,1,h,29,29,0,0,0,29,0,0,0,29,0,0,29,29,29,29,9/20/19 10:00,1500,The main experiment item,yes,FlankerTask.osexp,C:\Users\Jeanette\Desktop\Jeanette Master's\AQM&ED,no,mono,no,18,no,white,no,yes,768,legacy,29,29,C:/Users/Jeanette/Desktop/Jeanette Master's/AQM&ED/jh-subject-1.csv,legacy,Kafkaesque Koffka,3.2.8,0,h,h,NA,NA,NA,h,483,3013,NA,NA,NA,483,2,legacy,1024,2,48000,-16,experiment,HHHHH,1,odd,NA,56231,2304,NA,NA,57441,5318,NA,NA,52236,2296,NA,57336,57441,57925,57333,Flanker Task,26,14695,30,yes,1024
87.09677419,87.09677419,486.9354839,486.9354839,black,legacy,legacy,legacy,0,congruent,uniform,1,undefined,1,s,30,30,0,0,0,30,0,0,0,30,0,0,30,30,30,30,9/20/19 10:00,1500,The main experiment item,yes,FlankerTask.osexp,C:\Users\Jeanette\Desktop\Jeanette Master's\AQM&ED,no,mono,no,18,no,white,no,yes,768,legacy,30,30,C:/Users/Jeanette/Desktop/Jeanette Master's/AQM&ED/jh-subject-1.csv,legacy,Kafkaesque Koffka,3.2.8,0,s,h,NA,NA,NA,s,400,3013,NA,NA,NA,400,2,legacy,1024,2,48000,-16,experiment,SSSSS,1,odd,NA,57968,2304,NA,NA,59148,5318,NA,NA,52236,2296,NA,59043,59148,59549,59040,Flanker Task,27,15095,31,yes,1024
87.5,87.5,486.34375,486.34375,black,legacy,legacy,legacy,0,incongruent,uniform,1,undefined,1,h,31,31,0,0,0,31,0,0,0,31,0,0,31,31,31,31,9/20/19 10:00,1500,The main experiment item,yes,FlankerTask.osexp,C:\Users\Jeanette\Desktop\Jeanette Master's\AQM&ED,no,mono,no,18,no,white,no,yes,768,legacy,31,31,C:/Users/Jeanette/Desktop/Jeanette Master's/AQM&ED/jh-subject-1.csv,legacy,Kafkaesque Koffka,3.2.8,0,h,h,NA,NA,NA,h,468,3013,NA,NA,NA,468,2,legacy,1024,2,48000,-16,experiment,SSHSS,1,odd,NA,59578,2304,NA,NA,60777,5318,NA,NA,52236,2296,NA,60672,60777,61245,60669,Flanker Task,28,15563,32,yes,1024
87.87878788,87.87878788,483.3636364,483.3636364,black,legacy,legacy,legacy,0,incongruent,uniform,1,undefined,1,s,32,32,0,0,0,32,0,0,0,32,0,0,32,32,32,32,9/20/19 10:00,1500,The main experiment item,yes,FlankerTask.osexp,C:\Users\Jeanette\Desktop\Jeanette Master's\AQM&ED,no,mono,no,18,no,white,no,yes,768,legacy,32,32,C:/Users/Jeanette/Desktop/Jeanette Master's/AQM&ED/jh-subject-1.csv,legacy,Kafkaesque Koffka,3.2.8,0,s,h,NA,NA,NA,s,388,3013,NA,NA,NA,388,2,legacy,1024,2,48000,-16,experiment,HHSHH,1,odd,NA,61265,2304,NA,NA,62480,5318,NA,NA,52236,2296,NA,62375,62480,62869,62372,Flanker Task,29,15951,33,yes,1024
88.23529412,88.23529412,480.0294118,480.0294118,black,legacy,legacy,legacy,0,congruent,uniform,1,undefined,1,h,33,33,0,0,0,33,0,0,0,33,0,0,33,33,33,33,9/20/19 10:00,1500,The main experiment item,yes,FlankerTask.osexp,C:\Users\Jeanette\Desktop\Jeanette Master's\AQM&ED,no,mono,no,18,no,white,no,yes,768,legacy,33,33,C:/Users/Jeanette/Desktop/Jeanette Master's/AQM&ED/jh-subject-1.csv,legacy,Kafkaesque Koffka,3.2.8,0,h,h,NA,NA,NA,h,370,3013,NA,NA,NA,370,2,legacy,1024,2,48000,-16,experiment,HHHHH,1,odd,NA,62895,2304,NA,NA,64107,5318,NA,NA,52236,2296,NA,64002,64107,64477,63999,Flanker Task,30,16321,34,yes,1024
88.57142857,88.57142857,483.8571429,483.8571429,black,legacy,legacy,legacy,0,congruent,uniform,1,undefined,1,s,34,34,0,0,0,34,0,0,0,34,0,0,34,34,34,34,9/20/19 10:00,1500,The main experiment item,yes,FlankerTask.osexp,C:\Users\Jeanette\Desktop\Jeanette Master's\AQM&ED,no,mono,no,18,no,white,no,yes,768,legacy,34,34,C:/Users/Jeanette/Desktop/Jeanette Master's/AQM&ED/jh-subject-1.csv,legacy,Kafkaesque Koffka,3.2.8,0,s,h,NA,NA,NA,s,614,3013,NA,NA,NA,614,2,legacy,1024,2,48000,-16,experiment,SSSSS,1,odd,NA,64498,2304,NA,NA,65702,5318,NA,NA,52236,2296,NA,65598,65702,66317,65595,Flanker Task,31,16935,35,yes,1024
88.88888889,88.88888889,483.8888889,483.8888889,black,legacy,legacy,legacy,0,incongruent,uniform,1,undefined,1,h,35,35,0,0,0,35,0,0,0,35,0,0,35,35,35,35,9/20/19 10:00,1500,The main experiment item,yes,FlankerTask.osexp,C:\Users\Jeanette\Desktop\Jeanette Master's\AQM&ED,no,mono,no,18,no,white,no,yes,768,legacy,35,35,C:/Users/Jeanette/Desktop/Jeanette Master's/AQM&ED/jh-subject-1.csv,legacy,Kafkaesque Koffka,3.2.8,0,h,h,NA,NA,NA,h,485,3013,NA,NA,NA,485,2,legacy,1024,2,48000,-16,experiment,SSHSS,1,odd,NA,66340,2304,NA,NA,67551,5318,NA,NA,52236,2296,NA,67446,67551,68037,67443,Flanker Task,32,17420,36,yes,1024
89.18918919,89.18918919,487.2972973,487.2972973,black,legacy,legacy,legacy,0,congruent,uniform,1,undefined,1,s,36,36,0,0,0,36,0,0,0,36,0,0,36,36,36,36,9/20/19 10:00,1500,The main experiment item,yes,FlankerTask.osexp,C:\Users\Jeanette\Desktop\Jeanette Master's\AQM&ED,no,mono,no,18,no,white,no,yes,768,legacy,36,36,C:/Users/Jeanette/Desktop/Jeanette Master's/AQM&ED/jh-subject-1.csv,legacy,Kafkaesque Koffka,3.2.8,0,s,h,NA,NA,NA,s,610,3013,NA,NA,NA,610,2,legacy,1024,2,48000,-16,experiment,SSSSS,1,odd,NA,68062,2304,NA,NA,69267,5318,NA,NA,52236,2296,NA,69161,69267,69878,69158,Flanker Task,33,18030,37,yes,1024
89.47368421,89.47368421,489.6052632,489.6052632,black,legacy,legacy,legacy,0,incongruent,uniform,1,undefined,1,h,37,37,0,0,0,37,0,0,0,37,0,0,37,37,37,37,9/20/19 10:00,1500,The main experiment item,yes,FlankerTask.osexp,C:\Users\Jeanette\Desktop\Jeanette Master's\AQM&ED,no,mono,no,18,no,white,no,yes,768,legacy,37,37,C:/Users/Jeanette/Desktop/Jeanette Master's/AQM&ED/jh-subject-1.csv,legacy,Kafkaesque Koffka,3.2.8,0,h,h,NA,NA,NA,h,575,3013,NA,NA,NA,575,2,legacy,1024,2,48000,-16,experiment,SSHSS,1,odd,NA,69899,2304,NA,NA,71101,5318,NA,NA,52236,2296,NA,70996,71101,71677,70993,Flanker Task,34,18605,38,yes,1024
89.74358974,89.74358974,494,494,black,legacy,legacy,legacy,0,congruent,uniform,1,undefined,1,h,38,38,0,0,0,38,0,0,0,38,0,0,38,38,38,38,9/20/19 10:00,1500,The main experiment item,yes,FlankerTask.osexp,C:\Users\Jeanette\Desktop\Jeanette Master's\AQM&ED,no,mono,no,18,no,white,no,yes,768,legacy,38,38,C:/Users/Jeanette/Desktop/Jeanette Master's/AQM&ED/jh-subject-1.csv,legacy,Kafkaesque Koffka,3.2.8,0,h,h,NA,NA,NA,h,661,3013,NA,NA,NA,661,2,legacy,1024,2,48000,-16,experiment,HHHHH,1,odd,NA,71704,2304,NA,NA,72895,5318,NA,NA,52236,2296,NA,72789,72895,73557,72787,Flanker Task,35,19266,39,yes,1024
90,90,493.7,493.7,black,legacy,legacy,legacy,0,congruent,uniform,1,undefined,1,h,39,39,0,0,0,39,0,0,0,39,0,0,39,39,39,39,9/20/19 10:00,1500,The main experiment item,yes,FlankerTask.osexp,C:\Users\Jeanette\Desktop\Jeanette Master's\AQM&ED,no,mono,no,18,no,white,no,yes,768,legacy,39,39,C:/Users/Jeanette/Desktop/Jeanette Master's/AQM&ED/jh-subject-1.csv,legacy,Kafkaesque Koffka,3.2.8,0,h,h,NA,NA,NA,h,482,3013,NA,NA,NA,482,2,legacy,1024,2,48000,-16,experiment,HHHHH,1,odd,NA,73574,2304,NA,NA,74787,5318,NA,NA,52236,2296,NA,74682,74787,75269,74679,Flanker Task,36,19748,40,yes,1024
90.24390244,90.24390244,491.4634146,491.4634146,black,legacy,legacy,legacy,0,congruent,uniform,1,undefined,1,s,40,40,0,0,0,40,0,0,0,40,0,0,40,40,40,40,9/20/19 10:00,1500,The main experiment item,yes,FlankerTask.osexp,C:\Users\Jeanette\Desktop\Jeanette Master's\AQM&ED,no,mono,no,18,no,white,no,yes,768,legacy,40,40,C:/Users/Jeanette/Desktop/Jeanette Master's/AQM&ED/jh-subject-1.csv,legacy,Kafkaesque Koffka,3.2.8,0,s,h,NA,NA,NA,s,402,3013,NA,NA,NA,402,2,legacy,1024,2,48000,-16,experiment,SSSSS,1,odd,NA,75292,2304,NA,NA,76483,5318,NA,NA,52236,2296,NA,76378,76483,76885,76375,Flanker Task,37,20150,41,yes,1024
90.47619048,90.47619048,490.7142857,490.7142857,black,legacy,legacy,legacy,0,congruent,uniform,1,undefined,1,h,41,41,0,0,0,41,0,0,0,41,0,0,41,41,41,41,9/20/19 10:00,1500,The main experiment item,yes,FlankerTask.osexp,C:\Users\Jeanette\Desktop\Jeanette Master's\AQM&ED,no,mono,no,18,no,white,no,yes,768,legacy,41,41,C:/Users/Jeanette/Desktop/Jeanette Master's/AQM&ED/jh-subject-1.csv,legacy,Kafkaesque Koffka,3.2.8,0,h,h,NA,NA,NA,h,460,3013,NA,NA,NA,460,2,legacy,1024,2,48000,-16,experiment,HHHHH,1,odd,NA,76905,2304,NA,NA,78113,5318,NA,NA,52236,2296,NA,78007,78113,78574,78005,Flanker Task,38,20610,42,yes,1024
90.69767442,90.69767442,491.0930233,491.0930233,black,legacy,legacy,legacy,0,congruent,uniform,1,undefined,1,s,42,42,0,0,0,42,0,0,0,42,0,0,42,42,42,42,9/20/19 10:00,1500,The main experiment item,yes,FlankerTask.osexp,C:\Users\Jeanette\Desktop\Jeanette Master's\AQM&ED,no,mono,no,18,no,white,no,yes,768,legacy,42,42,C:/Users/Jeanette/Desktop/Jeanette Master's/AQM&ED/jh-subject-1.csv,legacy,Kafkaesque Koffka,3.2.8,0,s,h,NA,NA,NA,s,507,3013,NA,NA,NA,507,2,legacy,1024,2,48000,-16,experiment,SSSSS,1,odd,NA,78600,2304,NA,NA,79801,5318,NA,NA,52236,2296,NA,79696,79801,80309,79693,Flanker Task,39,21117,43,yes,1024
90.90909091,90.90909091,493.8863636,493.8863636,black,legacy,legacy,legacy,0,incongruent,uniform,1,undefined,1,s,43,43,0,0,0,43,0,0,0,43,0,0,43,43,43,43,9/20/19 10:00,1500,The main experiment item,yes,FlankerTask.osexp,C:\Users\Jeanette\Desktop\Jeanette Master's\AQM&ED,no,mono,no,18,no,white,no,yes,768,legacy,43,43,C:/Users/Jeanette/Desktop/Jeanette Master's/AQM&ED/jh-subject-1.csv,legacy,Kafkaesque Koffka,3.2.8,0,s,h,NA,NA,NA,s,614,3013,NA,NA,NA,614,2,legacy,1024,2,48000,-16,experiment,HHSHH,1,odd,NA,80333,2304,NA,NA,81542,5318,NA,NA,52236,2296,NA,81437,81542,82157,81434,Flanker Task,40,21731,44,yes,1024
91.11111111,91.11111111,493.9333333,493.9333333,black,legacy,legacy,legacy,0,congruent,uniform,1,undefined,1,s,44,44,0,0,0,44,0,0,0,44,0,0,44,44,44,44,9/20/19 10:00,1500,The main experiment item,yes,FlankerTask.osexp,C:\Users\Jeanette\Desktop\Jeanette Master's\AQM&ED,no,mono,no,18,no,white,no,yes,768,legacy,44,44,C:/Users/Jeanette/Desktop/Jeanette Master's/AQM&ED/jh-subject-1.csv,legacy,Kafkaesque Koffka,3.2.8,0,s,h,NA,NA,NA,s,496,3013,NA,NA,NA,496,2,legacy,1024,2,48000,-16,experiment,SSSSS,1,odd,NA,82189,2304,NA,NA,83380,5318,NA,NA,52236,2296,NA,83274,83380,83877,83271,Flanker Task,41,22227,45,yes,1024
91.30434783,91.30434783,494.5217391,494.5217391,black,legacy,legacy,legacy,0,incongruent,uniform,1,undefined,1,h,45,45,0,0,0,45,0,0,0,45,0,0,45,45,45,45,9/20/19 10:00,1500,The main experiment item,yes,FlankerTask.osexp,C:\Users\Jeanette\Desktop\Jeanette Master's\AQM&ED,no,mono,no,18,no,white,no,yes,768,legacy,45,45,C:/Users/Jeanette/Desktop/Jeanette Master's/AQM&ED/jh-subject-1.csv,legacy,Kafkaesque Koffka,3.2.8,0,h,h,NA,NA,NA,h,521,3013,NA,NA,NA,521,2,legacy,1024,2,48000,-16,experiment,SSHSS,1,odd,NA,83900,2304,NA,NA,85107,5318,NA,NA,52236,2296,NA,85002,85107,85629,84999,Flanker Task,42,22748,46,yes,1024
91.4893617,91.4893617,494.8510638,494.8510638,black,legacy,legacy,legacy,0,congruent,uniform,1,undefined,1,h,46,46,0,0,0,46,0,0,0,46,0,0,46,46,46,46,9/20/19 10:00,1500,The main experiment item,yes,FlankerTask.osexp,C:\Users\Jeanette\Desktop\Jeanette Master's\AQM&ED,no,mono,no,18,no,white,no,yes,768,legacy,46,46,C:/Users/Jeanette/Desktop/Jeanette Master's/AQM&ED/jh-subject-1.csv,legacy,Kafkaesque Koffka,3.2.8,0,h,h,NA,NA,NA,h,510,3013,NA,NA,NA,510,2,legacy,1024,2,48000,-16,experiment,HHHHH,1,odd,NA,85656,2304,NA,NA,86871,5318,NA,NA,52236,2296,NA,86766,86871,87381,86763,Flanker Task,43,23258,47,yes,1024
91.66666667,91.66666667,495.6875,495.6875,black,legacy,legacy,legacy,0,incongruent,uniform,1,undefined,1,h,47,47,0,0,0,47,0,0,0,47,0,0,47,47,47,47,9/20/19 10:00,1500,The main experiment item,yes,FlankerTask.osexp,C:\Users\Jeanette\Desktop\Jeanette Master's\AQM&ED,no,mono,no,18,no,white,no,yes,768,legacy,47,47,C:/Users/Jeanette/Desktop/Jeanette Master's/AQM&ED/jh-subject-1.csv,legacy,Kafkaesque Koffka,3.2.8,0,h,h,NA,NA,NA,h,535,3013,NA,NA,NA,535,2,legacy,1024,2,48000,-16,experiment,SSHSS,1,odd,NA,87401,2304,NA,NA,88614,5318,NA,NA,52236,2296,NA,88509,88614,89149,88506,Flanker Task,44,23793,48,yes,1024
91.83673469,91.83673469,495.1836735,495.1836735,black,legacy,legacy,legacy,0,congruent,uniform,1,undefined,1,h,48,48,0,0,0,48,0,0,0,48,0,0,48,48,48,48,9/20/19 10:00,1500,The main experiment item,yes,FlankerTask.osexp,C:\Users\Jeanette\Desktop\Jeanette Master's\AQM&ED,no,mono,no,18,no,white,no,yes,768,legacy,48,48,C:/Users/Jeanette/Desktop/Jeanette Master's/AQM&ED/jh-subject-1.csv,legacy,Kafkaesque Koffka,3.2.8,0,h,h,NA,NA,NA,h,471,3013,NA,NA,NA,471,2,legacy,1024,2,48000,-16,experiment,HHHHH,1,odd,NA,89173,2304,NA,NA,90381,5318,NA,NA,52236,2296,NA,90276,90382,90854,90272,Flanker Task,45,24264,49,yes,1024
92,92,495.32,495.32,black,legacy,legacy,legacy,0,congruent,uniform,1,undefined,1,s,49,49,0,0,0,49,0,0,0,49,0,0,49,49,49,49,9/20/19 10:00,1500,The main experiment item,yes,FlankerTask.osexp,C:\Users\Jeanette\Desktop\Jeanette Master's\AQM&ED,no,mono,no,18,no,white,no,yes,768,legacy,49,49,C:/Users/Jeanette/Desktop/Jeanette Master's/AQM&ED/jh-subject-1.csv,legacy,Kafkaesque Koffka,3.2.8,0,s,h,NA,NA,NA,s,502,3013,NA,NA,NA,502,2,legacy,1024,2,48000,-16,experiment,SSSSS,1,odd,NA,90877,2304,NA,NA,92078,5318,NA,NA,52236,2296,NA,91972,92078,92581,91969,Flanker Task,46,24766,50,yes,1024
92.15686275,92.15686275,498.0980392,498.0980392,black,legacy,legacy,legacy,0,incongruent,uniform,1,undefined,1,s,50,50,0,0,0,50,0,0,0,50,0,0,50,50,50,50,9/20/19 10:00,1500,The main experiment item,yes,FlankerTask.osexp,C:\Users\Jeanette\Desktop\Jeanette Master's\AQM&ED,no,mono,no,18,no,white,no,yes,768,legacy,50,50,C:/Users/Jeanette/Desktop/Jeanette Master's/AQM&ED/jh-subject-1.csv,legacy,Kafkaesque Koffka,3.2.8,0,s,h,NA,NA,NA,s,637,3013,NA,NA,NA,637,2,legacy,1024,2,48000,-16,experiment,HHSHH,1,odd,NA,92607,2304,NA,NA,93816,5318,NA,NA,52236,2296,NA,93711,93816,94453,93708,Flanker Task,47,25403,51,yes,1024
92.30769231,92.30769231,499.1730769,499.1730769,black,legacy,legacy,legacy,0,incongruent,uniform,1,undefined,1,h,51,51,0,0,0,51,0,0,0,51,0,0,51,51,51,51,9/20/19 10:00,1500,The main experiment item,yes,FlankerTask.osexp,C:\Users\Jeanette\Desktop\Jeanette Master's\AQM&ED,no,mono,no,18,no,white,no,yes,768,legacy,51,51,C:/Users/Jeanette/Desktop/Jeanette Master's/AQM&ED/jh-subject-1.csv,legacy,Kafkaesque Koffka,3.2.8,0,h,h,NA,NA,NA,h,554,3013,NA,NA,NA,554,2,legacy,1024,2,48000,-16,experiment,SSHSS,1,odd,NA,94477,2304,NA,NA,95675,5318,NA,NA,52236,2296,NA,95572,95675,96229,95569,Flanker Task,48,25957,52,yes,1024
92.45283019,92.45283019,499.9245283,499.9245283,black,legacy,legacy,legacy,0,congruent,uniform,1,undefined,1,s,52,52,0,0,0,52,0,0,0,52,0,0,52,52,52,52,9/20/19 10:00,1500,The main experiment item,yes,FlankerTask.osexp,C:\Users\Jeanette\Desktop\Jeanette Master's\AQM&ED,no,mono,no,18,no,white,no,yes,768,legacy,52,52,C:/Users/Jeanette/Desktop/Jeanette Master's/AQM&ED/jh-subject-1.csv,legacy,Kafkaesque Koffka,3.2.8,0,s,h,NA,NA,NA,s,539,3013,NA,NA,NA,539,2,legacy,1024,2,48000,-16,experiment,SSSSS,1,odd,NA,96258,2304,NA,NA,97449,5318,NA,NA,52236,2296,NA,97344,97449,97989,97341,Flanker Task,49,26496,53,yes,1024
92.59259259,92.59259259,499.1481481,499.1481481,black,legacy,legacy,legacy,0,incongruent,uniform,1,undefined,1,s,53,53,0,0,0,53,0,0,0,53,0,0,53,53,53,53,9/20/19 10:00,1500,The main experiment item,yes,FlankerTask.osexp,C:\Users\Jeanette\Desktop\Jeanette Master's\AQM&ED,no,mono,no,18,no,white,no,yes,768,legacy,53,53,C:/Users/Jeanette/Desktop/Jeanette Master's/AQM&ED/jh-subject-1.csv,legacy,Kafkaesque Koffka,3.2.8,0,s,h,NA,NA,NA,s,458,3013,NA,NA,NA,458,2,legacy,1024,2,48000,-16,experiment,HHSHH,1,odd,NA,98010,2304,NA,NA,99210,5318,NA,NA,52236,2296,NA,99105,99210,99669,99101,Flanker Task,50,26954,54,yes,1024
92.72727273,92.72727273,498.4,498.4,black,legacy,legacy,legacy,0,congruent,uniform,1,undefined,1,s,54,54,0,0,0,54,0,0,0,54,0,0,54,54,54,54,9/20/19 10:00,1500,The main experiment item,yes,FlankerTask.osexp,C:\Users\Jeanette\Desktop\Jeanette Master's\AQM&ED,no,mono,no,18,no,white,no,yes,768,legacy,54,54,C:/Users/Jeanette/Desktop/Jeanette Master's/AQM&ED/jh-subject-1.csv,legacy,Kafkaesque Koffka,3.2.8,0,s,h,NA,NA,NA,s,458,3013,NA,NA,NA,458,2,legacy,1024,2,48000,-16,experiment,SSSSS,1,odd,NA,99694,2304,NA,NA,100891,5318,NA,NA,52236,2296,NA,100786,100891,101350,100783,Flanker Task,51,27412,55,yes,1024
92.85714286,92.85714286,496.4821429,496.4821429,black,legacy,legacy,legacy,0,congruent,uniform,1,undefined,1,h,55,55,0,0,0,55,0,0,0,55,0,0,55,55,55,55,9/20/19 10:00,1500,The main experiment item,yes,FlankerTask.osexp,C:\Users\Jeanette\Desktop\Jeanette Master's\AQM&ED,no,mono,no,18,no,white,no,yes,768,legacy,55,55,C:/Users/Jeanette/Desktop/Jeanette Master's/AQM&ED/jh-subject-1.csv,legacy,Kafkaesque Koffka,3.2.8,0,h,h,NA,NA,NA,h,391,3013,NA,NA,NA,391,2,legacy,1024,2,48000,-16,experiment,HHHHH,1,odd,NA,101369,2304,NA,NA,102573,5318,NA,NA,52236,2296,NA,102468,102573,102965,102465,Flanker Task,52,27803,56,yes,1024
91.22807018,91.22807018,495.5614035,495.5614035,black,legacy,legacy,legacy,0,incongruent,uniform,0,undefined,0,s,56,56,0,0,0,56,0,0,0,56,0,0,56,56,56,56,9/20/19 10:00,1500,The main experiment item,yes,FlankerTask.osexp,C:\Users\Jeanette\Desktop\Jeanette Master's\AQM&ED,no,mono,no,18,no,white,no,yes,768,legacy,56,56,C:/Users/Jeanette/Desktop/Jeanette Master's/AQM&ED/jh-subject-1.csv,legacy,Kafkaesque Koffka,3.2.8,0,h,h,NA,NA,NA,h,444,3013,NA,NA,NA,444,2,legacy,1024,2,48000,-16,experiment,HHSHH,1,odd,NA,102991,2304,NA,NA,104200,5318,NA,NA,52236,2296,NA,104095,104200,104645,104091,Flanker Task,52,28247,57,yes,1024
91.37931034,91.37931034,494.0344828,494.0344828,black,legacy,legacy,legacy,0,congruent,uniform,1,undefined,1,h,57,57,0,0,0,57,0,0,0,57,0,0,57,57,57,57,9/20/19 10:00,1500,The main experiment item,yes,FlankerTask.osexp,C:\Users\Jeanette\Desktop\Jeanette Master's\AQM&ED,no,mono,no,18,no,white,no,yes,768,legacy,57,57,C:/Users/Jeanette/Desktop/Jeanette Master's/AQM&ED/jh-subject-1.csv,legacy,Kafkaesque Koffka,3.2.8,0,h,h,NA,NA,NA,h,407,3013,NA,NA,NA,407,2,legacy,1024,2,48000,-16,experiment,HHHHH,1,odd,NA,105174,2304,NA,NA,106373,5318,NA,NA,104669,2296,NA,106268,106373,106781,106265,Flanker Task,53,28654,58,yes,1024
89.83050847,89.83050847,492.9152542,492.9152542,black,legacy,legacy,legacy,0,incongruent,uniform,0,undefined,0,h,58,58,0,0,0,58,0,0,0,58,0,0,58,58,58,58,9/20/19 10:00,1500,The main experiment item,yes,FlankerTask.osexp,C:\Users\Jeanette\Desktop\Jeanette Master's\AQM&ED,no,mono,no,18,no,white,no,yes,768,legacy,58,58,C:/Users/Jeanette/Desktop/Jeanette Master's/AQM&ED/jh-subject-1.csv,legacy,Kafkaesque Koffka,3.2.8,0,s,h,NA,NA,NA,s,428,3013,NA,NA,NA,428,2,legacy,1024,2,48000,-16,experiment,SSHSS,1,odd,NA,106808,2304,NA,NA,108000,5318,NA,NA,104669,2296,NA,107895,108000,108429,107892,Flanker Task,53,29082,59,yes,1024
90,90,494.45,494.45,black,legacy,legacy,legacy,0,incongruent,uniform,1,undefined,1,s,59,59,0,0,0,59,0,0,0,59,0,0,59,59,59,59,9/20/19 10:00,1500,The main experiment item,yes,FlankerTask.osexp,C:\Users\Jeanette\Desktop\Jeanette Master's\AQM&ED,no,mono,no,18,no,white,no,yes,768,legacy,59,59,C:/Users/Jeanette/Desktop/Jeanette Master's/AQM&ED/jh-subject-1.csv,legacy,Kafkaesque Koffka,3.2.8,0,s,h,NA,NA,NA,s,585,3013,NA,NA,NA,585,2,legacy,1024,2,48000,-16,experiment,HHSHH,1,odd,NA,108956,2304,NA,NA,110163,5318,NA,NA,108450,2296,NA,110058,110163,110749,110055,Flanker Task,54,29667,60,yes,1024
90.16393443,90.16393443,494.3934426,494.3934426,black,legacy,legacy,legacy,0,incongruent,uniform,1,undefined,1,h,60,60,0,0,0,60,0,0,0,60,0,0,60,60,60,60,9/20/19 10:00,1500,The main experiment item,yes,FlankerTask.osexp,C:\Users\Jeanette\Desktop\Jeanette Master's\AQM&ED,no,mono,no,18,no,white,no,yes,768,legacy,60,60,C:/Users/Jeanette/Desktop/Jeanette Master's/AQM&ED/jh-subject-1.csv,legacy,Kafkaesque Koffka,3.2.8,0,h,h,NA,NA,NA,h,491,3013,NA,NA,NA,491,2,legacy,1024,2,48000,-16,experiment,SSHSS,1,odd,NA,110770,2304,NA,NA,111984,5318,NA,NA,108450,2296,NA,111878,111985,112477,111876,Flanker Task,55,30158,61,yes,1024
90.32258065,90.32258065,493.0806452,493.0806452,black,legacy,legacy,legacy,0,congruent,uniform,1,undefined,1,s,61,61,0,0,0,61,0,0,0,61,0,0,61,61,61,61,9/20/19 10:00,1500,The main experiment item,yes,FlankerTask.osexp,C:\Users\Jeanette\Desktop\Jeanette Master's\AQM&ED,no,mono,no,18,no,white,no,yes,768,legacy,61,61,C:/Users/Jeanette/Desktop/Jeanette Master's/AQM&ED/jh-subject-1.csv,legacy,Kafkaesque Koffka,3.2.8,0,s,h,NA,NA,NA,s,413,3013,NA,NA,NA,413,2,legacy,1024,2,48000,-16,experiment,SSSSS,1,odd,NA,112504,2304,NA,NA,113703,5318,NA,NA,108450,2296,NA,113600,113703,114117,113597,Flanker Task,56,30571,62,yes,1024
90.47619048,90.47619048,492.4603175,492.4603175,black,legacy,legacy,legacy,0,congruent,uniform,1,undefined,1,s,62,62,0,0,0,62,0,0,0,62,0,0,62,62,62,62,9/20/19 10:00,1500,The main experiment item,yes,FlankerTask.osexp,C:\Users\Jeanette\Desktop\Jeanette Master's\AQM&ED,no,mono,no,18,no,white,no,yes,768,legacy,62,62,C:/Users/Jeanette/Desktop/Jeanette Master's/AQM&ED/jh-subject-1.csv,legacy,Kafkaesque Koffka,3.2.8,0,s,h,NA,NA,NA,s,454,3013,NA,NA,NA,454,2,legacy,1024,2,48000,-16,experiment,SSSSS,1,odd,NA,114137,2304,NA,NA,115350,5318,NA,NA,108450,2296,NA,115245,115350,115805,115242,Flanker Task,57,31025,63,yes,1024
90.625,90.625,493.171875,493.171875,black,legacy,legacy,legacy,0,congruent,uniform,1,undefined,1,h,63,63,0,0,0,63,0,0,0,63,0,0,63,63,63,63,9/20/19 10:00,1500,The main experiment item,yes,FlankerTask.osexp,C:\Users\Jeanette\Desktop\Jeanette Master's\AQM&ED,no,mono,no,18,no,white,no,yes,768,legacy,63,63,C:/Users/Jeanette/Desktop/Jeanette Master's/AQM&ED/jh-subject-1.csv,legacy,Kafkaesque Koffka,3.2.8,0,h,h,NA,NA,NA,h,538,3013,NA,NA,NA,538,2,legacy,1024,2,48000,-16,experiment,HHHHH,1,odd,NA,115829,2304,NA,NA,117026,5318,NA,NA,108450,2296,NA,116921,117027,117565,116918,Flanker Task,58,31563,64,yes,1024
90.76923077,90.76923077,493.0923077,493.0923077,black,legacy,legacy,legacy,0,incongruent,uniform,1,undefined,1,h,64,64,0,0,0,64,0,0,0,64,0,0,64,64,64,64,9/20/19 10:00,1500,The main experiment item,yes,FlankerTask.osexp,C:\Users\Jeanette\Desktop\Jeanette Master's\AQM&ED,no,mono,no,18,no,white,no,yes,768,legacy,64,64,C:/Users/Jeanette/Desktop/Jeanette Master's/AQM&ED/jh-subject-1.csv,legacy,Kafkaesque Koffka,3.2.8,0,h,h,NA,NA,NA,h,488,3013,NA,NA,NA,488,2,legacy,1024,2,48000,-16,experiment,SSHSS,1,odd,NA,117596,2304,NA,NA,118796,5318,NA,NA,108450,2296,NA,118691,118796,119285,118688,Flanker Task,59,32051,65,yes,1024
90.90909091,90.90909091,495.0757576,495.0757576,black,legacy,legacy,legacy,0,incongruent,uniform,1,undefined,1,s,65,65,0,0,0,65,0,0,0,65,0,0,65,65,65,65,9/20/19 10:00,1500,The main experiment item,yes,FlankerTask.osexp,C:\Users\Jeanette\Desktop\Jeanette Master's\AQM&ED,no,mono,no,18,no,white,no,yes,768,legacy,65,65,C:/Users/Jeanette/Desktop/Jeanette Master's/AQM&ED/jh-subject-1.csv,legacy,Kafkaesque Koffka,3.2.8,0,s,h,NA,NA,NA,s,624,3013,NA,NA,NA,624,2,legacy,1024,2,48000,-16,experiment,HHSHH,1,odd,NA,119304,2304,NA,NA,120508,5318,NA,NA,108450,2296,NA,120403,120508,121133,120400,Flanker Task,60,32675,66,yes,1024
91.04477612,91.04477612,495.4477612,495.4477612,black,legacy,legacy,legacy,0,incongruent,uniform,1,undefined,1,h,66,66,0,0,0,66,0,0,0,66,0,0,66,66,66,66,9/20/19 10:00,1500,The main experiment item,yes,FlankerTask.osexp,C:\Users\Jeanette\Desktop\Jeanette Master's\AQM&ED,no,mono,no,18,no,white,no,yes,768,legacy,66,66,C:/Users/Jeanette/Desktop/Jeanette Master's/AQM&ED/jh-subject-1.csv,legacy,Kafkaesque Koffka,3.2.8,0,h,h,NA,NA,NA,h,520,3013,NA,NA,NA,520,2,legacy,1024,2,48000,-16,experiment,SSHSS,1,odd,NA,121160,2304,NA,NA,122364,5318,NA,NA,108450,2296,NA,122259,122364,122885,122256,Flanker Task,61,33195,67,yes,1024
91.17647059,91.17647059,497.2058824,497.2058824,black,legacy,legacy,legacy,0,incongruent,uniform,1,undefined,1,s,67,67,0,0,0,67,0,0,0,67,0,0,67,67,67,67,9/20/19 10:00,1500,The main experiment item,yes,FlankerTask.osexp,C:\Users\Jeanette\Desktop\Jeanette Master's\AQM&ED,no,mono,no,18,no,white,no,yes,768,legacy,67,67,C:/Users/Jeanette/Desktop/Jeanette Master's/AQM&ED/jh-subject-1.csv,legacy,Kafkaesque Koffka,3.2.8,0,s,h,NA,NA,NA,s,615,3013,NA,NA,NA,615,2,legacy,1024,2,48000,-16,experiment,HHSHH,1,odd,NA,122904,2304,NA,NA,124125,5318,NA,NA,108450,2296,NA,124019,124125,124741,124017,Flanker Task,62,33810,68,yes,1024
91.30434783,91.30434783,496.3768116,496.3768116,black,legacy,legacy,legacy,0,incongruent,uniform,1,undefined,1,h,68,68,0,0,0,68,0,0,0,68,0,0,68,68,68,68,9/20/19 10:00,1500,The main experiment item,yes,FlankerTask.osexp,C:\Users\Jeanette\Desktop\Jeanette Master's\AQM&ED,no,mono,no,18,no,white,no,yes,768,legacy,68,68,C:/Users/Jeanette/Desktop/Jeanette Master's/AQM&ED/jh-subject-1.csv,legacy,Kafkaesque Koffka,3.2.8,0,h,h,NA,NA,NA,h,440,3013,NA,NA,NA,440,2,legacy,1024,2,48000,-16,experiment,SSHSS,1,odd,NA,124768,2304,NA,NA,125971,5318,NA,NA,108450,2296,NA,125866,125972,126413,125863,Flanker Task,63,34250,69,yes,1024
91.42857143,91.42857143,496.4857143,496.4857143,black,legacy,legacy,legacy,0,incongruent,uniform,1,undefined,1,s,69,69,0,0,0,69,0,0,0,69,0,0,69,69,69,69,9/20/19 10:00,1500,The main experiment item,yes,FlankerTask.osexp,C:\Users\Jeanette\Desktop\Jeanette Master's\AQM&ED,no,mono,no,18,no,white,no,yes,768,legacy,69,69,C:/Users/Jeanette/Desktop/Jeanette Master's/AQM&ED/jh-subject-1.csv,legacy,Kafkaesque Koffka,3.2.8,0,s,h,NA,NA,NA,s,504,3013,NA,NA,NA,504,2,legacy,1024,2,48000,-16,experiment,HHSHH,1,odd,NA,126438,2304,NA,NA,127651,5318,NA,NA,108450,2296,NA,127546,127652,128157,127543,Flanker Task,64,34754,70,yes,1024
91.54929577,91.54929577,495.7605634,495.7605634,black,legacy,legacy,legacy,0,incongruent,uniform,1,undefined,1,h,70,70,0,0,0,70,0,0,0,70,0,0,70,70,70,70,9/20/19 10:00,1500,The main experiment item,yes,FlankerTask.osexp,C:\Users\Jeanette\Desktop\Jeanette Master's\AQM&ED,no,mono,no,18,no,white,no,yes,768,legacy,70,70,C:/Users/Jeanette/Desktop/Jeanette Master's/AQM&ED/jh-subject-1.csv,legacy,Kafkaesque Koffka,3.2.8,0,h,h,NA,NA,NA,h,445,3013,NA,NA,NA,445,2,legacy,1024,2,48000,-16,experiment,SSHSS,1,odd,NA,128177,2304,NA,NA,129383,5318,NA,NA,108450,2296,NA,129278,129383,129829,129275,Flanker Task,65,35199,71,yes,1024
91.66666667,91.66666667,496.2777778,496.2777778,black,legacy,legacy,legacy,0,incongruent,uniform,1,undefined,1,s,71,71,0,0,0,71,0,0,0,71,0,0,71,71,71,71,9/20/19 10:00,1500,The main experiment item,yes,FlankerTask.osexp,C:\Users\Jeanette\Desktop\Jeanette Master's\AQM&ED,no,mono,no,18,no,white,no,yes,768,legacy,71,71,C:/Users/Jeanette/Desktop/Jeanette Master's/AQM&ED/jh-subject-1.csv,legacy,Kafkaesque Koffka,3.2.8,0,s,h,NA,NA,NA,s,533,3013,NA,NA,NA,533,2,legacy,1024,2,48000,-16,experiment,HHSHH,1,odd,NA,129855,2304,NA,NA,131063,5318,NA,NA,108450,2296,NA,130958,131063,131597,130955,Flanker Task,66,35732,72,yes,1024
91.78082192,91.78082192,496.6712329,496.6712329,black,legacy,legacy,legacy,0,incongruent,uniform,1,undefined,1,h,72,72,0,0,0,72,0,0,0,72,0,0,72,72,72,72,9/20/19 10:00,1500,The main experiment item,yes,FlankerTask.osexp,C:\Users\Jeanette\Desktop\Jeanette Master's\AQM&ED,no,mono,no,18,no,white,no,yes,768,legacy,72,72,C:/Users/Jeanette/Desktop/Jeanette Master's/AQM&ED/jh-subject-1.csv,legacy,Kafkaesque Koffka,3.2.8,0,h,h,NA,NA,NA,h,525,3013,NA,NA,NA,525,2,legacy,1024,2,48000,-16,experiment,SSHSS,1,odd,NA,131622,2304,NA,NA,132823,5318,NA,NA,108450,2296,NA,132718,132823,133349,132715,Flanker Task,67,36257,73,yes,1024
91.89189189,91.89189189,497.2702703,497.2702703,black,legacy,legacy,legacy,0,incongruent,uniform,1,undefined,1,s,73,73,0,0,0,73,0,0,0,73,0,0,73,73,73,73,9/20/19 10:00,1500,The main experiment item,yes,FlankerTask.osexp,C:\Users\Jeanette\Desktop\Jeanette Master's\AQM&ED,no,mono,no,18,no,white,no,yes,768,legacy,73,73,C:/Users/Jeanette/Desktop/Jeanette Master's/AQM&ED/jh-subject-1.csv,legacy,Kafkaesque Koffka,3.2.8,0,s,h,NA,NA,NA,s,541,3013,NA,NA,NA,541,2,legacy,1024,2,48000,-16,experiment,HHSHH,1,odd,NA,133370,2304,NA,NA,134575,5318,NA,NA,108450,2296,NA,134469,134575,135117,134466,Flanker Task,68,36798,74,yes,1024
92,92,496.8933333,496.8933333,black,legacy,legacy,legacy,0,congruent,uniform,1,undefined,1,h,74,74,0,0,0,74,0,0,0,74,0,0,74,74,74,74,9/20/19 10:00,1500,The main experiment item,yes,FlankerTask.osexp,C:\Users\Jeanette\Desktop\Jeanette Master's\AQM&ED,no,mono,no,18,no,white,no,yes,768,legacy,74,74,C:/Users/Jeanette/Desktop/Jeanette Master's/AQM&ED/jh-subject-1.csv,legacy,Kafkaesque Koffka,3.2.8,0,h,h,NA,NA,NA,h,469,3013,NA,NA,NA,469,2,legacy,1024,2,48000,-16,experiment,HHHHH,1,odd,NA,135139,2304,NA,NA,136343,5318,NA,NA,108450,2296,NA,136238,136343,136813,136235,Flanker Task,69,37267,75,yes,1024
92.10526316,92.10526316,496.3815789,496.3815789,black,legacy,legacy,legacy,0,incongruent,uniform,1,undefined,1,s,75,75,0,0,0,75,0,0,0,75,0,0,75,75,75,75,9/20/19 10:00,1500,The main experiment item,yes,FlankerTask.osexp,C:\Users\Jeanette\Desktop\Jeanette Master's\AQM&ED,no,mono,no,18,no,white,no,yes,768,legacy,75,75,C:/Users/Jeanette/Desktop/Jeanette Master's/AQM&ED/jh-subject-1.csv,legacy,Kafkaesque Koffka,3.2.8,0,s,h,NA,NA,NA,s,458,3013,NA,NA,NA,458,2,legacy,1024,2,48000,-16,experiment,HHSHH,1,odd,NA,136836,2304,NA,NA,138042,5318,NA,NA,108450,2296,NA,137937,138042,138501,137933,Flanker Task,70,37725,76,yes,1024
92.20779221,92.20779221,495.7532468,495.7532468,black,legacy,legacy,legacy,0,congruent,uniform,1,undefined,1,h,76,76,0,0,0,76,0,0,0,76,0,0,76,76,76,76,9/20/19 10:00,1500,The main experiment item,yes,FlankerTask.osexp,C:\Users\Jeanette\Desktop\Jeanette Master's\AQM&ED,no,mono,no,18,no,white,no,yes,768,legacy,76,76,C:/Users/Jeanette/Desktop/Jeanette Master's/AQM&ED/jh-subject-1.csv,legacy,Kafkaesque Koffka,3.2.8,0,h,h,NA,NA,NA,h,448,3013,NA,NA,NA,448,2,legacy,1024,2,48000,-16,experiment,HHHHH,1,odd,NA,138528,2304,NA,NA,139732,5318,NA,NA,108450,2296,NA,139627,139732,140181,139623,Flanker Task,71,38173,77,yes,1024
92.30769231,92.30769231,496.4871795,496.4871795,black,legacy,legacy,legacy,0,incongruent,uniform,1,undefined,1,s,77,77,0,0,0,77,0,0,0,77,0,0,77,77,77,77,9/20/19 10:00,1500,The main experiment item,yes,FlankerTask.osexp,C:\Users\Jeanette\Desktop\Jeanette Master's\AQM&ED,no,mono,no,18,no,white,no,yes,768,legacy,77,77,C:/Users/Jeanette/Desktop/Jeanette Master's/AQM&ED/jh-subject-1.csv,legacy,Kafkaesque Koffka,3.2.8,0,s,h,NA,NA,NA,s,553,3013,NA,NA,NA,553,2,legacy,1024,2,48000,-16,experiment,HHSHH,1,odd,NA,140207,2304,NA,NA,141395,5318,NA,NA,108450,2296,NA,141290,141395,141949,141287,Flanker Task,72,38726,78,yes,1024
92.40506329,92.40506329,496.1392405,496.1392405,black,legacy,legacy,legacy,0,incongruent,uniform,1,undefined,1,s,78,78,0,0,0,78,0,0,0,78,0,0,78,78,78,78,9/20/19 10:00,1500,The main experiment item,yes,FlankerTask.osexp,C:\Users\Jeanette\Desktop\Jeanette Master's\AQM&ED,no,mono,no,18,no,white,no,yes,768,legacy,78,78,C:/Users/Jeanette/Desktop/Jeanette Master's/AQM&ED/jh-subject-1.csv,legacy,Kafkaesque Koffka,3.2.8,0,s,h,NA,NA,NA,s,469,3013,NA,NA,NA,469,2,legacy,1024,2,48000,-16,experiment,HHSHH,1,odd,NA,141970,2304,NA,NA,143167,5318,NA,NA,108450,2296,NA,143062,143167,143637,143059,Flanker Task,73,39195,79,yes,1024
92.5,92.5,494.575,494.575,black,legacy,legacy,legacy,0,congruent,uniform,1,undefined,1,h,79,79,0,0,0,79,0,0,0,79,0,0,79,79,79,79,9/20/19 10:00,1500,The main experiment item,yes,FlankerTask.osexp,C:\Users\Jeanette\Desktop\Jeanette Master's\AQM&ED,no,mono,no,18,no,white,no,yes,768,legacy,79,79,C:/Users/Jeanette/Desktop/Jeanette Master's/AQM&ED/jh-subject-1.csv,legacy,Kafkaesque Koffka,3.2.8,0,h,h,NA,NA,NA,h,371,3013,NA,NA,NA,371,2,legacy,1024,2,48000,-16,experiment,HHHHH,1,odd,NA,143663,2304,NA,NA,144865,5318,NA,NA,108450,2296,NA,144760,144865,145237,144757,Flanker Task,74,39566,80,yes,1024
91.35802469,91.35802469,495.8024691,495.8024691,black,legacy,legacy,legacy,0,Incongruent,uniform,0,undefined,0,s,80,80,0,0,0,80,0,0,0,80,0,0,80,80,80,80,9/20/19 10:00,600,The main experiment item,yes,FlankerTask.osexp,C:\Users\Jeanette\Desktop\Jeanette Master's\AQM&ED,no,mono,no,18,no,white,no,yes,768,legacy,0,79,C:/Users/Jeanette/Desktop/Jeanette Master's/AQM&ED/jh-subject-1.csv,legacy,Kafkaesque Koffka,3.2.8,0,h,h,h,NA,NA,h,594,3013,237631,NA,NA,594,2,legacy,1024,2,48000,-16,experiment,HHSHH,1,odd,NA,145257,2304,146291,NA,384104,5318,383924,NA,108450,2296,NA,383998,384105,384700,383996,Flanker Task,74,40160,81,yes,1024
91.46341463,91.46341463,494.5,494.5,black,legacy,legacy,legacy,0,Congruent,uniform,1,undefined,1,s,81,81,0,0,0,81,0,0,0,81,0,0,81,81,81,81,9/20/19 10:00,600,The main experiment item,yes,FlankerTask.osexp,C:\Users\Jeanette\Desktop\Jeanette Master's\AQM&ED,no,mono,no,18,no,white,no,yes,768,legacy,1,79,C:/Users/Jeanette/Desktop/Jeanette Master's/AQM&ED/jh-subject-1.csv,legacy,Kafkaesque Koffka,3.2.8,0,s,h,h,NA,NA,s,389,3013,237631,NA,NA,389,2,legacy,1024,2,48000,-16,experiment,SSSSS,1,odd,NA,385230,2304,146291,NA,386454,5318,383924,NA,384723,2296,NA,386348,386454,386844,386346,Flanker Task,75,40549,82,yes,1024
91.56626506,91.56626506,492.5301205,492.5301205,black,legacy,legacy,legacy,0,Congruent,uniform,1,undefined,1,h,82,82,0,0,0,82,0,0,0,82,0,0,82,82,82,82,9/20/19 10:00,600,The main experiment item,yes,FlankerTask.osexp,C:\Users\Jeanette\Desktop\Jeanette Master's\AQM&ED,no,mono,no,18,no,white,no,yes,768,legacy,2,79,C:/Users/Jeanette/Desktop/Jeanette Master's/AQM&ED/jh-subject-1.csv,legacy,Kafkaesque Koffka,3.2.8,0,h,h,h,NA,NA,h,331,3013,237631,NA,NA,331,2,legacy,1024,2,48000,-16,experiment,HHHHH,1,odd,NA,386870,2304,146291,NA,388056,5318,383924,NA,384723,2296,NA,387951,388056,388388,387948,Flanker Task,76,40880,83,yes,1024
91.66666667,91.66666667,492.5714286,492.5714286,black,legacy,legacy,legacy,0,Incongruent,uniform,1,undefined,1,h,83,83,0,0,0,83,0,0,0,83,0,0,83,83,83,83,9/20/19 10:00,600,The main experiment item,yes,FlankerTask.osexp,C:\Users\Jeanette\Desktop\Jeanette Master's\AQM&ED,no,mono,no,18,no,white,no,yes,768,legacy,3,79,C:/Users/Jeanette/Desktop/Jeanette Master's/AQM&ED/jh-subject-1.csv,legacy,Kafkaesque Koffka,3.2.8,0,h,h,h,NA,NA,h,496,3013,237631,NA,NA,496,2,legacy,1024,2,48000,-16,experiment,SSHSS,1,odd,NA,388407,2304,146291,NA,389610,5318,383924,NA,384723,2296,NA,389504,389610,390108,389501,Flanker Task,77,41376,84,yes,1024
91.76470588,91.76470588,490.4941176,490.4941176,black,legacy,legacy,legacy,0,Congruent,uniform,1,undefined,1,s,84,84,0,0,0,84,0,0,0,84,0,0,84,84,84,84,9/20/19 10:00,600,The main experiment item,yes,FlankerTask.osexp,C:\Users\Jeanette\Desktop\Jeanette Master's\AQM&ED,no,mono,no,18,no,white,no,yes,768,legacy,4,79,C:/Users/Jeanette/Desktop/Jeanette Master's/AQM&ED/jh-subject-1.csv,legacy,Kafkaesque Koffka,3.2.8,0,s,h,h,NA,NA,s,316,3013,237631,NA,NA,316,2,legacy,1024,2,48000,-16,experiment,SSSSS,1,odd,NA,390129,2304,146291,NA,391326,5318,383924,NA,384723,2296,NA,391221,391326,391643,391218,Flanker Task,78,41692,85,yes,1024
90.69767442,90.69767442,488.5348837,488.5348837,black,legacy,legacy,legacy,0,Congruent,uniform,0,undefined,0,s,85,85,0,0,0,85,0,0,0,85,0,0,85,85,85,85,9/20/19 10:00,600,The main experiment item,yes,FlankerTask.osexp,C:\Users\Jeanette\Desktop\Jeanette Master's\AQM&ED,no,mono,no,18,no,white,no,yes,768,legacy,5,79,C:/Users/Jeanette/Desktop/Jeanette Master's/AQM&ED/jh-subject-1.csv,legacy,Kafkaesque Koffka,3.2.8,0,h,h,h,NA,NA,h,322,3013,237631,NA,NA,322,2,legacy,1024,2,48000,-16,experiment,SSSSS,1,odd,NA,391666,2304,146291,NA,392872,5318,383924,NA,384723,2296,NA,392767,392873,393196,392764,Flanker Task,78,42014,86,yes,1024
90.8045977,90.8045977,487.1724138,487.1724138,black,legacy,legacy,legacy,0,Incongruent,uniform,1,undefined,1,h,86,86,0,0,0,86,0,0,0,86,0,0,86,86,86,86,9/20/19 10:00,600,The main experiment item,yes,FlankerTask.osexp,C:\Users\Jeanette\Desktop\Jeanette Master's\AQM&ED,no,mono,no,18,no,white,no,yes,768,legacy,6,79,C:/Users/Jeanette/Desktop/Jeanette Master's/AQM&ED/jh-subject-1.csv,legacy,Kafkaesque Koffka,3.2.8,0,h,h,h,NA,NA,h,370,3013,237631,NA,NA,370,2,legacy,1024,2,48000,-16,experiment,SSHSS,1,odd,NA,393727,2304,146291,NA,394944,5318,383924,NA,393221,2296,NA,394839,394944,395315,394836,Flanker Task,79,42384,87,yes,1024
90.90909091,90.90909091,485.3977273,485.3977273,black,legacy,legacy,legacy,0,Congruent,uniform,1,undefined,1,s,87,87,0,0,0,87,0,0,0,87,0,0,87,87,87,87,9/20/19 10:00,600,The main experiment item,yes,FlankerTask.osexp,C:\Users\Jeanette\Desktop\Jeanette Master's\AQM&ED,no,mono,no,18,no,white,no,yes,768,legacy,7,79,C:/Users/Jeanette/Desktop/Jeanette Master's/AQM&ED/jh-subject-1.csv,legacy,Kafkaesque Koffka,3.2.8,0,s,h,h,NA,NA,s,331,3013,237631,NA,NA,331,2,legacy,1024,2,48000,-16,experiment,SSSSS,1,odd,NA,395351,2304,146291,NA,396559,5318,383924,NA,393221,2296,NA,396454,396559,396891,396451,Flanker Task,80,42715,88,yes,1024
89.88764045,89.88764045,483.2696629,483.2696629,black,legacy,legacy,legacy,0,Congruent,uniform,0,undefined,0,s,88,88,0,0,0,88,0,0,0,88,0,0,88,88,88,88,9/20/19 10:00,600,The main experiment item,yes,FlankerTask.osexp,C:\Users\Jeanette\Desktop\Jeanette Master's\AQM&ED,no,mono,no,18,no,white,no,yes,768,legacy,8,79,C:/Users/Jeanette/Desktop/Jeanette Master's/AQM&ED/jh-subject-1.csv,legacy,Kafkaesque Koffka,3.2.8,0,h,h,h,NA,NA,h,296,3013,237631,NA,NA,296,2,legacy,1024,2,48000,-16,experiment,SSSSS,1,odd,NA,396916,2304,146291,NA,398122,5318,383924,NA,393221,2296,NA,398017,398122,398419,398014,Flanker Task,80,43011,89,yes,1024
90,90,481.9777778,481.9777778,black,legacy,legacy,legacy,0,Incongruent,uniform,1,undefined,1,s,89,89,0,0,0,89,0,0,0,89,0,0,89,89,89,89,9/20/19 10:00,600,The main experiment item,yes,FlankerTask.osexp,C:\Users\Jeanette\Desktop\Jeanette Master's\AQM&ED,no,mono,no,18,no,white,no,yes,768,legacy,9,79,C:/Users/Jeanette/Desktop/Jeanette Master's/AQM&ED/jh-subject-1.csv,legacy,Kafkaesque Koffka,3.2.8,0,s,h,h,NA,NA,s,367,3013,237631,NA,NA,367,2,legacy,1024,2,48000,-16,experiment,HHSHH,1,odd,NA,398952,2304,146291,NA,400139,5318,383924,NA,398446,2296,NA,400034,400139,400508,400031,Flanker Task,81,43378,90,yes,1024
90.10989011,90.10989011,481.2307692,481.2307692,black,legacy,legacy,legacy,0,Congruent,uniform,1,undefined,1,s,90,90,0,0,0,90,0,0,0,90,0,0,90,90,90,90,9/20/19 10:00,600,The main experiment item,yes,FlankerTask.osexp,C:\Users\Jeanette\Desktop\Jeanette Master's\AQM&ED,no,mono,no,18,no,white,no,yes,768,legacy,10,79,C:/Users/Jeanette/Desktop/Jeanette Master's/AQM&ED/jh-subject-1.csv,legacy,Kafkaesque Koffka,3.2.8,0,s,h,h,NA,NA,s,414,3013,237631,NA,NA,414,2,legacy,1024,2,48000,-16,experiment,SSSSS,1,odd,NA,400533,2304,146291,NA,401732,5318,383924,NA,398446,2296,NA,401626,401732,402147,401623,Flanker Task,82,43792,91,yes,1024
89.13043478,89.13043478,479.2717391,479.2717391,black,legacy,legacy,legacy,0,Incongruent,uniform,0,undefined,0,s,91,91,0,0,0,91,0,0,0,91,0,0,91,91,91,91,9/20/19 10:00,600,The main experiment item,yes,FlankerTask.osexp,C:\Users\Jeanette\Desktop\Jeanette Master's\AQM&ED,no,mono,no,18,no,white,no,yes,768,legacy,11,79,C:/Users/Jeanette/Desktop/Jeanette Master's/AQM&ED/jh-subject-1.csv,legacy,Kafkaesque Koffka,3.2.8,0,h,h,h,NA,NA,h,301,3013,237631,NA,NA,301,2,legacy,1024,2,48000,-16,experiment,HHSHH,1,odd,NA,402172,2304,146291,NA,403374,5318,383924,NA,398446,2296,NA,403269,403374,403676,403266,Flanker Task,82,44093,92,yes,1024
89.24731183,89.24731183,478.6989247,478.6989247,black,legacy,legacy,legacy,0,Incongruent,uniform,1,undefined,1,s,92,92,0,0,0,92,0,0,0,92,0,0,92,92,92,92,9/20/19 10:00,600,The main experiment item,yes,FlankerTask.osexp,C:\Users\Jeanette\Desktop\Jeanette Master's\AQM&ED,no,mono,no,18,no,white,no,yes,768,legacy,12,79,C:/Users/Jeanette/Desktop/Jeanette Master's/AQM&ED/jh-subject-1.csv,legacy,Kafkaesque Koffka,3.2.8,0,s,h,h,NA,NA,s,426,3013,237631,NA,NA,426,2,legacy,1024,2,48000,-16,experiment,HHSHH,1,odd,NA,404212,2304,146291,NA,405416,5318,383924,NA,403705,2296,NA,405312,405416,405843,405309,Flanker Task,83,44519,93,yes,1024
89.36170213,89.36170213,477.7340426,477.7340426,black,legacy,legacy,legacy,0,Incongruent,uniform,1,undefined,1,s,93,93,0,0,0,93,0,0,0,93,0,0,93,93,93,93,9/20/19 10:00,600,The main experiment item,yes,FlankerTask.osexp,C:\Users\Jeanette\Desktop\Jeanette Master's\AQM&ED,no,mono,no,18,no,white,no,yes,768,legacy,13,79,C:/Users/Jeanette/Desktop/Jeanette Master's/AQM&ED/jh-subject-1.csv,legacy,Kafkaesque Koffka,3.2.8,0,s,h,h,NA,NA,s,388,3013,237631,NA,NA,388,2,legacy,1024,2,48000,-16,experiment,HHSHH,1,odd,NA,405867,2304,146291,NA,407071,5318,383924,NA,403705,2296,NA,406965,407071,407460,406963,Flanker Task,84,44907,94,yes,1024
89.47368421,89.47368421,475.8210526,475.8210526,black,legacy,legacy,legacy,0,Incongruent,uniform,1,undefined,1,h,94,94,0,0,0,94,0,0,0,94,0,0,94,94,94,94,9/20/19 10:00,600,The main experiment item,yes,FlankerTask.osexp,C:\Users\Jeanette\Desktop\Jeanette Master's\AQM&ED,no,mono,no,18,no,white,no,yes,768,legacy,14,79,C:/Users/Jeanette/Desktop/Jeanette Master's/AQM&ED/jh-subject-1.csv,legacy,Kafkaesque Koffka,3.2.8,0,h,h,h,NA,NA,h,296,3013,237631,NA,NA,296,2,legacy,1024,2,48000,-16,experiment,SSHSS,1,odd,NA,407481,2304,146291,NA,408691,5318,383924,NA,403705,2296,NA,408586,408691,408988,408583,Flanker Task,85,45203,95,yes,1024
89.58333333,89.58333333,474.2291667,474.2291667,black,legacy,legacy,legacy,0,Incongruent,uniform,1,undefined,1,s,95,95,0,0,0,95,0,0,0,95,0,0,95,95,95,95,9/20/19 10:00,600,The main experiment item,yes,FlankerTask.osexp,C:\Users\Jeanette\Desktop\Jeanette Master's\AQM&ED,no,mono,no,18,no,white,no,yes,768,legacy,15,79,C:/Users/Jeanette/Desktop/Jeanette Master's/AQM&ED/jh-subject-1.csv,legacy,Kafkaesque Koffka,3.2.8,0,s,h,h,NA,NA,s,323,3013,237631,NA,NA,323,2,legacy,1024,2,48000,-16,experiment,HHSHH,1,odd,NA,409018,2304,146291,NA,410224,5318,383924,NA,403705,2296,NA,410119,410224,410548,410116,Flanker Task,86,45526,96,yes,1024
89.69072165,89.69072165,472.7731959,472.7731959,black,legacy,legacy,legacy,0,Incongruent,uniform,1,undefined,1,s,96,96,0,0,0,96,0,0,0,96,0,0,96,96,96,96,9/20/19 10:00,600,The main experiment item,yes,FlankerTask.osexp,C:\Users\Jeanette\Desktop\Jeanette Master's\AQM&ED,no,mono,no,18,no,white,no,yes,768,legacy,16,79,C:/Users/Jeanette/Desktop/Jeanette Master's/AQM&ED/jh-subject-1.csv,legacy,Kafkaesque Koffka,3.2.8,0,s,h,h,NA,NA,s,333,3013,237631,NA,NA,333,2,legacy,1024,2,48000,-16,experiment,HHSHH,1,odd,NA,410573,2304,146291,NA,411781,5318,383924,NA,403705,2296,NA,411676,411781,412115,411673,Flanker Task,87,45859,97,yes,1024
88.7755102,88.7755102,470.7857143,470.7857143,black,legacy,legacy,legacy,0,Congruent,uniform,0,undefined,0,s,97,97,0,0,0,97,0,0,0,97,0,0,97,97,97,97,9/20/19 10:00,600,The main experiment item,yes,FlankerTask.osexp,C:\Users\Jeanette\Desktop\Jeanette Master's\AQM&ED,no,mono,no,18,no,white,no,yes,768,legacy,17,79,C:/Users/Jeanette/Desktop/Jeanette Master's/AQM&ED/jh-subject-1.csv,legacy,Kafkaesque Koffka,3.2.8,0,h,h,h,NA,NA,h,278,3013,237631,NA,NA,278,2,legacy,1024,2,48000,-16,experiment,SSSSS,1,odd,NA,412134,2304,146291,NA,413340,5318,383924,NA,403705,2296,NA,413234,413340,413619,413231,Flanker Task,87,46137,98,yes,1024
88.88888889,88.88888889,471.0707071,471.0707071,black,legacy,legacy,legacy,0,Congruent,uniform,1,undefined,1,h,98,98,0,0,0,98,0,0,0,98,0,0,98,98,98,98,9/20/19 10:00,600,The main experiment item,yes,FlankerTask.osexp,C:\Users\Jeanette\Desktop\Jeanette Master's\AQM&ED,no,mono,no,18,no,white,no,yes,768,legacy,18,79,C:/Users/Jeanette/Desktop/Jeanette Master's/AQM&ED/jh-subject-1.csv,legacy,Kafkaesque Koffka,3.2.8,0,h,h,h,NA,NA,h,499,3013,237631,NA,NA,499,2,legacy,1024,2,48000,-16,experiment,HHHHH,1,odd,NA,414156,2304,146291,NA,415367,5318,383924,NA,413651,2296,NA,415262,415367,415868,415259,Flanker Task,88,46636,99,yes,1024
89,89,470.91,470.91,black,legacy,legacy,legacy,0,Incongruent,uniform,1,undefined,1,s,99,99,0,0,0,99,0,0,0,99,0,0,99,99,99,99,9/20/19 10:00,600,The main experiment item,yes,FlankerTask.osexp,C:\Users\Jeanette\Desktop\Jeanette Master's\AQM&ED,no,mono,no,18,no,white,no,yes,768,legacy,19,79,C:/Users/Jeanette/Desktop/Jeanette Master's/AQM&ED/jh-subject-1.csv,legacy,Kafkaesque Koffka,3.2.8,0,s,h,h,NA,NA,s,455,3013,237631,NA,NA,455,2,legacy,1024,2,48000,-16,experiment,HHSHH,1,odd,NA,415890,2304,146291,NA,417107,5318,383924,NA,413651,2296,NA,417002,417107,417564,416999,Flanker Task,89,47091,100,yes,1024
88.11881188,88.11881188,470.4158416,470.4158416,black,legacy,legacy,legacy,0,Congruent,uniform,0,undefined,0,h,100,100,0,0,0,100,0,0,0,100,0,0,100,100,100,100,9/20/19 10:00,600,The main experiment item,yes,FlankerTask.osexp,C:\Users\Jeanette\Desktop\Jeanette Master's\AQM&ED,no,mono,no,18,no,white,no,yes,768,legacy,20,79,C:/Users/Jeanette/Desktop/Jeanette Master's/AQM&ED/jh-subject-1.csv,legacy,Kafkaesque Koffka,3.2.8,0,s,h,h,NA,NA,s,421,3013,237631,NA,NA,421,2,legacy,1024,2,48000,-16,experiment,HHHHH,1,odd,NA,417590,2304,146291,NA,418797,5318,383924,NA,413651,2296,NA,418692,418797,419219,418689,Flanker Task,89,47512,101,yes,1024
87.25490196,87.25490196,469.6862745,469.6862745,black,legacy,legacy,legacy,0,Incongruent,uniform,0,undefined,0,h,101,101,0,0,0,101,0,0,0,101,0,0,101,101,101,101,9/20/19 10:00,600,The main experiment item,yes,FlankerTask.osexp,C:\Users\Jeanette\Desktop\Jeanette Master's\AQM&ED,no,mono,no,18,no,white,no,yes,768,legacy,21,79,C:/Users/Jeanette/Desktop/Jeanette Master's/AQM&ED/jh-subject-1.csv,legacy,Kafkaesque Koffka,3.2.8,0,s,h,h,NA,NA,s,396,3013,237631,NA,NA,396,2,legacy,1024,2,48000,-16,experiment,SSHSS,1,odd,NA,419749,2304,146291,NA,420958,5318,383924,NA,419243,2296,NA,420852,420958,421355,420849,Flanker Task,89,47908,102,yes,1024
87.37864078,87.37864078,469.4951456,469.4951456,black,legacy,legacy,legacy,0,Congruent,uniform,1,undefined,1,h,102,102,0,0,0,102,0,0,0,102,0,0,102,102,102,102,9/20/19 10:00,600,The main experiment item,yes,FlankerTask.osexp,C:\Users\Jeanette\Desktop\Jeanette Master's\AQM&ED,no,mono,no,18,no,white,no,yes,768,legacy,22,79,C:/Users/Jeanette/Desktop/Jeanette Master's/AQM&ED/jh-subject-1.csv,legacy,Kafkaesque Koffka,3.2.8,0,h,h,h,NA,NA,h,450,3013,237631,NA,NA,450,2,legacy,1024,2,48000,-16,experiment,HHHHH,1,odd,NA,421899,2304,146291,NA,423112,5318,383924,NA,421393,2296,NA,423007,423112,423563,423005,Flanker Task,90,48358,103,yes,1024
87.5,87.5,468.0576923,468.0576923,black,legacy,legacy,legacy,0,Incongruent,uniform,1,undefined,1,h,103,103,0,0,0,103,0,0,0,103,0,0,103,103,103,103,9/20/19 10:00,600,The main experiment item,yes,FlankerTask.osexp,C:\Users\Jeanette\Desktop\Jeanette Master's\AQM&ED,no,mono,no,18,no,white,no,yes,768,legacy,23,79,C:/Users/Jeanette/Desktop/Jeanette Master's/AQM&ED/jh-subject-1.csv,legacy,Kafkaesque Koffka,3.2.8,0,h,h,h,NA,NA,h,320,3013,237631,NA,NA,320,2,legacy,1024,2,48000,-16,experiment,SSHSS,1,odd,NA,423585,2304,146291,NA,424779,5318,383924,NA,421393,2296,NA,424674,424779,425100,424671,Flanker Task,91,48678,104,yes,1024
87.61904762,87.61904762,467.8,467.8,black,legacy,legacy,legacy,0,Congruent,uniform,1,undefined,1,s,104,104,0,0,0,104,0,0,0,104,0,0,104,104,104,104,9/20/19 10:00,600,The main experiment item,yes,FlankerTask.osexp,C:\Users\Jeanette\Desktop\Jeanette Master's\AQM&ED,no,mono,no,18,no,white,no,yes,768,legacy,24,79,C:/Users/Jeanette/Desktop/Jeanette Master's/AQM&ED/jh-subject-1.csv,legacy,Kafkaesque Koffka,3.2.8,0,s,h,h,NA,NA,s,441,3013,237631,NA,NA,441,2,legacy,1024,2,48000,-16,experiment,SSSSS,1,odd,NA,425124,2304,146291,NA,426329,5318,383924,NA,421393,2296,NA,426224,426329,426771,426221,Flanker Task,92,49119,105,yes,1024
87.73584906,87.73584906,466.0566038,466.0566038,black,legacy,legacy,legacy,0,Incongruent,uniform,1,undefined,1,h,105,105,0,0,0,105,0,0,0,105,0,0,105,105,105,105,9/20/19 10:00,600,The main experiment item,yes,FlankerTask.osexp,C:\Users\Jeanette\Desktop\Jeanette Master's\AQM&ED,no,mono,no,18,no,white,no,yes,768,legacy,25,79,C:/Users/Jeanette/Desktop/Jeanette Master's/AQM&ED/jh-subject-1.csv,legacy,Kafkaesque Koffka,3.2.8,0,h,h,h,NA,NA,h,283,3013,237631,NA,NA,283,2,legacy,1024,2,48000,-16,experiment,SSHSS,1,odd,NA,426794,2304,146291,NA,428008,5318,383924,NA,421393,2296,NA,427903,428008,428292,427900,Flanker Task,93,49402,106,yes,1024
86.91588785,86.91588785,465,465,black,legacy,legacy,legacy,0,Congruent,uniform,0,undefined,0,h,106,106,0,0,0,106,0,0,0,106,0,0,106,106,106,106,9/20/19 10:00,600,The main experiment item,yes,FlankerTask.osexp,C:\Users\Jeanette\Desktop\Jeanette Master's\AQM&ED,no,mono,no,18,no,white,no,yes,768,legacy,26,79,C:/Users/Jeanette/Desktop/Jeanette Master's/AQM&ED/jh-subject-1.csv,legacy,Kafkaesque Koffka,3.2.8,0,s,h,h,NA,NA,s,353,3013,237631,NA,NA,353,2,legacy,1024,2,48000,-16,experiment,HHHHH,1,odd,NA,428316,2304,146291,NA,429513,5318,383924,NA,421393,2296,NA,429408,429513,429867,429405,Flanker Task,93,49755,107,yes,1024
87.03703704,87.03703704,465.287037,465.287037,black,legacy,legacy,legacy,0,Incongruent,uniform,1,undefined,1,s,107,107,0,0,0,107,0,0,0,107,0,0,107,107,107,107,9/20/19 10:00,600,The main experiment item,yes,FlankerTask.osexp,C:\Users\Jeanette\Desktop\Jeanette Master's\AQM&ED,no,mono,no,18,no,white,no,yes,768,legacy,27,79,C:/Users/Jeanette/Desktop/Jeanette Master's/AQM&ED/jh-subject-1.csv,legacy,Kafkaesque Koffka,3.2.8,0,s,h,h,NA,NA,s,496,3013,237631,NA,NA,496,2,legacy,1024,2,48000,-16,experiment,HHSHH,1,odd,NA,430392,2304,146291,NA,431603,5318,383924,NA,429886,2296,NA,431498,431603,432100,431495,Flanker Task,94,50251,108,yes,1024
87.1559633,87.1559633,465.1100917,465.1100917,black,legacy,legacy,legacy,0,Congruent,uniform,1,undefined,1,s,108,108,0,0,0,108,0,0,0,108,0,0,108,108,108,108,9/20/19 10:00,600,The main experiment item,yes,FlankerTask.osexp,C:\Users\Jeanette\Desktop\Jeanette Master's\AQM&ED,no,mono,no,18,no,white,no,yes,768,legacy,28,79,C:/Users/Jeanette/Desktop/Jeanette Master's/AQM&ED/jh-subject-1.csv,legacy,Kafkaesque Koffka,3.2.8,0,s,h,h,NA,NA,s,446,3013,237631,NA,NA,446,2,legacy,1024,2,48000,-16,experiment,SSSSS,1,odd,NA,432125,2304,146291,NA,433340,5318,383924,NA,429886,2296,NA,433234,433340,433787,433231,Flanker Task,95,50697,109,yes,1024
87.27272727,87.27272727,465.7272727,465.7272727,black,legacy,legacy,legacy,0,Congruent,uniform,1,undefined,1,h,109,109,0,0,0,109,0,0,0,109,0,0,109,109,109,109,9/20/19 10:00,600,The main experiment item,yes,FlankerTask.osexp,C:\Users\Jeanette\Desktop\Jeanette Master's\AQM&ED,no,mono,no,18,no,white,no,yes,768,legacy,29,79,C:/Users/Jeanette/Desktop/Jeanette Master's/AQM&ED/jh-subject-1.csv,legacy,Kafkaesque Koffka,3.2.8,0,h,h,h,NA,NA,h,533,3013,237631,NA,NA,533,2,legacy,1024,2,48000,-16,experiment,HHHHH,1,odd,NA,433812,2304,146291,NA,435021,5318,383924,NA,429886,2296,NA,434916,435021,435556,434913,Flanker Task,96,51230,110,yes,1024
87.38738739,87.38738739,464.8108108,464.8108108,black,legacy,legacy,legacy,0,Incongruent,uniform,1,undefined,1,s,110,110,0,0,0,110,0,0,0,110,0,0,110,110,110,110,9/20/19 10:00,600,The main experiment item,yes,FlankerTask.osexp,C:\Users\Jeanette\Desktop\Jeanette Master's\AQM&ED,no,mono,no,18,no,white,no,yes,768,legacy,30,79,C:/Users/Jeanette/Desktop/Jeanette Master's/AQM&ED/jh-subject-1.csv,legacy,Kafkaesque Koffka,3.2.8,0,s,h,h,NA,NA,s,364,3013,237631,NA,NA,364,2,legacy,1024,2,48000,-16,experiment,HHSHH,1,odd,NA,435575,2304,146291,NA,436774,5318,383924,NA,429886,2296,NA,436669,436774,437140,436666,Flanker Task,97,51594,111,yes,1024
87.5,87.5,463.3035714,463.3035714,black,legacy,legacy,legacy,0,Congruent,uniform,1,undefined,1,h,111,111,0,0,0,111,0,0,0,111,0,0,111,111,111,111,9/20/19 10:00,600,The main experiment item,yes,FlankerTask.osexp,C:\Users\Jeanette\Desktop\Jeanette Master's\AQM&ED,no,mono,no,18,no,white,no,yes,768,legacy,31,79,C:/Users/Jeanette/Desktop/Jeanette Master's/AQM&ED/jh-subject-1.csv,legacy,Kafkaesque Koffka,3.2.8,0,h,h,h,NA,NA,h,296,3013,237631,NA,NA,296,2,legacy,1024,2,48000,-16,experiment,HHHHH,1,odd,NA,437176,2304,146291,NA,438378,5318,383924,NA,429886,2296,NA,438276,438378,438675,438273,Flanker Task,98,51890,112,yes,1024
87.61061947,87.61061947,463.300885,463.300885,black,legacy,legacy,legacy,0,Incongruent,uniform,1,undefined,1,h,112,112,0,0,0,112,0,0,0,112,0,0,112,112,112,112,9/20/19 10:00,600,The main experiment item,yes,FlankerTask.osexp,C:\Users\Jeanette\Desktop\Jeanette Master's\AQM&ED,no,mono,no,18,no,white,no,yes,768,legacy,32,79,C:/Users/Jeanette/Desktop/Jeanette Master's/AQM&ED/jh-subject-1.csv,legacy,Kafkaesque Koffka,3.2.8,0,h,h,h,NA,NA,h,463,3013,237631,NA,NA,463,2,legacy,1024,2,48000,-16,experiment,SSHSS,1,odd,NA,438695,2304,146291,NA,439891,5318,383924,NA,429886,2296,NA,439786,439891,440355,439784,Flanker Task,99,52353,113,yes,1024
86.84210526,86.84210526,462.4210526,462.4210526,black,legacy,legacy,legacy,0,Congruent,uniform,0,undefined,0,s,113,113,0,0,0,113,0,0,0,113,0,0,113,113,113,113,9/20/19 10:00,600,The main experiment item,yes,FlankerTask.osexp,C:\Users\Jeanette\Desktop\Jeanette Master's\AQM&ED,no,mono,no,18,no,white,no,yes,768,legacy,33,79,C:/Users/Jeanette/Desktop/Jeanette Master's/AQM&ED/jh-subject-1.csv,legacy,Kafkaesque Koffka,3.2.8,0,h,h,h,NA,NA,h,363,3013,237631,NA,NA,363,2,legacy,1024,2,48000,-16,experiment,SSSSS,1,odd,NA,440379,2304,146291,NA,441575,5318,383924,NA,429886,2296,NA,441470,441575,441939,441467,Flanker Task,99,52716,114,yes,1024
86.95652174,86.95652174,462.6608696,462.6608696,black,legacy,legacy,legacy,0,Incongruent,uniform,1,undefined,1,s,114,114,0,0,0,114,0,0,0,114,0,0,114,114,114,114,9/20/19 10:00,600,The main experiment item,yes,FlankerTask.osexp,C:\Users\Jeanette\Desktop\Jeanette Master's\AQM&ED,no,mono,no,18,no,white,no,yes,768,legacy,34,79,C:/Users/Jeanette/Desktop/Jeanette Master's/AQM&ED/jh-subject-1.csv,legacy,Kafkaesque Koffka,3.2.8,0,s,h,h,NA,NA,s,490,3013,237631,NA,NA,490,2,legacy,1024,2,48000,-16,experiment,HHSHH,1,odd,NA,442464,2304,146291,NA,443664,5318,383924,NA,441959,2296,NA,443559,443664,444155,443556,Flanker Task,100,53206,115,yes,1024
87.06896552,87.06896552,461.6206897,461.6206897,black,legacy,legacy,legacy,0,Congruent,uniform,1,undefined,1,h,115,115,0,0,0,115,0,0,0,115,0,0,115,115,115,115,9/20/19 10:00,600,The main experiment item,yes,FlankerTask.osexp,C:\Users\Jeanette\Desktop\Jeanette Master's\AQM&ED,no,mono,no,18,no,white,no,yes,768,legacy,35,79,C:/Users/Jeanette/Desktop/Jeanette Master's/AQM&ED/jh-subject-1.csv,legacy,Kafkaesque Koffka,3.2.8,0,h,h,h,NA,NA,h,342,3013,237631,NA,NA,342,2,legacy,1024,2,48000,-16,experiment,HHHHH,1,odd,NA,444184,2304,146291,NA,445380,5318,383924,NA,441959,2296,NA,445275,445380,445723,445272,Flanker Task,101,53548,116,yes,1024
87.17948718,87.17948718,461.9487179,461.9487179,black,legacy,legacy,legacy,0,Incongruent,uniform,1,undefined,1,s,116,116,0,0,0,116,0,0,0,116,0,0,116,116,116,116,9/20/19 10:00,600,The main experiment item,yes,FlankerTask.osexp,C:\Users\Jeanette\Desktop\Jeanette Master's\AQM&ED,no,mono,no,18,no,white,no,yes,768,legacy,36,79,C:/Users/Jeanette/Desktop/Jeanette Master's/AQM&ED/jh-subject-1.csv,legacy,Kafkaesque Koffka,3.2.8,0,s,h,h,NA,NA,s,500,3013,237631,NA,NA,500,2,legacy,1024,2,48000,-16,experiment,HHSHH,1,odd,NA,445754,2304,146291,NA,446966,5318,383924,NA,441959,2296,NA,446861,446966,447467,446858,Flanker Task,102,54048,117,yes,1024
87.28813559,87.28813559,463.440678,463.440678,black,legacy,legacy,legacy,0,Incongruent,uniform,1,undefined,1,h,117,117,0,0,0,117,0,0,0,117,0,0,117,117,117,117,9/20/19 10:00,600,The main experiment item,yes,FlankerTask.osexp,C:\Users\Jeanette\Desktop\Jeanette Master's\AQM&ED,no,mono,no,18,no,white,no,yes,768,legacy,37,79,C:/Users/Jeanette/Desktop/Jeanette Master's/AQM&ED/jh-subject-1.csv,legacy,Kafkaesque Koffka,3.2.8,0,h,h,h,NA,NA,h,638,3013,237631,NA,NA,638,2,legacy,1024,2,48000,-16,experiment,SSHSS,1,odd,NA,447493,2304,146291,NA,448701,5318,383924,NA,441959,2296,NA,448596,448701,449340,448593,Flanker Task,103,54686,118,yes,1024
87.39495798,87.39495798,463.6890756,463.6890756,black,legacy,legacy,legacy,0,Congruent,uniform,1,undefined,1,h,118,118,0,0,0,118,0,0,0,118,0,0,118,118,118,118,9/20/19 10:00,600,The main experiment item,yes,FlankerTask.osexp,C:\Users\Jeanette\Desktop\Jeanette Master's\AQM&ED,no,mono,no,18,no,white,no,yes,768,legacy,38,79,C:/Users/Jeanette/Desktop/Jeanette Master's/AQM&ED/jh-subject-1.csv,legacy,Kafkaesque Koffka,3.2.8,0,h,h,h,NA,NA,h,493,3013,237631,NA,NA,493,2,legacy,1024,2,48000,-16,experiment,HHHHH,1,odd,449364,449869,2304,146291,NA,451085,5318,383924,NA,441959,2296,NA,450980,451085,451579,450977,Flanker Task,104,55179,119,yes,1024
87.5,87.5,463.15,463.15,black,legacy,legacy,legacy,0,Congruent,uniform,1,undefined,1,s,119,119,0,0,0,119,0,0,0,119,0,0,119,119,119,119,9/20/19 10:00,600,The main experiment item,yes,FlankerTask.osexp,C:\Users\Jeanette\Desktop\Jeanette Master's\AQM&ED,no,mono,no,18,no,white,no,yes,768,legacy,39,79,C:/Users/Jeanette/Desktop/Jeanette Master's/AQM&ED/jh-subject-1.csv,legacy,Kafkaesque Koffka,3.2.8,0,s,h,h,NA,NA,s,399,3013,237631,NA,NA,399,2,legacy,1024,2,48000,-16,experiment,SSSSS,1,odd,449364,451601,2304,146291,NA,452795,5318,383924,NA,441959,2296,NA,452690,452795,453196,452687,Flanker Task,105,55578,120,yes,1024
86.7768595,86.7768595,462.1983471,462.1983471,black,legacy,legacy,legacy,0,Incongruent,uniform,0,undefined,0,s,120,120,0,0,0,120,0,0,0,120,0,0,120,120,120,120,9/20/19 10:00,600,The main experiment item,yes,FlankerTask.osexp,C:\Users\Jeanette\Desktop\Jeanette Master's\AQM&ED,no,mono,no,18,no,white,no,yes,768,legacy,40,79,C:/Users/Jeanette/Desktop/Jeanette Master's/AQM&ED/jh-subject-1.csv,legacy,Kafkaesque Koffka,3.2.8,0,h,h,h,NA,NA,h,348,3013,237631,NA,NA,348,2,legacy,1024,2,48000,-16,experiment,HHSHH,1,odd,449364,453222,2304,146291,NA,454398,5318,383924,NA,441959,2296,NA,454296,454398,454747,454294,Flanker Task,105,55926,121,yes,1024
86.06557377,86.06557377,462.352459,462.352459,black,legacy,legacy,legacy,0,Incongruent,uniform,0,undefined,0,h,121,121,0,0,0,121,0,0,0,121,0,0,121,121,121,121,9/20/19 10:00,600,The main experiment item,yes,FlankerTask.osexp,C:\Users\Jeanette\Desktop\Jeanette Master's\AQM&ED,no,mono,no,18,no,white,no,yes,768,legacy,41,79,C:/Users/Jeanette/Desktop/Jeanette Master's/AQM&ED/jh-subject-1.csv,legacy,Kafkaesque Koffka,3.2.8,0,s,h,h,NA,NA,s,481,3013,237631,NA,NA,481,2,legacy,1024,2,48000,-16,experiment,SSHSS,1,odd,449364,455279,2304,146291,NA,456489,5318,383924,NA,454773,2296,NA,456384,456489,456971,456381,Flanker Task,105,56407,122,yes,1024
86.17886179,86.17886179,462.5121951,462.5121951,black,legacy,legacy,legacy,0,Congruent,uniform,1,undefined,1,h,122,122,0,0,0,122,0,0,0,122,0,0,122,122,122,122,9/20/19 10:00,600,The main experiment item,yes,FlankerTask.osexp,C:\Users\Jeanette\Desktop\Jeanette Master's\AQM&ED,no,mono,no,18,no,white,no,yes,768,legacy,42,79,C:/Users/Jeanette/Desktop/Jeanette Master's/AQM&ED/jh-subject-1.csv,legacy,Kafkaesque Koffka,3.2.8,0,h,h,h,NA,NA,h,482,3013,237631,NA,NA,482,2,legacy,1024,2,48000,-16,experiment,HHHHH,1,odd,449364,457500,2304,146291,NA,458696,5318,383924,NA,456994,2296,NA,458590,458696,459179,458588,Flanker Task,106,56889,123,yes,1024
86.29032258,86.29032258,463.4112903,463.4112903,black,legacy,legacy,legacy,0,Incongruent,uniform,1,undefined,1,h,123,123,0,0,0,123,0,0,0,123,0,0,123,123,123,123,9/20/19 10:00,600,The main experiment item,yes,FlankerTask.osexp,C:\Users\Jeanette\Desktop\Jeanette Master's\AQM&ED,no,mono,no,18,no,white,no,yes,768,legacy,43,79,C:/Users/Jeanette/Desktop/Jeanette Master's/AQM&ED/jh-subject-1.csv,legacy,Kafkaesque Koffka,3.2.8,0,h,h,h,NA,NA,h,574,3013,237631,NA,NA,574,2,legacy,1024,2,48000,-16,experiment,SSHSS,1,odd,449364,459211,2304,146291,NA,460397,5318,383924,NA,456994,2296,NA,460292,460397,460972,460289,Flanker Task,107,57463,124,yes,1024
86.4,86.4,463.528,463.528,black,legacy,legacy,legacy,0,Congruent,uniform,1,undefined,1,s,124,124,0,0,0,124,0,0,0,124,0,0,124,124,124,124,9/20/19 10:00,600,The main experiment item,yes,FlankerTask.osexp,C:\Users\Jeanette\Desktop\Jeanette Master's\AQM&ED,no,mono,no,18,no,white,no,yes,768,legacy,44,79,C:/Users/Jeanette/Desktop/Jeanette Master's/AQM&ED/jh-subject-1.csv,legacy,Kafkaesque Koffka,3.2.8,0,s,h,h,NA,NA,s,478,3013,237631,NA,NA,478,2,legacy,1024,2,48000,-16,experiment,SSSSS,1,odd,449364,460990,2304,146291,NA,462188,5318,383924,NA,456994,2296,NA,462082,462188,462668,462080,Flanker Task,108,57941,125,yes,1024
86.50793651,86.50793651,463.0793651,463.0793651,black,legacy,legacy,legacy,0,Congruent,uniform,1,undefined,1,s,125,125,0,0,0,125,0,0,0,125,0,0,125,125,125,125,9/20/19 10:00,600,The main experiment item,yes,FlankerTask.osexp,C:\Users\Jeanette\Desktop\Jeanette Master's\AQM&ED,no,mono,no,18,no,white,no,yes,768,legacy,45,79,C:/Users/Jeanette/Desktop/Jeanette Master's/AQM&ED/jh-subject-1.csv,legacy,Kafkaesque Koffka,3.2.8,0,s,h,h,NA,NA,s,407,3013,237631,NA,NA,407,2,legacy,1024,2,48000,-16,experiment,SSSSS,1,odd,449364,462690,2304,146291,NA,463891,5318,383924,NA,456994,2296,NA,463786,463891,464300,463783,Flanker Task,109,58348,126,yes,1024
86.61417323,86.61417323,463.4330709,463.4330709,black,legacy,legacy,legacy,0,Incongruent,uniform,1,undefined,1,h,126,126,0,0,0,126,0,0,0,126,0,0,126,126,126,126,9/20/19 10:00,600,The main experiment item,yes,FlankerTask.osexp,C:\Users\Jeanette\Desktop\Jeanette Master's\AQM&ED,no,mono,no,18,no,white,no,yes,768,legacy,46,79,C:/Users/Jeanette/Desktop/Jeanette Master's/AQM&ED/jh-subject-1.csv,legacy,Kafkaesque Koffka,3.2.8,0,h,h,h,NA,NA,h,508,3013,237631,NA,NA,508,2,legacy,1024,2,48000,-16,experiment,SSHSS,1,odd,449364,464320,2304,146291,NA,465518,5318,383924,NA,456994,2296,NA,465413,465518,466028,465410,Flanker Task,110,58856,127,yes,1024
86.71875,86.71875,464.21875,464.21875,black,legacy,legacy,legacy,0,Incongruent,uniform,1,undefined,1,h,127,127,0,0,0,127,0,0,0,127,0,0,127,127,127,127,9/20/19 10:00,600,The main experiment item,yes,FlankerTask.osexp,C:\Users\Jeanette\Desktop\Jeanette Master's\AQM&ED,no,mono,no,18,no,white,no,yes,768,legacy,47,79,C:/Users/Jeanette/Desktop/Jeanette Master's/AQM&ED/jh-subject-1.csv,legacy,Kafkaesque Koffka,3.2.8,0,h,h,h,NA,NA,h,564,3013,237631,NA,NA,564,2,legacy,1024,2,48000,-16,experiment,SSHSS,1,odd,449364,466064,2304,146291,NA,467270,5318,383924,NA,456994,2296,NA,467165,467270,467836,467162,Flanker Task,111,59420,128,yes,1024
86.82170543,86.82170543,464.3255814,464.3255814,black,legacy,legacy,legacy,0,Congruent,uniform,1,undefined,1,s,128,128,0,0,0,128,0,0,0,128,0,0,128,128,128,128,9/20/19 10:00,600,The main experiment item,yes,FlankerTask.osexp,C:\Users\Jeanette\Desktop\Jeanette Master's\AQM&ED,no,mono,no,18,no,white,no,yes,768,legacy,48,79,C:/Users/Jeanette/Desktop/Jeanette Master's/AQM&ED/jh-subject-1.csv,legacy,Kafkaesque Koffka,3.2.8,0,s,h,h,NA,NA,s,478,3013,237631,NA,NA,478,2,legacy,1024,2,48000,-16,experiment,SSSSS,1,odd,449364,467857,2304,146291,NA,469052,5318,383924,NA,456994,2296,NA,468947,469052,469531,468944,Flanker Task,112,59898,129,yes,1024
86.15384615,86.15384615,464.4923077,464.4923077,black,legacy,legacy,legacy,0,Incongruent,uniform,0,undefined,0,s,129,129,0,0,0,129,0,0,0,129,0,0,129,129,129,129,9/20/19 10:00,600,The main experiment item,yes,FlankerTask.osexp,C:\Users\Jeanette\Desktop\Jeanette Master's\AQM&ED,no,mono,no,18,no,white,no,yes,768,legacy,49,79,C:/Users/Jeanette/Desktop/Jeanette Master's/AQM&ED/jh-subject-1.csv,legacy,Kafkaesque Koffka,3.2.8,0,h,h,h,NA,NA,h,486,3013,237631,NA,NA,486,2,legacy,1024,2,48000,-16,experiment,HHSHH,1,odd,449364,469563,2304,146291,NA,470764,5318,383924,NA,456994,2296,NA,470659,470764,471251,470656,Flanker Task,112,60384,130,yes,1024
86.25954198,86.25954198,464.5648855,464.5648855,black,legacy,legacy,legacy,0,Congruent,uniform,1,undefined,1,s,130,130,0,0,0,130,0,0,0,130,0,0,130,130,130,130,9/20/19 10:00,600,The main experiment item,yes,FlankerTask.osexp,C:\Users\Jeanette\Desktop\Jeanette Master's\AQM&ED,no,mono,no,18,no,white,no,yes,768,legacy,50,79,C:/Users/Jeanette/Desktop/Jeanette Master's/AQM&ED/jh-subject-1.csv,legacy,Kafkaesque Koffka,3.2.8,0,s,h,h,NA,NA,s,474,3013,237631,NA,NA,474,2,legacy,1024,2,48000,-16,experiment,SSSSS,1,odd,449364,471779,2304,146291,NA,472975,5318,383924,NA,471274,2296,NA,472870,472975,473451,472867,Flanker Task,113,60858,131,yes,1024
86.36363636,86.36363636,464.6818182,464.6818182,black,legacy,legacy,legacy,0,Congruent,uniform,1,undefined,1,h,131,131,0,0,0,131,0,0,0,131,0,0,131,131,131,131,9/20/19 10:00,600,The main experiment item,yes,FlankerTask.osexp,C:\Users\Jeanette\Desktop\Jeanette Master's\AQM&ED,no,mono,no,18,no,white,no,yes,768,legacy,51,79,C:/Users/Jeanette/Desktop/Jeanette Master's/AQM&ED/jh-subject-1.csv,legacy,Kafkaesque Koffka,3.2.8,0,h,h,h,NA,NA,h,480,3013,237631,NA,NA,480,2,legacy,1024,2,48000,-16,experiment,HHHHH,1,odd,449364,473474,2304,146291,NA,474666,5318,383924,NA,471274,2296,NA,474560,474666,475147,474558,Flanker Task,114,61338,132,yes,1024
86.46616541,86.46616541,464.5037594,464.5037594,black,legacy,legacy,legacy,0,Congruent,uniform,1,undefined,1,h,132,132,0,0,0,132,0,0,0,132,0,0,132,132,132,132,9/20/19 10:00,600,The main experiment item,yes,FlankerTask.osexp,C:\Users\Jeanette\Desktop\Jeanette Master's\AQM&ED,no,mono,no,18,no,white,no,yes,768,legacy,52,79,C:/Users/Jeanette/Desktop/Jeanette Master's/AQM&ED/jh-subject-1.csv,legacy,Kafkaesque Koffka,3.2.8,0,h,h,h,NA,NA,h,441,3013,237631,NA,NA,441,2,legacy,1024,2,48000,-16,experiment,HHHHH,1,odd,449364,475171,2304,146291,NA,476369,5318,383924,NA,471274,2296,NA,476264,476369,476811,476261,Flanker Task,115,61779,133,yes,1024
86.56716418,86.56716418,464.4477612,464.4477612,black,legacy,legacy,legacy,0,Congruent,uniform,1,undefined,1,h,133,133,0,0,0,133,0,0,0,133,0,0,133,133,133,133,9/20/19 10:00,600,The main experiment item,yes,FlankerTask.osexp,C:\Users\Jeanette\Desktop\Jeanette Master's\AQM&ED,no,mono,no,18,no,white,no,yes,768,legacy,53,79,C:/Users/Jeanette/Desktop/Jeanette Master's/AQM&ED/jh-subject-1.csv,legacy,Kafkaesque Koffka,3.2.8,0,h,h,h,NA,NA,h,457,3013,237631,NA,NA,457,2,legacy,1024,2,48000,-16,experiment,HHHHH,1,odd,449364,476846,2304,146291,NA,478049,5318,383924,NA,471274,2296,NA,477944,478049,478508,477941,Flanker Task,116,62236,134,yes,1024
86.66666667,86.66666667,463.9259259,463.9259259,black,legacy,legacy,legacy,0,Incongruent,uniform,1,undefined,1,s,134,134,0,0,0,134,0,0,0,134,0,0,134,134,134,134,9/20/19 10:00,600,The main experiment item,yes,FlankerTask.osexp,C:\Users\Jeanette\Desktop\Jeanette Master's\AQM&ED,no,mono,no,18,no,white,no,yes,768,legacy,54,79,C:/Users/Jeanette/Desktop/Jeanette Master's/AQM&ED/jh-subject-1.csv,legacy,Kafkaesque Koffka,3.2.8,0,s,h,h,NA,NA,s,394,3013,237631,NA,NA,394,2,legacy,1024,2,48000,-16,experiment,HHSHH,1,odd,449364,478525,2304,146291,NA,479728,5318,383924,NA,471274,2296,NA,479625,479728,480124,479622,Flanker Task,117,62630,135,yes,1024
86.76470588,86.76470588,463.8161765,463.8161765,black,legacy,legacy,legacy,0,Congruent,uniform,1,undefined,1,h,135,135,0,0,0,135,0,0,0,135,0,0,135,135,135,135,9/20/19 10:00,600,The main experiment item,yes,FlankerTask.osexp,C:\Users\Jeanette\Desktop\Jeanette Master's\AQM&ED,no,mono,no,18,no,white,no,yes,768,legacy,55,79,C:/Users/Jeanette/Desktop/Jeanette Master's/AQM&ED/jh-subject-1.csv,legacy,Kafkaesque Koffka,3.2.8,0,h,h,h,NA,NA,h,449,3013,237631,NA,NA,449,2,legacy,1024,2,48000,-16,experiment,HHHHH,1,odd,449364,480147,2304,146291,NA,481353,5318,383924,NA,471274,2296,NA,481248,481353,481803,481245,Flanker Task,118,63079,136,yes,1024
86.86131387,86.86131387,463.4671533,463.4671533,black,legacy,legacy,legacy,0,Incongruent,uniform,1,undefined,1,h,136,136,0,0,0,136,0,0,0,136,0,0,136,136,136,136,9/20/19 10:00,600,The main experiment item,yes,FlankerTask.osexp,C:\Users\Jeanette\Desktop\Jeanette Master's\AQM&ED,no,mono,no,18,no,white,no,yes,768,legacy,56,79,C:/Users/Jeanette/Desktop/Jeanette Master's/AQM&ED/jh-subject-1.csv,legacy,Kafkaesque Koffka,3.2.8,0,h,h,h,NA,NA,h,416,3013,237631,NA,NA,416,2,legacy,1024,2,48000,-16,experiment,SSHSS,1,odd,449364,481843,2304,146291,NA,483050,5318,383924,NA,471274,2296,NA,482945,483050,483468,482942,Flanker Task,119,63495,137,yes,1024
86.95652174,86.95652174,463.3115942,463.3115942,black,legacy,legacy,legacy,0,Congruent,uniform,1,undefined,1,h,137,137,0,0,0,137,0,0,0,137,0,0,137,137,137,137,9/20/19 10:00,600,The main experiment item,yes,FlankerTask.osexp,C:\Users\Jeanette\Desktop\Jeanette Master's\AQM&ED,no,mono,no,18,no,white,no,yes,768,legacy,57,79,C:/Users/Jeanette/Desktop/Jeanette Master's/AQM&ED/jh-subject-1.csv,legacy,Kafkaesque Koffka,3.2.8,0,h,h,h,NA,NA,h,442,3013,237631,NA,NA,442,2,legacy,1024,2,48000,-16,experiment,HHHHH,1,odd,449364,483489,2304,146291,NA,484688,5318,383924,NA,471274,2296,NA,484583,484688,485131,484580,Flanker Task,120,63937,138,yes,1024
86.33093525,86.33093525,462.5755396,462.5755396,black,legacy,legacy,legacy,0,Incongruent,uniform,0,undefined,0,s,138,138,0,0,0,138,0,0,0,138,0,0,138,138,138,138,9/20/19 10:00,600,The main experiment item,yes,FlankerTask.osexp,C:\Users\Jeanette\Desktop\Jeanette Master's\AQM&ED,no,mono,no,18,no,white,no,yes,768,legacy,58,79,C:/Users/Jeanette/Desktop/Jeanette Master's/AQM&ED/jh-subject-1.csv,legacy,Kafkaesque Koffka,3.2.8,0,h,h,h,NA,NA,h,361,3013,237631,NA,NA,361,2,legacy,1024,2,48000,-16,experiment,HHSHH,1,odd,449364,485155,2304,146291,NA,486361,5318,383924,NA,471274,2296,NA,486256,486361,486723,486253,Flanker Task,120,64298,139,yes,1024
86.42857143,86.42857143,463.1428571,463.1428571,black,legacy,legacy,legacy,0,Congruent,uniform,1,undefined,1,s,139,139,0,0,0,139,0,0,0,139,0,0,139,139,139,139,9/20/19 10:00,600,The main experiment item,yes,FlankerTask.osexp,C:\Users\Jeanette\Desktop\Jeanette Master's\AQM&ED,no,mono,no,18,no,white,no,yes,768,legacy,59,79,C:/Users/Jeanette/Desktop/Jeanette Master's/AQM&ED/jh-subject-1.csv,legacy,Kafkaesque Koffka,3.2.8,0,s,h,h,NA,NA,s,542,3013,237631,NA,NA,542,2,legacy,1024,2,48000,-16,experiment,SSSSS,1,odd,449364,487248,2304,146291,NA,488460,5318,383924,NA,486742,2296,NA,488358,488460,489004,488355,Flanker Task,121,64840,140,yes,1024
86.5248227,86.5248227,463.1276596,463.1276596,black,legacy,legacy,legacy,0,Congruent,uniform,1,undefined,1,h,140,140,0,0,0,140,0,0,0,140,0,0,140,140,140,140,9/20/19 10:00,600,The main experiment item,yes,FlankerTask.osexp,C:\Users\Jeanette\Desktop\Jeanette Master's\AQM&ED,no,mono,no,18,no,white,no,yes,768,legacy,60,79,C:/Users/Jeanette/Desktop/Jeanette Master's/AQM&ED/jh-subject-1.csv,legacy,Kafkaesque Koffka,3.2.8,0,h,h,h,NA,NA,h,461,3013,237631,NA,NA,461,2,legacy,1024,2,48000,-16,experiment,HHHHH,1,odd,449364,489026,2304,146291,NA,490229,5318,383924,NA,486742,2296,NA,490124,490229,490691,490121,Flanker Task,122,65301,141,yes,1024
86.61971831,86.61971831,462.8028169,462.8028169,black,legacy,legacy,legacy,0,Incongruent,uniform,1,undefined,1,h,141,141,0,0,0,141,0,0,0,141,0,0,141,141,141,141,9/20/19 10:00,600,The main experiment item,yes,FlankerTask.osexp,C:\Users\Jeanette\Desktop\Jeanette Master's\AQM&ED,no,mono,no,18,no,white,no,yes,768,legacy,61,79,C:/Users/Jeanette/Desktop/Jeanette Master's/AQM&ED/jh-subject-1.csv,legacy,Kafkaesque Koffka,3.2.8,0,h,h,h,NA,NA,h,417,3013,237631,NA,NA,417,2,legacy,1024,2,48000,-16,experiment,SSHSS,1,odd,449364,490709,2304,146291,NA,491888,5318,383924,NA,486742,2296,NA,491783,491889,492307,491780,Flanker Task,123,65718,142,yes,1024
86.71328671,86.71328671,463.4615385,463.4615385,black,legacy,legacy,legacy,0,Incongruent,uniform,1,undefined,1,s,142,142,0,0,0,142,0,0,0,142,0,0,142,142,142,142,9/20/19 10:00,600,The main experiment item,yes,FlankerTask.osexp,C:\Users\Jeanette\Desktop\Jeanette Master's\AQM&ED,no,mono,no,18,no,white,no,yes,768,legacy,62,79,C:/Users/Jeanette/Desktop/Jeanette Master's/AQM&ED/jh-subject-1.csv,legacy,Kafkaesque Koffka,3.2.8,0,s,h,h,NA,NA,s,557,3013,237631,NA,NA,557,2,legacy,1024,2,48000,-16,experiment,HHSHH,1,odd,449364,492331,2304,146291,NA,493533,5318,383924,NA,486742,2296,NA,493427,493533,494092,493424,Flanker Task,124,66275,143,yes,1024
86.80555556,86.80555556,463.7916667,463.7916667,black,legacy,legacy,legacy,0,Congruent,uniform,1,undefined,1,h,143,143,0,0,0,143,0,0,0,143,0,0,143,143,143,143,9/20/19 10:00,600,The main experiment item,yes,FlankerTask.osexp,C:\Users\Jeanette\Desktop\Jeanette Master's\AQM&ED,no,mono,no,18,no,white,no,yes,768,legacy,63,79,C:/Users/Jeanette/Desktop/Jeanette Master's/AQM&ED/jh-subject-1.csv,legacy,Kafkaesque Koffka,3.2.8,0,h,h,h,NA,NA,h,511,3013,237631,NA,NA,511,2,legacy,1024,2,48000,-16,experiment,HHHHH,1,odd,449364,494118,2304,146291,NA,495323,5318,383924,NA,486742,2296,NA,495218,495323,495836,495215,Flanker Task,125,66786,144,yes,1024
86.89655172,86.89655172,463.7172414,463.7172414,black,legacy,legacy,legacy,0,Congruent,uniform,1,undefined,1,s,144,144,0,0,0,144,0,0,0,144,0,0,144,144,144,144,9/20/19 10:00,600,The main experiment item,yes,FlankerTask.osexp,C:\Users\Jeanette\Desktop\Jeanette Master's\AQM&ED,no,mono,no,18,no,white,no,yes,768,legacy,64,79,C:/Users/Jeanette/Desktop/Jeanette Master's/AQM&ED/jh-subject-1.csv,legacy,Kafkaesque Koffka,3.2.8,0,s,h,h,NA,NA,s,453,3013,237631,NA,NA,453,2,legacy,1024,2,48000,-16,experiment,SSSSS,1,odd,449364,495868,2304,146291,NA,497069,5318,383924,NA,486742,2296,NA,496963,497069,497523,496960,Flanker Task,126,67239,145,yes,1024
86.98630137,86.98630137,464.0205479,464.0205479,black,legacy,legacy,legacy,0,Congruent,uniform,1,undefined,1,h,145,145,0,0,0,145,0,0,0,145,0,0,145,145,145,145,9/20/19 10:00,600,The main experiment item,yes,FlankerTask.osexp,C:\Users\Jeanette\Desktop\Jeanette Master's\AQM&ED,no,mono,no,18,no,white,no,yes,768,legacy,65,79,C:/Users/Jeanette/Desktop/Jeanette Master's/AQM&ED/jh-subject-1.csv,legacy,Kafkaesque Koffka,3.2.8,0,h,h,h,NA,NA,h,508,3013,237631,NA,NA,508,2,legacy,1024,2,48000,-16,experiment,HHHHH,1,odd,449364,497548,2304,146291,NA,498750,5318,383924,NA,486742,2296,NA,498645,498750,499259,498642,Flanker Task,127,67747,146,yes,1024
87.07482993,87.07482993,464.4081633,464.4081633,black,legacy,legacy,legacy,0,Incongruent,uniform,1,undefined,1,h,146,146,0,0,0,146,0,0,0,146,0,0,146,146,146,146,9/20/19 10:00,600,The main experiment item,yes,FlankerTask.osexp,C:\Users\Jeanette\Desktop\Jeanette Master's\AQM&ED,no,mono,no,18,no,white,no,yes,768,legacy,66,79,C:/Users/Jeanette/Desktop/Jeanette Master's/AQM&ED/jh-subject-1.csv,legacy,Kafkaesque Koffka,3.2.8,0,h,h,h,NA,NA,h,521,3013,237631,NA,NA,521,2,legacy,1024,2,48000,-16,experiment,SSHSS,1,odd,449364,499285,2304,146291,NA,500489,5318,383924,NA,486742,2296,NA,500384,500489,501011,500381,Flanker Task,128,68268,147,yes,1024
87.16216216,87.16216216,464.1216216,464.1216216,black,legacy,legacy,legacy,0,Congruent,uniform,1,undefined,1,s,147,147,0,0,0,147,0,0,0,147,0,0,147,147,147,147,9/20/19 10:00,600,The main experiment item,yes,FlankerTask.osexp,C:\Users\Jeanette\Desktop\Jeanette Master's\AQM&ED,no,mono,no,18,no,white,no,yes,768,legacy,67,79,C:/Users/Jeanette/Desktop/Jeanette Master's/AQM&ED/jh-subject-1.csv,legacy,Kafkaesque Koffka,3.2.8,0,s,h,h,NA,NA,s,422,3013,237631,NA,NA,422,2,legacy,1024,2,48000,-16,experiment,SSSSS,1,odd,449364,501040,2304,146291,NA,502251,5318,383924,NA,486742,2296,NA,502145,502251,502675,502143,Flanker Task,129,68690,148,yes,1024
87.24832215,87.24832215,464.1744966,464.1744966,black,legacy,legacy,legacy,0,Incongruent,uniform,1,undefined,1,s,148,148,0,0,0,148,0,0,0,148,0,0,148,148,148,148,9/20/19 10:00,600,The main experiment item,yes,FlankerTask.osexp,C:\Users\Jeanette\Desktop\Jeanette Master's\AQM&ED,no,mono,no,18,no,white,no,yes,768,legacy,68,79,C:/Users/Jeanette/Desktop/Jeanette Master's/AQM&ED/jh-subject-1.csv,legacy,Kafkaesque Koffka,3.2.8,0,s,h,h,NA,NA,s,472,3013,237631,NA,NA,472,2,legacy,1024,2,48000,-16,experiment,HHSHH,1,odd,449364,502693,2304,146291,NA,503882,5318,383924,NA,486742,2296,NA,503777,503882,504356,503774,Flanker Task,130,69162,149,yes,1024
87.33333333,87.33333333,463.6066667,463.6066667,black,legacy,legacy,legacy,0,Incongruent,uniform,1,undefined,1,h,149,149,0,0,0,149,0,0,0,149,0,0,149,149,149,149,9/20/19 10:00,600,The main experiment item,yes,FlankerTask.osexp,C:\Users\Jeanette\Desktop\Jeanette Master's\AQM&ED,no,mono,no,18,no,white,no,yes,768,legacy,69,79,C:/Users/Jeanette/Desktop/Jeanette Master's/AQM&ED/jh-subject-1.csv,legacy,Kafkaesque Koffka,3.2.8,0,h,h,h,NA,NA,h,379,3013,237631,NA,NA,379,2,legacy,1024,2,48000,-16,experiment,SSHSS,1,odd,449364,504378,2304,146291,NA,505583,5318,383924,NA,486742,2296,NA,505477,505583,505963,505475,Flanker Task,131,69541,150,yes,1024
87.41721854,87.41721854,463.2582781,463.2582781,black,legacy,legacy,legacy,0,Incongruent,uniform,1,undefined,1,h,150,150,0,0,0,150,0,0,0,150,0,0,150,150,150,150,9/20/19 10:00,600,The main experiment item,yes,FlankerTask.osexp,C:\Users\Jeanette\Desktop\Jeanette Master's\AQM&ED,no,mono,no,18,no,white,no,yes,768,legacy,70,79,C:/Users/Jeanette/Desktop/Jeanette Master's/AQM&ED/jh-subject-1.csv,legacy,Kafkaesque Koffka,3.2.8,0,h,h,h,NA,NA,h,411,3013,237631,NA,NA,411,2,legacy,1024,2,48000,-16,experiment,SSHSS,1,odd,449364,505982,2304,146291,NA,507198,5318,383924,NA,486742,2296,NA,507093,507198,507611,507090,Flanker Task,132,69952,151,yes,1024
87.5,87.5,462.8947368,462.8947368,black,legacy,legacy,legacy,0,Congruent,uniform,1,undefined,1,s,151,151,0,0,0,151,0,0,0,151,0,0,151,151,151,151,9/20/19 10:00,600,The main experiment item,yes,FlankerTask.osexp,C:\Users\Jeanette\Desktop\Jeanette Master's\AQM&ED,no,mono,no,18,no,white,no,yes,768,legacy,71,79,C:/Users/Jeanette/Desktop/Jeanette Master's/AQM&ED/jh-subject-1.csv,legacy,Kafkaesque Koffka,3.2.8,0,s,h,h,NA,NA,s,408,3013,237631,NA,NA,408,2,legacy,1024,2,48000,-16,experiment,SSSSS,1,odd,449364,507632,2304,146291,NA,508834,5318,383924,NA,486742,2296,NA,508728,508834,509244,508725,Flanker Task,133,70360,152,yes,1024
87.58169935,87.58169935,462.8039216,462.8039216,black,legacy,legacy,legacy,0,Congruent,uniform,1,undefined,1,s,152,152,0,0,0,152,0,0,0,152,0,0,152,152,152,152,9/20/19 10:00,600,The main experiment item,yes,FlankerTask.osexp,C:\Users\Jeanette\Desktop\Jeanette Master's\AQM&ED,no,mono,no,18,no,white,no,yes,768,legacy,72,79,C:/Users/Jeanette/Desktop/Jeanette Master's/AQM&ED/jh-subject-1.csv,legacy,Kafkaesque Koffka,3.2.8,0,s,h,h,NA,NA,s,449,3013,237631,NA,NA,449,2,legacy,1024,2,48000,-16,experiment,SSSSS,1,odd,449364,509270,2304,146291,NA,510473,5318,383924,NA,486742,2296,NA,510368,510473,510923,510365,Flanker Task,134,70809,153,yes,1024
87.66233766,87.66233766,463.5974026,463.5974026,black,legacy,legacy,legacy,0,Incongruent,uniform,1,undefined,1,s,153,153,0,0,0,153,0,0,0,153,0,0,153,153,153,153,9/20/19 10:00,600,The main experiment item,yes,FlankerTask.osexp,C:\Users\Jeanette\Desktop\Jeanette Master's\AQM&ED,no,mono,no,18,no,white,no,yes,768,legacy,73,79,C:/Users/Jeanette/Desktop/Jeanette Master's/AQM&ED/jh-subject-1.csv,legacy,Kafkaesque Koffka,3.2.8,0,s,h,h,NA,NA,s,585,3013,237631,NA,NA,585,2,legacy,1024,2,48000,-16,experiment,HHSHH,1,odd,449364,510945,2304,146291,NA,512137,5318,383924,NA,486742,2296,NA,512032,512137,512724,512029,Flanker Task,135,71394,154,yes,1024
87.74193548,87.74193548,462.5870968,462.5870968,black,legacy,legacy,legacy,0,Incongruent,uniform,1,undefined,1,h,154,154,0,0,0,154,0,0,0,154,0,0,154,154,154,154,9/20/19 10:00,600,The main experiment item,yes,FlankerTask.osexp,C:\Users\Jeanette\Desktop\Jeanette Master's\AQM&ED,no,mono,no,18,no,white,no,yes,768,legacy,74,79,C:/Users/Jeanette/Desktop/Jeanette Master's/AQM&ED/jh-subject-1.csv,legacy,Kafkaesque Koffka,3.2.8,0,h,h,h,NA,NA,h,307,3013,237631,NA,NA,307,2,legacy,1024,2,48000,-16,experiment,SSHSS,1,odd,449364,512750,2304,146291,NA,513958,5318,383924,NA,486742,2296,NA,513853,513959,514267,513850,Flanker Task,136,71701,155,yes,1024
87.82051282,87.82051282,462.4807692,462.4807692,black,legacy,legacy,legacy,0,Congruent,uniform,1,undefined,1,h,155,155,0,0,0,155,0,0,0,155,0,0,155,155,155,155,9/20/19 10:00,600,The main experiment item,yes,FlankerTask.osexp,C:\Users\Jeanette\Desktop\Jeanette Master's\AQM&ED,no,mono,no,18,no,white,no,yes,768,legacy,75,79,C:/Users/Jeanette/Desktop/Jeanette Master's/AQM&ED/jh-subject-1.csv,legacy,Kafkaesque Koffka,3.2.8,0,h,h,h,NA,NA,h,446,3013,237631,NA,NA,446,2,legacy,1024,2,48000,-16,experiment,HHHHH,1,odd,449364,514287,2304,146291,NA,515491,5318,383924,NA,486742,2296,NA,515385,515492,515939,515383,Flanker Task,137,72147,156,yes,1024
87.89808917,87.89808917,462.4203822,462.4203822,black,legacy,legacy,legacy,0,Incongruent,uniform,1,undefined,1,s,156,156,0,0,0,156,0,0,0,156,0,0,156,156,156,156,9/20/19 10:00,600,The main experiment item,yes,FlankerTask.osexp,C:\Users\Jeanette\Desktop\Jeanette Master's\AQM&ED,no,mono,no,18,no,white,no,yes,768,legacy,76,79,C:/Users/Jeanette/Desktop/Jeanette Master's/AQM&ED/jh-subject-1.csv,legacy,Kafkaesque Koffka,3.2.8,0,s,h,h,NA,NA,s,453,3013,237631,NA,NA,453,2,legacy,1024,2,48000,-16,experiment,HHSHH,1,odd,449364,515958,2304,146291,NA,517149,5318,383924,NA,486742,2296,NA,517043,517149,517603,517040,Flanker Task,138,72600,157,yes,1024
87.97468354,87.97468354,462.2468354,462.2468354,black,legacy,legacy,legacy,0,Incongruent,uniform,1,undefined,1,h,157,157,0,0,0,157,0,0,0,157,0,0,157,157,157,157,9/20/19 10:00,600,The main experiment item,yes,FlankerTask.osexp,C:\Users\Jeanette\Desktop\Jeanette Master's\AQM&ED,no,mono,no,18,no,white,no,yes,768,legacy,77,79,C:/Users/Jeanette/Desktop/Jeanette Master's/AQM&ED/jh-subject-1.csv,legacy,Kafkaesque Koffka,3.2.8,0,h,h,h,NA,NA,h,435,3013,237631,NA,NA,435,2,legacy,1024,2,48000,-16,experiment,SSHSS,1,odd,449364,517628,2304,146291,NA,518807,5318,383924,NA,486742,2296,NA,518702,518807,519244,518699,Flanker Task,139,73035,158,yes,1024
