acc,accuracy,average_response_time,avg_rt,background,canvas_backend,clock_backend,color_backend,compensation,condition,coordinates,correct,correct_Instructions1,correct_keyboardresponse,correct_response,count_Block1,count_Block2,count_Finish,count_Fixation,count_ISI,count_Instructions1,count_Instructions2,count_Instructions3,count_Sequence,count_Stimulus,count_block3,count_errorFeedback,count_experiment,count_faster,count_getting_started,count_keyboardresponse,count_logger,count_welcome,datetime,deadline,description,disable_garbage_collection,experiment_file,experiment_path,font_bold,font_family,font_italic,font_size,font_underline,foreground,form_clicks,fullscreen,height,keyboard_backend,live_row,live_row_Block1,logfile,mouse_backend,opensesame_codename,opensesame_version,repeat_cycle,response,response_Finish,response_Instructions1,response_Instructions2,response_Instructions3,response_keyboardresponse,response_time,response_time_Finish,response_time_Instructions1,response_time_Instructions2,response_time_Instructions3,response_time_keyboardresponse,response_time_welcome,response_welcome,round_decimals,sampler_backend,sound_buf_size,sound_channels,sound_freq,sound_sample_size,start,stimulus,subject_nr,subject_parity,time_Block1,time_Block2,time_Finish,time_Fixation,time_ISI,time_Instructions1,time_Instructions2,time_Instructions3,time_Sequence,time_Stimulus,time_block3,time_errorFeedback,time_experiment,time_faster,time_getting_started,time_keyboardresponse,time_logger,time_welcome,title,total_correct,total_response_time,total_responses,uniform_coordinates,width
100,100,634,634,#000000,legacy,legacy,legacy,0,incongruent,uniform,1,undefined,1,s,0,0,0,0,0,0,0,0,0,0,0,0,0,0,NA,0,0,NA,9/26/2021 18:23,1500,The main experiment item,yes,Lab21TestFlankerTask.osexp,C:\Users\mmcel\OneDrive\GRAD SCHOOL\fall 2021\Advanced Quant,no,mono,no,18,no,#ffffff,no,yes,768,legacy,0,0,C:/Users/mmcel/OneDrive/GRAD SCHOOL/fall 2021/Advanced Quant/MM-Subject-4.csv,legacy,Lentiform Loewenfeld,3.3.9,0,s,NA,h,NA,NA,s,634,NA,5729,NA,NA,634,NA,NA,2,legacy,1024,2,48000,-16,experiment,HHSHH,4,even,9104,NA,NA,9439,NA,3374,NA,NA,9434,9541,NA,NA,3371,NA,NA,9542,10177,NA,Lab 2.1 Test Flanker Task,1,634,1,yes,1024
50,50,502,502,#000000,legacy,legacy,legacy,0,incongruent,uniform,0,undefined,0,h,0,0,0,1,1,0,0,0,1,1,0,1,0,1,NA,1,1,NA,9/26/2021 18:23,1500,The main experiment item,yes,Lab21TestFlankerTask.osexp,C:\Users\mmcel\OneDrive\GRAD SCHOOL\fall 2021\Advanced Quant,no,mono,no,18,no,#ffffff,no,yes,768,legacy,1,1,C:/Users/mmcel/OneDrive/GRAD SCHOOL/fall 2021/Advanced Quant/MM-Subject-4.csv,legacy,Lentiform Loewenfeld,3.3.9,0,s,NA,h,NA,NA,s,370,NA,5729,NA,NA,370,NA,NA,2,legacy,1024,2,48000,-16,experiment,SSHSS,4,even,9104,NA,NA,11467,10368,3374,NA,NA,11465,11569,NA,NA,3371,NA,NA,11569,11940,NA,Lab 2.1 Test Flanker Task,1,1004,2,yes,1024
66.66666667,66.66666667,484,484,#000000,legacy,legacy,legacy,0,congruent,uniform,1,undefined,1,h,0,0,0,2,2,0,0,0,2,2,0,2,0,2,NA,2,2,NA,9/26/2021 18:23,1500,The main experiment item,yes,Lab21TestFlankerTask.osexp,C:\Users\mmcel\OneDrive\GRAD SCHOOL\fall 2021\Advanced Quant,no,mono,no,18,no,#ffffff,no,yes,768,legacy,2,2,C:/Users/mmcel/OneDrive/GRAD SCHOOL/fall 2021/Advanced Quant/MM-Subject-4.csv,legacy,Lentiform Loewenfeld,3.3.9,0,h,NA,h,NA,NA,h,448,NA,5729,NA,NA,448,NA,NA,2,legacy,1024,2,48000,-16,experiment,HHHHH,4,even,9104,NA,NA,13788,12684,3374,NA,NA,13786,13891,NA,12177,3371,NA,NA,13891,14339,NA,Lab 2.1 Test Flanker Task,2,1452,3,yes,1024
75,75,451.5,451.5,#000000,legacy,legacy,legacy,0,incongruent,uniform,1,undefined,1,h,0,0,0,3,3,0,0,0,3,3,0,3,0,3,NA,3,3,NA,9/26/2021 18:23,1500,The main experiment item,yes,Lab21TestFlankerTask.osexp,C:\Users\mmcel\OneDrive\GRAD SCHOOL\fall 2021\Advanced Quant,no,mono,no,18,no,#ffffff,no,yes,768,legacy,3,3,C:/Users/mmcel/OneDrive/GRAD SCHOOL/fall 2021/Advanced Quant/MM-Subject-4.csv,legacy,Lentiform Loewenfeld,3.3.9,0,h,NA,h,NA,NA,h,354,NA,5729,NA,NA,354,NA,NA,2,legacy,1024,2,48000,-16,experiment,SSHSS,4,even,9104,NA,NA,15502,14402,3374,NA,NA,15500,15607,NA,12177,3371,NA,NA,15607,15962,NA,Lab 2.1 Test Flanker Task,3,1806,4,yes,1024
60,60,438,438,#000000,legacy,legacy,legacy,0,congruent,uniform,0,undefined,0,h,0,0,0,4,4,0,0,0,4,4,0,4,0,4,NA,4,4,NA,9/26/2021 18:23,1500,The main experiment item,yes,Lab21TestFlankerTask.osexp,C:\Users\mmcel\OneDrive\GRAD SCHOOL\fall 2021\Advanced Quant,no,mono,no,18,no,#ffffff,no,yes,768,legacy,4,4,C:/Users/mmcel/OneDrive/GRAD SCHOOL/fall 2021/Advanced Quant/MM-Subject-4.csv,legacy,Lentiform Loewenfeld,3.3.9,0,s,NA,h,NA,NA,s,384,NA,5729,NA,NA,384,NA,NA,2,legacy,1024,2,48000,-16,experiment,HHHHH,4,even,9104,NA,NA,17102,16022,3374,NA,NA,17100,17207,NA,12177,3371,NA,NA,17207,17591,NA,Lab 2.1 Test Flanker Task,3,2190,5,yes,1024
66.66666667,66.66666667,427.1666667,427.1666667,#000000,legacy,legacy,legacy,0,congruent,uniform,1,undefined,1,h,0,0,0,5,5,0,0,0,5,5,0,5,0,5,NA,5,5,NA,9/26/2021 18:23,1500,The main experiment item,yes,Lab21TestFlankerTask.osexp,C:\Users\mmcel\OneDrive\GRAD SCHOOL\fall 2021\Advanced Quant,no,mono,no,18,no,#ffffff,no,yes,768,legacy,5,5,C:/Users/mmcel/OneDrive/GRAD SCHOOL/fall 2021/Advanced Quant/MM-Subject-4.csv,legacy,Lentiform Loewenfeld,3.3.9,0,h,NA,h,NA,NA,h,373,NA,5729,NA,NA,373,NA,NA,2,legacy,1024,2,48000,-16,experiment,HHHHH,4,even,9104,NA,NA,19245,18146,3374,NA,NA,19242,19349,NA,17645,3371,NA,NA,19349,19723,NA,Lab 2.1 Test Flanker Task,4,2563,6,yes,1024
71.42857143,71.42857143,421,421,#000000,legacy,legacy,legacy,0,congruent,uniform,1,undefined,1,s,0,0,0,6,6,0,0,0,6,6,0,6,0,6,NA,6,6,NA,9/26/2021 18:23,1500,The main experiment item,yes,Lab21TestFlankerTask.osexp,C:\Users\mmcel\OneDrive\GRAD SCHOOL\fall 2021\Advanced Quant,no,mono,no,18,no,#ffffff,no,yes,768,legacy,6,6,C:/Users/mmcel/OneDrive/GRAD SCHOOL/fall 2021/Advanced Quant/MM-Subject-4.csv,legacy,Lentiform Loewenfeld,3.3.9,0,s,NA,h,NA,NA,s,384,NA,5729,NA,NA,384,NA,NA,2,legacy,1024,2,48000,-16,experiment,SSSSS,4,even,9104,NA,NA,20868,19753,3374,NA,NA,20866,20974,NA,17645,3371,NA,NA,20974,21358,NA,Lab 2.1 Test Flanker Task,5,2947,7,yes,1024
75,75,414,414,#000000,legacy,legacy,legacy,0,congruent,uniform,1,undefined,1,s,0,0,0,7,7,0,0,0,7,7,0,7,0,7,NA,7,7,NA,9/26/2021 18:23,1500,The main experiment item,yes,Lab21TestFlankerTask.osexp,C:\Users\mmcel\OneDrive\GRAD SCHOOL\fall 2021\Advanced Quant,no,mono,no,18,no,#ffffff,no,yes,768,legacy,7,7,C:/Users/mmcel/OneDrive/GRAD SCHOOL/fall 2021/Advanced Quant/MM-Subject-4.csv,legacy,Lentiform Loewenfeld,3.3.9,0,s,NA,h,NA,NA,s,365,NA,5729,NA,NA,365,NA,NA,2,legacy,1024,2,48000,-16,experiment,SSSSS,4,even,9104,NA,NA,22608,21491,3374,NA,NA,22606,22713,NA,17645,3371,NA,NA,22713,23078,NA,Lab 2.1 Test Flanker Task,6,3312,8,yes,1024
77.77777778,77.77777778,411.7777778,411.7777778,#000000,legacy,legacy,legacy,0,congruent,uniform,1,undefined,1,h,0,0,0,8,8,0,0,0,8,8,0,8,0,8,NA,8,8,NA,9/26/2021 18:23,1500,The main experiment item,yes,Lab21TestFlankerTask.osexp,C:\Users\mmcel\OneDrive\GRAD SCHOOL\fall 2021\Advanced Quant,no,mono,no,18,no,#ffffff,no,yes,768,legacy,8,8,C:/Users/mmcel/OneDrive/GRAD SCHOOL/fall 2021/Advanced Quant/MM-Subject-4.csv,legacy,Lentiform Loewenfeld,3.3.9,0,h,NA,h,NA,NA,h,394,NA,5729,NA,NA,394,NA,NA,2,legacy,1024,2,48000,-16,experiment,HHHHH,4,even,9104,NA,NA,24255,23131,3374,NA,NA,24252,24360,NA,17645,3371,NA,NA,24360,24755,NA,Lab 2.1 Test Flanker Task,7,3706,9,yes,1024
80,80,408.3,408.3,#000000,legacy,legacy,legacy,0,congruent,uniform,1,undefined,1,h,0,0,0,9,9,0,0,0,9,9,0,9,0,9,NA,9,9,NA,9/26/2021 18:23,1500,The main experiment item,yes,Lab21TestFlankerTask.osexp,C:\Users\mmcel\OneDrive\GRAD SCHOOL\fall 2021\Advanced Quant,no,mono,no,18,no,#ffffff,no,yes,768,legacy,9,9,C:/Users/mmcel/OneDrive/GRAD SCHOOL/fall 2021/Advanced Quant/MM-Subject-4.csv,legacy,Lentiform Loewenfeld,3.3.9,0,h,NA,h,NA,NA,h,377,NA,5729,NA,NA,377,NA,NA,2,legacy,1024,2,48000,-16,experiment,HHHHH,4,even,9104,NA,NA,25937,24809,3374,NA,NA,25935,26044,NA,17645,3371,NA,NA,26044,26421,NA,Lab 2.1 Test Flanker Task,8,4083,10,yes,1024
81.81818182,81.81818182,409,409,#000000,legacy,legacy,legacy,0,congruent,uniform,1,undefined,1,s,0,0,0,10,10,0,0,0,10,10,0,10,0,10,NA,10,10,NA,9/26/2021 18:23,1500,The main experiment item,yes,Lab21TestFlankerTask.osexp,C:\Users\mmcel\OneDrive\GRAD SCHOOL\fall 2021\Advanced Quant,no,mono,no,18,no,#ffffff,no,yes,768,legacy,10,10,C:/Users/mmcel/OneDrive/GRAD SCHOOL/fall 2021/Advanced Quant/MM-Subject-4.csv,legacy,Lentiform Loewenfeld,3.3.9,0,s,NA,h,NA,NA,s,416,NA,5729,NA,NA,416,NA,NA,2,legacy,1024,2,48000,-16,experiment,SSSSS,4,even,9104,NA,NA,27562,26453,3374,NA,NA,27560,27666,NA,17645,3371,NA,NA,27666,28082,NA,Lab 2.1 Test Flanker Task,9,4499,11,yes,1024
83.33333333,83.33333333,409.1666667,409.1666667,#000000,legacy,legacy,legacy,0,congruent,uniform,1,undefined,1,s,0,0,0,11,11,0,0,0,11,11,0,11,0,11,NA,11,11,NA,9/26/2021 18:23,1500,The main experiment item,yes,Lab21TestFlankerTask.osexp,C:\Users\mmcel\OneDrive\GRAD SCHOOL\fall 2021\Advanced Quant,no,mono,no,18,no,#ffffff,no,yes,768,legacy,11,11,C:/Users/mmcel/OneDrive/GRAD SCHOOL/fall 2021/Advanced Quant/MM-Subject-4.csv,legacy,Lentiform Loewenfeld,3.3.9,0,s,NA,h,NA,NA,s,411,NA,5729,NA,NA,411,NA,NA,2,legacy,1024,2,48000,-16,experiment,SSSSS,4,even,9104,NA,NA,29231,28151,3374,NA,NA,29229,29335,NA,17645,3371,NA,NA,29335,29747,NA,Lab 2.1 Test Flanker Task,10,4910,12,yes,1024
84.61538462,84.61538462,416.6923077,416.6923077,#000000,legacy,legacy,legacy,0,incongruent,uniform,1,undefined,1,s,0,0,0,12,12,0,0,0,12,12,0,12,0,12,NA,12,12,NA,9/26/2021 18:23,1500,The main experiment item,yes,Lab21TestFlankerTask.osexp,C:\Users\mmcel\OneDrive\GRAD SCHOOL\fall 2021\Advanced Quant,no,mono,no,18,no,#ffffff,no,yes,768,legacy,12,12,C:/Users/mmcel/OneDrive/GRAD SCHOOL/fall 2021/Advanced Quant/MM-Subject-4.csv,legacy,Lentiform Loewenfeld,3.3.9,0,s,NA,h,NA,NA,s,507,NA,5729,NA,NA,507,NA,NA,2,legacy,1024,2,48000,-16,experiment,HHSHH,4,even,9104,NA,NA,30895,29764,3374,NA,NA,30893,30996,NA,17645,3371,NA,NA,30996,31503,NA,Lab 2.1 Test Flanker Task,11,5417,13,yes,1024
85.71428571,85.71428571,413.3571429,413.3571429,#000000,legacy,legacy,legacy,0,congruent,uniform,1,undefined,1,h,0,0,0,13,13,0,0,0,13,13,0,13,0,13,NA,13,13,NA,9/26/2021 18:23,1500,The main experiment item,yes,Lab21TestFlankerTask.osexp,C:\Users\mmcel\OneDrive\GRAD SCHOOL\fall 2021\Advanced Quant,no,mono,no,18,no,#ffffff,no,yes,768,legacy,13,13,C:/Users/mmcel/OneDrive/GRAD SCHOOL/fall 2021/Advanced Quant/MM-Subject-4.csv,legacy,Lentiform Loewenfeld,3.3.9,0,h,NA,h,NA,NA,h,370,NA,5729,NA,NA,370,NA,NA,2,legacy,1024,2,48000,-16,experiment,HHHHH,4,even,9104,NA,NA,32654,31532,3374,NA,NA,32652,32759,NA,17645,3371,NA,NA,32760,33130,NA,Lab 2.1 Test Flanker Task,12,5787,14,yes,1024
80,80,412.3333333,412.3333333,#000000,legacy,legacy,legacy,0,incongruent,uniform,0,undefined,0,s,0,0,0,14,14,0,0,0,14,14,0,14,0,14,NA,14,14,NA,9/26/2021 18:23,1500,The main experiment item,yes,Lab21TestFlankerTask.osexp,C:\Users\mmcel\OneDrive\GRAD SCHOOL\fall 2021\Advanced Quant,no,mono,no,18,no,#ffffff,no,yes,768,legacy,14,14,C:/Users/mmcel/OneDrive/GRAD SCHOOL/fall 2021/Advanced Quant/MM-Subject-4.csv,legacy,Lentiform Loewenfeld,3.3.9,0,h,NA,h,NA,NA,h,398,NA,5729,NA,NA,398,NA,NA,2,legacy,1024,2,48000,-16,experiment,HHSHH,4,even,9104,NA,NA,34285,33176,3374,NA,NA,34283,34390,NA,17645,3371,NA,NA,34390,34788,NA,Lab 2.1 Test Flanker Task,12,6185,15,yes,1024
75,75,409.6875,409.6875,#000000,legacy,legacy,legacy,0,incongruent,uniform,0,undefined,0,h,0,0,0,15,15,0,0,0,15,15,0,15,0,15,NA,15,15,NA,9/26/2021 18:23,1500,The main experiment item,yes,Lab21TestFlankerTask.osexp,C:\Users\mmcel\OneDrive\GRAD SCHOOL\fall 2021\Advanced Quant,no,mono,no,18,no,#ffffff,no,yes,768,legacy,15,15,C:/Users/mmcel/OneDrive/GRAD SCHOOL/fall 2021/Advanced Quant/MM-Subject-4.csv,legacy,Lentiform Loewenfeld,3.3.9,0,s,NA,h,NA,NA,s,370,NA,5729,NA,NA,370,NA,NA,2,legacy,1024,2,48000,-16,experiment,SSHSS,4,even,9104,NA,NA,36470,35352,3374,NA,NA,36468,36576,NA,34847,3371,NA,NA,36576,36946,NA,Lab 2.1 Test Flanker Task,12,6555,16,yes,1024
70.58823529,70.58823529,411.7647059,411.7647059,#000000,legacy,legacy,legacy,0,incongruent,uniform,0,undefined,0,s,0,0,0,16,16,0,0,0,16,16,0,16,0,16,NA,16,16,NA,9/26/2021 18:23,1500,The main experiment item,yes,Lab21TestFlankerTask.osexp,C:\Users\mmcel\OneDrive\GRAD SCHOOL\fall 2021\Advanced Quant,no,mono,no,18,no,#ffffff,no,yes,768,legacy,16,16,C:/Users/mmcel/OneDrive/GRAD SCHOOL/fall 2021/Advanced Quant/MM-Subject-4.csv,legacy,Lentiform Loewenfeld,3.3.9,0,h,NA,h,NA,NA,h,445,NA,5729,NA,NA,445,NA,NA,2,legacy,1024,2,48000,-16,experiment,HHSHH,4,even,9104,NA,NA,38597,37481,3374,NA,NA,38595,38702,NA,36976,3371,NA,NA,38703,39149,NA,Lab 2.1 Test Flanker Task,12,7000,17,yes,1024
72.22222222,72.22222222,411,411,#000000,legacy,legacy,legacy,0,congruent,uniform,1,undefined,1,h,0,0,0,17,17,0,0,0,17,17,0,17,0,17,NA,17,17,NA,9/26/2021 18:23,1500,The main experiment item,yes,Lab21TestFlankerTask.osexp,C:\Users\mmcel\OneDrive\GRAD SCHOOL\fall 2021\Advanced Quant,no,mono,no,18,no,#ffffff,no,yes,768,legacy,17,17,C:/Users/mmcel/OneDrive/GRAD SCHOOL/fall 2021/Advanced Quant/MM-Subject-4.csv,legacy,Lentiform Loewenfeld,3.3.9,0,h,NA,h,NA,NA,h,398,NA,5729,NA,NA,398,NA,NA,2,legacy,1024,2,48000,-16,experiment,HHHHH,4,even,9104,NA,NA,40846,39730,3374,NA,NA,40844,40951,NA,39225,3371,NA,NA,40951,41349,NA,Lab 2.1 Test Flanker Task,13,7398,18,yes,1024
73.68421053,73.68421053,409.6315789,409.6315789,#000000,legacy,legacy,legacy,0,incongruent,uniform,1,undefined,1,h,0,0,0,18,18,0,0,0,18,18,0,18,0,18,NA,18,18,NA,9/26/2021 18:23,1500,The main experiment item,yes,Lab21TestFlankerTask.osexp,C:\Users\mmcel\OneDrive\GRAD SCHOOL\fall 2021\Advanced Quant,no,mono,no,18,no,#ffffff,no,yes,768,legacy,18,18,C:/Users/mmcel/OneDrive/GRAD SCHOOL/fall 2021/Advanced Quant/MM-Subject-4.csv,legacy,Lentiform Loewenfeld,3.3.9,0,h,NA,h,NA,NA,h,385,NA,5729,NA,NA,385,NA,NA,2,legacy,1024,2,48000,-16,experiment,SSHSS,4,even,9104,NA,NA,42502,41399,3374,NA,NA,42500,42607,NA,39225,3371,NA,NA,42607,42993,NA,Lab 2.1 Test Flanker Task,14,7783,19,yes,1024
75,75,409.95,409.95,#000000,legacy,legacy,legacy,0,congruent,uniform,1,undefined,1,s,0,0,0,19,19,0,0,0,19,19,0,19,0,19,NA,19,19,NA,9/26/2021 18:23,1500,The main experiment item,yes,Lab21TestFlankerTask.osexp,C:\Users\mmcel\OneDrive\GRAD SCHOOL\fall 2021\Advanced Quant,no,mono,no,18,no,#ffffff,no,yes,768,legacy,19,19,C:/Users/mmcel/OneDrive/GRAD SCHOOL/fall 2021/Advanced Quant/MM-Subject-4.csv,legacy,Lentiform Loewenfeld,3.3.9,0,s,NA,h,NA,NA,s,416,NA,5729,NA,NA,416,NA,NA,2,legacy,1024,2,48000,-16,experiment,SSSSS,4,even,9104,NA,NA,44142,43034,3374,NA,NA,44140,44245,NA,39225,3371,NA,NA,44245,44662,NA,Lab 2.1 Test Flanker Task,15,8199,20,yes,1024
76.19047619,76.19047619,409.6190476,409.6190476,#000000,legacy,legacy,legacy,0,congruent,uniform,1,undefined,1,h,0,0,0,20,20,0,0,0,20,20,0,20,0,20,NA,20,20,NA,9/26/2021 18:23,1500,The main experiment item,yes,Lab21TestFlankerTask.osexp,C:\Users\mmcel\OneDrive\GRAD SCHOOL\fall 2021\Advanced Quant,no,mono,no,18,no,#ffffff,no,yes,768,legacy,20,20,C:/Users/mmcel/OneDrive/GRAD SCHOOL/fall 2021/Advanced Quant/MM-Subject-4.csv,legacy,Lentiform Loewenfeld,3.3.9,0,h,NA,h,NA,NA,h,403,NA,5729,NA,NA,403,NA,NA,2,legacy,1024,2,48000,-16,experiment,HHHHH,4,even,9104,NA,NA,45779,44699,3374,NA,NA,45777,45880,NA,39225,3371,NA,NA,45880,46284,NA,Lab 2.1 Test Flanker Task,16,8602,21,yes,1024
72.72727273,72.72727273,411,411,#000000,legacy,legacy,legacy,0,incongruent,uniform,0,undefined,0,h,0,0,0,21,21,0,0,0,21,21,0,21,0,21,NA,21,21,NA,9/26/2021 18:23,1500,The main experiment item,yes,Lab21TestFlankerTask.osexp,C:\Users\mmcel\OneDrive\GRAD SCHOOL\fall 2021\Advanced Quant,no,mono,no,18,no,#ffffff,no,yes,768,legacy,21,21,C:/Users/mmcel/OneDrive/GRAD SCHOOL/fall 2021/Advanced Quant/MM-Subject-4.csv,legacy,Lentiform Loewenfeld,3.3.9,0,s,NA,h,NA,NA,s,440,NA,5729,NA,NA,440,NA,NA,2,legacy,1024,2,48000,-16,experiment,SSHSS,4,even,9104,NA,NA,47427,46310,3374,NA,NA,47425,47532,NA,39225,3371,NA,NA,47532,47972,NA,Lab 2.1 Test Flanker Task,16,9042,22,yes,1024
73.91304348,73.91304348,413.0869565,413.0869565,#000000,legacy,legacy,legacy,0,incongruent,uniform,1,undefined,1,h,0,0,0,22,22,0,0,0,22,22,0,22,0,22,NA,22,22,NA,9/26/2021 18:23,1500,The main experiment item,yes,Lab21TestFlankerTask.osexp,C:\Users\mmcel\OneDrive\GRAD SCHOOL\fall 2021\Advanced Quant,no,mono,no,18,no,#ffffff,no,yes,768,legacy,22,22,C:/Users/mmcel/OneDrive/GRAD SCHOOL/fall 2021/Advanced Quant/MM-Subject-4.csv,legacy,Lentiform Loewenfeld,3.3.9,0,h,NA,h,NA,NA,h,459,NA,5729,NA,NA,459,NA,NA,2,legacy,1024,2,48000,-16,experiment,SSHSS,4,even,9104,NA,NA,49609,48504,3374,NA,NA,49607,49714,NA,47999,3371,NA,NA,49714,50174,NA,Lab 2.1 Test Flanker Task,17,9501,23,yes,1024
75,75,411.7083333,411.7083333,#000000,legacy,legacy,legacy,0,congruent,uniform,1,undefined,1,s,0,0,0,23,23,0,0,0,23,23,0,23,0,23,NA,23,23,NA,9/26/2021 18:23,1500,The main experiment item,yes,Lab21TestFlankerTask.osexp,C:\Users\mmcel\OneDrive\GRAD SCHOOL\fall 2021\Advanced Quant,no,mono,no,18,no,#ffffff,no,yes,768,legacy,23,23,C:/Users/mmcel/OneDrive/GRAD SCHOOL/fall 2021/Advanced Quant/MM-Subject-4.csv,legacy,Lentiform Loewenfeld,3.3.9,0,s,NA,h,NA,NA,s,380,NA,5729,NA,NA,380,NA,NA,2,legacy,1024,2,48000,-16,experiment,SSSSS,4,even,9104,NA,NA,51322,50199,3374,NA,NA,51320,51426,NA,47999,3371,NA,NA,51426,51806,NA,Lab 2.1 Test Flanker Task,18,9881,24,yes,1024
76,76,410.2,410.2,#000000,legacy,legacy,legacy,0,incongruent,uniform,1,undefined,1,h,0,0,0,24,24,0,0,0,24,24,0,24,0,24,NA,24,24,NA,9/26/2021 18:23,1500,The main experiment item,yes,Lab21TestFlankerTask.osexp,C:\Users\mmcel\OneDrive\GRAD SCHOOL\fall 2021\Advanced Quant,no,mono,no,18,no,#ffffff,no,yes,768,legacy,24,24,C:/Users/mmcel/OneDrive/GRAD SCHOOL/fall 2021/Advanced Quant/MM-Subject-4.csv,legacy,Lentiform Loewenfeld,3.3.9,0,h,NA,h,NA,NA,h,374,NA,5729,NA,NA,374,NA,NA,2,legacy,1024,2,48000,-16,experiment,SSHSS,4,even,9104,NA,NA,52943,51833,3374,NA,NA,52941,53048,NA,47999,3371,NA,NA,53048,53423,NA,Lab 2.1 Test Flanker Task,19,10255,25,yes,1024
76.92307692,76.92307692,408.6538462,408.6538462,#000000,legacy,legacy,legacy,0,congruent,uniform,1,undefined,1,h,0,0,0,25,25,0,0,0,25,25,0,25,0,25,NA,25,25,NA,9/26/2021 18:23,1500,The main experiment item,yes,Lab21TestFlankerTask.osexp,C:\Users\mmcel\OneDrive\GRAD SCHOOL\fall 2021\Advanced Quant,no,mono,no,18,no,#ffffff,no,yes,768,legacy,25,25,C:/Users/mmcel/OneDrive/GRAD SCHOOL/fall 2021/Advanced Quant/MM-Subject-4.csv,legacy,Lentiform Loewenfeld,3.3.9,0,h,NA,h,NA,NA,h,370,NA,5729,NA,NA,370,NA,NA,2,legacy,1024,2,48000,-16,experiment,HHHHH,4,even,9104,NA,NA,54564,53455,3374,NA,NA,54562,54669,NA,47999,3371,NA,NA,54669,55039,NA,Lab 2.1 Test Flanker Task,20,10625,26,yes,1024
77.77777778,77.77777778,405.9259259,405.9259259,#000000,legacy,legacy,legacy,0,incongruent,uniform,1,undefined,1,s,0,0,0,26,26,0,0,0,26,26,0,26,0,26,NA,26,26,NA,9/26/2021 18:23,1500,The main experiment item,yes,Lab21TestFlankerTask.osexp,C:\Users\mmcel\OneDrive\GRAD SCHOOL\fall 2021\Advanced Quant,no,mono,no,18,no,#ffffff,no,yes,768,legacy,26,26,C:/Users/mmcel/OneDrive/GRAD SCHOOL/fall 2021/Advanced Quant/MM-Subject-4.csv,legacy,Lentiform Loewenfeld,3.3.9,0,s,NA,h,NA,NA,s,335,NA,5729,NA,NA,335,NA,NA,2,legacy,1024,2,48000,-16,experiment,HHSHH,4,even,9104,NA,NA,56187,55077,3374,NA,NA,56185,56292,NA,47999,3371,NA,NA,56292,56628,NA,Lab 2.1 Test Flanker Task,21,10960,27,yes,1024
78.57142857,78.57142857,405.5357143,405.5357143,#000000,legacy,legacy,legacy,0,incongruent,uniform,1,undefined,1,h,0,0,0,27,27,0,0,0,27,27,0,27,0,27,NA,27,27,NA,9/26/2021 18:23,1500,The main experiment item,yes,Lab21TestFlankerTask.osexp,C:\Users\mmcel\OneDrive\GRAD SCHOOL\fall 2021\Advanced Quant,no,mono,no,18,no,#ffffff,no,yes,768,legacy,27,27,C:/Users/mmcel/OneDrive/GRAD SCHOOL/fall 2021/Advanced Quant/MM-Subject-4.csv,legacy,Lentiform Loewenfeld,3.3.9,0,h,NA,h,NA,NA,h,395,NA,5729,NA,NA,395,NA,NA,2,legacy,1024,2,48000,-16,experiment,SSHSS,4,even,9104,NA,NA,57776,56655,3374,NA,NA,57773,57881,NA,47999,3371,NA,NA,57881,58276,NA,Lab 2.1 Test Flanker Task,22,11355,28,yes,1024
79.31034483,79.31034483,404.9310345,404.9310345,#000000,legacy,legacy,legacy,0,congruent,uniform,1,undefined,1,s,0,0,0,28,28,0,0,0,28,28,0,28,0,28,NA,28,28,NA,9/26/2021 18:23,1500,The main experiment item,yes,Lab21TestFlankerTask.osexp,C:\Users\mmcel\OneDrive\GRAD SCHOOL\fall 2021\Advanced Quant,no,mono,no,18,no,#ffffff,no,yes,768,legacy,28,28,C:/Users/mmcel/OneDrive/GRAD SCHOOL/fall 2021/Advanced Quant/MM-Subject-4.csv,legacy,Lentiform Loewenfeld,3.3.9,0,s,NA,h,NA,NA,s,388,NA,5729,NA,NA,388,NA,NA,2,legacy,1024,2,48000,-16,experiment,SSSSS,4,even,9104,NA,NA,59451,58324,3374,NA,NA,59449,59556,NA,47999,3371,NA,NA,59556,59944,NA,Lab 2.1 Test Flanker Task,23,11743,29,yes,1024
80,80,403.4,403.4,#000000,legacy,legacy,legacy,0,incongruent,uniform,1,undefined,1,h,0,0,0,29,29,0,0,0,29,29,0,29,0,29,NA,29,29,NA,9/26/2021 18:23,1500,The main experiment item,yes,Lab21TestFlankerTask.osexp,C:\Users\mmcel\OneDrive\GRAD SCHOOL\fall 2021\Advanced Quant,no,mono,no,18,no,#ffffff,no,yes,768,legacy,29,29,C:/Users/mmcel/OneDrive/GRAD SCHOOL/fall 2021/Advanced Quant/MM-Subject-4.csv,legacy,Lentiform Loewenfeld,3.3.9,0,h,NA,h,NA,NA,h,359,NA,5729,NA,NA,359,NA,NA,2,legacy,1024,2,48000,-16,experiment,SSHSS,4,even,9104,NA,NA,61104,59979,3374,NA,NA,61102,61209,NA,47999,3371,NA,NA,61209,61569,NA,Lab 2.1 Test Flanker Task,24,12102,30,yes,1024
80.64516129,80.64516129,403.483871,403.483871,#000000,legacy,legacy,legacy,0,incongruent,uniform,1,undefined,1,h,0,0,0,30,30,0,0,0,30,30,0,30,0,30,NA,30,30,NA,9/26/2021 18:23,1500,The main experiment item,yes,Lab21TestFlankerTask.osexp,C:\Users\mmcel\OneDrive\GRAD SCHOOL\fall 2021\Advanced Quant,no,mono,no,18,no,#ffffff,no,yes,768,legacy,30,30,C:/Users/mmcel/OneDrive/GRAD SCHOOL/fall 2021/Advanced Quant/MM-Subject-4.csv,legacy,Lentiform Loewenfeld,3.3.9,0,h,NA,h,NA,NA,h,406,NA,5729,NA,NA,406,NA,NA,2,legacy,1024,2,48000,-16,experiment,SSHSS,4,even,9104,NA,NA,62730,61599,3374,NA,NA,62727,62835,NA,47999,3371,NA,NA,62835,63242,NA,Lab 2.1 Test Flanker Task,25,12508,31,yes,1024
78.125,78.125,401.90625,401.90625,#000000,legacy,legacy,legacy,0,incongruent,uniform,0,undefined,0,h,0,0,0,31,31,0,0,0,31,31,0,31,0,31,NA,31,31,NA,9/26/2021 18:23,1500,The main experiment item,yes,Lab21TestFlankerTask.osexp,C:\Users\mmcel\OneDrive\GRAD SCHOOL\fall 2021\Advanced Quant,no,mono,no,18,no,#ffffff,no,yes,768,legacy,31,31,C:/Users/mmcel/OneDrive/GRAD SCHOOL/fall 2021/Advanced Quant/MM-Subject-4.csv,legacy,Lentiform Loewenfeld,3.3.9,0,s,NA,h,NA,NA,s,353,NA,5729,NA,NA,353,NA,NA,2,legacy,1024,2,48000,-16,experiment,SSHSS,4,even,9104,NA,NA,64481,63348,3374,NA,NA,64478,64586,NA,47999,3371,NA,NA,64586,64939,NA,Lab 2.1 Test Flanker Task,25,12861,32,yes,1024
78.78787879,78.78787879,400.5151515,400.5151515,#000000,legacy,legacy,legacy,0,incongruent,uniform,1,undefined,1,h,0,0,0,32,32,0,0,0,32,32,0,32,0,32,NA,32,32,NA,9/26/2021 18:23,1500,The main experiment item,yes,Lab21TestFlankerTask.osexp,C:\Users\mmcel\OneDrive\GRAD SCHOOL\fall 2021\Advanced Quant,no,mono,no,18,no,#ffffff,no,yes,768,legacy,32,32,C:/Users/mmcel/OneDrive/GRAD SCHOOL/fall 2021/Advanced Quant/MM-Subject-4.csv,legacy,Lentiform Loewenfeld,3.3.9,0,h,NA,h,NA,NA,h,356,NA,5729,NA,NA,356,NA,NA,2,legacy,1024,2,48000,-16,experiment,SSHSS,4,even,9104,NA,NA,66591,65482,3374,NA,NA,66588,66696,NA,64977,3371,NA,NA,66696,67052,NA,Lab 2.1 Test Flanker Task,26,13217,33,yes,1024
76.47058824,76.47058824,400.8235294,400.8235294,#000000,legacy,legacy,legacy,0,incongruent,uniform,0,undefined,0,s,0,0,0,33,33,0,0,0,33,33,0,33,0,33,NA,33,33,NA,9/26/2021 18:23,1500,The main experiment item,yes,Lab21TestFlankerTask.osexp,C:\Users\mmcel\OneDrive\GRAD SCHOOL\fall 2021\Advanced Quant,no,mono,no,18,no,#ffffff,no,yes,768,legacy,33,33,C:/Users/mmcel/OneDrive/GRAD SCHOOL/fall 2021/Advanced Quant/MM-Subject-4.csv,legacy,Lentiform Loewenfeld,3.3.9,0,h,NA,h,NA,NA,h,411,NA,5729,NA,NA,411,NA,NA,2,legacy,1024,2,48000,-16,experiment,HHSHH,4,even,9104,NA,NA,68195,67077,3374,NA,NA,68192,68300,NA,64977,3371,NA,NA,68300,68712,NA,Lab 2.1 Test Flanker Task,26,13628,34,yes,1024
77.14285714,77.14285714,402.4571429,402.4571429,#000000,legacy,legacy,legacy,0,congruent,uniform,1,undefined,1,s,0,0,0,34,34,0,0,0,34,34,0,34,0,34,NA,34,34,NA,9/26/2021 18:23,1500,The main experiment item,yes,Lab21TestFlankerTask.osexp,C:\Users\mmcel\OneDrive\GRAD SCHOOL\fall 2021\Advanced Quant,no,mono,no,18,no,#ffffff,no,yes,768,legacy,34,34,C:/Users/mmcel/OneDrive/GRAD SCHOOL/fall 2021/Advanced Quant/MM-Subject-4.csv,legacy,Lentiform Loewenfeld,3.3.9,0,s,NA,h,NA,NA,s,458,NA,5729,NA,NA,458,NA,NA,2,legacy,1024,2,48000,-16,experiment,SSSSS,4,even,9104,NA,NA,70369,69250,3374,NA,NA,70367,70474,NA,68744,3371,NA,NA,70474,70932,NA,Lab 2.1 Test Flanker Task,27,14086,35,yes,1024
75,75,404,404,#000000,legacy,legacy,legacy,0,incongruent,uniform,0,undefined,0,s,0,0,0,35,35,0,0,0,35,35,0,35,0,35,NA,35,35,NA,9/26/2021 18:23,1500,The main experiment item,yes,Lab21TestFlankerTask.osexp,C:\Users\mmcel\OneDrive\GRAD SCHOOL\fall 2021\Advanced Quant,no,mono,no,18,no,#ffffff,no,yes,768,legacy,35,35,C:/Users/mmcel/OneDrive/GRAD SCHOOL/fall 2021/Advanced Quant/MM-Subject-4.csv,legacy,Lentiform Loewenfeld,3.3.9,0,h,NA,h,NA,NA,h,458,NA,5729,NA,NA,458,NA,NA,2,legacy,1024,2,48000,-16,experiment,HHSHH,4,even,9104,NA,NA,72079,70955,3374,NA,NA,72077,72184,NA,68744,3371,NA,NA,72185,72644,NA,Lab 2.1 Test Flanker Task,27,14544,36,yes,1024
75.67567568,75.67567568,404.1621622,404.1621622,#000000,legacy,legacy,legacy,0,incongruent,uniform,1,undefined,1,h,0,0,0,36,36,0,0,0,36,36,0,36,0,36,NA,36,36,NA,9/26/2021 18:23,1500,The main experiment item,yes,Lab21TestFlankerTask.osexp,C:\Users\mmcel\OneDrive\GRAD SCHOOL\fall 2021\Advanced Quant,no,mono,no,18,no,#ffffff,no,yes,768,legacy,36,36,C:/Users/mmcel/OneDrive/GRAD SCHOOL/fall 2021/Advanced Quant/MM-Subject-4.csv,legacy,Lentiform Loewenfeld,3.3.9,0,h,NA,h,NA,NA,h,410,NA,5729,NA,NA,410,NA,NA,2,legacy,1024,2,48000,-16,experiment,SSHSS,4,even,9104,NA,NA,74301,73194,3374,NA,NA,74298,74406,NA,72689,3371,NA,NA,74406,74817,NA,Lab 2.1 Test Flanker Task,28,14954,37,yes,1024
76.31578947,76.31578947,403.4736842,403.4736842,#000000,legacy,legacy,legacy,0,congruent,uniform,1,undefined,1,h,0,0,0,37,37,0,0,0,37,37,0,37,0,37,NA,37,37,NA,9/26/2021 18:23,1500,The main experiment item,yes,Lab21TestFlankerTask.osexp,C:\Users\mmcel\OneDrive\GRAD SCHOOL\fall 2021\Advanced Quant,no,mono,no,18,no,#ffffff,no,yes,768,legacy,37,37,C:/Users/mmcel/OneDrive/GRAD SCHOOL/fall 2021/Advanced Quant/MM-Subject-4.csv,legacy,Lentiform Loewenfeld,3.3.9,0,h,NA,h,NA,NA,h,378,NA,5729,NA,NA,378,NA,NA,2,legacy,1024,2,48000,-16,experiment,HHHHH,4,even,9104,NA,NA,75989,74860,3374,NA,NA,75987,76094,NA,72689,3371,NA,NA,76094,76473,NA,Lab 2.1 Test Flanker Task,29,15332,38,yes,1024
74.35897436,74.35897436,403.8974359,403.8974359,#000000,legacy,legacy,legacy,0,incongruent,uniform,0,undefined,0,h,0,0,0,38,38,0,0,0,38,38,0,38,0,38,NA,38,38,NA,9/26/2021 18:23,1500,The main experiment item,yes,Lab21TestFlankerTask.osexp,C:\Users\mmcel\OneDrive\GRAD SCHOOL\fall 2021\Advanced Quant,no,mono,no,18,no,#ffffff,no,yes,768,legacy,38,38,C:/Users/mmcel/OneDrive/GRAD SCHOOL/fall 2021/Advanced Quant/MM-Subject-4.csv,legacy,Lentiform Loewenfeld,3.3.9,0,s,NA,h,NA,NA,s,420,NA,5729,NA,NA,420,NA,NA,2,legacy,1024,2,48000,-16,experiment,SSHSS,4,even,9104,NA,NA,77638,76500,3374,NA,NA,77636,77745,NA,72689,3371,NA,NA,77745,78166,NA,Lab 2.1 Test Flanker Task,29,15752,39,yes,1024
75,75,403.325,403.325,#000000,legacy,legacy,legacy,0,congruent,uniform,1,undefined,1,h,0,0,0,39,39,0,0,0,39,39,0,39,0,39,NA,39,39,NA,9/26/2021 18:23,1500,The main experiment item,yes,Lab21TestFlankerTask.osexp,C:\Users\mmcel\OneDrive\GRAD SCHOOL\fall 2021\Advanced Quant,no,mono,no,18,no,#ffffff,no,yes,768,legacy,39,39,C:/Users/mmcel/OneDrive/GRAD SCHOOL/fall 2021/Advanced Quant/MM-Subject-4.csv,legacy,Lentiform Loewenfeld,3.3.9,0,h,NA,h,NA,NA,h,381,NA,5729,NA,NA,381,NA,NA,2,legacy,1024,2,48000,-16,experiment,HHHHH,4,even,9104,NA,NA,79820,78706,3374,NA,NA,79818,79926,NA,78201,3371,NA,NA,79926,80307,NA,Lab 2.1 Test Flanker Task,30,16133,40,yes,1024
75.6097561,75.6097561,405.3902439,405.3902439,#000000,legacy,legacy,legacy,0,incongruent,uniform,1,undefined,1,s,0,0,0,40,40,0,0,0,40,40,0,40,0,40,NA,40,40,NA,9/26/2021 18:23,1500,The main experiment item,yes,Lab21TestFlankerTask.osexp,C:\Users\mmcel\OneDrive\GRAD SCHOOL\fall 2021\Advanced Quant,no,mono,no,18,no,#ffffff,no,yes,768,legacy,40,40,C:/Users/mmcel/OneDrive/GRAD SCHOOL/fall 2021/Advanced Quant/MM-Subject-4.csv,legacy,Lentiform Loewenfeld,3.3.9,0,s,NA,h,NA,NA,s,488,NA,5729,NA,NA,488,NA,NA,2,legacy,1024,2,48000,-16,experiment,HHSHH,4,even,9104,NA,NA,81477,80333,3374,NA,NA,81473,81582,NA,78201,3371,NA,NA,81582,82071,NA,Lab 2.1 Test Flanker Task,31,16621,41,yes,1024
73.80952381,73.80952381,406.0952381,406.0952381,#000000,legacy,legacy,legacy,0,incongruent,uniform,0,undefined,0,s,0,0,0,41,41,0,0,0,41,41,0,41,0,41,NA,41,41,NA,9/26/2021 18:23,1500,The main experiment item,yes,Lab21TestFlankerTask.osexp,C:\Users\mmcel\OneDrive\GRAD SCHOOL\fall 2021\Advanced Quant,no,mono,no,18,no,#ffffff,no,yes,768,legacy,41,41,C:/Users/mmcel/OneDrive/GRAD SCHOOL/fall 2021/Advanced Quant/MM-Subject-4.csv,legacy,Lentiform Loewenfeld,3.3.9,0,h,NA,h,NA,NA,h,435,NA,5729,NA,NA,435,NA,NA,2,legacy,1024,2,48000,-16,experiment,HHSHH,4,even,9104,NA,NA,83239,82103,3374,NA,NA,83237,83344,NA,78201,3371,NA,NA,83344,83780,NA,Lab 2.1 Test Flanker Task,31,17056,42,yes,1024
74.41860465,74.41860465,406.1627907,406.1627907,#000000,legacy,legacy,legacy,0,congruent,uniform,1,undefined,1,s,0,0,0,42,42,0,0,0,42,42,0,42,0,42,NA,42,42,NA,9/26/2021 18:23,1500,The main experiment item,yes,Lab21TestFlankerTask.osexp,C:\Users\mmcel\OneDrive\GRAD SCHOOL\fall 2021\Advanced Quant,no,mono,no,18,no,#ffffff,no,yes,768,legacy,42,42,C:/Users/mmcel/OneDrive/GRAD SCHOOL/fall 2021/Advanced Quant/MM-Subject-4.csv,legacy,Lentiform Loewenfeld,3.3.9,0,s,NA,h,NA,NA,s,409,NA,5729,NA,NA,409,NA,NA,2,legacy,1024,2,48000,-16,experiment,SSSSS,4,even,9104,NA,NA,85515,84398,3374,NA,NA,85513,85620,NA,83893,3371,NA,NA,85620,86029,NA,Lab 2.1 Test Flanker Task,32,17465,43,yes,1024
75,75,406.4318182,406.4318182,#000000,legacy,legacy,legacy,0,congruent,uniform,1,undefined,1,s,0,0,0,43,43,0,0,0,43,43,0,43,0,43,NA,43,43,NA,9/26/2021 18:23,1500,The main experiment item,yes,Lab21TestFlankerTask.osexp,C:\Users\mmcel\OneDrive\GRAD SCHOOL\fall 2021\Advanced Quant,no,mono,no,18,no,#ffffff,no,yes,768,legacy,43,43,C:/Users/mmcel/OneDrive/GRAD SCHOOL/fall 2021/Advanced Quant/MM-Subject-4.csv,legacy,Lentiform Loewenfeld,3.3.9,0,s,NA,h,NA,NA,s,418,NA,5729,NA,NA,418,NA,NA,2,legacy,1024,2,48000,-16,experiment,SSSSS,4,even,9104,NA,NA,87176,86056,3374,NA,NA,87174,87281,NA,83893,3371,NA,NA,87281,87700,NA,Lab 2.1 Test Flanker Task,33,17883,44,yes,1024
73.33333333,73.33333333,405.9111111,405.9111111,#000000,legacy,legacy,legacy,0,incongruent,uniform,0,undefined,0,s,0,0,0,44,44,0,0,0,44,44,0,44,0,44,NA,44,44,NA,9/26/2021 18:23,1500,The main experiment item,yes,Lab21TestFlankerTask.osexp,C:\Users\mmcel\OneDrive\GRAD SCHOOL\fall 2021\Advanced Quant,no,mono,no,18,no,#ffffff,no,yes,768,legacy,44,44,C:/Users/mmcel/OneDrive/GRAD SCHOOL/fall 2021/Advanced Quant/MM-Subject-4.csv,legacy,Lentiform Loewenfeld,3.3.9,0,h,NA,h,NA,NA,h,383,NA,5729,NA,NA,383,NA,NA,2,legacy,1024,2,48000,-16,experiment,HHSHH,4,even,9104,NA,NA,88863,87734,3374,NA,NA,88861,88968,NA,83893,3371,NA,NA,88969,89352,NA,Lab 2.1 Test Flanker Task,33,18266,45,yes,1024
73.91304348,73.91304348,405.6956522,405.6956522,#000000,legacy,legacy,legacy,0,congruent,uniform,1,undefined,1,s,0,0,0,45,45,0,0,0,45,45,0,45,0,45,NA,45,45,NA,9/26/2021 18:23,1500,The main experiment item,yes,Lab21TestFlankerTask.osexp,C:\Users\mmcel\OneDrive\GRAD SCHOOL\fall 2021\Advanced Quant,no,mono,no,18,no,#ffffff,no,yes,768,legacy,45,45,C:/Users/mmcel/OneDrive/GRAD SCHOOL/fall 2021/Advanced Quant/MM-Subject-4.csv,legacy,Lentiform Loewenfeld,3.3.9,0,s,NA,h,NA,NA,s,396,NA,5729,NA,NA,396,NA,NA,2,legacy,1024,2,48000,-16,experiment,SSSSS,4,even,9104,NA,NA,91014,89896,3374,NA,NA,91012,91119,NA,89390,3371,NA,NA,91119,91516,NA,Lab 2.1 Test Flanker Task,34,18662,46,yes,1024
74.46808511,74.46808511,407.0638298,407.0638298,#000000,legacy,legacy,legacy,0,incongruent,uniform,1,undefined,1,s,0,0,0,46,46,0,0,0,46,46,0,46,0,46,NA,46,46,NA,9/26/2021 18:23,1500,The main experiment item,yes,Lab21TestFlankerTask.osexp,C:\Users\mmcel\OneDrive\GRAD SCHOOL\fall 2021\Advanced Quant,no,mono,no,18,no,#ffffff,no,yes,768,legacy,46,46,C:/Users/mmcel/OneDrive/GRAD SCHOOL/fall 2021/Advanced Quant/MM-Subject-4.csv,legacy,Lentiform Loewenfeld,3.3.9,0,s,NA,h,NA,NA,s,470,NA,5729,NA,NA,470,NA,NA,2,legacy,1024,2,48000,-16,experiment,HHSHH,4,even,9104,NA,NA,92671,91546,3374,NA,NA,92669,92776,NA,89390,3371,NA,NA,92776,93247,NA,Lab 2.1 Test Flanker Task,35,19132,47,yes,1024
75,75,405.7916667,405.7916667,#000000,legacy,legacy,legacy,0,congruent,uniform,1,undefined,1,h,0,0,0,47,47,0,0,0,47,47,0,47,0,47,NA,47,47,NA,9/26/2021 18:23,1500,The main experiment item,yes,Lab21TestFlankerTask.osexp,C:\Users\mmcel\OneDrive\GRAD SCHOOL\fall 2021\Advanced Quant,no,mono,no,18,no,#ffffff,no,yes,768,legacy,47,47,C:/Users/mmcel/OneDrive/GRAD SCHOOL/fall 2021/Advanced Quant/MM-Subject-4.csv,legacy,Lentiform Loewenfeld,3.3.9,0,h,NA,h,NA,NA,h,346,NA,5729,NA,NA,346,NA,NA,2,legacy,1024,2,48000,-16,experiment,HHHHH,4,even,9104,NA,NA,94441,93305,3374,NA,NA,94439,94546,NA,89390,3371,NA,NA,94546,94893,NA,Lab 2.1 Test Flanker Task,36,19478,48,yes,1024
75.51020408,75.51020408,404.6122449,404.6122449,#000000,legacy,legacy,legacy,0,incongruent,uniform,1,undefined,1,s,0,0,0,48,48,0,0,0,48,48,0,48,0,48,NA,48,48,NA,9/26/2021 18:23,1500,The main experiment item,yes,Lab21TestFlankerTask.osexp,C:\Users\mmcel\OneDrive\GRAD SCHOOL\fall 2021\Advanced Quant,no,mono,no,18,no,#ffffff,no,yes,768,legacy,48,48,C:/Users/mmcel/OneDrive/GRAD SCHOOL/fall 2021/Advanced Quant/MM-Subject-4.csv,legacy,Lentiform Loewenfeld,3.3.9,0,s,NA,h,NA,NA,s,348,NA,5729,NA,NA,348,NA,NA,2,legacy,1024,2,48000,-16,experiment,HHSHH,4,even,9104,NA,NA,96097,94995,3374,NA,NA,96095,96202,NA,89390,3371,NA,NA,96202,96550,NA,Lab 2.1 Test Flanker Task,37,19826,49,yes,1024
74,74,405.48,405.48,#000000,legacy,legacy,legacy,0,congruent,uniform,0,undefined,0,s,0,0,0,49,49,0,0,0,49,49,0,49,0,49,NA,49,49,NA,9/26/2021 18:23,1500,The main experiment item,yes,Lab21TestFlankerTask.osexp,C:\Users\mmcel\OneDrive\GRAD SCHOOL\fall 2021\Advanced Quant,no,mono,no,18,no,#ffffff,no,yes,768,legacy,49,49,C:/Users/mmcel/OneDrive/GRAD SCHOOL/fall 2021/Advanced Quant/MM-Subject-4.csv,legacy,Lentiform Loewenfeld,3.3.9,0,h,NA,h,NA,NA,h,448,NA,5729,NA,NA,448,NA,NA,2,legacy,1024,2,48000,-16,experiment,SSSSS,4,even,9104,NA,NA,97709,96580,3374,NA,NA,97706,97814,NA,89390,3371,NA,NA,97814,98263,NA,Lab 2.1 Test Flanker Task,37,20274,50,yes,1024
74.50980392,74.50980392,405.0196078,405.0196078,#000000,legacy,legacy,legacy,0,congruent,uniform,1,undefined,1,s,0,0,0,50,50,0,0,0,50,50,0,50,0,50,NA,50,50,NA,9/26/2021 18:23,1500,The main experiment item,yes,Lab21TestFlankerTask.osexp,C:\Users\mmcel\OneDrive\GRAD SCHOOL\fall 2021\Advanced Quant,no,mono,no,18,no,#ffffff,no,yes,768,legacy,50,50,C:/Users/mmcel/OneDrive/GRAD SCHOOL/fall 2021/Advanced Quant/MM-Subject-4.csv,legacy,Lentiform Loewenfeld,3.3.9,0,s,NA,h,NA,NA,s,382,NA,5729,NA,NA,382,NA,NA,2,legacy,1024,2,48000,-16,experiment,SSSSS,4,even,9104,NA,NA,99890,98785,3374,NA,NA,99888,99995,NA,98279,3371,NA,NA,99995,100378,NA,Lab 2.1 Test Flanker Task,38,20656,51,yes,1024
75,75,404.7115385,404.7115385,#000000,legacy,legacy,legacy,0,congruent,uniform,1,undefined,1,s,0,0,0,51,51,0,0,0,51,51,0,51,0,51,NA,51,51,NA,9/26/2021 18:23,1500,The main experiment item,yes,Lab21TestFlankerTask.osexp,C:\Users\mmcel\OneDrive\GRAD SCHOOL\fall 2021\Advanced Quant,no,mono,no,18,no,#ffffff,no,yes,768,legacy,51,51,C:/Users/mmcel/OneDrive/GRAD SCHOOL/fall 2021/Advanced Quant/MM-Subject-4.csv,legacy,Lentiform Loewenfeld,3.3.9,0,s,NA,h,NA,NA,s,389,NA,5729,NA,NA,389,NA,NA,2,legacy,1024,2,48000,-16,experiment,SSSSS,4,even,9104,NA,NA,101541,100426,3374,NA,NA,101539,101646,NA,98279,3371,NA,NA,101646,102036,NA,Lab 2.1 Test Flanker Task,39,21045,52,yes,1024
73.58490566,73.58490566,406.0754717,406.0754717,#000000,legacy,legacy,legacy,0,incongruent,uniform,0,undefined,0,s,0,0,0,52,52,0,0,0,52,52,0,52,0,52,NA,52,52,NA,9/26/2021 18:23,1500,The main experiment item,yes,Lab21TestFlankerTask.osexp,C:\Users\mmcel\OneDrive\GRAD SCHOOL\fall 2021\Advanced Quant,no,mono,no,18,no,#ffffff,no,yes,768,legacy,52,52,C:/Users/mmcel/OneDrive/GRAD SCHOOL/fall 2021/Advanced Quant/MM-Subject-4.csv,legacy,Lentiform Loewenfeld,3.3.9,0,h,NA,h,NA,NA,h,477,NA,5729,NA,NA,477,NA,NA,2,legacy,1024,2,48000,-16,experiment,HHSHH,4,even,9104,NA,NA,103227,102117,3374,NA,NA,103225,103332,NA,98279,3371,NA,NA,103332,103809,NA,Lab 2.1 Test Flanker Task,39,21522,53,yes,1024
74.07407407,74.07407407,405.7407407,405.7407407,#000000,legacy,legacy,legacy,0,incongruent,uniform,1,undefined,1,h,0,0,0,53,53,0,0,0,53,53,0,53,0,53,NA,53,53,NA,9/26/2021 18:23,1500,The main experiment item,yes,Lab21TestFlankerTask.osexp,C:\Users\mmcel\OneDrive\GRAD SCHOOL\fall 2021\Advanced Quant,no,mono,no,18,no,#ffffff,no,yes,768,legacy,53,53,C:/Users/mmcel/OneDrive/GRAD SCHOOL/fall 2021/Advanced Quant/MM-Subject-4.csv,legacy,Lentiform Loewenfeld,3.3.9,0,h,NA,h,NA,NA,h,388,NA,5729,NA,NA,388,NA,NA,2,legacy,1024,2,48000,-16,experiment,SSHSS,4,even,9104,NA,NA,105466,104341,3374,NA,NA,105463,105571,NA,103835,3371,NA,NA,105572,105961,NA,Lab 2.1 Test Flanker Task,40,21910,54,yes,1024
74.54545455,74.54545455,406.1636364,406.1636364,#000000,legacy,legacy,legacy,0,congruent,uniform,1,undefined,1,s,0,0,0,54,54,0,0,0,54,54,0,54,0,54,NA,54,54,NA,9/26/2021 18:23,1500,The main experiment item,yes,Lab21TestFlankerTask.osexp,C:\Users\mmcel\OneDrive\GRAD SCHOOL\fall 2021\Advanced Quant,no,mono,no,18,no,#ffffff,no,yes,768,legacy,54,54,C:/Users/mmcel/OneDrive/GRAD SCHOOL/fall 2021/Advanced Quant/MM-Subject-4.csv,legacy,Lentiform Loewenfeld,3.3.9,0,s,NA,h,NA,NA,s,429,NA,5729,NA,NA,429,NA,NA,2,legacy,1024,2,48000,-16,experiment,SSSSS,4,even,9104,NA,NA,107092,105979,3374,NA,NA,107090,107197,NA,103835,3371,NA,NA,107197,107627,NA,Lab 2.1 Test Flanker Task,41,22339,55,yes,1024
75,75,405.3392857,405.3392857,#000000,legacy,legacy,legacy,0,congruent,uniform,1,undefined,1,h,0,0,0,55,55,0,0,0,55,55,0,55,0,55,NA,55,55,NA,9/26/2021 18:23,1500,The main experiment item,yes,Lab21TestFlankerTask.osexp,C:\Users\mmcel\OneDrive\GRAD SCHOOL\fall 2021\Advanced Quant,no,mono,no,18,no,#ffffff,no,yes,768,legacy,55,55,C:/Users/mmcel/OneDrive/GRAD SCHOOL/fall 2021/Advanced Quant/MM-Subject-4.csv,legacy,Lentiform Loewenfeld,3.3.9,0,h,NA,h,NA,NA,h,360,NA,5729,NA,NA,360,NA,NA,2,legacy,1024,2,48000,-16,experiment,HHHHH,4,even,9104,NA,NA,108772,107648,3374,NA,NA,108769,108877,NA,103835,3371,NA,NA,108877,109238,NA,Lab 2.1 Test Flanker Task,42,22699,56,yes,1024
75.43859649,75.43859649,405.6666667,405.6666667,#000000,legacy,legacy,legacy,0,congruent,uniform,1,undefined,1,h,0,0,0,56,56,0,0,0,56,56,0,56,0,56,NA,56,56,NA,9/26/2021 18:23,1500,The main experiment item,yes,Lab21TestFlankerTask.osexp,C:\Users\mmcel\OneDrive\GRAD SCHOOL\fall 2021\Advanced Quant,no,mono,no,18,no,#ffffff,no,yes,768,legacy,56,56,C:/Users/mmcel/OneDrive/GRAD SCHOOL/fall 2021/Advanced Quant/MM-Subject-4.csv,legacy,Lentiform Loewenfeld,3.3.9,0,h,NA,h,NA,NA,h,424,NA,5729,NA,NA,424,NA,NA,2,legacy,1024,2,48000,-16,experiment,HHHHH,4,even,9104,NA,NA,110367,109258,3374,NA,NA,110365,110473,NA,103835,3371,NA,NA,110473,110897,NA,Lab 2.1 Test Flanker Task,43,23123,57,yes,1024
75.86206897,75.86206897,404.6896552,404.6896552,#000000,legacy,legacy,legacy,0,incongruent,uniform,1,undefined,1,h,0,0,0,57,57,0,0,0,57,57,0,57,0,57,NA,57,57,NA,9/26/2021 18:23,1500,The main experiment item,yes,Lab21TestFlankerTask.osexp,C:\Users\mmcel\OneDrive\GRAD SCHOOL\fall 2021\Advanced Quant,no,mono,no,18,no,#ffffff,no,yes,768,legacy,57,57,C:/Users/mmcel/OneDrive/GRAD SCHOOL/fall 2021/Advanced Quant/MM-Subject-4.csv,legacy,Lentiform Loewenfeld,3.3.9,0,h,NA,h,NA,NA,h,349,NA,5729,NA,NA,349,NA,NA,2,legacy,1024,2,48000,-16,experiment,SSHSS,4,even,9104,NA,NA,112067,110928,3374,NA,NA,112065,112173,NA,103835,3371,NA,NA,112174,112523,NA,Lab 2.1 Test Flanker Task,44,23472,58,yes,1024
76.27118644,76.27118644,405.3559322,405.3559322,#000000,legacy,legacy,legacy,0,incongruent,uniform,1,undefined,1,h,0,0,0,58,58,0,0,0,58,58,0,58,0,58,NA,58,58,NA,9/26/2021 18:23,1500,The main experiment item,yes,Lab21TestFlankerTask.osexp,C:\Users\mmcel\OneDrive\GRAD SCHOOL\fall 2021\Advanced Quant,no,mono,no,18,no,#ffffff,no,yes,768,legacy,58,58,C:/Users/mmcel/OneDrive/GRAD SCHOOL/fall 2021/Advanced Quant/MM-Subject-4.csv,legacy,Lentiform Loewenfeld,3.3.9,0,h,NA,h,NA,NA,h,444,NA,5729,NA,NA,444,NA,NA,2,legacy,1024,2,48000,-16,experiment,SSHSS,4,even,9104,NA,NA,113715,112573,3374,NA,NA,113713,113820,NA,103835,3371,NA,NA,113820,114265,NA,Lab 2.1 Test Flanker Task,45,23916,59,yes,1024
76.66666667,76.66666667,404.7333333,404.7333333,#000000,legacy,legacy,legacy,0,congruent,uniform,1,undefined,1,h,0,0,0,59,59,0,0,0,59,59,0,59,0,59,NA,59,59,NA,9/26/2021 18:23,1500,The main experiment item,yes,Lab21TestFlankerTask.osexp,C:\Users\mmcel\OneDrive\GRAD SCHOOL\fall 2021\Advanced Quant,no,mono,no,18,no,#ffffff,no,yes,768,legacy,59,59,C:/Users/mmcel/OneDrive/GRAD SCHOOL/fall 2021/Advanced Quant/MM-Subject-4.csv,legacy,Lentiform Loewenfeld,3.3.9,0,h,NA,h,NA,NA,h,368,NA,5729,NA,NA,368,NA,NA,2,legacy,1024,2,48000,-16,experiment,HHHHH,4,even,9104,NA,NA,115436,114306,3374,NA,NA,115434,115542,NA,103835,3371,NA,NA,115542,115911,NA,Lab 2.1 Test Flanker Task,46,24284,60,yes,1024
77.04918033,77.04918033,404.8852459,404.8852459,#000000,legacy,legacy,legacy,0,incongruent,uniform,1,undefined,1,s,0,0,0,60,60,0,0,0,60,60,0,60,0,60,NA,60,60,NA,9/26/2021 18:23,1500,The main experiment item,yes,Lab21TestFlankerTask.osexp,C:\Users\mmcel\OneDrive\GRAD SCHOOL\fall 2021\Advanced Quant,no,mono,no,18,no,#ffffff,no,yes,768,legacy,60,60,C:/Users/mmcel/OneDrive/GRAD SCHOOL/fall 2021/Advanced Quant/MM-Subject-4.csv,legacy,Lentiform Loewenfeld,3.3.9,0,s,NA,h,NA,NA,s,414,NA,5729,NA,NA,414,NA,NA,2,legacy,1024,2,48000,-16,experiment,HHSHH,4,even,9104,NA,NA,117052,115936,3374,NA,NA,117050,117157,NA,103835,3371,NA,NA,117157,117572,NA,Lab 2.1 Test Flanker Task,47,24698,61,yes,1024
77.41935484,77.41935484,404.8548387,404.8548387,#000000,legacy,legacy,legacy,0,incongruent,uniform,1,undefined,1,s,0,0,0,61,61,0,0,0,61,61,0,61,0,61,NA,61,61,NA,9/26/2021 18:23,1500,The main experiment item,yes,Lab21TestFlankerTask.osexp,C:\Users\mmcel\OneDrive\GRAD SCHOOL\fall 2021\Advanced Quant,no,mono,no,18,no,#ffffff,no,yes,768,legacy,61,61,C:/Users/mmcel/OneDrive/GRAD SCHOOL/fall 2021/Advanced Quant/MM-Subject-4.csv,legacy,Lentiform Loewenfeld,3.3.9,0,s,NA,h,NA,NA,s,403,NA,5729,NA,NA,403,NA,NA,2,legacy,1024,2,48000,-16,experiment,HHSHH,4,even,9104,NA,NA,118705,117592,3374,NA,NA,118703,118811,NA,103835,3371,NA,NA,118811,119214,NA,Lab 2.1 Test Flanker Task,48,25101,62,yes,1024
77.77777778,77.77777778,405.0634921,405.0634921,#000000,legacy,legacy,legacy,0,incongruent,uniform,1,undefined,1,h,0,0,0,62,62,0,0,0,62,62,0,62,0,62,NA,62,62,NA,9/26/2021 18:23,1500,The main experiment item,yes,Lab21TestFlankerTask.osexp,C:\Users\mmcel\OneDrive\GRAD SCHOOL\fall 2021\Advanced Quant,no,mono,no,18,no,#ffffff,no,yes,768,legacy,62,62,C:/Users/mmcel/OneDrive/GRAD SCHOOL/fall 2021/Advanced Quant/MM-Subject-4.csv,legacy,Lentiform Loewenfeld,3.3.9,0,h,NA,h,NA,NA,h,418,NA,5729,NA,NA,418,NA,NA,2,legacy,1024,2,48000,-16,experiment,SSHSS,4,even,9104,NA,NA,120392,119262,3374,NA,NA,120390,120497,NA,103835,3371,NA,NA,120497,120916,NA,Lab 2.1 Test Flanker Task,49,25519,63,yes,1024
78.125,78.125,404.84375,404.84375,#000000,legacy,legacy,legacy,0,congruent,uniform,1,undefined,1,s,0,0,0,63,63,0,0,0,63,63,0,63,0,63,NA,63,63,NA,9/26/2021 18:23,1500,The main experiment item,yes,Lab21TestFlankerTask.osexp,C:\Users\mmcel\OneDrive\GRAD SCHOOL\fall 2021\Advanced Quant,no,mono,no,18,no,#ffffff,no,yes,768,legacy,63,63,C:/Users/mmcel/OneDrive/GRAD SCHOOL/fall 2021/Advanced Quant/MM-Subject-4.csv,legacy,Lentiform Loewenfeld,3.3.9,0,s,NA,h,NA,NA,s,391,NA,5729,NA,NA,391,NA,NA,2,legacy,1024,2,48000,-16,experiment,SSSSS,4,even,9104,NA,NA,122063,120936,3374,NA,NA,122061,122168,NA,103835,3371,NA,NA,122168,122559,NA,Lab 2.1 Test Flanker Task,50,25910,64,yes,1024
78.46153846,78.46153846,405.9538462,405.9538462,#000000,legacy,legacy,legacy,0,incongruent,uniform,1,undefined,1,s,0,0,0,64,64,0,0,0,64,64,0,64,0,64,NA,64,64,NA,9/26/2021 18:23,1500,The main experiment item,yes,Lab21TestFlankerTask.osexp,C:\Users\mmcel\OneDrive\GRAD SCHOOL\fall 2021\Advanced Quant,no,mono,no,18,no,#ffffff,no,yes,768,legacy,64,64,C:/Users/mmcel/OneDrive/GRAD SCHOOL/fall 2021/Advanced Quant/MM-Subject-4.csv,legacy,Lentiform Loewenfeld,3.3.9,0,s,NA,h,NA,NA,s,477,NA,5729,NA,NA,477,NA,NA,2,legacy,1024,2,48000,-16,experiment,HHSHH,4,even,9104,NA,NA,123794,122674,3374,NA,NA,123792,123899,NA,103835,3371,NA,NA,123899,124376,NA,Lab 2.1 Test Flanker Task,51,26387,65,yes,1024
78.78787879,78.78787879,406.2272727,406.2272727,#000000,legacy,legacy,legacy,0,incongruent,uniform,1,undefined,1,h,0,0,0,65,65,0,0,0,65,65,0,65,0,65,NA,65,65,NA,9/26/2021 18:23,1500,The main experiment item,yes,Lab21TestFlankerTask.osexp,C:\Users\mmcel\OneDrive\GRAD SCHOOL\fall 2021\Advanced Quant,no,mono,no,18,no,#ffffff,no,yes,768,legacy,65,65,C:/Users/mmcel/OneDrive/GRAD SCHOOL/fall 2021/Advanced Quant/MM-Subject-4.csv,legacy,Lentiform Loewenfeld,3.3.9,0,h,NA,h,NA,NA,h,424,NA,5729,NA,NA,424,NA,NA,2,legacy,1024,2,48000,-16,experiment,SSHSS,4,even,9104,NA,NA,125577,124430,3374,NA,NA,125575,125682,NA,103835,3371,NA,NA,125682,126106,NA,Lab 2.1 Test Flanker Task,52,26811,66,yes,1024
79.10447761,79.10447761,405.4925373,405.4925373,#000000,legacy,legacy,legacy,0,congruent,uniform,1,undefined,1,s,0,0,0,66,66,0,0,0,66,66,0,66,0,66,NA,66,66,NA,9/26/2021 18:23,1500,The main experiment item,yes,Lab21TestFlankerTask.osexp,C:\Users\mmcel\OneDrive\GRAD SCHOOL\fall 2021\Advanced Quant,no,mono,no,18,no,#ffffff,no,yes,768,legacy,66,66,C:/Users/mmcel/OneDrive/GRAD SCHOOL/fall 2021/Advanced Quant/MM-Subject-4.csv,legacy,Lentiform Loewenfeld,3.3.9,0,s,NA,h,NA,NA,s,357,NA,5729,NA,NA,357,NA,NA,2,legacy,1024,2,48000,-16,experiment,SSSSS,4,even,9104,NA,NA,127253,126125,3374,NA,NA,127251,127358,NA,103835,3371,NA,NA,127358,127715,NA,Lab 2.1 Test Flanker Task,53,27168,67,yes,1024
79.41176471,79.41176471,404.8823529,404.8823529,#000000,legacy,legacy,legacy,0,congruent,uniform,1,undefined,1,h,0,0,0,67,67,0,0,0,67,67,0,67,0,67,NA,67,67,NA,9/26/2021 18:23,1500,The main experiment item,yes,Lab21TestFlankerTask.osexp,C:\Users\mmcel\OneDrive\GRAD SCHOOL\fall 2021\Advanced Quant,no,mono,no,18,no,#ffffff,no,yes,768,legacy,67,67,C:/Users/mmcel/OneDrive/GRAD SCHOOL/fall 2021/Advanced Quant/MM-Subject-4.csv,legacy,Lentiform Loewenfeld,3.3.9,0,h,NA,h,NA,NA,h,364,NA,5729,NA,NA,364,NA,NA,2,legacy,1024,2,48000,-16,experiment,HHHHH,4,even,9104,NA,NA,128922,127786,3374,NA,NA,128919,129027,NA,103835,3371,NA,NA,129027,129392,NA,Lab 2.1 Test Flanker Task,54,27532,68,yes,1024
79.71014493,79.71014493,404.057971,404.057971,#000000,legacy,legacy,legacy,0,congruent,uniform,1,undefined,1,h,0,0,0,68,68,0,0,0,68,68,0,68,0,68,NA,68,68,NA,9/26/2021 18:23,1500,The main experiment item,yes,Lab21TestFlankerTask.osexp,C:\Users\mmcel\OneDrive\GRAD SCHOOL\fall 2021\Advanced Quant,no,mono,no,18,no,#ffffff,no,yes,768,legacy,68,68,C:/Users/mmcel/OneDrive/GRAD SCHOOL/fall 2021/Advanced Quant/MM-Subject-4.csv,legacy,Lentiform Loewenfeld,3.3.9,0,h,NA,h,NA,NA,h,348,NA,5729,NA,NA,348,NA,NA,2,legacy,1024,2,48000,-16,experiment,HHHHH,4,even,9104,NA,NA,130553,129433,3374,NA,NA,130551,130658,NA,103835,3371,NA,NA,130658,131007,NA,Lab 2.1 Test Flanker Task,55,27880,69,yes,1024
80,80,403.4142857,403.4142857,#000000,legacy,legacy,legacy,0,congruent,uniform,1,undefined,1,s,0,0,0,69,69,0,0,0,69,69,0,69,0,69,NA,69,69,NA,9/26/2021 18:23,1500,The main experiment item,yes,Lab21TestFlankerTask.osexp,C:\Users\mmcel\OneDrive\GRAD SCHOOL\fall 2021\Advanced Quant,no,mono,no,18,no,#ffffff,no,yes,768,legacy,69,69,C:/Users/mmcel/OneDrive/GRAD SCHOOL/fall 2021/Advanced Quant/MM-Subject-4.csv,legacy,Lentiform Loewenfeld,3.3.9,0,s,NA,h,NA,NA,s,359,NA,5729,NA,NA,359,NA,NA,2,legacy,1024,2,48000,-16,experiment,SSSSS,4,even,9104,NA,NA,132158,131025,3374,NA,NA,132156,132263,NA,103835,3371,NA,NA,132263,132623,NA,Lab 2.1 Test Flanker Task,56,28239,70,yes,1024
80.28169014,80.28169014,403.7183099,403.7183099,#000000,legacy,legacy,legacy,0,congruent,uniform,1,undefined,1,s,0,0,0,70,70,0,0,0,70,70,0,70,0,70,NA,70,70,NA,9/26/2021 18:23,1500,The main experiment item,yes,Lab21TestFlankerTask.osexp,C:\Users\mmcel\OneDrive\GRAD SCHOOL\fall 2021\Advanced Quant,no,mono,no,18,no,#ffffff,no,yes,768,legacy,70,70,C:/Users/mmcel/OneDrive/GRAD SCHOOL/fall 2021/Advanced Quant/MM-Subject-4.csv,legacy,Lentiform Loewenfeld,3.3.9,0,s,NA,h,NA,NA,s,425,NA,5729,NA,NA,425,NA,NA,2,legacy,1024,2,48000,-16,experiment,SSSSS,4,even,9104,NA,NA,133793,132675,3374,NA,NA,133790,133898,NA,103835,3371,NA,NA,133898,134323,NA,Lab 2.1 Test Flanker Task,57,28664,71,yes,1024
79.16666667,79.16666667,403.3333333,403.3333333,#000000,legacy,legacy,legacy,0,incongruent,uniform,0,undefined,0,s,0,0,0,71,71,0,0,0,71,71,0,71,0,71,NA,71,71,NA,9/26/2021 18:23,1500,The main experiment item,yes,Lab21TestFlankerTask.osexp,C:\Users\mmcel\OneDrive\GRAD SCHOOL\fall 2021\Advanced Quant,no,mono,no,18,no,#ffffff,no,yes,768,legacy,71,71,C:/Users/mmcel/OneDrive/GRAD SCHOOL/fall 2021/Advanced Quant/MM-Subject-4.csv,legacy,Lentiform Loewenfeld,3.3.9,0,h,NA,h,NA,NA,h,376,NA,5729,NA,NA,376,NA,NA,2,legacy,1024,2,48000,-16,experiment,HHSHH,4,even,9104,NA,NA,135535,134430,3374,NA,NA,135533,135640,NA,103835,3371,NA,NA,135640,136017,NA,Lab 2.1 Test Flanker Task,57,29040,72,yes,1024
79.45205479,79.45205479,403.2191781,403.2191781,#000000,legacy,legacy,legacy,0,congruent,uniform,1,undefined,1,s,0,0,0,72,72,0,0,0,72,72,0,72,0,72,NA,72,72,NA,9/26/2021 18:23,1500,The main experiment item,yes,Lab21TestFlankerTask.osexp,C:\Users\mmcel\OneDrive\GRAD SCHOOL\fall 2021\Advanced Quant,no,mono,no,18,no,#ffffff,no,yes,768,legacy,72,72,C:/Users/mmcel/OneDrive/GRAD SCHOOL/fall 2021/Advanced Quant/MM-Subject-4.csv,legacy,Lentiform Loewenfeld,3.3.9,0,s,NA,h,NA,NA,s,395,NA,5729,NA,NA,395,NA,NA,2,legacy,1024,2,48000,-16,experiment,SSSSS,4,even,9104,NA,NA,137657,136541,3374,NA,NA,137655,137762,NA,136037,3371,NA,NA,137762,138158,NA,Lab 2.1 Test Flanker Task,58,29435,73,yes,1024
79.72972973,79.72972973,404.6081081,404.6081081,#000000,legacy,legacy,legacy,0,incongruent,uniform,1,undefined,1,s,0,0,0,73,73,0,0,0,73,73,0,73,0,73,NA,73,73,NA,9/26/2021 18:23,1500,The main experiment item,yes,Lab21TestFlankerTask.osexp,C:\Users\mmcel\OneDrive\GRAD SCHOOL\fall 2021\Advanced Quant,no,mono,no,18,no,#ffffff,no,yes,768,legacy,73,73,C:/Users/mmcel/OneDrive/GRAD SCHOOL/fall 2021/Advanced Quant/MM-Subject-4.csv,legacy,Lentiform Loewenfeld,3.3.9,0,s,NA,h,NA,NA,s,506,NA,5729,NA,NA,506,NA,NA,2,legacy,1024,2,48000,-16,experiment,HHSHH,4,even,9104,NA,NA,139313,138193,3374,NA,NA,139311,139418,NA,136037,3371,NA,NA,139418,139926,NA,Lab 2.1 Test Flanker Task,59,29941,74,yes,1024
80,80,406.3866667,406.3866667,#000000,legacy,legacy,legacy,0,incongruent,uniform,1,undefined,1,s,0,0,0,74,74,0,0,0,74,74,0,74,0,74,NA,74,74,NA,9/26/2021 18:23,1500,The main experiment item,yes,Lab21TestFlankerTask.osexp,C:\Users\mmcel\OneDrive\GRAD SCHOOL\fall 2021\Advanced Quant,no,mono,no,18,no,#ffffff,no,yes,768,legacy,74,74,C:/Users/mmcel/OneDrive/GRAD SCHOOL/fall 2021/Advanced Quant/MM-Subject-4.csv,legacy,Lentiform Loewenfeld,3.3.9,0,s,NA,h,NA,NA,s,538,NA,5729,NA,NA,538,NA,NA,2,legacy,1024,2,48000,-16,experiment,HHSHH,4,even,9104,NA,NA,141121,139949,3374,NA,NA,141118,141226,NA,136037,3371,NA,NA,141226,141765,NA,Lab 2.1 Test Flanker Task,60,30479,75,yes,1024
80.26315789,80.26315789,407.6447368,407.6447368,#000000,legacy,legacy,legacy,0,incongruent,uniform,1,undefined,1,h,0,0,0,75,75,0,0,0,75,75,0,75,0,75,NA,75,75,NA,9/26/2021 18:23,1500,The main experiment item,yes,Lab21TestFlankerTask.osexp,C:\Users\mmcel\OneDrive\GRAD SCHOOL\fall 2021\Advanced Quant,no,mono,no,18,no,#ffffff,no,yes,768,legacy,75,75,C:/Users/mmcel/OneDrive/GRAD SCHOOL/fall 2021/Advanced Quant/MM-Subject-4.csv,legacy,Lentiform Loewenfeld,3.3.9,0,h,NA,h,NA,NA,h,502,NA,5729,NA,NA,502,NA,NA,2,legacy,1024,2,48000,-16,experiment,SSHSS,4,even,9104,NA,NA,143058,141946,3374,NA,NA,143056,143163,NA,136037,3371,NA,NA,143163,143667,NA,Lab 2.1 Test Flanker Task,61,30981,76,yes,1024
80.51948052,80.51948052,408.1038961,408.1038961,#000000,legacy,legacy,legacy,0,incongruent,uniform,1,undefined,1,s,0,0,0,76,76,0,0,0,76,76,0,76,0,76,NA,76,76,NA,9/26/2021 18:23,1500,The main experiment item,yes,Lab21TestFlankerTask.osexp,C:\Users\mmcel\OneDrive\GRAD SCHOOL\fall 2021\Advanced Quant,no,mono,no,18,no,#ffffff,no,yes,768,legacy,76,76,C:/Users/mmcel/OneDrive/GRAD SCHOOL/fall 2021/Advanced Quant/MM-Subject-4.csv,legacy,Lentiform Loewenfeld,3.3.9,0,s,NA,h,NA,NA,s,443,NA,5729,NA,NA,443,NA,NA,2,legacy,1024,2,48000,-16,experiment,HHSHH,4,even,9104,NA,NA,144809,143693,3374,NA,NA,144807,144914,NA,136037,3371,NA,NA,144914,145358,NA,Lab 2.1 Test Flanker Task,62,31424,77,yes,1024
80.76923077,80.76923077,407.5384615,407.5384615,#000000,legacy,legacy,legacy,0,congruent,uniform,1,undefined,1,h,0,0,0,77,77,0,0,0,77,77,0,77,0,77,NA,77,77,NA,9/26/2021 18:23,1500,The main experiment item,yes,Lab21TestFlankerTask.osexp,C:\Users\mmcel\OneDrive\GRAD SCHOOL\fall 2021\Advanced Quant,no,mono,no,18,no,#ffffff,no,yes,768,legacy,77,77,C:/Users/mmcel/OneDrive/GRAD SCHOOL/fall 2021/Advanced Quant/MM-Subject-4.csv,legacy,Lentiform Loewenfeld,3.3.9,0,h,NA,h,NA,NA,h,364,NA,5729,NA,NA,364,NA,NA,2,legacy,1024,2,48000,-16,experiment,HHHHH,4,even,9104,NA,NA,146520,145405,3374,NA,NA,146517,146625,NA,136037,3371,NA,NA,146625,146990,NA,Lab 2.1 Test Flanker Task,63,31788,78,yes,1024
81.01265823,81.01265823,408.3291139,408.3291139,#000000,legacy,legacy,legacy,0,congruent,uniform,1,undefined,1,h,0,0,0,78,78,0,0,0,78,78,0,78,0,78,NA,78,78,NA,9/26/2021 18:23,1500,The main experiment item,yes,Lab21TestFlankerTask.osexp,C:\Users\mmcel\OneDrive\GRAD SCHOOL\fall 2021\Advanced Quant,no,mono,no,18,no,#ffffff,no,yes,768,legacy,78,78,C:/Users/mmcel/OneDrive/GRAD SCHOOL/fall 2021/Advanced Quant/MM-Subject-4.csv,legacy,Lentiform Loewenfeld,3.3.9,0,h,NA,h,NA,NA,h,470,NA,5729,NA,NA,470,NA,NA,2,legacy,1024,2,48000,-16,experiment,HHHHH,4,even,9104,NA,NA,148143,147029,3374,NA,NA,148140,148248,NA,136037,3371,NA,NA,148248,148719,NA,Lab 2.1 Test Flanker Task,64,32258,79,yes,1024
81.25,81.25,407.95,407.95,#000000,legacy,legacy,legacy,0,congruent,uniform,1,undefined,1,h,0,0,0,79,79,0,0,0,79,79,0,79,0,79,NA,79,79,NA,9/26/2021 18:23,1500,The main experiment item,yes,Lab21TestFlankerTask.osexp,C:\Users\mmcel\OneDrive\GRAD SCHOOL\fall 2021\Advanced Quant,no,mono,no,18,no,#ffffff,no,yes,768,legacy,79,79,C:/Users/mmcel/OneDrive/GRAD SCHOOL/fall 2021/Advanced Quant/MM-Subject-4.csv,legacy,Lentiform Loewenfeld,3.3.9,0,h,NA,h,NA,NA,h,378,NA,5729,NA,NA,378,NA,NA,2,legacy,1024,2,48000,-16,experiment,HHHHH,4,even,9104,NA,NA,149897,148760,3374,NA,NA,149894,150002,NA,136037,3371,NA,NA,150003,150382,NA,Lab 2.1 Test Flanker Task,65,32636,80,yes,1024
81.48148148,81.48148148,408.1111111,408.1111111,#000000,legacy,legacy,legacy,0,congruent,uniform,1,undefined,1,s,0,0,0,80,80,0,0,0,80,80,0,80,0,80,NA,80,80,NA,9/26/2021 18:23,600,The main experiment item,yes,Lab21TestFlankerTask.osexp,C:\Users\mmcel\OneDrive\GRAD SCHOOL\fall 2021\Advanced Quant,no,mono,no,18,no,#ffffff,no,yes,768,legacy,0,79,C:/Users/mmcel/OneDrive/GRAD SCHOOL/fall 2021/Advanced Quant/MM-Subject-4.csv,legacy,Lentiform Loewenfeld,3.3.9,0,s,NA,h,h,NA,s,421,NA,5729,45974,NA,421,NA,NA,2,legacy,1024,2,48000,-16,experiment,SSSSS,4,even,9104,197423,NA,197492,150416,3374,151448,NA,197490,197597,NA,136037,3371,NA,NA,197598,198020,NA,Lab 2.1 Test Flanker Task,66,33057,81,yes,1024
81.70731707,81.70731707,407.402439,407.402439,#000000,legacy,legacy,legacy,0,congruent,uniform,1,undefined,1,h,0,0,0,81,81,0,0,0,81,81,0,81,0,81,NA,81,81,NA,9/26/2021 18:23,600,The main experiment item,yes,Lab21TestFlankerTask.osexp,C:\Users\mmcel\OneDrive\GRAD SCHOOL\fall 2021\Advanced Quant,no,mono,no,18,no,#ffffff,no,yes,768,legacy,1,79,C:/Users/mmcel/OneDrive/GRAD SCHOOL/fall 2021/Advanced Quant/MM-Subject-4.csv,legacy,Lentiform Loewenfeld,3.3.9,0,h,NA,h,h,NA,h,350,NA,5729,45974,NA,350,NA,NA,2,legacy,1024,2,48000,-16,experiment,HHHHH,4,even,9104,197423,NA,199164,198054,3374,151448,NA,199162,199269,NA,136037,3371,NA,NA,199269,199620,NA,Lab 2.1 Test Flanker Task,67,33407,82,yes,1024
81.92771084,81.92771084,407.9156627,407.9156627,#000000,legacy,legacy,legacy,0,incongruent,uniform,1,undefined,1,s,0,0,0,82,82,0,0,0,82,82,0,82,0,82,NA,82,82,NA,9/26/2021 18:23,600,The main experiment item,yes,Lab21TestFlankerTask.osexp,C:\Users\mmcel\OneDrive\GRAD SCHOOL\fall 2021\Advanced Quant,no,mono,no,18,no,#ffffff,no,yes,768,legacy,2,79,C:/Users/mmcel/OneDrive/GRAD SCHOOL/fall 2021/Advanced Quant/MM-Subject-4.csv,legacy,Lentiform Loewenfeld,3.3.9,0,s,NA,h,h,NA,s,450,NA,5729,45974,NA,450,NA,NA,2,legacy,1024,2,48000,-16,experiment,HHSHH,4,even,9104,197423,NA,200783,199641,3374,151448,NA,200779,200888,NA,136037,3371,NA,NA,200888,201339,NA,Lab 2.1 Test Flanker Task,68,33857,83,yes,1024
80.95238095,80.95238095,407.5,407.5,#000000,legacy,legacy,legacy,0,incongruent,uniform,0,undefined,0,h,0,0,0,83,83,0,0,0,83,83,0,83,0,83,NA,83,83,NA,9/26/2021 18:23,600,The main experiment item,yes,Lab21TestFlankerTask.osexp,C:\Users\mmcel\OneDrive\GRAD SCHOOL\fall 2021\Advanced Quant,no,mono,no,18,no,#ffffff,no,yes,768,legacy,3,79,C:/Users/mmcel/OneDrive/GRAD SCHOOL/fall 2021/Advanced Quant/MM-Subject-4.csv,legacy,Lentiform Loewenfeld,3.3.9,0,s,NA,h,h,NA,s,373,NA,5729,45974,NA,373,NA,NA,2,legacy,1024,2,48000,-16,experiment,SSHSS,4,even,9104,197423,NA,202502,201385,3374,151448,NA,202499,202607,NA,136037,3371,NA,NA,202607,202981,NA,Lab 2.1 Test Flanker Task,68,34230,84,yes,1024
81.17647059,81.17647059,407.9882353,407.9882353,#000000,legacy,legacy,legacy,0,congruent,uniform,1,undefined,1,s,0,0,0,84,84,0,0,0,84,84,0,84,0,84,NA,84,84,NA,9/26/2021 18:23,600,The main experiment item,yes,Lab21TestFlankerTask.osexp,C:\Users\mmcel\OneDrive\GRAD SCHOOL\fall 2021\Advanced Quant,no,mono,no,18,no,#ffffff,no,yes,768,legacy,4,79,C:/Users/mmcel/OneDrive/GRAD SCHOOL/fall 2021/Advanced Quant/MM-Subject-4.csv,legacy,Lentiform Loewenfeld,3.3.9,0,s,NA,h,h,NA,s,449,NA,5729,45974,NA,449,NA,NA,2,legacy,1024,2,48000,-16,experiment,SSSSS,4,even,9104,197423,NA,204620,203513,3374,151448,NA,204618,204725,NA,203008,3371,NA,NA,204726,205176,NA,Lab 2.1 Test Flanker Task,69,34679,85,yes,1024
81.39534884,81.39534884,408.0813953,408.0813953,#000000,legacy,legacy,legacy,0,congruent,uniform,1,undefined,1,h,0,0,0,85,85,0,0,0,85,85,0,85,0,85,NA,85,85,NA,9/26/2021 18:23,600,The main experiment item,yes,Lab21TestFlankerTask.osexp,C:\Users\mmcel\OneDrive\GRAD SCHOOL\fall 2021\Advanced Quant,no,mono,no,18,no,#ffffff,no,yes,768,legacy,5,79,C:/Users/mmcel/OneDrive/GRAD SCHOOL/fall 2021/Advanced Quant/MM-Subject-4.csv,legacy,Lentiform Loewenfeld,3.3.9,0,h,NA,h,h,NA,h,416,NA,5729,45974,NA,416,NA,NA,2,legacy,1024,2,48000,-16,experiment,HHHHH,4,even,9104,197423,NA,206331,205208,3374,151448,NA,206329,206436,NA,203008,3371,NA,NA,206436,206853,NA,Lab 2.1 Test Flanker Task,70,35095,86,yes,1024
81.6091954,81.6091954,408.0574713,408.0574713,#000000,legacy,legacy,legacy,0,congruent,uniform,1,undefined,1,h,0,0,0,86,86,0,0,0,86,86,0,86,0,86,NA,86,86,NA,9/26/2021 18:23,600,The main experiment item,yes,Lab21TestFlankerTask.osexp,C:\Users\mmcel\OneDrive\GRAD SCHOOL\fall 2021\Advanced Quant,no,mono,no,18,no,#ffffff,no,yes,768,legacy,6,79,C:/Users/mmcel/OneDrive/GRAD SCHOOL/fall 2021/Advanced Quant/MM-Subject-4.csv,legacy,Lentiform Loewenfeld,3.3.9,0,h,NA,h,h,NA,h,406,NA,5729,45974,NA,406,NA,NA,2,legacy,1024,2,48000,-16,experiment,HHHHH,4,even,9104,197423,NA,207991,206874,3374,151448,NA,207989,208096,NA,203008,3371,NA,NA,208096,208503,NA,Lab 2.1 Test Flanker Task,71,35501,87,yes,1024
81.81818182,81.81818182,407.7727273,407.7727273,#000000,legacy,legacy,legacy,0,congruent,uniform,1,undefined,1,h,0,0,0,87,87,0,0,0,87,87,0,87,0,87,NA,87,87,NA,9/26/2021 18:23,600,The main experiment item,yes,Lab21TestFlankerTask.osexp,C:\Users\mmcel\OneDrive\GRAD SCHOOL\fall 2021\Advanced Quant,no,mono,no,18,no,#ffffff,no,yes,768,legacy,7,79,C:/Users/mmcel/OneDrive/GRAD SCHOOL/fall 2021/Advanced Quant/MM-Subject-4.csv,legacy,Lentiform Loewenfeld,3.3.9,0,h,NA,h,h,NA,h,383,NA,5729,45974,NA,383,NA,NA,2,legacy,1024,2,48000,-16,experiment,HHHHH,4,even,9104,197423,NA,209990,208886,3374,151448,NA,209988,210096,NA,203008,3371,NA,NA,210096,210480,NA,Lab 2.1 Test Flanker Task,72,35884,88,yes,1024
82.02247191,82.02247191,407.0561798,407.0561798,#000000,legacy,legacy,legacy,0,congruent,uniform,1,undefined,1,s,0,0,0,88,88,0,0,0,88,88,0,88,0,88,NA,88,88,NA,9/26/2021 18:23,600,The main experiment item,yes,Lab21TestFlankerTask.osexp,C:\Users\mmcel\OneDrive\GRAD SCHOOL\fall 2021\Advanced Quant,no,mono,no,18,no,#ffffff,no,yes,768,legacy,8,79,C:/Users/mmcel/OneDrive/GRAD SCHOOL/fall 2021/Advanced Quant/MM-Subject-4.csv,legacy,Lentiform Loewenfeld,3.3.9,0,s,NA,h,h,NA,s,344,NA,5729,45974,NA,344,NA,NA,2,legacy,1024,2,48000,-16,experiment,SSSSS,4,even,9104,197423,NA,211651,210507,3374,151448,NA,211648,211756,NA,203008,3371,NA,NA,211756,212101,NA,Lab 2.1 Test Flanker Task,73,36228,89,yes,1024
82.22222222,82.22222222,408.3555556,408.3555556,#000000,legacy,legacy,legacy,0,incongruent,uniform,1,undefined,1,s,0,0,0,89,89,0,0,0,89,89,0,89,0,89,NA,89,89,NA,9/26/2021 18:23,600,The main experiment item,yes,Lab21TestFlankerTask.osexp,C:\Users\mmcel\OneDrive\GRAD SCHOOL\fall 2021\Advanced Quant,no,mono,no,18,no,#ffffff,no,yes,768,legacy,9,79,C:/Users/mmcel/OneDrive/GRAD SCHOOL/fall 2021/Advanced Quant/MM-Subject-4.csv,legacy,Lentiform Loewenfeld,3.3.9,0,s,NA,h,h,NA,s,524,NA,5729,45974,NA,524,NA,NA,2,legacy,1024,2,48000,-16,experiment,HHSHH,4,even,9104,197423,NA,213317,212200,3374,151448,NA,213314,213422,NA,203008,3371,NA,NA,213422,213947,NA,Lab 2.1 Test Flanker Task,74,36752,90,yes,1024
82.41758242,82.41758242,408.021978,408.021978,#000000,legacy,legacy,legacy,0,congruent,uniform,1,undefined,1,h,0,0,0,90,90,0,0,0,90,90,0,90,0,90,NA,90,90,NA,9/26/2021 18:23,600,The main experiment item,yes,Lab21TestFlankerTask.osexp,C:\Users\mmcel\OneDrive\GRAD SCHOOL\fall 2021\Advanced Quant,no,mono,no,18,no,#ffffff,no,yes,768,legacy,10,79,C:/Users/mmcel/OneDrive/GRAD SCHOOL/fall 2021/Advanced Quant/MM-Subject-4.csv,legacy,Lentiform Loewenfeld,3.3.9,0,h,NA,h,h,NA,h,378,NA,5729,45974,NA,378,NA,NA,2,legacy,1024,2,48000,-16,experiment,HHHHH,4,even,9104,197423,NA,215098,213986,3374,151448,NA,215095,215203,NA,203008,3371,NA,NA,215203,215582,NA,Lab 2.1 Test Flanker Task,75,37130,91,yes,1024
82.60869565,82.60869565,407.8913043,407.8913043,#000000,legacy,legacy,legacy,0,congruent,uniform,1,undefined,1,h,0,0,0,91,91,0,0,0,91,91,0,91,0,91,NA,91,91,NA,9/26/2021 18:23,600,The main experiment item,yes,Lab21TestFlankerTask.osexp,C:\Users\mmcel\OneDrive\GRAD SCHOOL\fall 2021\Advanced Quant,no,mono,no,18,no,#ffffff,no,yes,768,legacy,11,79,C:/Users/mmcel/OneDrive/GRAD SCHOOL/fall 2021/Advanced Quant/MM-Subject-4.csv,legacy,Lentiform Loewenfeld,3.3.9,0,h,NA,h,h,NA,h,396,NA,5729,45974,NA,396,NA,NA,2,legacy,1024,2,48000,-16,experiment,HHHHH,4,even,9104,197423,NA,216720,215608,3374,151448,NA,216718,216825,NA,203008,3371,NA,NA,216826,217223,NA,Lab 2.1 Test Flanker Task,76,37526,92,yes,1024
82.79569892,82.79569892,407.8924731,407.8924731,#000000,legacy,legacy,legacy,0,incongruent,uniform,1,undefined,1,s,0,0,0,92,92,0,0,0,92,92,0,92,0,92,NA,92,92,NA,9/26/2021 18:23,600,The main experiment item,yes,Lab21TestFlankerTask.osexp,C:\Users\mmcel\OneDrive\GRAD SCHOOL\fall 2021\Advanced Quant,no,mono,no,18,no,#ffffff,no,yes,768,legacy,12,79,C:/Users/mmcel/OneDrive/GRAD SCHOOL/fall 2021/Advanced Quant/MM-Subject-4.csv,legacy,Lentiform Loewenfeld,3.3.9,0,s,NA,h,h,NA,s,408,NA,5729,45974,NA,408,NA,NA,2,legacy,1024,2,48000,-16,experiment,HHSHH,4,even,9104,197423,NA,218370,217254,3374,151448,NA,218368,218475,NA,203008,3371,NA,NA,218475,218884,NA,Lab 2.1 Test Flanker Task,77,37934,93,yes,1024
81.91489362,81.91489362,407.9255319,407.9255319,#000000,legacy,legacy,legacy,0,incongruent,uniform,0,undefined,0,h,0,0,0,93,93,0,0,0,93,93,0,93,0,93,NA,93,93,NA,9/26/2021 18:23,600,The main experiment item,yes,Lab21TestFlankerTask.osexp,C:\Users\mmcel\OneDrive\GRAD SCHOOL\fall 2021\Advanced Quant,no,mono,no,18,no,#ffffff,no,yes,768,legacy,13,79,C:/Users/mmcel/OneDrive/GRAD SCHOOL/fall 2021/Advanced Quant/MM-Subject-4.csv,legacy,Lentiform Loewenfeld,3.3.9,0,s,NA,h,h,NA,s,411,NA,5729,45974,NA,411,NA,NA,2,legacy,1024,2,48000,-16,experiment,SSHSS,4,even,9104,197423,NA,220044,218921,3374,151448,NA,220041,220149,NA,203008,3371,NA,NA,220149,220561,NA,Lab 2.1 Test Flanker Task,77,38345,94,yes,1024
82.10526316,82.10526316,408.0842105,408.0842105,#000000,legacy,legacy,legacy,0,incongruent,uniform,1,undefined,1,h,0,0,0,94,94,0,0,0,94,94,0,94,0,94,NA,94,94,NA,9/26/2021 18:23,600,The main experiment item,yes,Lab21TestFlankerTask.osexp,C:\Users\mmcel\OneDrive\GRAD SCHOOL\fall 2021\Advanced Quant,no,mono,no,18,no,#ffffff,no,yes,768,legacy,14,79,C:/Users/mmcel/OneDrive/GRAD SCHOOL/fall 2021/Advanced Quant/MM-Subject-4.csv,legacy,Lentiform Loewenfeld,3.3.9,0,h,NA,h,h,NA,h,423,NA,5729,45974,NA,423,NA,NA,2,legacy,1024,2,48000,-16,experiment,SSHSS,4,even,9104,197423,NA,222200,221092,3374,151448,NA,222197,222304,NA,220587,3371,NA,NA,222304,222728,NA,Lab 2.1 Test Flanker Task,78,38768,95,yes,1024
82.29166667,82.29166667,408.03125,408.03125,#000000,legacy,legacy,legacy,0,congruent,uniform,1,undefined,1,s,0,0,0,95,95,0,0,0,95,95,0,95,0,95,NA,95,95,NA,9/26/2021 18:23,600,The main experiment item,yes,Lab21TestFlankerTask.osexp,C:\Users\mmcel\OneDrive\GRAD SCHOOL\fall 2021\Advanced Quant,no,mono,no,18,no,#ffffff,no,yes,768,legacy,15,79,C:/Users/mmcel/OneDrive/GRAD SCHOOL/fall 2021/Advanced Quant/MM-Subject-4.csv,legacy,Lentiform Loewenfeld,3.3.9,0,s,NA,h,h,NA,s,403,NA,5729,45974,NA,403,NA,NA,2,legacy,1024,2,48000,-16,experiment,SSSSS,4,even,9104,197423,NA,223881,222765,3374,151448,NA,223879,223986,NA,220587,3371,NA,NA,223987,224391,NA,Lab 2.1 Test Flanker Task,79,39171,96,yes,1024
82.4742268,82.4742268,408.4742268,408.4742268,#000000,legacy,legacy,legacy,0,incongruent,uniform,1,undefined,1,h,0,0,0,96,96,0,0,0,96,96,0,96,0,96,NA,96,96,NA,9/26/2021 18:23,600,The main experiment item,yes,Lab21TestFlankerTask.osexp,C:\Users\mmcel\OneDrive\GRAD SCHOOL\fall 2021\Advanced Quant,no,mono,no,18,no,#ffffff,no,yes,768,legacy,16,79,C:/Users/mmcel/OneDrive/GRAD SCHOOL/fall 2021/Advanced Quant/MM-Subject-4.csv,legacy,Lentiform Loewenfeld,3.3.9,0,h,NA,h,h,NA,h,451,NA,5729,45974,NA,451,NA,NA,2,legacy,1024,2,48000,-16,experiment,SSHSS,4,even,9104,197423,NA,225542,224420,3374,151448,NA,225539,225647,NA,220587,3371,NA,NA,225647,226099,NA,Lab 2.1 Test Flanker Task,80,39622,97,yes,1024
82.65306122,82.65306122,408,408,#000000,legacy,legacy,legacy,0,incongruent,uniform,1,undefined,1,h,0,0,0,97,97,0,0,0,97,97,0,97,0,97,NA,97,97,NA,9/26/2021 18:23,600,The main experiment item,yes,Lab21TestFlankerTask.osexp,C:\Users\mmcel\OneDrive\GRAD SCHOOL\fall 2021\Advanced Quant,no,mono,no,18,no,#ffffff,no,yes,768,legacy,17,79,C:/Users/mmcel/OneDrive/GRAD SCHOOL/fall 2021/Advanced Quant/MM-Subject-4.csv,legacy,Lentiform Loewenfeld,3.3.9,0,h,NA,h,h,NA,h,362,NA,5729,45974,NA,362,NA,NA,2,legacy,1024,2,48000,-16,experiment,SSHSS,4,even,9104,197423,NA,227326,226203,3374,151448,NA,227324,227431,NA,220587,3371,NA,NA,227431,227794,NA,Lab 2.1 Test Flanker Task,81,39984,98,yes,1024
82.82828283,82.82828283,407.7777778,407.7777778,#000000,legacy,legacy,legacy,0,incongruent,uniform,1,undefined,1,h,0,0,0,98,98,0,0,0,98,98,0,98,0,98,NA,98,98,NA,9/26/2021 18:23,600,The main experiment item,yes,Lab21TestFlankerTask.osexp,C:\Users\mmcel\OneDrive\GRAD SCHOOL\fall 2021\Advanced Quant,no,mono,no,18,no,#ffffff,no,yes,768,legacy,18,79,C:/Users/mmcel/OneDrive/GRAD SCHOOL/fall 2021/Advanced Quant/MM-Subject-4.csv,legacy,Lentiform Loewenfeld,3.3.9,0,h,NA,h,h,NA,h,386,NA,5729,45974,NA,386,NA,NA,2,legacy,1024,2,48000,-16,experiment,SSHSS,4,even,9104,197423,NA,228956,227820,3374,151448,NA,228954,229062,NA,220587,3371,NA,NA,229062,229450,NA,Lab 2.1 Test Flanker Task,82,40370,99,yes,1024
83,83,408.07,408.07,#000000,legacy,legacy,legacy,0,congruent,uniform,1,undefined,1,s,0,0,0,99,99,0,0,0,99,99,0,99,0,99,NA,99,99,NA,9/26/2021 18:23,600,The main experiment item,yes,Lab21TestFlankerTask.osexp,C:\Users\mmcel\OneDrive\GRAD SCHOOL\fall 2021\Advanced Quant,no,mono,no,18,no,#ffffff,no,yes,768,legacy,19,79,C:/Users/mmcel/OneDrive/GRAD SCHOOL/fall 2021/Advanced Quant/MM-Subject-4.csv,legacy,Lentiform Loewenfeld,3.3.9,0,s,NA,h,h,NA,s,437,NA,5729,45974,NA,437,NA,NA,2,legacy,1024,2,48000,-16,experiment,SSSSS,4,even,9104,197423,NA,230666,229486,3374,151448,NA,230664,230771,NA,220587,3371,NA,NA,230771,231209,NA,Lab 2.1 Test Flanker Task,83,40807,100,yes,1024
83.16831683,83.16831683,407.7623762,407.7623762,#000000,legacy,legacy,legacy,0,congruent,uniform,1,undefined,1,s,0,0,0,100,100,0,0,0,100,100,0,100,0,100,NA,100,100,NA,9/26/2021 18:23,600,The main experiment item,yes,Lab21TestFlankerTask.osexp,C:\Users\mmcel\OneDrive\GRAD SCHOOL\fall 2021\Advanced Quant,no,mono,no,18,no,#ffffff,no,yes,768,legacy,20,79,C:/Users/mmcel/OneDrive/GRAD SCHOOL/fall 2021/Advanced Quant/MM-Subject-4.csv,legacy,Lentiform Loewenfeld,3.3.9,0,s,NA,h,h,NA,s,377,NA,5729,45974,NA,377,NA,NA,2,legacy,1024,2,48000,-16,experiment,SSSSS,4,even,9104,197423,NA,232370,231247,3374,151448,NA,232368,232475,NA,220587,3371,NA,NA,232475,232853,NA,Lab 2.1 Test Flanker Task,84,41184,101,yes,1024
83.33333333,83.33333333,406.9509804,406.9509804,#000000,legacy,legacy,legacy,0,congruent,uniform,1,undefined,1,h,0,0,0,101,101,0,0,0,101,101,0,101,0,101,NA,101,101,NA,9/26/2021 18:23,600,The main experiment item,yes,Lab21TestFlankerTask.osexp,C:\Users\mmcel\OneDrive\GRAD SCHOOL\fall 2021\Advanced Quant,no,mono,no,18,no,#ffffff,no,yes,768,legacy,21,79,C:/Users/mmcel/OneDrive/GRAD SCHOOL/fall 2021/Advanced Quant/MM-Subject-4.csv,legacy,Lentiform Loewenfeld,3.3.9,0,h,NA,h,h,NA,h,325,NA,5729,45974,NA,325,NA,NA,2,legacy,1024,2,48000,-16,experiment,HHHHH,4,even,9104,197423,NA,233998,232886,3374,151448,NA,233995,234103,NA,220587,3371,NA,NA,234104,234430,NA,Lab 2.1 Test Flanker Task,85,41509,102,yes,1024
82.52427184,82.52427184,406.8446602,406.8446602,#000000,legacy,legacy,legacy,0,incongruent,uniform,0,undefined,0,s,0,0,0,102,102,0,0,0,102,102,0,102,0,102,NA,102,102,NA,9/26/2021 18:23,600,The main experiment item,yes,Lab21TestFlankerTask.osexp,C:\Users\mmcel\OneDrive\GRAD SCHOOL\fall 2021\Advanced Quant,no,mono,no,18,no,#ffffff,no,yes,768,legacy,22,79,C:/Users/mmcel/OneDrive/GRAD SCHOOL/fall 2021/Advanced Quant/MM-Subject-4.csv,legacy,Lentiform Loewenfeld,3.3.9,0,h,NA,h,h,NA,h,396,NA,5729,45974,NA,396,NA,NA,2,legacy,1024,2,48000,-16,experiment,HHSHH,4,even,9104,197423,NA,235608,234465,3374,151448,NA,235606,235713,NA,220587,3371,NA,NA,235713,236110,NA,Lab 2.1 Test Flanker Task,85,41905,103,yes,1024
82.69230769,82.69230769,408.2596154,408.2596154,#000000,legacy,legacy,legacy,0,congruent,uniform,1,undefined,1,s,0,0,0,103,103,0,0,0,103,103,0,103,0,103,NA,103,103,NA,9/26/2021 18:23,600,The main experiment item,yes,Lab21TestFlankerTask.osexp,C:\Users\mmcel\OneDrive\GRAD SCHOOL\fall 2021\Advanced Quant,no,mono,no,18,no,#ffffff,no,yes,768,legacy,23,79,C:/Users/mmcel/OneDrive/GRAD SCHOOL/fall 2021/Advanced Quant/MM-Subject-4.csv,legacy,Lentiform Loewenfeld,3.3.9,0,s,NA,h,h,NA,s,554,NA,5729,45974,NA,554,NA,NA,2,legacy,1024,2,48000,-16,experiment,SSSSS,4,even,9104,197423,NA,237766,236648,3374,151448,NA,237763,237871,NA,236143,3371,NA,NA,237871,238426,NA,Lab 2.1 Test Flanker Task,86,42459,104,yes,1024
82.85714286,82.85714286,408.0190476,408.0190476,#000000,legacy,legacy,legacy,0,incongruent,uniform,1,undefined,1,h,0,0,0,104,104,0,0,0,104,104,0,104,0,104,NA,104,104,NA,9/26/2021 18:23,600,The main experiment item,yes,Lab21TestFlankerTask.osexp,C:\Users\mmcel\OneDrive\GRAD SCHOOL\fall 2021\Advanced Quant,no,mono,no,18,no,#ffffff,no,yes,768,legacy,24,79,C:/Users/mmcel/OneDrive/GRAD SCHOOL/fall 2021/Advanced Quant/MM-Subject-4.csv,legacy,Lentiform Loewenfeld,3.3.9,0,h,NA,h,h,NA,h,383,NA,5729,45974,NA,383,NA,NA,2,legacy,1024,2,48000,-16,experiment,SSHSS,4,even,9104,197423,NA,239578,238454,3374,151448,NA,239576,239683,NA,236143,3371,NA,NA,239683,240067,NA,Lab 2.1 Test Flanker Task,87,42842,105,yes,1024
83.01886792,83.01886792,407.8490566,407.8490566,#000000,legacy,legacy,legacy,0,congruent,uniform,1,undefined,1,s,0,0,0,105,105,0,0,0,105,105,0,105,0,105,NA,105,105,NA,9/26/2021 18:23,600,The main experiment item,yes,Lab21TestFlankerTask.osexp,C:\Users\mmcel\OneDrive\GRAD SCHOOL\fall 2021\Advanced Quant,no,mono,no,18,no,#ffffff,no,yes,768,legacy,25,79,C:/Users/mmcel/OneDrive/GRAD SCHOOL/fall 2021/Advanced Quant/MM-Subject-4.csv,legacy,Lentiform Loewenfeld,3.3.9,0,s,NA,h,h,NA,s,390,NA,5729,45974,NA,390,NA,NA,2,legacy,1024,2,48000,-16,experiment,SSSSS,4,even,9104,197423,NA,241222,240099,3374,151448,NA,241220,241327,NA,236143,3371,NA,NA,241327,241718,NA,Lab 2.1 Test Flanker Task,88,43232,106,yes,1024
83.17757009,83.17757009,407.4766355,407.4766355,#000000,legacy,legacy,legacy,0,congruent,uniform,1,undefined,1,s,0,0,0,106,106,0,0,0,106,106,0,106,0,106,NA,106,106,NA,9/26/2021 18:23,600,The main experiment item,yes,Lab21TestFlankerTask.osexp,C:\Users\mmcel\OneDrive\GRAD SCHOOL\fall 2021\Advanced Quant,no,mono,no,18,no,#ffffff,no,yes,768,legacy,26,79,C:/Users/mmcel/OneDrive/GRAD SCHOOL/fall 2021/Advanced Quant/MM-Subject-4.csv,legacy,Lentiform Loewenfeld,3.3.9,0,s,NA,h,h,NA,s,368,NA,5729,45974,NA,368,NA,NA,2,legacy,1024,2,48000,-16,experiment,SSSSS,4,even,9104,197423,NA,242878,241743,3374,151448,NA,242876,242984,NA,236143,3371,NA,NA,242984,243353,NA,Lab 2.1 Test Flanker Task,89,43600,107,yes,1024
83.33333333,83.33333333,406.9259259,406.9259259,#000000,legacy,legacy,legacy,0,congruent,uniform,1,undefined,1,h,0,0,0,107,107,0,0,0,107,107,0,107,0,107,NA,107,107,NA,9/26/2021 18:23,600,The main experiment item,yes,Lab21TestFlankerTask.osexp,C:\Users\mmcel\OneDrive\GRAD SCHOOL\fall 2021\Advanced Quant,no,mono,no,18,no,#ffffff,no,yes,768,legacy,27,79,C:/Users/mmcel/OneDrive/GRAD SCHOOL/fall 2021/Advanced Quant/MM-Subject-4.csv,legacy,Lentiform Loewenfeld,3.3.9,0,h,NA,h,h,NA,h,348,NA,5729,45974,NA,348,NA,NA,2,legacy,1024,2,48000,-16,experiment,HHHHH,4,even,9104,197423,NA,244532,243402,3374,151448,NA,244530,244638,NA,236143,3371,NA,NA,244638,244987,NA,Lab 2.1 Test Flanker Task,90,43948,108,yes,1024
83.48623853,83.48623853,408.1926606,408.1926606,#000000,legacy,legacy,legacy,0,incongruent,uniform,1,undefined,1,h,0,0,0,108,108,0,0,0,108,108,0,108,0,108,NA,108,108,NA,9/26/2021 18:23,600,The main experiment item,yes,Lab21TestFlankerTask.osexp,C:\Users\mmcel\OneDrive\GRAD SCHOOL\fall 2021\Advanced Quant,no,mono,no,18,no,#ffffff,no,yes,768,legacy,28,79,C:/Users/mmcel/OneDrive/GRAD SCHOOL/fall 2021/Advanced Quant/MM-Subject-4.csv,legacy,Lentiform Loewenfeld,3.3.9,0,h,NA,h,h,NA,h,545,NA,5729,45974,NA,545,NA,NA,2,legacy,1024,2,48000,-16,experiment,SSHSS,4,even,9104,197423,NA,246146,245021,3374,151448,NA,246144,246251,NA,236143,3371,NA,NA,246251,246797,NA,Lab 2.1 Test Flanker Task,91,44493,109,yes,1024
83.63636364,83.63636364,408.7454545,408.7454545,#000000,legacy,legacy,legacy,0,incongruent,uniform,1,undefined,1,h,0,0,0,109,109,0,0,0,109,109,0,109,0,109,NA,109,109,NA,9/26/2021 18:23,600,The main experiment item,yes,Lab21TestFlankerTask.osexp,C:\Users\mmcel\OneDrive\GRAD SCHOOL\fall 2021\Advanced Quant,no,mono,no,18,no,#ffffff,no,yes,768,legacy,29,79,C:/Users/mmcel/OneDrive/GRAD SCHOOL/fall 2021/Advanced Quant/MM-Subject-4.csv,legacy,Lentiform Loewenfeld,3.3.9,0,h,NA,h,h,NA,h,469,NA,5729,45974,NA,469,NA,NA,2,legacy,1024,2,48000,-16,experiment,SSHSS,4,even,9104,197423,NA,247945,246821,3374,151448,NA,247943,248050,NA,236143,3371,NA,NA,248050,248520,NA,Lab 2.1 Test Flanker Task,92,44962,110,yes,1024
83.78378378,83.78378378,410.1981982,410.1981982,#000000,legacy,legacy,legacy,0,incongruent,uniform,1,undefined,1,s,0,0,0,110,110,0,0,0,110,110,0,110,0,110,NA,110,110,NA,9/26/2021 18:23,600,The main experiment item,yes,Lab21TestFlankerTask.osexp,C:\Users\mmcel\OneDrive\GRAD SCHOOL\fall 2021\Advanced Quant,no,mono,no,18,no,#ffffff,no,yes,768,legacy,30,79,C:/Users/mmcel/OneDrive/GRAD SCHOOL/fall 2021/Advanced Quant/MM-Subject-4.csv,legacy,Lentiform Loewenfeld,3.3.9,0,s,NA,h,h,NA,s,570,NA,5729,45974,NA,570,NA,NA,2,legacy,1024,2,48000,-16,experiment,HHSHH,4,even,9104,197423,NA,249694,248593,3374,151448,NA,249692,249799,NA,236143,3371,NA,NA,249799,250371,NA,Lab 2.1 Test Flanker Task,93,45532,111,yes,1024
83.92857143,83.92857143,410.1428571,410.1428571,#000000,legacy,legacy,legacy,0,incongruent,uniform,1,undefined,1,h,0,0,0,111,111,0,0,0,111,111,0,111,0,111,NA,111,111,NA,9/26/2021 18:23,600,The main experiment item,yes,Lab21TestFlankerTask.osexp,C:\Users\mmcel\OneDrive\GRAD SCHOOL\fall 2021\Advanced Quant,no,mono,no,18,no,#ffffff,no,yes,768,legacy,31,79,C:/Users/mmcel/OneDrive/GRAD SCHOOL/fall 2021/Advanced Quant/MM-Subject-4.csv,legacy,Lentiform Loewenfeld,3.3.9,0,h,NA,h,h,NA,h,404,NA,5729,45974,NA,404,NA,NA,2,legacy,1024,2,48000,-16,experiment,SSHSS,4,even,9104,197423,NA,251538,250401,3374,151448,NA,251536,251643,NA,236143,3371,NA,NA,251644,252049,NA,Lab 2.1 Test Flanker Task,94,45936,112,yes,1024
84.07079646,84.07079646,411.5044248,411.5044248,#000000,legacy,legacy,legacy,0,congruent,uniform,1,undefined,1,s,0,0,0,112,112,0,0,0,112,112,0,112,0,112,NA,112,112,NA,9/26/2021 18:23,600,The main experiment item,yes,Lab21TestFlankerTask.osexp,C:\Users\mmcel\OneDrive\GRAD SCHOOL\fall 2021\Advanced Quant,no,mono,no,18,no,#ffffff,no,yes,768,legacy,32,79,C:/Users/mmcel/OneDrive/GRAD SCHOOL/fall 2021/Advanced Quant/MM-Subject-4.csv,legacy,Lentiform Loewenfeld,3.3.9,0,s,NA,h,h,NA,s,564,NA,5729,45974,NA,564,NA,NA,2,legacy,1024,2,48000,-16,experiment,SSSSS,4,even,9104,197423,NA,253195,252077,3374,151448,NA,253193,253300,NA,236143,3371,NA,NA,253300,253866,NA,Lab 2.1 Test Flanker Task,95,46500,113,yes,1024
84.21052632,84.21052632,413.9298246,413.9298246,#000000,legacy,legacy,legacy,0,incongruent,uniform,1,undefined,1,s,0,0,0,113,113,0,0,0,113,113,0,113,0,113,NA,113,113,NA,9/26/2021 18:23,600,The main experiment item,yes,Lab21TestFlankerTask.osexp,C:\Users\mmcel\OneDrive\GRAD SCHOOL\fall 2021\Advanced Quant,no,mono,no,18,no,#ffffff,no,yes,768,legacy,33,79,C:/Users/mmcel/OneDrive/GRAD SCHOOL/fall 2021/Advanced Quant/MM-Subject-4.csv,legacy,Lentiform Loewenfeld,3.3.9,0,s,NA,h,h,NA,s,688,NA,5729,45974,NA,688,NA,NA,2,legacy,1024,2,48000,-16,experiment,HHSHH,4,even,9104,197423,NA,255026,253911,3374,151448,NA,255024,255131,NA,236143,3371,NA,NA,255131,255821,NA,Lab 2.1 Test Flanker Task,96,47188,114,yes,1024
84.34782609,84.34782609,415.226087,415.226087,#000000,legacy,legacy,legacy,0,incongruent,uniform,1,undefined,1,s,0,0,0,114,114,0,0,0,114,114,0,114,0,114,NA,114,114,NA,9/26/2021 18:23,600,The main experiment item,yes,Lab21TestFlankerTask.osexp,C:\Users\mmcel\OneDrive\GRAD SCHOOL\fall 2021\Advanced Quant,no,mono,no,18,no,#ffffff,no,yes,768,legacy,34,79,C:/Users/mmcel/OneDrive/GRAD SCHOOL/fall 2021/Advanced Quant/MM-Subject-4.csv,legacy,Lentiform Loewenfeld,3.3.9,0,s,NA,h,h,NA,s,563,NA,5729,45974,NA,563,NA,NA,2,legacy,1024,2,48000,-16,experiment,HHSHH,4,even,9104,197423,NA,257476,256360,3374,151448,NA,257474,257582,NA,236143,3371,255855,NA,257582,258146,NA,Lab 2.1 Test Flanker Task,97,47751,115,yes,1024
84.48275862,84.48275862,415.6206897,415.6206897,#000000,legacy,legacy,legacy,0,incongruent,uniform,1,undefined,1,s,0,0,0,115,115,0,0,0,115,115,0,115,0,115,NA,115,115,NA,9/26/2021 18:23,600,The main experiment item,yes,Lab21TestFlankerTask.osexp,C:\Users\mmcel\OneDrive\GRAD SCHOOL\fall 2021\Advanced Quant,no,mono,no,18,no,#ffffff,no,yes,768,legacy,35,79,C:/Users/mmcel/OneDrive/GRAD SCHOOL/fall 2021/Advanced Quant/MM-Subject-4.csv,legacy,Lentiform Loewenfeld,3.3.9,0,s,NA,h,h,NA,s,461,NA,5729,45974,NA,461,NA,NA,2,legacy,1024,2,48000,-16,experiment,HHSHH,4,even,9104,197423,NA,259292,258178,3374,151448,NA,259290,259397,NA,236143,3371,255855,NA,259397,259859,NA,Lab 2.1 Test Flanker Task,98,48212,116,yes,1024
84.61538462,84.61538462,415.4529915,415.4529915,#000000,legacy,legacy,legacy,0,incongruent,uniform,1,undefined,1,h,0,0,0,116,116,0,0,0,116,116,0,116,0,116,NA,116,116,NA,9/26/2021 18:23,600,The main experiment item,yes,Lab21TestFlankerTask.osexp,C:\Users\mmcel\OneDrive\GRAD SCHOOL\fall 2021\Advanced Quant,no,mono,no,18,no,#ffffff,no,yes,768,legacy,36,79,C:/Users/mmcel/OneDrive/GRAD SCHOOL/fall 2021/Advanced Quant/MM-Subject-4.csv,legacy,Lentiform Loewenfeld,3.3.9,0,h,NA,h,h,NA,h,396,NA,5729,45974,NA,396,NA,NA,2,legacy,1024,2,48000,-16,experiment,SSHSS,4,even,9104,197423,NA,261079,259959,3374,151448,NA,261077,261184,NA,236143,3371,255855,NA,261184,261581,NA,Lab 2.1 Test Flanker Task,99,48608,117,yes,1024
83.89830508,83.89830508,415.4745763,415.4745763,#000000,legacy,legacy,legacy,0,incongruent,uniform,0,undefined,0,h,0,0,0,117,117,0,0,0,117,117,0,117,0,117,NA,117,117,NA,9/26/2021 18:23,600,The main experiment item,yes,Lab21TestFlankerTask.osexp,C:\Users\mmcel\OneDrive\GRAD SCHOOL\fall 2021\Advanced Quant,no,mono,no,18,no,#ffffff,no,yes,768,legacy,37,79,C:/Users/mmcel/OneDrive/GRAD SCHOOL/fall 2021/Advanced Quant/MM-Subject-4.csv,legacy,Lentiform Loewenfeld,3.3.9,0,s,NA,h,h,NA,s,418,NA,5729,45974,NA,418,NA,NA,2,legacy,1024,2,48000,-16,experiment,SSHSS,4,even,9104,197423,NA,262743,261600,3374,151448,NA,262740,262848,NA,236143,3371,255855,NA,262848,263269,NA,Lab 2.1 Test Flanker Task,99,49026,118,yes,1024
84.03361345,84.03361345,415.4117647,415.4117647,#000000,legacy,legacy,legacy,0,congruent,uniform,1,undefined,1,h,0,0,0,118,118,0,0,0,118,118,0,118,0,118,NA,118,118,NA,9/26/2021 18:23,600,The main experiment item,yes,Lab21TestFlankerTask.osexp,C:\Users\mmcel\OneDrive\GRAD SCHOOL\fall 2021\Advanced Quant,no,mono,no,18,no,#ffffff,no,yes,768,legacy,38,79,C:/Users/mmcel/OneDrive/GRAD SCHOOL/fall 2021/Advanced Quant/MM-Subject-4.csv,legacy,Lentiform Loewenfeld,3.3.9,0,h,NA,h,h,NA,h,408,NA,5729,45974,NA,408,NA,NA,2,legacy,1024,2,48000,-16,experiment,HHHHH,4,even,9104,197423,NA,264917,263795,3374,151448,NA,264915,265022,NA,263290,3371,255855,NA,265022,265431,NA,Lab 2.1 Test Flanker Task,100,49434,119,yes,1024
84.16666667,84.16666667,415.45,415.45,#000000,legacy,legacy,legacy,0,congruent,uniform,1,undefined,1,h,0,0,0,119,119,0,0,0,119,119,0,119,0,119,NA,119,119,NA,9/26/2021 18:23,600,The main experiment item,yes,Lab21TestFlankerTask.osexp,C:\Users\mmcel\OneDrive\GRAD SCHOOL\fall 2021\Advanced Quant,no,mono,no,18,no,#ffffff,no,yes,768,legacy,39,79,C:/Users/mmcel/OneDrive/GRAD SCHOOL/fall 2021/Advanced Quant/MM-Subject-4.csv,legacy,Lentiform Loewenfeld,3.3.9,0,h,NA,h,h,NA,h,420,NA,5729,45974,NA,420,NA,NA,2,legacy,1024,2,48000,-16,experiment,HHHHH,4,even,9104,197423,NA,266621,265467,3374,151448,NA,266617,266726,NA,263290,3371,255855,NA,266726,267147,NA,Lab 2.1 Test Flanker Task,101,49854,120,yes,1024
84.29752066,84.29752066,414.9752066,414.9752066,#000000,legacy,legacy,legacy,0,congruent,uniform,1,undefined,1,h,0,0,0,120,120,0,0,0,120,120,0,120,0,120,NA,120,120,NA,9/26/2021 18:23,600,The main experiment item,yes,Lab21TestFlankerTask.osexp,C:\Users\mmcel\OneDrive\GRAD SCHOOL\fall 2021\Advanced Quant,no,mono,no,18,no,#ffffff,no,yes,768,legacy,40,79,C:/Users/mmcel/OneDrive/GRAD SCHOOL/fall 2021/Advanced Quant/MM-Subject-4.csv,legacy,Lentiform Loewenfeld,3.3.9,0,h,NA,h,h,NA,h,358,NA,5729,45974,NA,358,NA,NA,2,legacy,1024,2,48000,-16,experiment,HHHHH,4,even,9104,197423,NA,268285,267167,3374,151448,NA,268283,268390,NA,263290,3371,255855,NA,268390,268749,NA,Lab 2.1 Test Flanker Task,102,50212,121,yes,1024
84.42622951,84.42622951,415.1229508,415.1229508,#000000,legacy,legacy,legacy,0,incongruent,uniform,1,undefined,1,s,0,0,0,121,121,0,0,0,121,121,0,121,0,121,NA,121,121,NA,9/26/2021 18:23,600,The main experiment item,yes,Lab21TestFlankerTask.osexp,C:\Users\mmcel\OneDrive\GRAD SCHOOL\fall 2021\Advanced Quant,no,mono,no,18,no,#ffffff,no,yes,768,legacy,41,79,C:/Users/mmcel/OneDrive/GRAD SCHOOL/fall 2021/Advanced Quant/MM-Subject-4.csv,legacy,Lentiform Loewenfeld,3.3.9,0,s,NA,h,h,NA,s,433,NA,5729,45974,NA,433,NA,NA,2,legacy,1024,2,48000,-16,experiment,HHSHH,4,even,9104,197423,NA,269876,268767,3374,151448,NA,269874,269982,NA,263290,3371,255855,NA,269983,270417,NA,Lab 2.1 Test Flanker Task,103,50645,122,yes,1024
84.55284553,84.55284553,415.2113821,415.2113821,#000000,legacy,legacy,legacy,0,congruent,uniform,1,undefined,1,h,0,0,0,122,122,0,0,0,122,122,0,122,0,122,NA,122,122,NA,9/26/2021 18:23,600,The main experiment item,yes,Lab21TestFlankerTask.osexp,C:\Users\mmcel\OneDrive\GRAD SCHOOL\fall 2021\Advanced Quant,no,mono,no,18,no,#ffffff,no,yes,768,legacy,42,79,C:/Users/mmcel/OneDrive/GRAD SCHOOL/fall 2021/Advanced Quant/MM-Subject-4.csv,legacy,Lentiform Loewenfeld,3.3.9,0,h,NA,h,h,NA,h,426,NA,5729,45974,NA,426,NA,NA,2,legacy,1024,2,48000,-16,experiment,HHHHH,4,even,9104,197423,NA,271562,270445,3374,151448,NA,271560,271667,NA,263290,3371,255855,NA,271667,272094,NA,Lab 2.1 Test Flanker Task,104,51071,123,yes,1024
83.87096774,83.87096774,415.3387097,415.3387097,#000000,legacy,legacy,legacy,0,incongruent,uniform,0,undefined,0,h,0,0,0,123,123,0,0,0,123,123,0,123,0,123,NA,123,123,NA,9/26/2021 18:23,600,The main experiment item,yes,Lab21TestFlankerTask.osexp,C:\Users\mmcel\OneDrive\GRAD SCHOOL\fall 2021\Advanced Quant,no,mono,no,18,no,#ffffff,no,yes,768,legacy,43,79,C:/Users/mmcel/OneDrive/GRAD SCHOOL/fall 2021/Advanced Quant/MM-Subject-4.csv,legacy,Lentiform Loewenfeld,3.3.9,0,s,NA,h,h,NA,s,431,NA,5729,45974,NA,431,NA,NA,2,legacy,1024,2,48000,-16,experiment,SSHSS,4,even,9104,197423,NA,273231,272112,3374,151448,NA,273229,273336,NA,263290,3371,255855,NA,273336,273768,NA,Lab 2.1 Test Flanker Task,104,51502,124,yes,1024
84,84,415.968,415.968,#000000,legacy,legacy,legacy,0,incongruent,uniform,1,undefined,1,h,0,0,0,124,124,0,0,0,124,124,0,124,0,124,NA,124,124,NA,9/26/2021 18:23,600,The main experiment item,yes,Lab21TestFlankerTask.osexp,C:\Users\mmcel\OneDrive\GRAD SCHOOL\fall 2021\Advanced Quant,no,mono,no,18,no,#ffffff,no,yes,768,legacy,44,79,C:/Users/mmcel/OneDrive/GRAD SCHOOL/fall 2021/Advanced Quant/MM-Subject-4.csv,legacy,Lentiform Loewenfeld,3.3.9,0,h,NA,h,h,NA,h,494,NA,5729,45974,NA,494,NA,NA,2,legacy,1024,2,48000,-16,experiment,SSHSS,4,even,9104,197423,NA,275479,274364,3374,151448,NA,275477,275585,NA,273859,3371,255855,NA,275585,276080,NA,Lab 2.1 Test Flanker Task,105,51996,125,yes,1024
84.12698413,84.12698413,416.1984127,416.1984127,#000000,legacy,legacy,legacy,0,congruent,uniform,1,undefined,1,s,0,0,0,125,125,0,0,0,125,125,0,125,0,125,NA,125,125,NA,9/26/2021 18:23,600,The main experiment item,yes,Lab21TestFlankerTask.osexp,C:\Users\mmcel\OneDrive\GRAD SCHOOL\fall 2021\Advanced Quant,no,mono,no,18,no,#ffffff,no,yes,768,legacy,45,79,C:/Users/mmcel/OneDrive/GRAD SCHOOL/fall 2021/Advanced Quant/MM-Subject-4.csv,legacy,Lentiform Loewenfeld,3.3.9,0,s,NA,h,h,NA,s,445,NA,5729,45974,NA,445,NA,NA,2,legacy,1024,2,48000,-16,experiment,SSSSS,4,even,9104,197423,NA,277306,276182,3374,151448,NA,277304,277411,NA,273859,3371,255855,NA,277412,277858,NA,Lab 2.1 Test Flanker Task,106,52441,126,yes,1024
83.46456693,83.46456693,416.1811024,416.1811024,#000000,legacy,legacy,legacy,0,incongruent,uniform,0,undefined,0,s,0,0,0,126,126,0,0,0,126,126,0,126,0,126,NA,126,126,NA,9/26/2021 18:23,600,The main experiment item,yes,Lab21TestFlankerTask.osexp,C:\Users\mmcel\OneDrive\GRAD SCHOOL\fall 2021\Advanced Quant,no,mono,no,18,no,#ffffff,no,yes,768,legacy,46,79,C:/Users/mmcel/OneDrive/GRAD SCHOOL/fall 2021/Advanced Quant/MM-Subject-4.csv,legacy,Lentiform Loewenfeld,3.3.9,0,h,NA,h,h,NA,h,414,NA,5729,45974,NA,414,NA,NA,2,legacy,1024,2,48000,-16,experiment,HHSHH,4,even,9104,197423,NA,278993,277878,3374,151448,NA,278991,279098,NA,273859,3371,255855,NA,279098,279513,NA,Lab 2.1 Test Flanker Task,106,52855,127,yes,1024
83.59375,83.59375,416.296875,416.296875,#000000,legacy,legacy,legacy,0,incongruent,uniform,1,undefined,1,h,0,0,0,127,127,0,0,0,127,127,0,127,0,127,NA,127,127,NA,9/26/2021 18:23,600,The main experiment item,yes,Lab21TestFlankerTask.osexp,C:\Users\mmcel\OneDrive\GRAD SCHOOL\fall 2021\Advanced Quant,no,mono,no,18,no,#ffffff,no,yes,768,legacy,47,79,C:/Users/mmcel/OneDrive/GRAD SCHOOL/fall 2021/Advanced Quant/MM-Subject-4.csv,legacy,Lentiform Loewenfeld,3.3.9,0,h,NA,h,h,NA,h,431,NA,5729,45974,NA,431,NA,NA,2,legacy,1024,2,48000,-16,experiment,SSHSS,4,even,9104,197423,NA,281173,280050,3374,151448,NA,281171,281278,NA,279545,3371,255855,NA,281278,281710,NA,Lab 2.1 Test Flanker Task,107,53286,128,yes,1024
83.72093023,83.72093023,416.0852713,416.0852713,#000000,legacy,legacy,legacy,0,congruent,uniform,1,undefined,1,h,0,0,0,128,128,0,0,0,128,128,0,128,0,128,NA,128,128,NA,9/26/2021 18:23,600,The main experiment item,yes,Lab21TestFlankerTask.osexp,C:\Users\mmcel\OneDrive\GRAD SCHOOL\fall 2021\Advanced Quant,no,mono,no,18,no,#ffffff,no,yes,768,legacy,48,79,C:/Users/mmcel/OneDrive/GRAD SCHOOL/fall 2021/Advanced Quant/MM-Subject-4.csv,legacy,Lentiform Loewenfeld,3.3.9,0,h,NA,h,h,NA,h,389,NA,5729,45974,NA,389,NA,NA,2,legacy,1024,2,48000,-16,experiment,HHHHH,4,even,9104,197423,NA,282868,281757,3374,151448,NA,282865,282973,NA,279545,3371,255855,NA,282973,283363,NA,Lab 2.1 Test Flanker Task,108,53675,129,yes,1024
83.84615385,83.84615385,415.5153846,415.5153846,#000000,legacy,legacy,legacy,0,congruent,uniform,1,undefined,1,h,0,0,0,129,129,0,0,0,129,129,0,129,0,129,NA,129,129,NA,9/26/2021 18:23,600,The main experiment item,yes,Lab21TestFlankerTask.osexp,C:\Users\mmcel\OneDrive\GRAD SCHOOL\fall 2021\Advanced Quant,no,mono,no,18,no,#ffffff,no,yes,768,legacy,49,79,C:/Users/mmcel/OneDrive/GRAD SCHOOL/fall 2021/Advanced Quant/MM-Subject-4.csv,legacy,Lentiform Loewenfeld,3.3.9,0,h,NA,h,h,NA,h,342,NA,5729,45974,NA,342,NA,NA,2,legacy,1024,2,48000,-16,experiment,HHHHH,4,even,9104,197423,NA,284552,283401,3374,151448,NA,284550,284657,NA,279545,3371,255855,NA,284657,285000,NA,Lab 2.1 Test Flanker Task,109,54017,130,yes,1024
83.96946565,83.96946565,416.9847328,416.9847328,#000000,legacy,legacy,legacy,0,congruent,uniform,1,undefined,1,s,0,0,0,130,130,0,0,0,130,130,0,130,0,130,NA,130,130,NA,9/26/2021 18:23,600,The main experiment item,yes,Lab21TestFlankerTask.osexp,C:\Users\mmcel\OneDrive\GRAD SCHOOL\fall 2021\Advanced Quant,no,mono,no,18,no,#ffffff,no,yes,768,legacy,50,79,C:/Users/mmcel/OneDrive/GRAD SCHOOL/fall 2021/Advanced Quant/MM-Subject-4.csv,legacy,Lentiform Loewenfeld,3.3.9,0,s,NA,h,h,NA,s,608,NA,5729,45974,NA,608,NA,NA,2,legacy,1024,2,48000,-16,experiment,SSSSS,4,even,9104,197423,NA,286168,285038,3374,151448,NA,286166,286273,NA,279545,3371,255855,NA,286274,286883,NA,Lab 2.1 Test Flanker Task,110,54625,131,yes,1024
84.09090909,84.09090909,416.8787879,416.8787879,#000000,legacy,legacy,legacy,0,congruent,uniform,1,undefined,1,h,0,0,0,131,131,0,0,0,131,131,0,131,0,131,NA,131,131,NA,9/26/2021 18:23,600,The main experiment item,yes,Lab21TestFlankerTask.osexp,C:\Users\mmcel\OneDrive\GRAD SCHOOL\fall 2021\Advanced Quant,no,mono,no,18,no,#ffffff,no,yes,768,legacy,51,79,C:/Users/mmcel/OneDrive/GRAD SCHOOL/fall 2021/Advanced Quant/MM-Subject-4.csv,legacy,Lentiform Loewenfeld,3.3.9,0,h,NA,h,h,NA,h,403,NA,5729,45974,NA,403,NA,NA,2,legacy,1024,2,48000,-16,experiment,HHHHH,4,even,9104,197423,NA,288554,287429,3374,151448,NA,288552,288659,NA,279545,3371,286924,NA,288659,289064,NA,Lab 2.1 Test Flanker Task,111,55028,132,yes,1024
84.21052632,84.21052632,418.2706767,418.2706767,#000000,legacy,legacy,legacy,0,congruent,uniform,1,undefined,1,s,0,0,0,132,132,0,0,0,132,132,0,132,0,132,NA,132,132,NA,9/26/2021 18:23,600,The main experiment item,yes,Lab21TestFlankerTask.osexp,C:\Users\mmcel\OneDrive\GRAD SCHOOL\fall 2021\Advanced Quant,no,mono,no,18,no,#ffffff,no,yes,768,legacy,52,79,C:/Users/mmcel/OneDrive/GRAD SCHOOL/fall 2021/Advanced Quant/MM-Subject-4.csv,legacy,Lentiform Loewenfeld,3.3.9,0,s,NA,h,h,NA,s,602,NA,5729,45974,NA,602,NA,NA,2,legacy,1024,2,48000,-16,experiment,SSSSS,4,even,9104,197423,NA,290242,289116,3374,151448,NA,290239,290346,NA,279545,3371,286924,NA,290346,290950,NA,Lab 2.1 Test Flanker Task,112,55630,133,yes,1024
84.32835821,84.32835821,417.7313433,417.7313433,#000000,legacy,legacy,legacy,0,congruent,uniform,1,undefined,1,s,0,0,0,133,133,0,0,0,133,133,0,133,0,133,NA,133,133,NA,9/26/2021 18:23,600,The main experiment item,yes,Lab21TestFlankerTask.osexp,C:\Users\mmcel\OneDrive\GRAD SCHOOL\fall 2021\Advanced Quant,no,mono,no,18,no,#ffffff,no,yes,768,legacy,53,79,C:/Users/mmcel/OneDrive/GRAD SCHOOL/fall 2021/Advanced Quant/MM-Subject-4.csv,legacy,Lentiform Loewenfeld,3.3.9,0,s,NA,h,h,NA,s,346,NA,5729,45974,NA,346,NA,NA,2,legacy,1024,2,48000,-16,experiment,SSSSS,4,even,9104,197423,NA,292604,291485,3374,151448,NA,292602,292709,NA,279545,3371,290979,NA,292709,293057,NA,Lab 2.1 Test Flanker Task,113,55976,134,yes,1024
84.44444444,84.44444444,417.5851852,417.5851852,#000000,legacy,legacy,legacy,0,incongruent,uniform,1,undefined,1,s,0,0,0,134,134,0,0,0,134,134,0,134,0,134,NA,134,134,NA,9/26/2021 18:23,600,The main experiment item,yes,Lab21TestFlankerTask.osexp,C:\Users\mmcel\OneDrive\GRAD SCHOOL\fall 2021\Advanced Quant,no,mono,no,18,no,#ffffff,no,yes,768,legacy,54,79,C:/Users/mmcel/OneDrive/GRAD SCHOOL/fall 2021/Advanced Quant/MM-Subject-4.csv,legacy,Lentiform Loewenfeld,3.3.9,0,s,NA,h,h,NA,s,398,NA,5729,45974,NA,398,NA,NA,2,legacy,1024,2,48000,-16,experiment,HHSHH,4,even,9104,197423,NA,294227,293080,3374,151448,NA,294225,294332,NA,279545,3371,290979,NA,294332,294731,NA,Lab 2.1 Test Flanker Task,114,56374,135,yes,1024
84.55882353,84.55882353,417.4044118,417.4044118,#000000,legacy,legacy,legacy,0,incongruent,uniform,1,undefined,1,s,0,0,0,135,135,0,0,0,135,135,0,135,0,135,NA,135,135,NA,9/26/2021 18:23,600,The main experiment item,yes,Lab21TestFlankerTask.osexp,C:\Users\mmcel\OneDrive\GRAD SCHOOL\fall 2021\Advanced Quant,no,mono,no,18,no,#ffffff,no,yes,768,legacy,55,79,C:/Users/mmcel/OneDrive/GRAD SCHOOL/fall 2021/Advanced Quant/MM-Subject-4.csv,legacy,Lentiform Loewenfeld,3.3.9,0,s,NA,h,h,NA,s,393,NA,5729,45974,NA,393,NA,NA,2,legacy,1024,2,48000,-16,experiment,HHSHH,4,even,9104,197423,NA,295857,294746,3374,151448,NA,295854,295962,NA,279545,3371,290979,NA,295962,296356,NA,Lab 2.1 Test Flanker Task,115,56767,136,yes,1024
84.67153285,84.67153285,417.0145985,417.0145985,#000000,legacy,legacy,legacy,0,congruent,uniform,1,undefined,1,h,0,0,0,136,136,0,0,0,136,136,0,136,0,136,NA,136,136,NA,9/26/2021 18:23,600,The main experiment item,yes,Lab21TestFlankerTask.osexp,C:\Users\mmcel\OneDrive\GRAD SCHOOL\fall 2021\Advanced Quant,no,mono,no,18,no,#ffffff,no,yes,768,legacy,56,79,C:/Users/mmcel/OneDrive/GRAD SCHOOL/fall 2021/Advanced Quant/MM-Subject-4.csv,legacy,Lentiform Loewenfeld,3.3.9,0,h,NA,h,h,NA,h,364,NA,5729,45974,NA,364,NA,NA,2,legacy,1024,2,48000,-16,experiment,HHHHH,4,even,9104,197423,NA,297578,296440,3374,151448,NA,297576,297683,NA,279545,3371,290979,NA,297684,298049,NA,Lab 2.1 Test Flanker Task,116,57131,137,yes,1024
84.7826087,84.7826087,416.6086957,416.6086957,#000000,legacy,legacy,legacy,0,incongruent,uniform,1,undefined,1,s,0,0,0,137,137,0,0,0,137,137,0,137,0,137,NA,137,137,NA,9/26/2021 18:23,600,The main experiment item,yes,Lab21TestFlankerTask.osexp,C:\Users\mmcel\OneDrive\GRAD SCHOOL\fall 2021\Advanced Quant,no,mono,no,18,no,#ffffff,no,yes,768,legacy,57,79,C:/Users/mmcel/OneDrive/GRAD SCHOOL/fall 2021/Advanced Quant/MM-Subject-4.csv,legacy,Lentiform Loewenfeld,3.3.9,0,s,NA,h,h,NA,s,361,NA,5729,45974,NA,361,NA,NA,2,legacy,1024,2,48000,-16,experiment,HHSHH,4,even,9104,197423,NA,299212,298094,3374,151448,NA,299210,299317,NA,279545,3371,290979,NA,299317,299679,NA,Lab 2.1 Test Flanker Task,117,57492,138,yes,1024
84.89208633,84.89208633,417.5539568,417.5539568,#000000,legacy,legacy,legacy,0,incongruent,uniform,1,undefined,1,h,0,0,0,138,138,0,0,0,138,138,0,138,0,138,NA,138,138,NA,9/26/2021 18:23,600,The main experiment item,yes,Lab21TestFlankerTask.osexp,C:\Users\mmcel\OneDrive\GRAD SCHOOL\fall 2021\Advanced Quant,no,mono,no,18,no,#ffffff,no,yes,768,legacy,58,79,C:/Users/mmcel/OneDrive/GRAD SCHOOL/fall 2021/Advanced Quant/MM-Subject-4.csv,legacy,Lentiform Loewenfeld,3.3.9,0,h,NA,h,h,NA,h,548,NA,5729,45974,NA,548,NA,NA,2,legacy,1024,2,48000,-16,experiment,SSHSS,4,even,9104,197423,NA,300861,299750,3374,151448,NA,300859,300966,NA,279545,3371,290979,NA,300967,301516,NA,Lab 2.1 Test Flanker Task,118,58040,139,yes,1024
85,85,417.1857143,417.1857143,#000000,legacy,legacy,legacy,0,congruent,uniform,1,undefined,1,s,0,0,0,139,139,0,0,0,139,139,0,139,0,139,NA,139,139,NA,9/26/2021 18:23,600,The main experiment item,yes,Lab21TestFlankerTask.osexp,C:\Users\mmcel\OneDrive\GRAD SCHOOL\fall 2021\Advanced Quant,no,mono,no,18,no,#ffffff,no,yes,768,legacy,59,79,C:/Users/mmcel/OneDrive/GRAD SCHOOL/fall 2021/Advanced Quant/MM-Subject-4.csv,legacy,Lentiform Loewenfeld,3.3.9,0,s,NA,h,h,NA,s,366,NA,5729,45974,NA,366,NA,NA,2,legacy,1024,2,48000,-16,experiment,SSSSS,4,even,9104,197423,NA,302691,301573,3374,151448,NA,302688,302796,NA,279545,3371,290979,NA,302796,303164,NA,Lab 2.1 Test Flanker Task,119,58406,140,yes,1024
85.10638298,85.10638298,416.6950355,416.6950355,#000000,legacy,legacy,legacy,0,incongruent,uniform,1,undefined,1,h,0,0,0,140,140,0,0,0,140,140,0,140,0,140,NA,140,140,NA,9/26/2021 18:23,600,The main experiment item,yes,Lab21TestFlankerTask.osexp,C:\Users\mmcel\OneDrive\GRAD SCHOOL\fall 2021\Advanced Quant,no,mono,no,18,no,#ffffff,no,yes,768,legacy,60,79,C:/Users/mmcel/OneDrive/GRAD SCHOOL/fall 2021/Advanced Quant/MM-Subject-4.csv,legacy,Lentiform Loewenfeld,3.3.9,0,h,NA,h,h,NA,h,348,NA,5729,45974,NA,348,NA,NA,2,legacy,1024,2,48000,-16,experiment,SSHSS,4,even,9104,197423,NA,304325,303191,3374,151448,NA,304323,304430,NA,279545,3371,290979,NA,304430,304780,NA,Lab 2.1 Test Flanker Task,120,58754,141,yes,1024
85.21126761,85.21126761,416.2816901,416.2816901,#000000,legacy,legacy,legacy,0,congruent,uniform,1,undefined,1,h,0,0,0,141,141,0,0,0,141,141,0,141,0,141,NA,141,141,NA,9/26/2021 18:23,600,The main experiment item,yes,Lab21TestFlankerTask.osexp,C:\Users\mmcel\OneDrive\GRAD SCHOOL\fall 2021\Advanced Quant,no,mono,no,18,no,#ffffff,no,yes,768,legacy,61,79,C:/Users/mmcel/OneDrive/GRAD SCHOOL/fall 2021/Advanced Quant/MM-Subject-4.csv,legacy,Lentiform Loewenfeld,3.3.9,0,h,NA,h,h,NA,h,358,NA,5729,45974,NA,358,NA,NA,2,legacy,1024,2,48000,-16,experiment,HHHHH,4,even,9104,197423,NA,305990,304862,3374,151448,NA,305987,306095,NA,279545,3371,290979,NA,306095,306454,NA,Lab 2.1 Test Flanker Task,121,59112,142,yes,1024
