"acc","accuracy","average_response_time","avg_rt","background","canvas_backend","clock_backend","color_backend","compensation","condition","coordinates","correct","correct_instructions1","correct_keyboard_response","correct_response","count_ISI","count_block1","count_block2","count_block3","count_errorfeedback","count_experiment","count_faster","count_finish","count_fixation","count_instructions1","count_instructions2","count_instructions3","count_keyboard_response","count_ogger","count_sequence","count_stimulus","datetime","deadline","description","disable_garbage_collection","experiment_file","experiment_path","font_bold","font_family","font_italic","font_size","font_underline","foreground","form_clicks","fullscreen","height","keyboard_backend","live_row","live_row_block1","logfile","mouse_backend","opensesame_codename","opensesame_version","repeat_cycle","response","response_finish","response_instructions1","response_instructions2","response_instructions3","response_keyboard_response","response_time","response_time_finish","response_time_instructions1","response_time_instructions2","response_time_instructions3","response_time_keyboard_response","round_decimals","sampler_backend","sound_buf_size","sound_channels","sound_freq","sound_sample_size","start","stimulus","subject_nr","subject_parity","time_ISI","time_block1","time_block2","time_block3","time_errorfeedback","time_experiment","time_faster","time_finish","time_fixation","time_instructions1","time_instructions2","time_instructions3","time_keyboard_response","time_ogger","time_sequence","time_stimulus","title","total_correct","total_response_time","total_responses","uniform_coordinates","width"
"100","100","783","783","black","legacy","legacy","legacy","0","incongruent","uniform","1","undefined","1","h","0","0","0","0","0","0","0","0","0","0","0","0","0","0","0","0","Fri Sep 18 15:59:29 2020","1500","The main experiment item","yes","Flankertask.osexp","/Users/alisonbeason/Desktop","no","mono","no","18","no","white","no","yes","768","legacy","0","0","/Users/alisonbeason/Desktop/subject-0.csv","legacy","Lentiform Loewenfeld","3.3.3","0","h","NA","h","NA","NA","h","783","NA","676","NA","NA","783","2","legacy","1024","2","48000","-16","experiment","SSHSS","0","even","NA","3711","NA","NA","NA","3007","NA","NA","3770","3023","NA","NA","3884","4668","3757","3884","Flanker task","1","783","1","yes","1024"
"100","100","714","714","black","legacy","legacy","legacy","0","incongruent","uniform","1","undefined","1","h","1","0","0","0","1","0","1","0","1","0","0","0","1","1","1","1","Fri Sep 18 15:59:29 2020","1500","The main experiment item","yes","Flankertask.osexp","/Users/alisonbeason/Desktop","no","mono","no","18","no","white","no","yes","768","legacy","1","1","/Users/alisonbeason/Desktop/subject-0.csv","legacy","Lentiform Loewenfeld","3.3.3","0","h","NA","h","NA","NA","h","645","NA","676","NA","NA","645","2","legacy","1024","2","48000","-16","experiment","SSHSS","0","even","4686","3711","NA","NA","NA","3007","NA","NA","5775","3023","NA","NA","5890","6535","5760","5889","Flanker task","2","1428","2","yes","1024"
"100","100","621.6666666666666","621.6666666666666","black","legacy","legacy","legacy","0","congruent","uniform","1","undefined","1","s","2","0","0","0","2","0","2","0","2","0","0","0","2","2","2","2","Fri Sep 18 15:59:29 2020","1500","The main experiment item","yes","Flankertask.osexp","/Users/alisonbeason/Desktop","no","mono","no","18","no","white","no","yes","768","legacy","2","2","/Users/alisonbeason/Desktop/subject-0.csv","legacy","Lentiform Loewenfeld","3.3.3","0","s","NA","h","NA","NA","s","437","NA","676","NA","NA","437","2","legacy","1024","2","48000","-16","experiment","SSSSS","0","even","6551","3711","NA","NA","NA","3007","NA","NA","7614","3023","NA","NA","7729","8167","7600","7729","Flanker task","3","1865","3","yes","1024"
"100","100","569.75","569.75","black","legacy","legacy","legacy","0","congruent","uniform","1","undefined","1","s","3","0","0","0","3","0","3","0","3","0","0","0","3","3","3","3","Fri Sep 18 15:59:29 2020","1500","The main experiment item","yes","Flankertask.osexp","/Users/alisonbeason/Desktop","no","mono","no","18","no","white","no","yes","768","legacy","3","3","/Users/alisonbeason/Desktop/subject-0.csv","legacy","Lentiform Loewenfeld","3.3.3","0","s","NA","h","NA","NA","s","414","NA","676","NA","NA","414","2","legacy","1024","2","48000","-16","experiment","SSSSS","0","even","8182","3711","NA","NA","NA","3007","NA","NA","9245","3023","NA","NA","9360","9775","9231","9360","Flanker task","4","2279","4","yes","1024"
"80","80","529.8","529.8","black","legacy","legacy","legacy","0","incongruent","uniform","0","undefined","0","s","4","0","0","0","4","0","4","0","4","0","0","0","4","4","4","4","Fri Sep 18 15:59:29 2020","1500","The main experiment item","yes","Flankertask.osexp","/Users/alisonbeason/Desktop","no","mono","no","18","no","white","no","yes","768","legacy","4","4","/Users/alisonbeason/Desktop/subject-0.csv","legacy","Lentiform Loewenfeld","3.3.3","0","h","NA","h","NA","NA","h","370","NA","676","NA","NA","370","2","legacy","1024","2","48000","-16","experiment","HHSHH","0","even","9791","3711","NA","NA","NA","3007","NA","NA","10854","3023","NA","NA","10969","11339","10841","10969","Flanker task","4","2649","5","yes","1024"
"83.33333333333333","83.33333333333333","532","532","black","legacy","legacy","legacy","0","congruent","uniform","1","undefined","1","s","5","0","0","0","5","0","5","0","5","0","0","0","5","5","5","5","Fri Sep 18 15:59:29 2020","1500","The main experiment item","yes","Flankertask.osexp","/Users/alisonbeason/Desktop","no","mono","no","18","no","white","no","yes","768","legacy","5","5","/Users/alisonbeason/Desktop/subject-0.csv","legacy","Lentiform Loewenfeld","3.3.3","0","s","NA","h","NA","NA","s","543","NA","676","NA","NA","543","2","legacy","1024","2","48000","-16","experiment","SSSSS","0","even","11869","3711","NA","NA","11355","3007","NA","NA","12931","3023","NA","NA","13046","13589","12918","13046","Flanker task","5","3192","6","yes","1024"
"85.71428571428571","85.71428571428571","515.2857142857143","515.2857142857143","black","legacy","legacy","legacy","0","congruent","uniform","1","undefined","1","s","6","0","0","0","6","0","6","0","6","0","0","0","6","6","6","6","Fri Sep 18 15:59:29 2020","1500","The main experiment item","yes","Flankertask.osexp","/Users/alisonbeason/Desktop","no","mono","no","18","no","white","no","yes","768","legacy","6","6","/Users/alisonbeason/Desktop/subject-0.csv","legacy","Lentiform Loewenfeld","3.3.3","0","s","NA","h","NA","NA","s","415","NA","676","NA","NA","415","2","legacy","1024","2","48000","-16","experiment","SSSSS","0","even","13605","3711","NA","NA","11355","3007","NA","NA","14668","3023","NA","NA","14782","15198","14654","14781","Flanker task","6","3607","7","yes","1024"
"87.5","87.5","526.5","526.5","black","legacy","legacy","legacy","0","congruent","uniform","1","undefined","1","h","7","0","0","0","7","0","7","0","7","0","0","0","7","7","7","7","Fri Sep 18 15:59:29 2020","1500","The main experiment item","yes","Flankertask.osexp","/Users/alisonbeason/Desktop","no","mono","no","18","no","white","no","yes","768","legacy","7","7","/Users/alisonbeason/Desktop/subject-0.csv","legacy","Lentiform Loewenfeld","3.3.3","0","h","NA","h","NA","NA","h","605","NA","676","NA","NA","605","2","legacy","1024","2","48000","-16","experiment","HHHHH","0","even","15214","3711","NA","NA","11355","3007","NA","NA","16277","3023","NA","NA","16392","16998","16263","16392","Flanker task","7","4212","8","yes","1024"
"88.88888888888889","88.88888888888889","521.6666666666666","521.6666666666666","black","legacy","legacy","legacy","0","congruent","uniform","1","undefined","1","s","8","0","0","0","8","0","8","0","8","0","0","0","8","8","8","8","Fri Sep 18 15:59:29 2020","1500","The main experiment item","yes","Flankertask.osexp","/Users/alisonbeason/Desktop","no","mono","no","18","no","white","no","yes","768","legacy","8","8","/Users/alisonbeason/Desktop/subject-0.csv","legacy","Lentiform Loewenfeld","3.3.3","0","s","NA","h","NA","NA","s","483","NA","676","NA","NA","483","2","legacy","1024","2","48000","-16","experiment","SSSSS","0","even","17013","3711","NA","NA","11355","3007","NA","NA","18075","3023","NA","NA","18191","18675","18062","18191","Flanker task","8","4695","9","yes","1024"
"90","90","512.2","512.2","black","legacy","legacy","legacy","0","congruent","uniform","1","undefined","1","s","9","0","0","0","9","0","9","0","9","0","0","0","9","9","9","9","Fri Sep 18 15:59:29 2020","1500","The main experiment item","yes","Flankertask.osexp","/Users/alisonbeason/Desktop","no","mono","no","18","no","white","no","yes","768","legacy","9","9","/Users/alisonbeason/Desktop/subject-0.csv","legacy","Lentiform Loewenfeld","3.3.3","0","s","NA","h","NA","NA","s","427","NA","676","NA","NA","427","2","legacy","1024","2","48000","-16","experiment","SSSSS","0","even","18690","3711","NA","NA","11355","3007","NA","NA","19752","3023","NA","NA","19867","20295","19738","19867","Flanker task","9","5122","10","yes","1024"
"90.9090909090909","90.9090909090909","510.3636363636364","510.3636363636364","black","legacy","legacy","legacy","0","incongruent","uniform","1","undefined","1","s","10","0","0","0","10","0","10","0","10","0","0","0","10","10","10","10","Fri Sep 18 15:59:29 2020","1500","The main experiment item","yes","Flankertask.osexp","/Users/alisonbeason/Desktop","no","mono","no","18","no","white","no","yes","768","legacy","10","10","/Users/alisonbeason/Desktop/subject-0.csv","legacy","Lentiform Loewenfeld","3.3.3","0","s","NA","h","NA","NA","s","492","NA","676","NA","NA","492","2","legacy","1024","2","48000","-16","experiment","HHSHH","0","even","20311","3711","NA","NA","11355","3007","NA","NA","21374","3023","NA","NA","21489","21982","21360","21489","Flanker task","10","5614","11","yes","1024"
"83.33333333333333","83.33333333333333","499.4166666666667","499.4166666666667","black","legacy","legacy","legacy","0","incongruent","uniform","0","undefined","0","h","11","0","0","0","11","0","11","0","11","0","0","0","11","11","11","11","Fri Sep 18 15:59:29 2020","1500","The main experiment item","yes","Flankertask.osexp","/Users/alisonbeason/Desktop","no","mono","no","18","no","white","no","yes","768","legacy","11","11","/Users/alisonbeason/Desktop/subject-0.csv","legacy","Lentiform Loewenfeld","3.3.3","0","s","NA","h","NA","NA","s","379","NA","676","NA","NA","379","2","legacy","1024","2","48000","-16","experiment","SSHSS","0","even","21999","3711","NA","NA","11355","3007","NA","NA","23061","3023","NA","NA","23177","23557","23047","23177","Flanker task","10","5993","12","yes","1024"
"84.61538461538461","84.61538461538461","507.61538461538464","507.61538461538464","black","legacy","legacy","legacy","0","incongruent","uniform","1","undefined","1","h","12","0","0","0","12","0","12","0","12","0","0","0","12","12","12","12","Fri Sep 18 15:59:29 2020","1500","The main experiment item","yes","Flankertask.osexp","/Users/alisonbeason/Desktop","no","mono","no","18","no","white","no","yes","768","legacy","12","12","/Users/alisonbeason/Desktop/subject-0.csv","legacy","Lentiform Loewenfeld","3.3.3","0","h","NA","h","NA","NA","h","606","NA","676","NA","NA","606","2","legacy","1024","2","48000","-16","experiment","SSHSS","0","even","24088","3711","NA","NA","23574","3007","NA","NA","25152","3023","NA","NA","25268","25875","25138","25268","Flanker task","11","6599","13","yes","1024"
"85.71428571428571","85.71428571428571","508","508","black","legacy","legacy","legacy","0","congruent","uniform","1","undefined","1","h","13","0","0","0","13","0","13","0","13","0","0","0","13","13","13","13","Fri Sep 18 15:59:29 2020","1500","The main experiment item","yes","Flankertask.osexp","/Users/alisonbeason/Desktop","no","mono","no","18","no","white","no","yes","768","legacy","13","13","/Users/alisonbeason/Desktop/subject-0.csv","legacy","Lentiform Loewenfeld","3.3.3","0","h","NA","h","NA","NA","h","513","NA","676","NA","NA","513","2","legacy","1024","2","48000","-16","experiment","HHHHH","0","even","25892","3711","NA","NA","23574","3007","NA","NA","26975","3023","NA","NA","27094","27608","26955","27094","Flanker task","12","7112","14","yes","1024"
"86.66666666666667","86.66666666666667","509.6666666666667","509.6666666666667","black","legacy","legacy","legacy","0","congruent","uniform","1","undefined","1","h","14","0","0","0","14","0","14","0","14","0","0","0","14","14","14","14","Fri Sep 18 15:59:29 2020","1500","The main experiment item","yes","Flankertask.osexp","/Users/alisonbeason/Desktop","no","mono","no","18","no","white","no","yes","768","legacy","14","14","/Users/alisonbeason/Desktop/subject-0.csv","legacy","Lentiform Loewenfeld","3.3.3","0","h","NA","h","NA","NA","h","533","NA","676","NA","NA","533","2","legacy","1024","2","48000","-16","experiment","HHHHH","0","even","27629","3711","NA","NA","23574","3007","NA","NA","28691","3023","NA","NA","28806","29340","28677","28806","Flanker task","13","7645","15","yes","1024"
"87.5","87.5","507.3125","507.3125","black","legacy","legacy","legacy","0","incongruent","uniform","1","undefined","1","h","15","0","0","0","15","0","15","0","15","0","0","0","15","15","15","15","Fri Sep 18 15:59:29 2020","1500","The main experiment item","yes","Flankertask.osexp","/Users/alisonbeason/Desktop","no","mono","no","18","no","white","no","yes","768","legacy","15","15","/Users/alisonbeason/Desktop/subject-0.csv","legacy","Lentiform Loewenfeld","3.3.3","0","h","NA","h","NA","NA","h","472","NA","676","NA","NA","472","2","legacy","1024","2","48000","-16","experiment","SSHSS","0","even","29357","3711","NA","NA","23574","3007","NA","NA","30415","3023","NA","NA","30531","31004","30402","30531","Flanker task","14","8117","16","yes","1024"
"88.23529411764706","88.23529411764706","507.6470588235294","507.6470588235294","black","legacy","legacy","legacy","0","incongruent","uniform","1","undefined","1","s","16","0","0","0","16","0","16","0","16","0","0","0","16","16","16","16","Fri Sep 18 15:59:29 2020","1500","The main experiment item","yes","Flankertask.osexp","/Users/alisonbeason/Desktop","no","mono","no","18","no","white","no","yes","768","legacy","16","16","/Users/alisonbeason/Desktop/subject-0.csv","legacy","Lentiform Loewenfeld","3.3.3","0","s","NA","h","NA","NA","s","513","NA","676","NA","NA","513","2","legacy","1024","2","48000","-16","experiment","HHSHH","0","even","31020","3711","NA","NA","23574","3007","NA","NA","32084","3023","NA","NA","32201","32715","32070","32201","Flanker task","15","8630","17","yes","1024"
"88.88888888888889","88.88888888888889","513.3888888888889","513.3888888888889","black","legacy","legacy","legacy","0","congruent","uniform","1","undefined","1","h","17","0","0","0","17","0","17","0","17","0","0","0","17","17","17","17","Fri Sep 18 15:59:29 2020","1500","The main experiment item","yes","Flankertask.osexp","/Users/alisonbeason/Desktop","no","mono","no","18","no","white","no","yes","768","legacy","17","17","/Users/alisonbeason/Desktop/subject-0.csv","legacy","Lentiform Loewenfeld","3.3.3","0","h","NA","h","NA","NA","h","611","NA","676","NA","NA","611","2","legacy","1024","2","48000","-16","experiment","HHHHH","0","even","32731","3711","NA","NA","23574","3007","NA","NA","33793","3023","NA","NA","33908","34519","33779","33908","Flanker task","16","9241","18","yes","1024"
"89.47368421052632","89.47368421052632","512","512","black","legacy","legacy","legacy","0","incongruent","uniform","1","undefined","1","s","18","0","0","0","18","0","18","0","18","0","0","0","18","18","18","18","Fri Sep 18 15:59:29 2020","1500","The main experiment item","yes","Flankertask.osexp","/Users/alisonbeason/Desktop","no","mono","no","18","no","white","no","yes","768","legacy","18","18","/Users/alisonbeason/Desktop/subject-0.csv","legacy","Lentiform Loewenfeld","3.3.3","0","s","NA","h","NA","NA","s","487","NA","676","NA","NA","487","2","legacy","1024","2","48000","-16","experiment","HHSHH","0","even","34536","3711","NA","NA","23574","3007","NA","NA","35599","3023","NA","NA","35715","36203","35585","35715","Flanker task","17","9728","19","yes","1024"
"90","90","507.05","507.05","black","legacy","legacy","legacy","0","congruent","uniform","1","undefined","1","h","19","0","0","0","19","0","19","0","19","0","0","0","19","19","19","19","Fri Sep 18 15:59:29 2020","1500","The main experiment item","yes","Flankertask.osexp","/Users/alisonbeason/Desktop","no","mono","no","18","no","white","no","yes","768","legacy","19","19","/Users/alisonbeason/Desktop/subject-0.csv","legacy","Lentiform Loewenfeld","3.3.3","0","h","NA","h","NA","NA","h","413","NA","676","NA","NA","413","2","legacy","1024","2","48000","-16","experiment","HHHHH","0","even","36219","3711","NA","NA","23574","3007","NA","NA","37283","3023","NA","NA","37398","37812","37268","37398","Flanker task","18","10141","20","yes","1024"
"90.47619047619048","90.47619047619048","503.7142857142857","503.7142857142857","black","legacy","legacy","legacy","0","congruent","uniform","1","undefined","1","h","20","0","0","0","20","0","20","0","20","0","0","0","20","20","20","20","Fri Sep 18 15:59:29 2020","1500","The main experiment item","yes","Flankertask.osexp","/Users/alisonbeason/Desktop","no","mono","no","18","no","white","no","yes","768","legacy","20","20","/Users/alisonbeason/Desktop/subject-0.csv","legacy","Lentiform Loewenfeld","3.3.3","0","h","NA","h","NA","NA","h","437","NA","676","NA","NA","437","2","legacy","1024","2","48000","-16","experiment","HHHHH","0","even","37828","3711","NA","NA","23574","3007","NA","NA","38891","3023","NA","NA","39005","39443","38877","39005","Flanker task","19","10578","21","yes","1024"
"90.9090909090909","90.9090909090909","500.5","500.5","black","legacy","legacy","legacy","0","congruent","uniform","1","undefined","1","h","21","0","0","0","21","0","21","0","21","0","0","0","21","21","21","21","Fri Sep 18 15:59:29 2020","1500","The main experiment item","yes","Flankertask.osexp","/Users/alisonbeason/Desktop","no","mono","no","18","no","white","no","yes","768","legacy","21","21","/Users/alisonbeason/Desktop/subject-0.csv","legacy","Lentiform Loewenfeld","3.3.3","0","h","NA","h","NA","NA","h","433","NA","676","NA","NA","433","2","legacy","1024","2","48000","-16","experiment","HHHHH","0","even","39459","3711","NA","NA","23574","3007","NA","NA","40523","3023","NA","NA","40639","41074","40509","40639","Flanker task","20","11011","22","yes","1024"
"91.30434782608695","91.30434782608695","502.5652173913044","502.5652173913044","black","legacy","legacy","legacy","0","incongruent","uniform","1","undefined","1","h","22","0","0","0","22","0","22","0","22","0","0","0","22","22","22","22","Fri Sep 18 15:59:29 2020","1500","The main experiment item","yes","Flankertask.osexp","/Users/alisonbeason/Desktop","no","mono","no","18","no","white","no","yes","768","legacy","22","22","/Users/alisonbeason/Desktop/subject-0.csv","legacy","Lentiform Loewenfeld","3.3.3","0","h","NA","h","NA","NA","h","548","NA","676","NA","NA","548","2","legacy","1024","2","48000","-16","experiment","SSHSS","0","even","41089","3711","NA","NA","23574","3007","NA","NA","42153","3023","NA","NA","42269","42818","42138","42269","Flanker task","21","11559","23","yes","1024"
"91.66666666666667","91.66666666666667","499.7916666666667","499.7916666666667","black","legacy","legacy","legacy","0","congruent","uniform","1","undefined","1","s","23","0","0","0","23","0","23","0","23","0","0","0","23","23","23","23","Fri Sep 18 15:59:29 2020","1500","The main experiment item","yes","Flankertask.osexp","/Users/alisonbeason/Desktop","no","mono","no","18","no","white","no","yes","768","legacy","23","23","/Users/alisonbeason/Desktop/subject-0.csv","legacy","Lentiform Loewenfeld","3.3.3","0","s","NA","h","NA","NA","s","436","NA","676","NA","NA","436","2","legacy","1024","2","48000","-16","experiment","SSSSS","0","even","42835","3711","NA","NA","23574","3007","NA","NA","43908","3023","NA","NA","44024","44461","43888","44024","Flanker task","22","11995","24","yes","1024"
"92","92","498.76","498.76","black","legacy","legacy","legacy","0","incongruent","uniform","1","undefined","1","h","24","0","0","0","24","0","24","0","24","0","0","0","24","24","24","24","Fri Sep 18 15:59:29 2020","1500","The main experiment item","yes","Flankertask.osexp","/Users/alisonbeason/Desktop","no","mono","no","18","no","white","no","yes","768","legacy","24","24","/Users/alisonbeason/Desktop/subject-0.csv","legacy","Lentiform Loewenfeld","3.3.3","0","h","NA","h","NA","NA","h","474","NA","676","NA","NA","474","2","legacy","1024","2","48000","-16","experiment","SSHSS","0","even","44477","3711","NA","NA","23574","3007","NA","NA","45536","3023","NA","NA","45651","46126","45523","45651","Flanker task","23","12469","25","yes","1024"
"92.3076923076923","92.3076923076923","498.03846153846155","498.03846153846155","black","legacy","legacy","legacy","0","congruent","uniform","1","undefined","1","h","25","0","0","0","25","0","25","0","25","0","0","0","25","25","25","25","Fri Sep 18 15:59:29 2020","1500","The main experiment item","yes","Flankertask.osexp","/Users/alisonbeason/Desktop","no","mono","no","18","no","white","no","yes","768","legacy","25","25","/Users/alisonbeason/Desktop/subject-0.csv","legacy","Lentiform Loewenfeld","3.3.3","0","h","NA","h","NA","NA","h","480","NA","676","NA","NA","480","2","legacy","1024","2","48000","-16","experiment","HHHHH","0","even","46142","3711","NA","NA","23574","3007","NA","NA","47205","3023","NA","NA","47321","47802","47191","47321","Flanker task","24","12949","26","yes","1024"
"92.5925925925926","92.5925925925926","499.3703703703704","499.3703703703704","black","legacy","legacy","legacy","0","congruent","uniform","1","undefined","1","h","26","0","0","0","26","0","26","0","26","0","0","0","26","26","26","26","Fri Sep 18 15:59:29 2020","1500","The main experiment item","yes","Flankertask.osexp","/Users/alisonbeason/Desktop","no","mono","no","18","no","white","no","yes","768","legacy","26","26","/Users/alisonbeason/Desktop/subject-0.csv","legacy","Lentiform Loewenfeld","3.3.3","0","h","NA","h","NA","NA","h","534","NA","676","NA","NA","534","2","legacy","1024","2","48000","-16","experiment","HHHHH","0","even","47819","3711","NA","NA","23574","3007","NA","NA","48887","3023","NA","NA","49000","49535","48871","49000","Flanker task","25","13483","27","yes","1024"
"92.85714285714286","92.85714285714286","499.5357142857143","499.5357142857143","black","legacy","legacy","legacy","0","congruent","uniform","1","undefined","1","s","27","0","0","0","27","0","27","0","27","0","0","0","27","27","27","27","Fri Sep 18 15:59:29 2020","1500","The main experiment item","yes","Flankertask.osexp","/Users/alisonbeason/Desktop","no","mono","no","18","no","white","no","yes","768","legacy","27","27","/Users/alisonbeason/Desktop/subject-0.csv","legacy","Lentiform Loewenfeld","3.3.3","0","s","NA","h","NA","NA","s","504","NA","676","NA","NA","504","2","legacy","1024","2","48000","-16","experiment","SSSSS","0","even","49551","3711","NA","NA","23574","3007","NA","NA","50612","3023","NA","NA","50728","51233","50598","50727","Flanker task","26","13987","28","yes","1024"
"93.10344827586206","93.10344827586206","499.3103448275862","499.3103448275862","black","legacy","legacy","legacy","0","incongruent","uniform","1","undefined","1","s","28","0","0","0","28","0","28","0","28","0","0","0","28","28","28","28","Fri Sep 18 15:59:29 2020","1500","The main experiment item","yes","Flankertask.osexp","/Users/alisonbeason/Desktop","no","mono","no","18","no","white","no","yes","768","legacy","28","28","/Users/alisonbeason/Desktop/subject-0.csv","legacy","Lentiform Loewenfeld","3.3.3","0","s","NA","h","NA","NA","s","493","NA","676","NA","NA","493","2","legacy","1024","2","48000","-16","experiment","HHSHH","0","even","51249","3711","NA","NA","23574","3007","NA","NA","52311","3023","NA","NA","52427","52921","52297","52427","Flanker task","27","14480","29","yes","1024"
"93.33333333333333","93.33333333333333","495.96666666666664","495.96666666666664","black","legacy","legacy","legacy","0","incongruent","uniform","1","undefined","1","s","29","0","0","0","29","0","29","0","29","0","0","0","29","29","29","29","Fri Sep 18 15:59:29 2020","1500","The main experiment item","yes","Flankertask.osexp","/Users/alisonbeason/Desktop","no","mono","no","18","no","white","no","yes","768","legacy","29","29","/Users/alisonbeason/Desktop/subject-0.csv","legacy","Lentiform Loewenfeld","3.3.3","0","s","NA","h","NA","NA","s","399","NA","676","NA","NA","399","2","legacy","1024","2","48000","-16","experiment","HHSHH","0","even","52938","3711","NA","NA","23574","3007","NA","NA","54000","3023","NA","NA","54115","54515","53987","54115","Flanker task","28","14879","30","yes","1024"
"93.54838709677419","93.54838709677419","497.35483870967744","497.35483870967744","black","legacy","legacy","legacy","0","incongruent","uniform","1","undefined","1","h","30","0","0","0","30","0","30","0","30","0","0","0","30","30","30","30","Fri Sep 18 15:59:29 2020","1500","The main experiment item","yes","Flankertask.osexp","/Users/alisonbeason/Desktop","no","mono","no","18","no","white","no","yes","768","legacy","30","30","/Users/alisonbeason/Desktop/subject-0.csv","legacy","Lentiform Loewenfeld","3.3.3","0","h","NA","h","NA","NA","h","539","NA","676","NA","NA","539","2","legacy","1024","2","48000","-16","experiment","SSHSS","0","even","54532","3711","NA","NA","23574","3007","NA","NA","55596","3023","NA","NA","55711","56251","55582","55710","Flanker task","29","15418","31","yes","1024"
"93.75","93.75","500.09375","500.09375","black","legacy","legacy","legacy","0","incongruent","uniform","1","undefined","1","s","31","0","0","0","31","0","31","0","31","0","0","0","31","31","31","31","Fri Sep 18 15:59:29 2020","1500","The main experiment item","yes","Flankertask.osexp","/Users/alisonbeason/Desktop","no","mono","no","18","no","white","no","yes","768","legacy","31","31","/Users/alisonbeason/Desktop/subject-0.csv","legacy","Lentiform Loewenfeld","3.3.3","0","s","NA","h","NA","NA","s","585","NA","676","NA","NA","585","2","legacy","1024","2","48000","-16","experiment","HHSHH","0","even","56266","3711","NA","NA","23574","3007","NA","NA","57328","3023","NA","NA","57443","58029","57314","57443","Flanker task","30","16003","32","yes","1024"
"93.93939393939394","93.93939393939394","500.6060606060606","500.6060606060606","black","legacy","legacy","legacy","0","congruent","uniform","1","undefined","1","h","32","0","0","0","32","0","32","0","32","0","0","0","32","32","32","32","Fri Sep 18 15:59:29 2020","1500","The main experiment item","yes","Flankertask.osexp","/Users/alisonbeason/Desktop","no","mono","no","18","no","white","no","yes","768","legacy","32","32","/Users/alisonbeason/Desktop/subject-0.csv","legacy","Lentiform Loewenfeld","3.3.3","0","h","NA","h","NA","NA","h","517","NA","676","NA","NA","517","2","legacy","1024","2","48000","-16","experiment","HHHHH","0","even","58045","3711","NA","NA","23574","3007","NA","NA","59133","3023","NA","NA","59255","59773","59113","59255","Flanker task","31","16520","33","yes","1024"
"94.11764705882354","94.11764705882354","499.3235294117647","499.3235294117647","black","legacy","legacy","legacy","0","congruent","uniform","1","undefined","1","s","33","0","0","0","33","0","33","0","33","0","0","0","33","33","33","33","Fri Sep 18 15:59:29 2020","1500","The main experiment item","yes","Flankertask.osexp","/Users/alisonbeason/Desktop","no","mono","no","18","no","white","no","yes","768","legacy","33","33","/Users/alisonbeason/Desktop/subject-0.csv","legacy","Lentiform Loewenfeld","3.3.3","0","s","NA","h","NA","NA","s","457","NA","676","NA","NA","457","2","legacy","1024","2","48000","-16","experiment","SSSSS","0","even","59791","3711","NA","NA","23574","3007","NA","NA","60863","3023","NA","NA","60980","61438","60846","60979","Flanker task","32","16977","34","yes","1024"
"94.28571428571429","94.28571428571429","502.0571428571429","502.0571428571429","black","legacy","legacy","legacy","0","incongruent","uniform","1","undefined","1","h","34","0","0","0","34","0","34","0","34","0","0","0","34","34","34","34","Fri Sep 18 15:59:29 2020","1500","The main experiment item","yes","Flankertask.osexp","/Users/alisonbeason/Desktop","no","mono","no","18","no","white","no","yes","768","legacy","34","34","/Users/alisonbeason/Desktop/subject-0.csv","legacy","Lentiform Loewenfeld","3.3.3","0","h","NA","h","NA","NA","h","595","NA","676","NA","NA","595","2","legacy","1024","2","48000","-16","experiment","SSHSS","0","even","61452","3711","NA","NA","23574","3007","NA","NA","62516","3023","NA","NA","62631","63227","62501","62630","Flanker task","33","17572","35","yes","1024"
"94.44444444444444","94.44444444444444","499.5833333333333","499.5833333333333","black","legacy","legacy","legacy","0","congruent","uniform","1","undefined","1","s","35","0","0","0","35","0","35","0","35","0","0","0","35","35","35","35","Fri Sep 18 15:59:29 2020","1500","The main experiment item","yes","Flankertask.osexp","/Users/alisonbeason/Desktop","no","mono","no","18","no","white","no","yes","768","legacy","35","35","/Users/alisonbeason/Desktop/subject-0.csv","legacy","Lentiform Loewenfeld","3.3.3","0","s","NA","h","NA","NA","s","413","NA","676","NA","NA","413","2","legacy","1024","2","48000","-16","experiment","SSSSS","0","even","63241","3711","NA","NA","23574","3007","NA","NA","64305","3023","NA","NA","64421","64835","64290","64421","Flanker task","34","17985","36","yes","1024"
"94.5945945945946","94.5945945945946","498.5135135135135","498.5135135135135","black","legacy","legacy","legacy","0","congruent","uniform","1","undefined","1","s","36","0","0","0","36","0","36","0","36","0","0","0","36","36","36","36","Fri Sep 18 15:59:29 2020","1500","The main experiment item","yes","Flankertask.osexp","/Users/alisonbeason/Desktop","no","mono","no","18","no","white","no","yes","768","legacy","36","36","/Users/alisonbeason/Desktop/subject-0.csv","legacy","Lentiform Loewenfeld","3.3.3","0","s","NA","h","NA","NA","s","460","NA","676","NA","NA","460","2","legacy","1024","2","48000","-16","experiment","SSSSS","0","even","64850","3711","NA","NA","23574","3007","NA","NA","65914","3023","NA","NA","66028","66489","65899","66028","Flanker task","35","18445","37","yes","1024"
"94.73684210526316","94.73684210526316","495.44736842105266","495.44736842105266","black","legacy","legacy","legacy","0","congruent","uniform","1","undefined","1","s","37","0","0","0","37","0","37","0","37","0","0","0","37","37","37","37","Fri Sep 18 15:59:29 2020","1500","The main experiment item","yes","Flankertask.osexp","/Users/alisonbeason/Desktop","no","mono","no","18","no","white","no","yes","768","legacy","37","37","/Users/alisonbeason/Desktop/subject-0.csv","legacy","Lentiform Loewenfeld","3.3.3","0","s","NA","h","NA","NA","s","382","NA","676","NA","NA","382","2","legacy","1024","2","48000","-16","experiment","SSSSS","0","even","66507","3711","NA","NA","23574","3007","NA","NA","67576","3023","NA","NA","67692","68075","67561","67692","Flanker task","36","18827","38","yes","1024"
"94.87179487179488","94.87179487179488","493.1025641025641","493.1025641025641","black","legacy","legacy","legacy","0","congruent","uniform","1","undefined","1","h","38","0","0","0","38","0","38","0","38","0","0","0","38","38","38","38","Fri Sep 18 15:59:29 2020","1500","The main experiment item","yes","Flankertask.osexp","/Users/alisonbeason/Desktop","no","mono","no","18","no","white","no","yes","768","legacy","38","38","/Users/alisonbeason/Desktop/subject-0.csv","legacy","Lentiform Loewenfeld","3.3.3","0","h","NA","h","NA","NA","h","404","NA","676","NA","NA","404","2","legacy","1024","2","48000","-16","experiment","HHHHH","0","even","68090","3711","NA","NA","23574","3007","NA","NA","69153","3023","NA","NA","69268","69673","69139","69268","Flanker task","37","19231","39","yes","1024"
"95","95","492.85","492.85","black","legacy","legacy","legacy","0","congruent","uniform","1","undefined","1","s","39","0","0","0","39","0","39","0","39","0","0","0","39","39","39","39","Fri Sep 18 15:59:29 2020","1500","The main experiment item","yes","Flankertask.osexp","/Users/alisonbeason/Desktop","no","mono","no","18","no","white","no","yes","768","legacy","39","39","/Users/alisonbeason/Desktop/subject-0.csv","legacy","Lentiform Loewenfeld","3.3.3","0","s","NA","h","NA","NA","s","483","NA","676","NA","NA","483","2","legacy","1024","2","48000","-16","experiment","SSSSS","0","even","69688","3711","NA","NA","23574","3007","NA","NA","70751","3023","NA","NA","70865","71349","70737","70865","Flanker task","38","19714","40","yes","1024"
"95.1219512195122","95.1219512195122","492.5365853658537","492.5365853658537","black","legacy","legacy","legacy","0","congruent","uniform","1","undefined","1","s","40","0","0","0","40","0","40","0","40","0","0","0","40","40","40","40","Fri Sep 18 15:59:29 2020","1500","The main experiment item","yes","Flankertask.osexp","/Users/alisonbeason/Desktop","no","mono","no","18","no","white","no","yes","768","legacy","40","40","/Users/alisonbeason/Desktop/subject-0.csv","legacy","Lentiform Loewenfeld","3.3.3","0","s","NA","h","NA","NA","s","480","NA","676","NA","NA","480","2","legacy","1024","2","48000","-16","experiment","SSSSS","0","even","71364","3711","NA","NA","23574","3007","NA","NA","72429","3023","NA","NA","72544","73025","72414","72544","Flanker task","39","20194","41","yes","1024"
"95.23809523809524","95.23809523809524","490.8809523809524","490.8809523809524","black","legacy","legacy","legacy","0","congruent","uniform","1","undefined","1","h","41","0","0","0","41","0","41","0","41","0","0","0","41","41","41","41","Fri Sep 18 15:59:29 2020","1500","The main experiment item","yes","Flankertask.osexp","/Users/alisonbeason/Desktop","no","mono","no","18","no","white","no","yes","768","legacy","41","41","/Users/alisonbeason/Desktop/subject-0.csv","legacy","Lentiform Loewenfeld","3.3.3","0","h","NA","h","NA","NA","h","423","NA","676","NA","NA","423","2","legacy","1024","2","48000","-16","experiment","HHHHH","0","even","73040","3711","NA","NA","23574","3007","NA","NA","74107","3023","NA","NA","74222","74646","74091","74222","Flanker task","40","20617","42","yes","1024"
"95.34883720930233","95.34883720930233","488.16279069767444","488.16279069767444","black","legacy","legacy","legacy","0","congruent","uniform","1","undefined","1","s","42","0","0","0","42","0","42","0","42","0","0","0","42","42","42","42","Fri Sep 18 15:59:29 2020","1500","The main experiment item","yes","Flankertask.osexp","/Users/alisonbeason/Desktop","no","mono","no","18","no","white","no","yes","768","legacy","42","42","/Users/alisonbeason/Desktop/subject-0.csv","legacy","Lentiform Loewenfeld","3.3.3","0","s","NA","h","NA","NA","s","374","NA","676","NA","NA","374","2","legacy","1024","2","48000","-16","experiment","SSSSS","0","even","74661","3711","NA","NA","23574","3007","NA","NA","75730","3023","NA","NA","75846","76221","75715","75846","Flanker task","41","20991","43","yes","1024"
"93.18181818181819","93.18181818181819","484.90909090909093","484.90909090909093","black","legacy","legacy","legacy","0","congruent","uniform","0","undefined","0","h","43","0","0","0","43","0","43","0","43","0","0","0","43","43","43","43","Fri Sep 18 15:59:29 2020","1500","The main experiment item","yes","Flankertask.osexp","/Users/alisonbeason/Desktop","no","mono","no","18","no","white","no","yes","768","legacy","43","43","/Users/alisonbeason/Desktop/subject-0.csv","legacy","Lentiform Loewenfeld","3.3.3","0","s","NA","h","NA","NA","s","345","NA","676","NA","NA","345","2","legacy","1024","2","48000","-16","experiment","HHHHH","0","even","76237","3711","NA","NA","23574","3007","NA","NA","77300","3023","NA","NA","77416","77762","77286","77415","Flanker task","41","21336","44","yes","1024"
"93.33333333333333","93.33333333333333","485.7111111111111","485.7111111111111","black","legacy","legacy","legacy","0","incongruent","uniform","1","undefined","1","h","44","0","0","0","44","0","44","0","44","0","0","0","44","44","44","44","Fri Sep 18 15:59:29 2020","1500","The main experiment item","yes","Flankertask.osexp","/Users/alisonbeason/Desktop","no","mono","no","18","no","white","no","yes","768","legacy","44","44","/Users/alisonbeason/Desktop/subject-0.csv","legacy","Lentiform Loewenfeld","3.3.3","0","h","NA","h","NA","NA","h","521","NA","676","NA","NA","521","2","legacy","1024","2","48000","-16","experiment","SSHSS","0","even","78293","3711","NA","NA","77779","3007","NA","NA","79352","3023","NA","NA","79468","79990","79339","79468","Flanker task","42","21857","45","yes","1024"
"93.47826086956522","93.47826086956522","483.8695652173913","483.8695652173913","black","legacy","legacy","legacy","0","incongruent","uniform","1","undefined","1","s","45","0","0","0","45","0","45","0","45","0","0","0","45","45","45","45","Fri Sep 18 15:59:29 2020","1500","The main experiment item","yes","Flankertask.osexp","/Users/alisonbeason/Desktop","no","mono","no","18","no","white","no","yes","768","legacy","45","45","/Users/alisonbeason/Desktop/subject-0.csv","legacy","Lentiform Loewenfeld","3.3.3","0","s","NA","h","NA","NA","s","401","NA","676","NA","NA","401","2","legacy","1024","2","48000","-16","experiment","HHSHH","0","even","80005","3711","NA","NA","77779","3007","NA","NA","81069","3023","NA","NA","81185","81587","81055","81185","Flanker task","43","22258","46","yes","1024"
"91.48936170212765","91.48936170212765","480.93617021276594","480.93617021276594","black","legacy","legacy","legacy","0","incongruent","uniform","0","undefined","0","s","46","0","0","0","46","0","46","0","46","0","0","0","46","46","46","46","Fri Sep 18 15:59:29 2020","1500","The main experiment item","yes","Flankertask.osexp","/Users/alisonbeason/Desktop","no","mono","no","18","no","white","no","yes","768","legacy","46","46","/Users/alisonbeason/Desktop/subject-0.csv","legacy","Lentiform Loewenfeld","3.3.3","0","h","NA","h","NA","NA","h","346","NA","676","NA","NA","346","2","legacy","1024","2","48000","-16","experiment","HHSHH","0","even","81604","3711","NA","NA","77779","3007","NA","NA","82666","3023","NA","NA","82781","83128","82652","82781","Flanker task","43","22604","47","yes","1024"
"91.66666666666667","91.66666666666667","481.6458333333333","481.6458333333333","black","legacy","legacy","legacy","0","incongruent","uniform","1","undefined","1","h","47","0","0","0","47","0","47","0","47","0","0","0","47","47","47","47","Fri Sep 18 15:59:29 2020","1500","The main experiment item","yes","Flankertask.osexp","/Users/alisonbeason/Desktop","no","mono","no","18","no","white","no","yes","768","legacy","47","47","/Users/alisonbeason/Desktop/subject-0.csv","legacy","Lentiform Loewenfeld","3.3.3","0","h","NA","h","NA","NA","h","515","NA","676","NA","NA","515","2","legacy","1024","2","48000","-16","experiment","SSHSS","0","even","83660","3711","NA","NA","83145","3007","NA","NA","84724","3023","NA","NA","84840","85356","84710","84840","Flanker task","44","23119","48","yes","1024"
"91.83673469387755","91.83673469387755","481.59183673469386","481.59183673469386","black","legacy","legacy","legacy","0","congruent","uniform","1","undefined","1","h","48","0","0","0","48","0","48","0","48","0","0","0","48","48","48","48","Fri Sep 18 15:59:29 2020","1500","The main experiment item","yes","Flankertask.osexp","/Users/alisonbeason/Desktop","no","mono","no","18","no","white","no","yes","768","legacy","48","48","/Users/alisonbeason/Desktop/subject-0.csv","legacy","Lentiform Loewenfeld","3.3.3","0","h","NA","h","NA","NA","h","479","NA","676","NA","NA","479","2","legacy","1024","2","48000","-16","experiment","HHHHH","0","even","85372","3711","NA","NA","83145","3007","NA","NA","86436","3023","NA","NA","86551","87031","86422","86551","Flanker task","45","23598","49","yes","1024"
"92","92","483.58","483.58","black","legacy","legacy","legacy","0","incongruent","uniform","1","undefined","1","h","49","0","0","0","49","0","49","0","49","0","0","0","49","49","49","49","Fri Sep 18 15:59:29 2020","1500","The main experiment item","yes","Flankertask.osexp","/Users/alisonbeason/Desktop","no","mono","no","18","no","white","no","yes","768","legacy","49","49","/Users/alisonbeason/Desktop/subject-0.csv","legacy","Lentiform Loewenfeld","3.3.3","0","h","NA","h","NA","NA","h","581","NA","676","NA","NA","581","2","legacy","1024","2","48000","-16","experiment","SSHSS","0","even","87048","3711","NA","NA","83145","3007","NA","NA","88111","3023","NA","NA","88228","88810","88097","88227","Flanker task","46","24179","50","yes","1024"
"92.15686274509804","92.15686274509804","483.54901960784315","483.54901960784315","black","legacy","legacy","legacy","0","congruent","uniform","1","undefined","1","s","50","0","0","0","50","0","50","0","50","0","0","0","50","50","50","50","Fri Sep 18 15:59:29 2020","1500","The main experiment item","yes","Flankertask.osexp","/Users/alisonbeason/Desktop","no","mono","no","18","no","white","no","yes","768","legacy","50","50","/Users/alisonbeason/Desktop/subject-0.csv","legacy","Lentiform Loewenfeld","3.3.3","0","s","NA","h","NA","NA","s","482","NA","676","NA","NA","482","2","legacy","1024","2","48000","-16","experiment","SSSSS","0","even","88827","3711","NA","NA","83145","3007","NA","NA","89889","3023","NA","NA","90003","90486","89875","90003","Flanker task","47","24661","51","yes","1024"
"92.3076923076923","92.3076923076923","483.8076923076923","483.8076923076923","black","legacy","legacy","legacy","0","incongruent","uniform","1","undefined","1","s","51","0","0","0","51","0","51","0","51","0","0","0","51","51","51","51","Fri Sep 18 15:59:29 2020","1500","The main experiment item","yes","Flankertask.osexp","/Users/alisonbeason/Desktop","no","mono","no","18","no","white","no","yes","768","legacy","51","51","/Users/alisonbeason/Desktop/subject-0.csv","legacy","Lentiform Loewenfeld","3.3.3","0","s","NA","h","NA","NA","s","497","NA","676","NA","NA","497","2","legacy","1024","2","48000","-16","experiment","HHSHH","0","even","90503","3711","NA","NA","83145","3007","NA","NA","91571","3023","NA","NA","91687","92185","91554","91687","Flanker task","48","25158","52","yes","1024"
"92.45283018867924","92.45283018867924","483.37735849056605","483.37735849056605","black","legacy","legacy","legacy","0","congruent","uniform","1","undefined","1","h","52","0","0","0","52","0","52","0","52","0","0","0","52","52","52","52","Fri Sep 18 15:59:29 2020","1500","The main experiment item","yes","Flankertask.osexp","/Users/alisonbeason/Desktop","no","mono","no","18","no","white","no","yes","768","legacy","52","52","/Users/alisonbeason/Desktop/subject-0.csv","legacy","Lentiform Loewenfeld","3.3.3","0","h","NA","h","NA","NA","h","461","NA","676","NA","NA","461","2","legacy","1024","2","48000","-16","experiment","HHHHH","0","even","92200","3711","NA","NA","83145","3007","NA","NA","93261","3023","NA","NA","93377","93839","93247","93377","Flanker task","49","25619","53","yes","1024"
"92.5925925925926","92.5925925925926","483.98148148148147","483.98148148148147","black","legacy","legacy","legacy","0","incongruent","uniform","1","undefined","1","s","53","0","0","0","53","0","53","0","53","0","0","0","53","53","53","53","Fri Sep 18 15:59:29 2020","1500","The main experiment item","yes","Flankertask.osexp","/Users/alisonbeason/Desktop","no","mono","no","18","no","white","no","yes","768","legacy","53","53","/Users/alisonbeason/Desktop/subject-0.csv","legacy","Lentiform Loewenfeld","3.3.3","0","s","NA","h","NA","NA","s","516","NA","676","NA","NA","516","2","legacy","1024","2","48000","-16","experiment","HHSHH","0","even","93855","3711","NA","NA","83145","3007","NA","NA","94918","3023","NA","NA","95032","95549","94904","95032","Flanker task","50","26135","54","yes","1024"
"92.72727272727273","92.72727272727273","484.1454545454545","484.1454545454545","black","legacy","legacy","legacy","0","congruent","uniform","1","undefined","1","h","54","0","0","0","54","0","54","0","54","0","0","0","54","54","54","54","Fri Sep 18 15:59:29 2020","1500","The main experiment item","yes","Flankertask.osexp","/Users/alisonbeason/Desktop","no","mono","no","18","no","white","no","yes","768","legacy","54","54","/Users/alisonbeason/Desktop/subject-0.csv","legacy","Lentiform Loewenfeld","3.3.3","0","h","NA","h","NA","NA","h","493","NA","676","NA","NA","493","2","legacy","1024","2","48000","-16","experiment","HHHHH","0","even","95566","3711","NA","NA","83145","3007","NA","NA","96627","3023","NA","NA","96742","97237","96613","96742","Flanker task","51","26628","55","yes","1024"
"92.85714285714286","92.85714285714286","484.42857142857144","484.42857142857144","black","legacy","legacy","legacy","0","congruent","uniform","1","undefined","1","h","55","0","0","0","55","0","55","0","55","0","0","0","55","55","55","55","Fri Sep 18 15:59:29 2020","1500","The main experiment item","yes","Flankertask.osexp","/Users/alisonbeason/Desktop","no","mono","no","18","no","white","no","yes","768","legacy","55","55","/Users/alisonbeason/Desktop/subject-0.csv","legacy","Lentiform Loewenfeld","3.3.3","0","h","NA","h","NA","NA","h","500","NA","676","NA","NA","500","2","legacy","1024","2","48000","-16","experiment","HHHHH","0","even","97253","3711","NA","NA","83145","3007","NA","NA","98318","3023","NA","NA","98434","98935","98303","98434","Flanker task","52","27128","56","yes","1024"
"92.98245614035088","92.98245614035088","486.1578947368421","486.1578947368421","black","legacy","legacy","legacy","0","congruent","uniform","1","undefined","1","h","56","0","0","0","56","0","56","0","56","0","0","0","56","56","56","56","Fri Sep 18 15:59:29 2020","1500","The main experiment item","yes","Flankertask.osexp","/Users/alisonbeason/Desktop","no","mono","no","18","no","white","no","yes","768","legacy","56","56","/Users/alisonbeason/Desktop/subject-0.csv","legacy","Lentiform Loewenfeld","3.3.3","0","h","NA","h","NA","NA","h","583","NA","676","NA","NA","583","2","legacy","1024","2","48000","-16","experiment","HHHHH","0","even","98951","3711","NA","NA","83145","3007","NA","NA","100012","3023","NA","NA","100129","100713","99999","100129","Flanker task","53","27711","57","yes","1024"
"93.10344827586206","93.10344827586206","487.2413793103448","487.2413793103448","black","legacy","legacy","legacy","0","congruent","uniform","1","undefined","1","s","57","0","0","0","57","0","57","0","57","0","0","0","57","57","57","57","Fri Sep 18 15:59:29 2020","1500","The main experiment item","yes","Flankertask.osexp","/Users/alisonbeason/Desktop","no","mono","no","18","no","white","no","yes","768","legacy","57","57","/Users/alisonbeason/Desktop/subject-0.csv","legacy","Lentiform Loewenfeld","3.3.3","0","s","NA","h","NA","NA","s","549","NA","676","NA","NA","549","2","legacy","1024","2","48000","-16","experiment","SSSSS","0","even","100729","3711","NA","NA","83145","3007","NA","NA","101792","3023","NA","NA","101907","102457","101777","101907","Flanker task","54","28260","58","yes","1024"
"93.22033898305085","93.22033898305085","486.93220338983053","486.93220338983053","black","legacy","legacy","legacy","0","incongruent","uniform","1","undefined","1","s","58","0","0","0","58","0","58","0","58","0","0","0","58","58","58","58","Fri Sep 18 15:59:29 2020","1500","The main experiment item","yes","Flankertask.osexp","/Users/alisonbeason/Desktop","no","mono","no","18","no","white","no","yes","768","legacy","58","58","/Users/alisonbeason/Desktop/subject-0.csv","legacy","Lentiform Loewenfeld","3.3.3","0","s","NA","h","NA","NA","s","469","NA","676","NA","NA","469","2","legacy","1024","2","48000","-16","experiment","HHSHH","0","even","102473","3711","NA","NA","83145","3007","NA","NA","103535","3023","NA","NA","103651","104121","103521","103651","Flanker task","55","28729","59","yes","1024"
"93.33333333333333","93.33333333333333","487.75","487.75","black","legacy","legacy","legacy","0","incongruent","uniform","1","undefined","1","h","59","0","0","0","59","0","59","0","59","0","0","0","59","59","59","59","Fri Sep 18 15:59:29 2020","1500","The main experiment item","yes","Flankertask.osexp","/Users/alisonbeason/Desktop","no","mono","no","18","no","white","no","yes","768","legacy","59","59","/Users/alisonbeason/Desktop/subject-0.csv","legacy","Lentiform Loewenfeld","3.3.3","0","h","NA","h","NA","NA","h","536","NA","676","NA","NA","536","2","legacy","1024","2","48000","-16","experiment","SSHSS","0","even","104138","3711","NA","NA","83145","3007","NA","NA","105202","3023","NA","NA","105317","105854","105187","105317","Flanker task","56","29265","60","yes","1024"
"93.44262295081967","93.44262295081967","487.1639344262295","487.1639344262295","black","legacy","legacy","legacy","0","incongruent","uniform","1","undefined","1","h","60","0","0","0","60","0","60","0","60","0","0","0","60","60","60","60","Fri Sep 18 15:59:29 2020","1500","The main experiment item","yes","Flankertask.osexp","/Users/alisonbeason/Desktop","no","mono","no","18","no","white","no","yes","768","legacy","60","60","/Users/alisonbeason/Desktop/subject-0.csv","legacy","Lentiform Loewenfeld","3.3.3","0","h","NA","h","NA","NA","h","452","NA","676","NA","NA","452","2","legacy","1024","2","48000","-16","experiment","SSHSS","0","even","105871","3711","NA","NA","83145","3007","NA","NA","106934","3023","NA","NA","107048","107502","106920","107048","Flanker task","57","29717","61","yes","1024"
"93.54838709677419","93.54838709677419","486.85483870967744","486.85483870967744","black","legacy","legacy","legacy","0","congruent","uniform","1","undefined","1","s","61","0","0","0","61","0","61","0","61","0","0","0","61","61","61","61","Fri Sep 18 15:59:29 2020","1500","The main experiment item","yes","Flankertask.osexp","/Users/alisonbeason/Desktop","no","mono","no","18","no","white","no","yes","768","legacy","61","61","/Users/alisonbeason/Desktop/subject-0.csv","legacy","Lentiform Loewenfeld","3.3.3","0","s","NA","h","NA","NA","s","468","NA","676","NA","NA","468","2","legacy","1024","2","48000","-16","experiment","SSSSS","0","even","107523","3711","NA","NA","83145","3007","NA","NA","108607","3023","NA","NA","108726","109197","108587","108726","Flanker task","58","30185","62","yes","1024"
"93.65079365079364","93.65079365079364","487.2063492063492","487.2063492063492","black","legacy","legacy","legacy","0","incongruent","uniform","1","undefined","1","s","62","0","0","0","62","0","62","0","62","0","0","0","62","62","62","62","Fri Sep 18 15:59:29 2020","1500","The main experiment item","yes","Flankertask.osexp","/Users/alisonbeason/Desktop","no","mono","no","18","no","white","no","yes","768","legacy","62","62","/Users/alisonbeason/Desktop/subject-0.csv","legacy","Lentiform Loewenfeld","3.3.3","0","s","NA","h","NA","NA","s","509","NA","676","NA","NA","509","2","legacy","1024","2","48000","-16","experiment","HHSHH","0","even","109225","3711","NA","NA","83145","3007","NA","NA","110310","3023","NA","NA","110430","110940","110289","110430","Flanker task","59","30694","63","yes","1024"
"93.75","93.75","488.84375","488.84375","black","legacy","legacy","legacy","0","incongruent","uniform","1","undefined","1","h","63","0","0","0","63","0","63","0","63","0","0","0","63","63","63","63","Fri Sep 18 15:59:29 2020","1500","The main experiment item","yes","Flankertask.osexp","/Users/alisonbeason/Desktop","no","mono","no","18","no","white","no","yes","768","legacy","63","63","/Users/alisonbeason/Desktop/subject-0.csv","legacy","Lentiform Loewenfeld","3.3.3","0","h","NA","h","NA","NA","h","592","NA","676","NA","NA","592","2","legacy","1024","2","48000","-16","experiment","SSHSS","0","even","110965","3711","NA","NA","83145","3007","NA","NA","112048","3023","NA","NA","112169","112763","112025","112169","Flanker task","60","31286","64","yes","1024"
"93.84615384615384","93.84615384615384","490.5230769230769","490.5230769230769","black","legacy","legacy","legacy","0","incongruent","uniform","1","undefined","1","s","64","0","0","0","64","0","64","0","64","0","0","0","64","64","64","64","Fri Sep 18 15:59:29 2020","1500","The main experiment item","yes","Flankertask.osexp","/Users/alisonbeason/Desktop","no","mono","no","18","no","white","no","yes","768","legacy","64","64","/Users/alisonbeason/Desktop/subject-0.csv","legacy","Lentiform Loewenfeld","3.3.3","0","s","NA","h","NA","NA","s","598","NA","676","NA","NA","598","2","legacy","1024","2","48000","-16","experiment","HHSHH","0","even","112785","3711","NA","NA","83145","3007","NA","NA","113876","3023","NA","NA","113997","114597","113852","113997","Flanker task","61","31884","65","yes","1024"
"93.93939393939394","93.93939393939394","490.8636363636364","490.8636363636364","black","legacy","legacy","legacy","0","incongruent","uniform","1","undefined","1","s","65","0","0","0","65","0","65","0","65","0","0","0","65","65","65","65","Fri Sep 18 15:59:29 2020","1500","The main experiment item","yes","Flankertask.osexp","/Users/alisonbeason/Desktop","no","mono","no","18","no","white","no","yes","768","legacy","65","65","/Users/alisonbeason/Desktop/subject-0.csv","legacy","Lentiform Loewenfeld","3.3.3","0","s","NA","h","NA","NA","s","513","NA","676","NA","NA","513","2","legacy","1024","2","48000","-16","experiment","HHSHH","0","even","114617","3711","NA","NA","83145","3007","NA","NA","115697","3023","NA","NA","115815","116333","115678","115815","Flanker task","62","32397","66","yes","1024"
"94.02985074626865","94.02985074626865","490.4925373134328","490.4925373134328","black","legacy","legacy","legacy","0","incongruent","uniform","1","undefined","1","s","66","0","0","0","66","0","66","0","66","0","0","0","66","66","66","66","Fri Sep 18 15:59:29 2020","1500","The main experiment item","yes","Flankertask.osexp","/Users/alisonbeason/Desktop","no","mono","no","18","no","white","no","yes","768","legacy","66","66","/Users/alisonbeason/Desktop/subject-0.csv","legacy","Lentiform Loewenfeld","3.3.3","0","s","NA","h","NA","NA","s","466","NA","676","NA","NA","466","2","legacy","1024","2","48000","-16","experiment","HHSHH","0","even","116371","3711","NA","NA","83145","3007","NA","NA","117452","3023","NA","NA","117571","118039","117434","117570","Flanker task","63","32863","67","yes","1024"
"94.11764705882354","94.11764705882354","493.04411764705884","493.04411764705884","black","legacy","legacy","legacy","0","congruent","uniform","1","undefined","1","s","67","0","0","0","67","0","67","0","67","0","0","0","67","67","67","67","Fri Sep 18 15:59:29 2020","1500","The main experiment item","yes","Flankertask.osexp","/Users/alisonbeason/Desktop","no","mono","no","18","no","white","no","yes","768","legacy","67","67","/Users/alisonbeason/Desktop/subject-0.csv","legacy","Lentiform Loewenfeld","3.3.3","0","s","NA","h","NA","NA","s","664","NA","676","NA","NA","664","2","legacy","1024","2","48000","-16","experiment","SSSSS","0","even","118055","3711","NA","NA","83145","3007","NA","NA","119138","3023","NA","NA","119252","119918","119115","119251","Flanker task","64","33527","68","yes","1024"
"94.20289855072464","94.20289855072464","492.82608695652175","492.82608695652175","black","legacy","legacy","legacy","0","incongruent","uniform","1","undefined","1","s","68","0","0","0","68","0","68","0","68","0","0","0","68","68","68","68","Fri Sep 18 15:59:29 2020","1500","The main experiment item","yes","Flankertask.osexp","/Users/alisonbeason/Desktop","no","mono","no","18","no","white","no","yes","768","legacy","68","68","/Users/alisonbeason/Desktop/subject-0.csv","legacy","Lentiform Loewenfeld","3.3.3","0","s","NA","h","NA","NA","s","478","NA","676","NA","NA","478","2","legacy","1024","2","48000","-16","experiment","HHSHH","0","even","119934","3711","NA","NA","83145","3007","NA","NA","121000","3023","NA","NA","121115","121594","120985","121115","Flanker task","65","34005","69","yes","1024"
"94.28571428571429","94.28571428571429","494.2142857142857","494.2142857142857","black","legacy","legacy","legacy","0","incongruent","uniform","1","undefined","1","h","69","0","0","0","69","0","69","0","69","0","0","0","69","69","69","69","Fri Sep 18 15:59:29 2020","1500","The main experiment item","yes","Flankertask.osexp","/Users/alisonbeason/Desktop","no","mono","no","18","no","white","no","yes","768","legacy","69","69","/Users/alisonbeason/Desktop/subject-0.csv","legacy","Lentiform Loewenfeld","3.3.3","0","h","NA","h","NA","NA","h","590","NA","676","NA","NA","590","2","legacy","1024","2","48000","-16","experiment","SSHSS","0","even","121609","3711","NA","NA","83145","3007","NA","NA","122678","3023","NA","NA","122792","123383","122662","122792","Flanker task","66","34595","70","yes","1024"
"94.36619718309859","94.36619718309859","497.0845070422535","497.0845070422535","black","legacy","legacy","legacy","0","incongruent","uniform","1","undefined","1","h","70","0","0","0","70","0","70","0","70","0","0","0","70","70","70","70","Fri Sep 18 15:59:29 2020","1500","The main experiment item","yes","Flankertask.osexp","/Users/alisonbeason/Desktop","no","mono","no","18","no","white","no","yes","768","legacy","70","70","/Users/alisonbeason/Desktop/subject-0.csv","legacy","Lentiform Loewenfeld","3.3.3","0","h","NA","h","NA","NA","h","698","NA","676","NA","NA","698","2","legacy","1024","2","48000","-16","experiment","SSHSS","0","even","123397","3711","NA","NA","83145","3007","NA","NA","124460","3023","NA","NA","124574","125273","124444","124574","Flanker task","67","35293","71","yes","1024"
"94.44444444444444","94.44444444444444","498.7916666666667","498.7916666666667","black","legacy","legacy","legacy","0","incongruent","uniform","1","undefined","1","s","71","0","0","0","71","0","71","0","71","0","0","0","71","71","71","71","Fri Sep 18 15:59:29 2020","1500","The main experiment item","yes","Flankertask.osexp","/Users/alisonbeason/Desktop","no","mono","no","18","no","white","no","yes","768","legacy","71","71","/Users/alisonbeason/Desktop/subject-0.csv","legacy","Lentiform Loewenfeld","3.3.3","0","s","NA","h","NA","NA","s","620","NA","676","NA","NA","620","2","legacy","1024","2","48000","-16","experiment","HHSHH","0","even","125287","3711","NA","NA","83145","3007","NA","NA","126348","3023","NA","NA","126462","127083","126334","126462","Flanker task","68","35913","72","yes","1024"
"94.52054794520548","94.52054794520548","498.93150684931504","498.93150684931504","black","legacy","legacy","legacy","0","incongruent","uniform","1","undefined","1","s","72","0","0","0","72","0","72","0","72","0","0","0","72","72","72","72","Fri Sep 18 15:59:29 2020","1500","The main experiment item","yes","Flankertask.osexp","/Users/alisonbeason/Desktop","no","mono","no","18","no","white","no","yes","768","legacy","72","72","/Users/alisonbeason/Desktop/subject-0.csv","legacy","Lentiform Loewenfeld","3.3.3","0","s","NA","h","NA","NA","s","509","NA","676","NA","NA","509","2","legacy","1024","2","48000","-16","experiment","HHSHH","0","even","127098","3711","NA","NA","83145","3007","NA","NA","128159","3023","NA","NA","128273","128783","128145","128273","Flanker task","69","36422","73","yes","1024"
"94.5945945945946","94.5945945945946","499.2837837837838","499.2837837837838","black","legacy","legacy","legacy","0","incongruent","uniform","1","undefined","1","h","73","0","0","0","73","0","73","0","73","0","0","0","73","73","73","73","Fri Sep 18 15:59:29 2020","1500","The main experiment item","yes","Flankertask.osexp","/Users/alisonbeason/Desktop","no","mono","no","18","no","white","no","yes","768","legacy","73","73","/Users/alisonbeason/Desktop/subject-0.csv","legacy","Lentiform Loewenfeld","3.3.3","0","h","NA","h","NA","NA","h","525","NA","676","NA","NA","525","2","legacy","1024","2","48000","-16","experiment","SSHSS","0","even","128799","3711","NA","NA","83145","3007","NA","NA","129863","3023","NA","NA","129978","130504","129848","129978","Flanker task","70","36947","74","yes","1024"
"94.66666666666667","94.66666666666667","499.94666666666666","499.94666666666666","black","legacy","legacy","legacy","0","congruent","uniform","1","undefined","1","s","74","0","0","0","74","0","74","0","74","0","0","0","74","74","74","74","Fri Sep 18 15:59:29 2020","1500","The main experiment item","yes","Flankertask.osexp","/Users/alisonbeason/Desktop","no","mono","no","18","no","white","no","yes","768","legacy","74","74","/Users/alisonbeason/Desktop/subject-0.csv","legacy","Lentiform Loewenfeld","3.3.3","0","s","NA","h","NA","NA","s","549","NA","676","NA","NA","549","2","legacy","1024","2","48000","-16","experiment","SSSSS","0","even","130520","3711","NA","NA","83145","3007","NA","NA","131583","3023","NA","NA","131698","132248","131569","131698","Flanker task","71","37496","75","yes","1024"
"94.73684210526316","94.73684210526316","502.67105263157896","502.67105263157896","black","legacy","legacy","legacy","0","incongruent","uniform","1","undefined","1","h","75","0","0","0","75","0","75","0","75","0","0","0","75","75","75","75","Fri Sep 18 15:59:29 2020","1500","The main experiment item","yes","Flankertask.osexp","/Users/alisonbeason/Desktop","no","mono","no","18","no","white","no","yes","768","legacy","75","75","/Users/alisonbeason/Desktop/subject-0.csv","legacy","Lentiform Loewenfeld","3.3.3","0","h","NA","h","NA","NA","h","707","NA","676","NA","NA","707","2","legacy","1024","2","48000","-16","experiment","SSHSS","0","even","132264","3711","NA","NA","83145","3007","NA","NA","133327","3023","NA","NA","133441","134149","133312","133441","Flanker task","72","38203","76","yes","1024"
"94.8051948051948","94.8051948051948","503.72727272727275","503.72727272727275","black","legacy","legacy","legacy","0","congruent","uniform","1","undefined","1","h","76","0","0","0","76","0","76","0","76","0","0","0","76","76","76","76","Fri Sep 18 15:59:29 2020","1500","The main experiment item","yes","Flankertask.osexp","/Users/alisonbeason/Desktop","no","mono","no","18","no","white","no","yes","768","legacy","76","76","/Users/alisonbeason/Desktop/subject-0.csv","legacy","Lentiform Loewenfeld","3.3.3","0","h","NA","h","NA","NA","h","584","NA","676","NA","NA","584","2","legacy","1024","2","48000","-16","experiment","HHHHH","0","even","134164","3711","NA","NA","83145","3007","NA","NA","135227","3023","NA","NA","135342","135927","135213","135341","Flanker task","73","38787","77","yes","1024"
"94.87179487179488","94.87179487179488","504.1666666666667","504.1666666666667","black","legacy","legacy","legacy","0","incongruent","uniform","1","undefined","1","h","77","0","0","0","77","0","77","0","77","0","0","0","77","77","77","77","Fri Sep 18 15:59:29 2020","1500","The main experiment item","yes","Flankertask.osexp","/Users/alisonbeason/Desktop","no","mono","no","18","no","white","no","yes","768","legacy","77","77","/Users/alisonbeason/Desktop/subject-0.csv","legacy","Lentiform Loewenfeld","3.3.3","0","h","NA","h","NA","NA","h","538","NA","676","NA","NA","538","2","legacy","1024","2","48000","-16","experiment","SSHSS","0","even","135943","3711","NA","NA","83145","3007","NA","NA","137005","3023","NA","NA","137120","137659","136991","137120","Flanker task","74","39325","78","yes","1024"
"94.9367088607595","94.9367088607595","503","503","black","legacy","legacy","legacy","0","incongruent","uniform","1","undefined","1","s","78","0","0","0","78","0","78","0","78","0","0","0","78","78","78","78","Fri Sep 18 15:59:29 2020","1500","The main experiment item","yes","Flankertask.osexp","/Users/alisonbeason/Desktop","no","mono","no","18","no","white","no","yes","768","legacy","78","78","/Users/alisonbeason/Desktop/subject-0.csv","legacy","Lentiform Loewenfeld","3.3.3","0","s","NA","h","NA","NA","s","412","NA","676","NA","NA","412","2","legacy","1024","2","48000","-16","experiment","HHSHH","0","even","137677","3711","NA","NA","83145","3007","NA","NA","138740","3023","NA","NA","138855","139268","138725","138855","Flanker task","75","39737","79","yes","1024"
"95","95","503.9625","503.9625","black","legacy","legacy","legacy","0","congruent","uniform","1","undefined","1","h","79","0","0","0","79","0","79","0","79","0","0","0","79","79","79","79","Fri Sep 18 15:59:29 2020","1500","The main experiment item","yes","Flankertask.osexp","/Users/alisonbeason/Desktop","no","mono","no","18","no","white","no","yes","768","legacy","79","79","/Users/alisonbeason/Desktop/subject-0.csv","legacy","Lentiform Loewenfeld","3.3.3","0","h","NA","h","NA","NA","h","580","NA","676","NA","NA","580","2","legacy","1024","2","48000","-16","experiment","HHHHH","0","even","139284","3711","NA","NA","83145","3007","NA","NA","140349","3023","NA","NA","140464","141045","140334","140464","Flanker task","76","40317","80","yes","1024"
"95.06172839506173","95.06172839506173","512.1604938271605","512.1604938271605","black","legacy","legacy","legacy","0","incongruent","uniform","1","undefined","1","s","80","0","0","0","80","0","80","0","80","0","0","0","80","80","80","80","Fri Sep 18 15:59:29 2020","600","The main experiment item","yes","Flankertask.osexp","/Users/alisonbeason/Desktop","no","mono","no","18","no","white","no","yes","768","legacy","0","79","/Users/alisonbeason/Desktop/subject-0.csv","legacy","Lentiform Loewenfeld","3.3.3","0","s","NA","h","s","NA","s","1168","NA","676","13142","NA","1168","2","legacy","1024","2","48000","-16","experiment","HHSHH","0","even","141061","3711","155244","NA","83145","3007","NA","NA","155287","3023","142101","NA","155402","156572","155273","155402","Flanker task","77","41485","81","yes","1024"
"95.1219512195122","95.1219512195122","510.9756097560976","510.9756097560976","black","legacy","legacy","legacy","0","incongruent","uniform","1","undefined","1","h","81","0","0","0","81","0","81","0","81","0","0","0","81","81","81","81","Fri Sep 18 15:59:29 2020","600","The main experiment item","yes","Flankertask.osexp","/Users/alisonbeason/Desktop","no","mono","no","18","no","white","no","yes","768","legacy","1","79","/Users/alisonbeason/Desktop/subject-0.csv","legacy","Lentiform Loewenfeld","3.3.3","0","h","NA","h","s","NA","h","415","NA","676","13142","NA","415","2","legacy","1024","2","48000","-16","experiment","SSHSS","0","even","157102","3711","155244","NA","83145","3007","156588","NA","158166","3023","142101","NA","158282","158698","158152","158281","Flanker task","78","41900","82","yes","1024"
"95.18072289156626","95.18072289156626","508.9879518072289","508.9879518072289","black","legacy","legacy","legacy","0","congruent","uniform","1","undefined","1","s","82","0","0","0","82","0","82","0","82","0","0","0","82","82","82","82","Fri Sep 18 15:59:29 2020","600","The main experiment item","yes","Flankertask.osexp","/Users/alisonbeason/Desktop","no","mono","no","18","no","white","no","yes","768","legacy","2","79","/Users/alisonbeason/Desktop/subject-0.csv","legacy","Lentiform Loewenfeld","3.3.3","0","s","NA","h","s","NA","s","346","NA","676","13142","NA","346","2","legacy","1024","2","48000","-16","experiment","SSSSS","0","even","158714","3711","155244","NA","83145","3007","156588","NA","159777","3023","142101","NA","159892","160239","159763","159892","Flanker task","79","42246","83","yes","1024"
"94.04761904761905","94.04761904761905","506.7738095238095","506.7738095238095","black","legacy","legacy","legacy","0","incongruent","uniform","0","undefined","0","h","83","0","0","0","83","0","83","0","83","0","0","0","83","83","83","83","Fri Sep 18 15:59:29 2020","600","The main experiment item","yes","Flankertask.osexp","/Users/alisonbeason/Desktop","no","mono","no","18","no","white","no","yes","768","legacy","3","79","/Users/alisonbeason/Desktop/subject-0.csv","legacy","Lentiform Loewenfeld","3.3.3","0","s","NA","h","s","NA","s","323","NA","676","13142","NA","323","2","legacy","1024","2","48000","-16","experiment","SSHSS","0","even","160255","3711","155244","NA","83145","3007","156588","NA","161318","3023","142101","NA","161434","161758","161303","161434","Flanker task","79","42569","84","yes","1024"
"94.11764705882354","94.11764705882354","506.77647058823527","506.77647058823527","black","legacy","legacy","legacy","0","congruent","uniform","1","undefined","1","s","84","0","0","0","84","0","84","0","84","0","0","0","84","84","84","84","Fri Sep 18 15:59:29 2020","600","The main experiment item","yes","Flankertask.osexp","/Users/alisonbeason/Desktop","no","mono","no","18","no","white","no","yes","768","legacy","4","79","/Users/alisonbeason/Desktop/subject-0.csv","legacy","Lentiform Loewenfeld","3.3.3","0","s","NA","h","s","NA","s","507","NA","676","13142","NA","507","2","legacy","1024","2","48000","-16","experiment","SSSSS","0","even","162288","3711","155244","NA","161774","3007","156588","NA","163350","3023","142101","NA","163466","163974","163336","163466","Flanker task","80","43076","85","yes","1024"
"94.18604651162791","94.18604651162791","506.63953488372096","506.63953488372096","black","legacy","legacy","legacy","0","incongruent","uniform","1","undefined","1","s","85","0","0","0","85","0","85","0","85","0","0","0","85","85","85","85","Fri Sep 18 15:59:29 2020","600","The main experiment item","yes","Flankertask.osexp","/Users/alisonbeason/Desktop","no","mono","no","18","no","white","no","yes","768","legacy","5","79","/Users/alisonbeason/Desktop/subject-0.csv","legacy","Lentiform Loewenfeld","3.3.3","0","s","NA","h","s","NA","s","495","NA","676","13142","NA","495","2","legacy","1024","2","48000","-16","experiment","HHSHH","0","even","163989","3711","155244","NA","161774","3007","156588","NA","165051","3023","142101","NA","165165","165662","165037","165165","Flanker task","81","43571","86","yes","1024"
"94.25287356321839","94.25287356321839","506.3333333333333","506.3333333333333","black","legacy","legacy","legacy","0","incongruent","uniform","1","undefined","1","s","86","0","0","0","86","0","86","0","86","0","0","0","86","86","86","86","Fri Sep 18 15:59:29 2020","600","The main experiment item","yes","Flankertask.osexp","/Users/alisonbeason/Desktop","no","mono","no","18","no","white","no","yes","768","legacy","6","79","/Users/alisonbeason/Desktop/subject-0.csv","legacy","Lentiform Loewenfeld","3.3.3","0","s","NA","h","s","NA","s","480","NA","676","13142","NA","480","2","legacy","1024","2","48000","-16","experiment","HHSHH","0","even","165678","3711","155244","NA","161774","3007","156588","NA","166741","3023","142101","NA","166857","167338","166727","166857","Flanker task","82","44051","87","yes","1024"
"93.18181818181819","93.18181818181819","504.65909090909093","504.65909090909093","black","legacy","legacy","legacy","0","incongruent","uniform","0","undefined","0","h","87","0","0","0","87","0","87","0","87","0","0","0","87","87","87","87","Fri Sep 18 15:59:29 2020","600","The main experiment item","yes","Flankertask.osexp","/Users/alisonbeason/Desktop","no","mono","no","18","no","white","no","yes","768","legacy","7","79","/Users/alisonbeason/Desktop/subject-0.csv","legacy","Lentiform Loewenfeld","3.3.3","0","s","NA","h","s","NA","s","359","NA","676","13142","NA","359","2","legacy","1024","2","48000","-16","experiment","SSHSS","0","even","167354","3711","155244","NA","161774","3007","156588","NA","168417","3023","142101","NA","168531","168891","168403","168531","Flanker task","82","44410","88","yes","1024"
"93.25842696629213","93.25842696629213","504.92134831460675","504.92134831460675","black","legacy","legacy","legacy","0","incongruent","uniform","1","undefined","1","s","88","0","0","0","88","0","88","0","88","0","0","0","88","88","88","88","Fri Sep 18 15:59:29 2020","600","The main experiment item","yes","Flankertask.osexp","/Users/alisonbeason/Desktop","no","mono","no","18","no","white","no","yes","768","legacy","8","79","/Users/alisonbeason/Desktop/subject-0.csv","legacy","Lentiform Loewenfeld","3.3.3","0","s","NA","h","s","NA","s","528","NA","676","13142","NA","528","2","legacy","1024","2","48000","-16","experiment","HHSHH","0","even","169422","3711","155244","NA","168907","3007","156588","NA","170484","3023","142101","NA","170600","171129","170470","170599","Flanker task","83","44938","89","yes","1024"
"93.33333333333333","93.33333333333333","503.9111111111111","503.9111111111111","black","legacy","legacy","legacy","0","incongruent","uniform","1","undefined","1","h","89","0","0","0","89","0","89","0","89","0","0","0","89","89","89","89","Fri Sep 18 15:59:29 2020","600","The main experiment item","yes","Flankertask.osexp","/Users/alisonbeason/Desktop","no","mono","no","18","no","white","no","yes","768","legacy","9","79","/Users/alisonbeason/Desktop/subject-0.csv","legacy","Lentiform Loewenfeld","3.3.3","0","h","NA","h","s","NA","h","414","NA","676","13142","NA","414","2","legacy","1024","2","48000","-16","experiment","SSHSS","0","even","171146","3711","155244","NA","168907","3007","156588","NA","172209","3023","142101","NA","172323","172738","172195","172323","Flanker task","84","45352","90","yes","1024"
"93.4065934065934","93.4065934065934","502.3076923076923","502.3076923076923","black","legacy","legacy","legacy","0","incongruent","uniform","1","undefined","1","h","90","0","0","0","90","0","90","0","90","0","0","0","90","90","90","90","Fri Sep 18 15:59:29 2020","600","The main experiment item","yes","Flankertask.osexp","/Users/alisonbeason/Desktop","no","mono","no","18","no","white","no","yes","768","legacy","10","79","/Users/alisonbeason/Desktop/subject-0.csv","legacy","Lentiform Loewenfeld","3.3.3","0","h","NA","h","s","NA","h","358","NA","676","13142","NA","358","2","legacy","1024","2","48000","-16","experiment","SSHSS","0","even","172755","3711","155244","NA","168907","3007","156588","NA","173817","3023","142101","NA","173932","174291","173803","173932","Flanker task","85","45710","91","yes","1024"
"93.47826086956522","93.47826086956522","501.8369565217391","501.8369565217391","black","legacy","legacy","legacy","0","congruent","uniform","1","undefined","1","s","91","0","0","0","91","0","91","0","91","0","0","0","91","91","91","91","Fri Sep 18 15:59:29 2020","600","The main experiment item","yes","Flankertask.osexp","/Users/alisonbeason/Desktop","no","mono","no","18","no","white","no","yes","768","legacy","11","79","/Users/alisonbeason/Desktop/subject-0.csv","legacy","Lentiform Loewenfeld","3.3.3","0","s","NA","h","s","NA","s","459","NA","676","13142","NA","459","2","legacy","1024","2","48000","-16","experiment","SSSSS","0","even","174307","3711","155244","NA","168907","3007","156588","NA","175370","3023","142101","NA","175485","175945","175355","175485","Flanker task","86","46169","92","yes","1024"
"93.54838709677419","93.54838709677419","501.247311827957","501.247311827957","black","legacy","legacy","legacy","0","congruent","uniform","1","undefined","1","s","92","0","0","0","92","0","92","0","92","0","0","0","92","92","92","92","Fri Sep 18 15:59:29 2020","600","The main experiment item","yes","Flankertask.osexp","/Users/alisonbeason/Desktop","no","mono","no","18","no","white","no","yes","768","legacy","12","79","/Users/alisonbeason/Desktop/subject-0.csv","legacy","Lentiform Loewenfeld","3.3.3","0","s","NA","h","s","NA","s","447","NA","676","13142","NA","447","2","legacy","1024","2","48000","-16","experiment","SSSSS","0","even","175961","3711","155244","NA","168907","3007","156588","NA","177023","3023","142101","NA","177139","177587","177009","177139","Flanker task","87","46616","93","yes","1024"
"93.61702127659575","93.61702127659575","501.2659574468085","501.2659574468085","black","legacy","legacy","legacy","0","incongruent","uniform","1","undefined","1","h","93","0","0","0","93","0","93","0","93","0","0","0","93","93","93","93","Fri Sep 18 15:59:29 2020","600","The main experiment item","yes","Flankertask.osexp","/Users/alisonbeason/Desktop","no","mono","no","18","no","white","no","yes","768","legacy","13","79","/Users/alisonbeason/Desktop/subject-0.csv","legacy","Lentiform Loewenfeld","3.3.3","0","h","NA","h","s","NA","h","503","NA","676","13142","NA","503","2","legacy","1024","2","48000","-16","experiment","SSHSS","0","even","177604","3711","155244","NA","168907","3007","156588","NA","178666","3023","142101","NA","178782","179286","178652","178782","Flanker task","88","47119","94","yes","1024"
"93.6842105263158","93.6842105263158","501.17894736842106","501.17894736842106","black","legacy","legacy","legacy","0","incongruent","uniform","1","undefined","1","s","94","0","0","0","94","0","94","0","94","0","0","0","94","94","94","94","Fri Sep 18 15:59:29 2020","600","The main experiment item","yes","Flankertask.osexp","/Users/alisonbeason/Desktop","no","mono","no","18","no","white","no","yes","768","legacy","14","79","/Users/alisonbeason/Desktop/subject-0.csv","legacy","Lentiform Loewenfeld","3.3.3","0","s","NA","h","s","NA","s","493","NA","676","13142","NA","493","2","legacy","1024","2","48000","-16","experiment","HHSHH","0","even","179302","3711","155244","NA","168907","3007","156588","NA","180365","3023","142101","NA","180479","180974","180351","180479","Flanker task","89","47612","95","yes","1024"
"93.75","93.75","499.7916666666667","499.7916666666667","black","legacy","legacy","legacy","0","congruent","uniform","1","undefined","1","s","95","0","0","0","95","0","95","0","95","0","0","0","95","95","95","95","Fri Sep 18 15:59:29 2020","600","The main experiment item","yes","Flankertask.osexp","/Users/alisonbeason/Desktop","no","mono","no","18","no","white","no","yes","768","legacy","15","79","/Users/alisonbeason/Desktop/subject-0.csv","legacy","Lentiform Loewenfeld","3.3.3","0","s","NA","h","s","NA","s","368","NA","676","13142","NA","368","2","legacy","1024","2","48000","-16","experiment","SSSSS","0","even","180990","3711","155244","NA","168907","3007","156588","NA","182052","3023","142101","NA","182168","182538","182037","182168","Flanker task","90","47980","96","yes","1024"
"93.81443298969072","93.81443298969072","500.0618556701031","500.0618556701031","black","legacy","legacy","legacy","0","incongruent","uniform","1","undefined","1","s","96","0","0","0","96","0","96","0","96","0","0","0","96","96","96","96","Fri Sep 18 15:59:29 2020","600","The main experiment item","yes","Flankertask.osexp","/Users/alisonbeason/Desktop","no","mono","no","18","no","white","no","yes","768","legacy","16","79","/Users/alisonbeason/Desktop/subject-0.csv","legacy","Lentiform Loewenfeld","3.3.3","0","s","NA","h","s","NA","s","526","NA","676","13142","NA","526","2","legacy","1024","2","48000","-16","experiment","HHSHH","0","even","182554","3711","155244","NA","168907","3007","156588","NA","183617","3023","142101","NA","183732","184259","183602","183732","Flanker task","91","48506","97","yes","1024"
"93.87755102040816","93.87755102040816","499.16326530612247","499.16326530612247","black","legacy","legacy","legacy","0","incongruent","uniform","1","undefined","1","s","97","0","0","0","97","0","97","0","97","0","0","0","97","97","97","97","Fri Sep 18 15:59:29 2020","600","The main experiment item","yes","Flankertask.osexp","/Users/alisonbeason/Desktop","no","mono","no","18","no","white","no","yes","768","legacy","17","79","/Users/alisonbeason/Desktop/subject-0.csv","legacy","Lentiform Loewenfeld","3.3.3","0","s","NA","h","s","NA","s","412","NA","676","13142","NA","412","2","legacy","1024","2","48000","-16","experiment","HHSHH","0","even","184274","3711","155244","NA","168907","3007","156588","NA","185338","3023","142101","NA","185454","185868","185324","185454","Flanker task","92","48918","98","yes","1024"
"93.93939393939394","93.93939393939394","498.989898989899","498.989898989899","black","legacy","legacy","legacy","0","congruent","uniform","1","undefined","1","h","98","0","0","0","98","0","98","0","98","0","0","0","98","98","98","98","Fri Sep 18 15:59:29 2020","600","The main experiment item","yes","Flankertask.osexp","/Users/alisonbeason/Desktop","no","mono","no","18","no","white","no","yes","768","legacy","18","79","/Users/alisonbeason/Desktop/subject-0.csv","legacy","Lentiform Loewenfeld","3.3.3","0","h","NA","h","s","NA","h","482","NA","676","13142","NA","482","2","legacy","1024","2","48000","-16","experiment","HHHHH","0","even","185884","3711","155244","NA","168907","3007","156588","NA","186946","3023","142101","NA","187061","187544","186932","187061","Flanker task","93","49400","99","yes","1024"
"94","94","497.33","497.33","black","legacy","legacy","legacy","0","congruent","uniform","1","undefined","1","h","99","0","0","0","99","0","99","0","99","0","0","0","99","99","99","99","Fri Sep 18 15:59:29 2020","600","The main experiment item","yes","Flankertask.osexp","/Users/alisonbeason/Desktop","no","mono","no","18","no","white","no","yes","768","legacy","19","79","/Users/alisonbeason/Desktop/subject-0.csv","legacy","Lentiform Loewenfeld","3.3.3","0","h","NA","h","s","NA","h","333","NA","676","13142","NA","333","2","legacy","1024","2","48000","-16","experiment","HHHHH","0","even","187560","3711","155244","NA","168907","3007","156588","NA","188623","3023","142101","NA","188739","189073","188608","188738","Flanker task","94","49733","100","yes","1024"
"94.05940594059406","94.05940594059406","497.05940594059405","497.05940594059405","black","legacy","legacy","legacy","0","congruent","uniform","1","undefined","1","s","100","0","0","0","100","0","100","0","100","0","0","0","100","100","100","100","Fri Sep 18 15:59:29 2020","600","The main experiment item","yes","Flankertask.osexp","/Users/alisonbeason/Desktop","no","mono","no","18","no","white","no","yes","768","legacy","20","79","/Users/alisonbeason/Desktop/subject-0.csv","legacy","Lentiform Loewenfeld","3.3.3","0","s","NA","h","s","NA","s","470","NA","676","13142","NA","470","2","legacy","1024","2","48000","-16","experiment","SSSSS","0","even","189089","3711","155244","NA","168907","3007","156588","NA","190153","3023","142101","NA","190268","190739","190139","190268","Flanker task","95","50203","101","yes","1024"
"94.11764705882354","94.11764705882354","497.87254901960785","497.87254901960785","black","legacy","legacy","legacy","0","congruent","uniform","1","undefined","1","h","101","0","0","0","101","0","101","0","101","0","0","0","101","101","101","101","Fri Sep 18 15:59:29 2020","600","The main experiment item","yes","Flankertask.osexp","/Users/alisonbeason/Desktop","no","mono","no","18","no","white","no","yes","768","legacy","21","79","/Users/alisonbeason/Desktop/subject-0.csv","legacy","Lentiform Loewenfeld","3.3.3","0","h","NA","h","s","NA","h","580","NA","676","13142","NA","580","2","legacy","1024","2","48000","-16","experiment","HHHHH","0","even","190755","3711","155244","NA","168907","3007","156588","NA","191819","3023","142101","NA","191935","192517","191804","191934","Flanker task","96","50783","102","yes","1024"
"94.1747572815534","94.1747572815534","498.6601941747573","498.6601941747573","black","legacy","legacy","legacy","0","congruent","uniform","1","undefined","1","h","102","0","0","0","102","0","102","0","102","0","0","0","102","102","102","102","Fri Sep 18 15:59:29 2020","600","The main experiment item","yes","Flankertask.osexp","/Users/alisonbeason/Desktop","no","mono","no","18","no","white","no","yes","768","legacy","22","79","/Users/alisonbeason/Desktop/subject-0.csv","legacy","Lentiform Loewenfeld","3.3.3","0","h","NA","h","s","NA","h","579","NA","676","13142","NA","579","2","legacy","1024","2","48000","-16","experiment","HHHHH","0","even","192531","3711","155244","NA","168907","3007","156588","NA","193597","3023","142101","NA","193714","194294","193583","193714","Flanker task","97","51362","103","yes","1024"
"94.23076923076923","94.23076923076923","498.6923076923077","498.6923076923077","black","legacy","legacy","legacy","0","congruent","uniform","1","undefined","1","h","103","0","0","0","103","0","103","0","103","0","0","0","103","103","103","103","Fri Sep 18 15:59:29 2020","600","The main experiment item","yes","Flankertask.osexp","/Users/alisonbeason/Desktop","no","mono","no","18","no","white","no","yes","768","legacy","23","79","/Users/alisonbeason/Desktop/subject-0.csv","legacy","Lentiform Loewenfeld","3.3.3","0","h","NA","h","s","NA","h","502","NA","676","13142","NA","502","2","legacy","1024","2","48000","-16","experiment","HHHHH","0","even","194311","3711","155244","NA","168907","3007","156588","NA","195374","3023","142101","NA","195490","195993","195360","195489","Flanker task","98","51864","104","yes","1024"
"94.28571428571429","94.28571428571429","498.23809523809524","498.23809523809524","black","legacy","legacy","legacy","0","congruent","uniform","1","undefined","1","h","104","0","0","0","104","0","104","0","104","0","0","0","104","104","104","104","Fri Sep 18 15:59:29 2020","600","The main experiment item","yes","Flankertask.osexp","/Users/alisonbeason/Desktop","no","mono","no","18","no","white","no","yes","768","legacy","24","79","/Users/alisonbeason/Desktop/subject-0.csv","legacy","Lentiform Loewenfeld","3.3.3","0","h","NA","h","s","NA","h","451","NA","676","13142","NA","451","2","legacy","1024","2","48000","-16","experiment","HHHHH","0","even","196008","3711","155244","NA","168907","3007","156588","NA","197067","3023","142101","NA","197183","197636","197053","197183","Flanker task","99","52315","105","yes","1024"
"94.33962264150944","94.33962264150944","499.1981132075472","499.1981132075472","black","legacy","legacy","legacy","0","incongruent","uniform","1","undefined","1","h","105","0","0","0","105","0","105","0","105","0","0","0","105","105","105","105","Fri Sep 18 15:59:29 2020","600","The main experiment item","yes","Flankertask.osexp","/Users/alisonbeason/Desktop","no","mono","no","18","no","white","no","yes","768","legacy","25","79","/Users/alisonbeason/Desktop/subject-0.csv","legacy","Lentiform Loewenfeld","3.3.3","0","h","NA","h","s","NA","h","600","NA","676","13142","NA","600","2","legacy","1024","2","48000","-16","experiment","SSHSS","0","even","197652","3711","155244","NA","168907","3007","156588","NA","198718","3023","142101","NA","198834","199436","198701","198833","Flanker task","100","52915","106","yes","1024"
"94.39252336448598","94.39252336448598","498.85981308411215","498.85981308411215","black","legacy","legacy","legacy","0","congruent","uniform","1","undefined","1","s","106","0","0","0","106","0","106","0","106","0","0","0","106","106","106","106","Fri Sep 18 15:59:29 2020","600","The main experiment item","yes","Flankertask.osexp","/Users/alisonbeason/Desktop","no","mono","no","18","no","white","no","yes","768","legacy","26","79","/Users/alisonbeason/Desktop/subject-0.csv","legacy","Lentiform Loewenfeld","3.3.3","0","s","NA","h","s","NA","s","463","NA","676","13142","NA","463","2","legacy","1024","2","48000","-16","experiment","SSSSS","0","even","199451","3711","155244","NA","168907","3007","156588","NA","200510","3023","142101","NA","200624","201088","200496","200624","Flanker task","101","53378","107","yes","1024"
"94.44444444444444","94.44444444444444","499.6203703703704","499.6203703703704","black","legacy","legacy","legacy","0","incongruent","uniform","1","undefined","1","h","107","0","0","0","107","0","107","0","107","0","0","0","107","107","107","107","Fri Sep 18 15:59:29 2020","600","The main experiment item","yes","Flankertask.osexp","/Users/alisonbeason/Desktop","no","mono","no","18","no","white","no","yes","768","legacy","27","79","/Users/alisonbeason/Desktop/subject-0.csv","legacy","Lentiform Loewenfeld","3.3.3","0","h","NA","h","s","NA","h","581","NA","676","13142","NA","581","2","legacy","1024","2","48000","-16","experiment","SSHSS","0","even","201105","3711","155244","NA","168907","3007","156588","NA","202169","3023","142101","NA","202285","202867","202155","202285","Flanker task","102","53959","108","yes","1024"
"93.57798165137615","93.57798165137615","498.92660550458714","498.92660550458714","black","legacy","legacy","legacy","0","incongruent","uniform","0","undefined","0","s","108","0","0","0","108","0","108","0","108","0","0","0","108","108","108","108","Fri Sep 18 15:59:29 2020","600","The main experiment item","yes","Flankertask.osexp","/Users/alisonbeason/Desktop","no","mono","no","18","no","white","no","yes","768","legacy","28","79","/Users/alisonbeason/Desktop/subject-0.csv","legacy","Lentiform Loewenfeld","3.3.3","0","h","NA","h","s","NA","h","424","NA","676","13142","NA","424","2","legacy","1024","2","48000","-16","experiment","HHSHH","0","even","202883","3711","155244","NA","168907","3007","156588","NA","203947","3023","142101","NA","204062","204487","203932","204062","Flanker task","102","54383","109","yes","1024"
"93.63636363636364","93.63636363636364","498.4727272727273","498.4727272727273","black","legacy","legacy","legacy","0","congruent","uniform","1","undefined","1","h","109","0","0","0","109","0","109","0","109","0","0","0","109","109","109","109","Fri Sep 18 15:59:29 2020","600","The main experiment item","yes","Flankertask.osexp","/Users/alisonbeason/Desktop","no","mono","no","18","no","white","no","yes","768","legacy","29","79","/Users/alisonbeason/Desktop/subject-0.csv","legacy","Lentiform Loewenfeld","3.3.3","0","h","NA","h","s","NA","h","449","NA","676","13142","NA","449","2","legacy","1024","2","48000","-16","experiment","HHHHH","0","even","205018","3711","155244","NA","204504","3007","156588","NA","206081","3023","142101","NA","206197","206647","206067","206196","Flanker task","103","54832","110","yes","1024"
"93.69369369369369","93.69369369369369","498.3063063063063","498.3063063063063","black","legacy","legacy","legacy","0","congruent","uniform","1","undefined","1","h","110","0","0","0","110","0","110","0","110","0","0","0","110","110","110","110","Fri Sep 18 15:59:29 2020","600","The main experiment item","yes","Flankertask.osexp","/Users/alisonbeason/Desktop","no","mono","no","18","no","white","no","yes","768","legacy","30","79","/Users/alisonbeason/Desktop/subject-0.csv","legacy","Lentiform Loewenfeld","3.3.3","0","h","NA","h","s","NA","h","480","NA","676","13142","NA","480","2","legacy","1024","2","48000","-16","experiment","HHHHH","0","even","206664","3711","155244","NA","204504","3007","156588","NA","207726","3023","142101","NA","207842","208323","207712","207842","Flanker task","104","55312","111","yes","1024"
"92.85714285714286","92.85714285714286","497.0357142857143","497.0357142857143","black","legacy","legacy","legacy","0","incongruent","uniform","0","undefined","0","s","111","0","0","0","111","0","111","0","111","0","0","0","111","111","111","111","Fri Sep 18 15:59:29 2020","600","The main experiment item","yes","Flankertask.osexp","/Users/alisonbeason/Desktop","no","mono","no","18","no","white","no","yes","768","legacy","31","79","/Users/alisonbeason/Desktop/subject-0.csv","legacy","Lentiform Loewenfeld","3.3.3","0","h","NA","h","s","NA","h","356","NA","676","13142","NA","356","2","legacy","1024","2","48000","-16","experiment","HHSHH","0","even","208340","3711","155244","NA","204504","3007","156588","NA","209403","3023","142101","NA","209519","209876","209389","209518","Flanker task","104","55668","112","yes","1024"
"92.92035398230088","92.92035398230088","497.3008849557522","497.3008849557522","black","legacy","legacy","legacy","0","congruent","uniform","1","undefined","1","s","112","0","0","0","112","0","112","0","112","0","0","0","112","112","112","112","Fri Sep 18 15:59:29 2020","600","The main experiment item","yes","Flankertask.osexp","/Users/alisonbeason/Desktop","no","mono","no","18","no","white","no","yes","768","legacy","32","79","/Users/alisonbeason/Desktop/subject-0.csv","legacy","Lentiform Loewenfeld","3.3.3","0","s","NA","h","s","NA","s","527","NA","676","13142","NA","527","2","legacy","1024","2","48000","-16","experiment","SSSSS","0","even","210406","3711","155244","NA","209892","3007","156588","NA","211471","3023","142101","NA","211586","212114","211456","211586","Flanker task","105","56195","113","yes","1024"
"92.98245614035088","92.98245614035088","497.3421052631579","497.3421052631579","black","legacy","legacy","legacy","0","congruent","uniform","1","undefined","1","h","113","0","0","0","113","0","113","0","113","0","0","0","113","113","113","113","Fri Sep 18 15:59:29 2020","600","The main experiment item","yes","Flankertask.osexp","/Users/alisonbeason/Desktop","no","mono","no","18","no","white","no","yes","768","legacy","33","79","/Users/alisonbeason/Desktop/subject-0.csv","legacy","Lentiform Loewenfeld","3.3.3","0","h","NA","h","s","NA","h","502","NA","676","13142","NA","502","2","legacy","1024","2","48000","-16","experiment","HHHHH","0","even","212132","3711","155244","NA","209892","3007","156588","NA","213195","3023","142101","NA","213310","213814","213180","213310","Flanker task","106","56697","114","yes","1024"
"93.04347826086956","93.04347826086956","497.4173913043478","497.4173913043478","black","legacy","legacy","legacy","0","congruent","uniform","1","undefined","1","s","114","0","0","0","114","0","114","0","114","0","0","0","114","114","114","114","Fri Sep 18 15:59:29 2020","600","The main experiment item","yes","Flankertask.osexp","/Users/alisonbeason/Desktop","no","mono","no","18","no","white","no","yes","768","legacy","34","79","/Users/alisonbeason/Desktop/subject-0.csv","legacy","Lentiform Loewenfeld","3.3.3","0","s","NA","h","s","NA","s","506","NA","676","13142","NA","506","2","legacy","1024","2","48000","-16","experiment","SSSSS","0","even","213830","3711","155244","NA","209892","3007","156588","NA","214892","3023","142101","NA","215005","215513","214878","215005","Flanker task","107","57203","115","yes","1024"
"93.10344827586206","93.10344827586206","496.88793103448273","496.88793103448273","black","legacy","legacy","legacy","0","incongruent","uniform","1","undefined","1","h","115","0","0","0","115","0","115","0","115","0","0","0","115","115","115","115","Fri Sep 18 15:59:29 2020","600","The main experiment item","yes","Flankertask.osexp","/Users/alisonbeason/Desktop","no","mono","no","18","no","white","no","yes","768","legacy","35","79","/Users/alisonbeason/Desktop/subject-0.csv","legacy","Lentiform Loewenfeld","3.3.3","0","h","NA","h","s","NA","h","436","NA","676","13142","NA","436","2","legacy","1024","2","48000","-16","experiment","SSHSS","0","even","215529","3711","155244","NA","209892","3007","156588","NA","216592","3023","142101","NA","216707","217144","216577","216707","Flanker task","108","57639","116","yes","1024"
"93.16239316239316","93.16239316239316","497.05128205128204","497.05128205128204","black","legacy","legacy","legacy","0","incongruent","uniform","1","undefined","1","s","116","0","0","0","116","0","116","0","116","0","0","0","116","116","116","116","Fri Sep 18 15:59:29 2020","600","The main experiment item","yes","Flankertask.osexp","/Users/alisonbeason/Desktop","no","mono","no","18","no","white","no","yes","768","legacy","36","79","/Users/alisonbeason/Desktop/subject-0.csv","legacy","Lentiform Loewenfeld","3.3.3","0","s","NA","h","s","NA","s","516","NA","676","13142","NA","516","2","legacy","1024","2","48000","-16","experiment","HHSHH","0","even","217160","3711","155244","NA","209892","3007","156588","NA","218223","3023","142101","NA","218337","218854","218209","218337","Flanker task","109","58155","117","yes","1024"
"93.22033898305085","93.22033898305085","496.72033898305085","496.72033898305085","black","legacy","legacy","legacy","0","congruent","uniform","1","undefined","1","h","117","0","0","0","117","0","117","0","117","0","0","0","117","117","117","117","Fri Sep 18 15:59:29 2020","600","The main experiment item","yes","Flankertask.osexp","/Users/alisonbeason/Desktop","no","mono","no","18","no","white","no","yes","768","legacy","37","79","/Users/alisonbeason/Desktop/subject-0.csv","legacy","Lentiform Loewenfeld","3.3.3","0","h","NA","h","s","NA","h","458","NA","676","13142","NA","458","2","legacy","1024","2","48000","-16","experiment","HHHHH","0","even","218870","3711","155244","NA","209892","3007","156588","NA","219933","3023","142101","NA","220048","220508","219919","220048","Flanker task","110","58613","118","yes","1024"
"92.43697478991596","92.43697478991596","497.06722689075633","497.06722689075633","black","legacy","legacy","legacy","0","incongruent","uniform","0","undefined","0","h","118","0","0","0","118","0","118","0","118","0","0","0","118","118","118","118","Fri Sep 18 15:59:29 2020","600","The main experiment item","yes","Flankertask.osexp","/Users/alisonbeason/Desktop","no","mono","no","18","no","white","no","yes","768","legacy","38","79","/Users/alisonbeason/Desktop/subject-0.csv","legacy","Lentiform Loewenfeld","3.3.3","0","s","NA","h","s","NA","s","538","NA","676","13142","NA","538","2","legacy","1024","2","48000","-16","experiment","SSHSS","0","even","220524","3711","155244","NA","209892","3007","156588","NA","221587","3023","142101","NA","221701","222240","221573","221701","Flanker task","110","59151","119","yes","1024"
"91.66666666666667","91.66666666666667","496.1166666666667","496.1166666666667","black","legacy","legacy","legacy","0","incongruent","uniform","0","undefined","0","h","119","0","0","0","119","0","119","0","119","0","0","0","119","119","119","119","Fri Sep 18 15:59:29 2020","600","The main experiment item","yes","Flankertask.osexp","/Users/alisonbeason/Desktop","no","mono","no","18","no","white","no","yes","768","legacy","39","79","/Users/alisonbeason/Desktop/subject-0.csv","legacy","Lentiform Loewenfeld","3.3.3","0","s","NA","h","s","NA","s","383","NA","676","13142","NA","383","2","legacy","1024","2","48000","-16","experiment","SSHSS","0","even","222771","3711","155244","NA","222257","3007","156588","NA","223833","3023","142101","NA","223949","224333","223819","223949","Flanker task","110","59534","120","yes","1024"
"91.73553719008264","91.73553719008264","498.1818181818182","498.1818181818182","black","legacy","legacy","legacy","0","incongruent","uniform","1","undefined","1","s","120","0","0","0","120","0","120","0","120","0","0","0","120","120","120","120","Fri Sep 18 15:59:29 2020","600","The main experiment item","yes","Flankertask.osexp","/Users/alisonbeason/Desktop","no","mono","no","18","no","white","no","yes","768","legacy","40","79","/Users/alisonbeason/Desktop/subject-0.csv","legacy","Lentiform Loewenfeld","3.3.3","0","s","NA","h","s","NA","s","746","NA","676","13142","NA","746","2","legacy","1024","2","48000","-16","experiment","HHSHH","0","even","224864","3711","155244","NA","224349","3007","156588","NA","225922","3023","142101","NA","226038","226786","225909","226037","Flanker task","111","60280","121","yes","1024"
"91.80327868852459","91.80327868852459","498.655737704918","498.655737704918","black","legacy","legacy","legacy","0","incongruent","uniform","1","undefined","1","h","121","0","0","0","121","0","121","0","121","0","0","0","121","121","121","121","Fri Sep 18 15:59:29 2020","600","The main experiment item","yes","Flankertask.osexp","/Users/alisonbeason/Desktop","no","mono","no","18","no","white","no","yes","768","legacy","41","79","/Users/alisonbeason/Desktop/subject-0.csv","legacy","Lentiform Loewenfeld","3.3.3","0","h","NA","h","s","NA","h","556","NA","676","13142","NA","556","2","legacy","1024","2","48000","-16","experiment","SSHSS","0","even","227316","3711","155244","NA","224349","3007","226802","NA","228375","3023","142101","NA","228489","229046","228362","228489","Flanker task","112","60836","122","yes","1024"
"91.869918699187","91.869918699187","498.9756097560976","498.9756097560976","black","legacy","legacy","legacy","0","incongruent","uniform","1","undefined","1","h","122","0","0","0","122","0","122","0","122","0","0","0","122","122","122","122","Fri Sep 18 15:59:29 2020","600","The main experiment item","yes","Flankertask.osexp","/Users/alisonbeason/Desktop","no","mono","no","18","no","white","no","yes","768","legacy","42","79","/Users/alisonbeason/Desktop/subject-0.csv","legacy","Lentiform Loewenfeld","3.3.3","0","h","NA","h","s","NA","h","538","NA","676","13142","NA","538","2","legacy","1024","2","48000","-16","experiment","SSHSS","0","even","229062","3711","155244","NA","224349","3007","226802","NA","230126","3023","142101","NA","230240","230779","230111","230240","Flanker task","113","61374","123","yes","1024"
