"acc","accuracy","average_response_time","avg_rt","background","canvas_backend","clock_backend","color_backend","compensation","condition","coordinates","correct","correct_instructions1","correct_keyboard_response","correct_response","count_ISI","count_block1","count_block2","count_block3","count_errorfeedback","count_experiment","count_faster","count_finish","count_fixation","count_instructions1","count_instructions2","count_instructions3","count_keyboard_response","count_ogger","count_sequence","count_stimulus","datetime","deadline","description","disable_garbage_collection","experiment_file","experiment_path","font_bold","font_family","font_italic","font_size","font_underline","foreground","form_clicks","fullscreen","height","keyboard_backend","live_row","live_row_block1","logfile","mouse_backend","opensesame_codename","opensesame_version","repeat_cycle","response","response_finish","response_instructions1","response_instructions2","response_instructions3","response_keyboard_response","response_time","response_time_finish","response_time_instructions1","response_time_instructions2","response_time_instructions3","response_time_keyboard_response","round_decimals","sampler_backend","sound_buf_size","sound_channels","sound_freq","sound_sample_size","start","stimulus","subject_nr","subject_parity","time_ISI","time_block1","time_block2","time_block3","time_errorfeedback","time_experiment","time_faster","time_finish","time_fixation","time_instructions1","time_instructions2","time_instructions3","time_keyboard_response","time_ogger","time_sequence","time_stimulus","title","total_correct","total_response_time","total_responses","uniform_coordinates","width"
"0","0","1500","1500","black","legacy","legacy","legacy","0","incongruent","uniform","0","undefined","0","s","0","0","0","0","0","0","0","0","0","0","0","0","0","0","0","0","Sun Sep 27 16:54:31 2020","1500","The main experiment item","yes","ab-Flankertask-1.osexp","C:/Users/Elaine/AppData/Roaming/Microsoft/Windows/Network Shortcuts","no","mono","no","18","no","white","no","yes","768","legacy","0","0","C:/Users/Elaine/Documents/E Beason/subject-2.csv","legacy","Lentiform Loewenfeld","3.3.3","0","None","NA","return","NA","NA","None","1500","NA","32894","NA","NA","1500","2","legacy","1024","2","48000","-16","experiment","HHSHH","2","even","NA","40330","NA","NA","NA","7422","NA","NA","40449","7434","NA","NA","40551","42051","40446","40550","Flanker task","0","1500","1","yes","1024"
"50","50","1340.5","1340.5","black","legacy","legacy","legacy","0","incongruent","uniform","1","undefined","1","s","1","0","0","0","1","0","1","0","1","0","0","0","1","1","1","1","Sun Sep 27 16:54:31 2020","1500","The main experiment item","yes","ab-Flankertask-1.osexp","C:/Users/Elaine/AppData/Roaming/Microsoft/Windows/Network Shortcuts","no","mono","no","18","no","white","no","yes","768","legacy","1","1","C:/Users/Elaine/Documents/E Beason/subject-2.csv","legacy","Lentiform Loewenfeld","3.3.3","0","s","NA","return","NA","NA","s","1181","NA","32894","NA","NA","1181","2","legacy","1024","2","48000","-16","experiment","HHSHH","2","even","42567","40330","NA","NA","42066","7422","NA","NA","43678","7434","NA","NA","43780","44962","43673","43779","Flanker task","1","2681","2","yes","1024"
"66.66666666666667","66.66666666666667","1199.6666666666667","1199.6666666666667","black","legacy","legacy","legacy","0","incongruent","uniform","1","undefined","1","s","2","0","0","0","2","0","2","0","2","0","0","0","2","2","2","2","Sun Sep 27 16:54:31 2020","1500","The main experiment item","yes","ab-Flankertask-1.osexp","C:/Users/Elaine/AppData/Roaming/Microsoft/Windows/Network Shortcuts","no","mono","no","18","no","white","no","yes","768","legacy","2","2","C:/Users/Elaine/Documents/E Beason/subject-2.csv","legacy","Lentiform Loewenfeld","3.3.3","0","s","NA","return","NA","NA","s","918","NA","32894","NA","NA","918","2","legacy","1024","2","48000","-16","experiment","HHSHH","2","even","44970","40330","NA","NA","42066","7422","NA","NA","46086","7434","NA","NA","46188","47107","46083","46188","Flanker task","2","3599","3","yes","1024"
"50","50","1274.75","1274.75","black","legacy","legacy","legacy","0","congruent","uniform","0","undefined","0","s","3","0","0","0","3","0","3","0","3","0","0","0","3","3","3","3","Sun Sep 27 16:54:31 2020","1500","The main experiment item","yes","ab-Flankertask-1.osexp","C:/Users/Elaine/AppData/Roaming/Microsoft/Windows/Network Shortcuts","no","mono","no","18","no","white","no","yes","768","legacy","3","3","C:/Users/Elaine/Documents/E Beason/subject-2.csv","legacy","Lentiform Loewenfeld","3.3.3","0","None","NA","return","NA","NA","None","1500","NA","32894","NA","NA","1500","2","legacy","1024","2","48000","-16","experiment","SSSSS","2","even","47116","40330","NA","NA","42066","7422","NA","NA","48226","7434","NA","NA","48328","49828","48223","48328","Flanker task","2","5099","4","yes","1024"
"60","60","1181.4","1181.4","black","legacy","legacy","legacy","0","incongruent","uniform","1","undefined","1","h","4","0","0","0","4","0","4","0","4","0","0","0","4","4","4","4","Sun Sep 27 16:54:31 2020","1500","The main experiment item","yes","ab-Flankertask-1.osexp","C:/Users/Elaine/AppData/Roaming/Microsoft/Windows/Network Shortcuts","no","mono","no","18","no","white","no","yes","768","legacy","4","4","C:/Users/Elaine/Documents/E Beason/subject-2.csv","legacy","Lentiform Loewenfeld","3.3.3","0","h","NA","return","NA","NA","h","808","NA","32894","NA","NA","808","2","legacy","1024","2","48000","-16","experiment","SSHSS","2","even","50338","40330","NA","NA","49837","7422","NA","NA","51451","7434","NA","NA","51553","52361","51447","51552","Flanker task","3","5907","5","yes","1024"
"66.66666666666667","66.66666666666667","1122","1122","black","legacy","legacy","legacy","0","incongruent","uniform","1","undefined","1","s","5","0","0","0","5","0","5","0","5","0","0","0","5","5","5","5","Sun Sep 27 16:54:31 2020","1500","The main experiment item","yes","ab-Flankertask-1.osexp","C:/Users/Elaine/AppData/Roaming/Microsoft/Windows/Network Shortcuts","no","mono","no","18","no","white","no","yes","768","legacy","5","5","C:/Users/Elaine/Documents/E Beason/subject-2.csv","legacy","Lentiform Loewenfeld","3.3.3","0","s","NA","return","NA","NA","s","825","NA","32894","NA","NA","825","2","legacy","1024","2","48000","-16","experiment","HHSHH","2","even","52370","40330","NA","NA","49837","7422","NA","NA","53474","7434","NA","NA","53576","54402","53471","53576","Flanker task","4","6732","6","yes","1024"
"71.42857142857143","71.42857142857143","1045.4285714285713","1045.4285714285713","black","legacy","legacy","legacy","0","congruent","uniform","1","undefined","1","h","6","0","0","0","6","0","6","0","6","0","0","0","6","6","6","6","Sun Sep 27 16:54:31 2020","1500","The main experiment item","yes","ab-Flankertask-1.osexp","C:/Users/Elaine/AppData/Roaming/Microsoft/Windows/Network Shortcuts","no","mono","no","18","no","white","no","yes","768","legacy","6","6","C:/Users/Elaine/Documents/E Beason/subject-2.csv","legacy","Lentiform Loewenfeld","3.3.3","0","h","NA","return","NA","NA","h","586","NA","32894","NA","NA","586","2","legacy","1024","2","48000","-16","experiment","HHHHH","2","even","54418","40330","NA","NA","49837","7422","NA","NA","55532","7434","NA","NA","55635","56221","55529","55634","Flanker task","5","7318","7","yes","1024"
"75","75","985.125","985.125","black","legacy","legacy","legacy","0","congruent","uniform","1","undefined","1","h","7","0","0","0","7","0","7","0","7","0","0","0","7","7","7","7","Sun Sep 27 16:54:31 2020","1500","The main experiment item","yes","ab-Flankertask-1.osexp","C:/Users/Elaine/AppData/Roaming/Microsoft/Windows/Network Shortcuts","no","mono","no","18","no","white","no","yes","768","legacy","7","7","C:/Users/Elaine/Documents/E Beason/subject-2.csv","legacy","Lentiform Loewenfeld","3.3.3","0","h","NA","return","NA","NA","h","563","NA","32894","NA","NA","563","2","legacy","1024","2","48000","-16","experiment","HHHHH","2","even","56237","40330","NA","NA","49837","7422","NA","NA","57351","7434","NA","NA","57453","58017","57348","57452","Flanker task","6","7881","8","yes","1024"
"77.77777777777777","77.77777777777777","949.3333333333334","949.3333333333334","black","legacy","legacy","legacy","0","incongruent","uniform","1","undefined","1","s","8","0","0","0","8","0","8","0","8","0","0","0","8","8","8","8","Sun Sep 27 16:54:31 2020","1500","The main experiment item","yes","ab-Flankertask-1.osexp","C:/Users/Elaine/AppData/Roaming/Microsoft/Windows/Network Shortcuts","no","mono","no","18","no","white","no","yes","768","legacy","8","8","C:/Users/Elaine/Documents/E Beason/subject-2.csv","legacy","Lentiform Loewenfeld","3.3.3","0","s","NA","return","NA","NA","s","663","NA","32894","NA","NA","663","2","legacy","1024","2","48000","-16","experiment","HHSHH","2","even","58032","40330","NA","NA","49837","7422","NA","NA","59151","7434","NA","NA","59253","59916","59148","59253","Flanker task","7","8544","9","yes","1024"
"80","80","914.2","914.2","black","legacy","legacy","legacy","0","congruent","uniform","1","undefined","1","s","9","0","0","0","9","0","9","0","9","0","0","0","9","9","9","9","Sun Sep 27 16:54:31 2020","1500","The main experiment item","yes","ab-Flankertask-1.osexp","C:/Users/Elaine/AppData/Roaming/Microsoft/Windows/Network Shortcuts","no","mono","no","18","no","white","no","yes","768","legacy","9","9","C:/Users/Elaine/Documents/E Beason/subject-2.csv","legacy","Lentiform Loewenfeld","3.3.3","0","s","NA","return","NA","NA","s","598","NA","32894","NA","NA","598","2","legacy","1024","2","48000","-16","experiment","SSSSS","2","even","59930","40330","NA","NA","49837","7422","NA","NA","61041","7434","NA","NA","61143","61741","61037","61143","Flanker task","8","9142","10","yes","1024"
"81.81818181818181","81.81818181818181","886.1818181818181","886.1818181818181","black","legacy","legacy","legacy","0","congruent","uniform","1","undefined","1","h","10","0","0","0","10","0","10","0","10","0","0","0","10","10","10","10","Sun Sep 27 16:54:31 2020","1500","The main experiment item","yes","ab-Flankertask-1.osexp","C:/Users/Elaine/AppData/Roaming/Microsoft/Windows/Network Shortcuts","no","mono","no","18","no","white","no","yes","768","legacy","10","10","C:/Users/Elaine/Documents/E Beason/subject-2.csv","legacy","Lentiform Loewenfeld","3.3.3","0","h","NA","return","NA","NA","h","606","NA","32894","NA","NA","606","2","legacy","1024","2","48000","-16","experiment","HHHHH","2","even","61750","40330","NA","NA","49837","7422","NA","NA","62858","7434","NA","NA","62960","63567","62855","62960","Flanker task","9","9748","11","yes","1024"
"83.33333333333333","83.33333333333333","861.9166666666666","861.9166666666666","black","legacy","legacy","legacy","0","congruent","uniform","1","undefined","1","s","11","0","0","0","11","0","11","0","11","0","0","0","11","11","11","11","Sun Sep 27 16:54:31 2020","1500","The main experiment item","yes","ab-Flankertask-1.osexp","C:/Users/Elaine/AppData/Roaming/Microsoft/Windows/Network Shortcuts","no","mono","no","18","no","white","no","yes","768","legacy","11","11","C:/Users/Elaine/Documents/E Beason/subject-2.csv","legacy","Lentiform Loewenfeld","3.3.3","0","s","NA","return","NA","NA","s","595","NA","32894","NA","NA","595","2","legacy","1024","2","48000","-16","experiment","SSSSS","2","even","63576","40330","NA","NA","49837","7422","NA","NA","64693","7434","NA","NA","64796","65391","64690","64796","Flanker task","10","10343","12","yes","1024"
"84.61538461538461","84.61538461538461","848.5384615384615","848.5384615384615","black","legacy","legacy","legacy","0","incongruent","uniform","1","undefined","1","s","12","0","0","0","12","0","12","0","12","0","0","0","12","12","12","12","Sun Sep 27 16:54:31 2020","1500","The main experiment item","yes","ab-Flankertask-1.osexp","C:/Users/Elaine/AppData/Roaming/Microsoft/Windows/Network Shortcuts","no","mono","no","18","no","white","no","yes","768","legacy","12","12","C:/Users/Elaine/Documents/E Beason/subject-2.csv","legacy","Lentiform Loewenfeld","3.3.3","0","s","NA","return","NA","NA","s","688","NA","32894","NA","NA","688","2","legacy","1024","2","48000","-16","experiment","HHSHH","2","even","65400","40330","NA","NA","49837","7422","NA","NA","66506","7434","NA","NA","66608","67297","66503","66607","Flanker task","11","11031","13","yes","1024"
"85.71428571428571","85.71428571428571","833","833","black","legacy","legacy","legacy","0","incongruent","uniform","1","undefined","1","s","13","0","0","0","13","0","13","0","13","0","0","0","13","13","13","13","Sun Sep 27 16:54:31 2020","1500","The main experiment item","yes","ab-Flankertask-1.osexp","C:/Users/Elaine/AppData/Roaming/Microsoft/Windows/Network Shortcuts","no","mono","no","18","no","white","no","yes","768","legacy","13","13","C:/Users/Elaine/Documents/E Beason/subject-2.csv","legacy","Lentiform Loewenfeld","3.3.3","0","s","NA","return","NA","NA","s","631","NA","32894","NA","NA","631","2","legacy","1024","2","48000","-16","experiment","HHSHH","2","even","67306","40330","NA","NA","49837","7422","NA","NA","68428","7434","NA","NA","68530","69162","68424","68530","Flanker task","12","11662","14","yes","1024"
"86.66666666666667","86.66666666666667","810.2","810.2","black","legacy","legacy","legacy","0","congruent","uniform","1","undefined","1","s","14","0","0","0","14","0","14","0","14","0","0","0","14","14","14","14","Sun Sep 27 16:54:31 2020","1500","The main experiment item","yes","ab-Flankertask-1.osexp","C:/Users/Elaine/AppData/Roaming/Microsoft/Windows/Network Shortcuts","no","mono","no","18","no","white","no","yes","768","legacy","14","14","C:/Users/Elaine/Documents/E Beason/subject-2.csv","legacy","Lentiform Loewenfeld","3.3.3","0","s","NA","return","NA","NA","s","491","NA","32894","NA","NA","491","2","legacy","1024","2","48000","-16","experiment","SSSSS","2","even","69169","40330","NA","NA","49837","7422","NA","NA","70278","7434","NA","NA","70380","70872","70275","70379","Flanker task","13","12153","15","yes","1024"
"87.5","87.5","793","793","black","legacy","legacy","legacy","0","congruent","uniform","1","undefined","1","h","15","0","0","0","15","0","15","0","15","0","0","0","15","15","15","15","Sun Sep 27 16:54:31 2020","1500","The main experiment item","yes","ab-Flankertask-1.osexp","C:/Users/Elaine/AppData/Roaming/Microsoft/Windows/Network Shortcuts","no","mono","no","18","no","white","no","yes","768","legacy","15","15","C:/Users/Elaine/Documents/E Beason/subject-2.csv","legacy","Lentiform Loewenfeld","3.3.3","0","h","NA","return","NA","NA","h","535","NA","32894","NA","NA","535","2","legacy","1024","2","48000","-16","experiment","HHHHH","2","even","70882","40330","NA","NA","49837","7422","NA","NA","71994","7434","NA","NA","72096","72632","71990","72096","Flanker task","14","12688","16","yes","1024"
"88.23529411764706","88.23529411764706","787.2352941176471","787.2352941176471","black","legacy","legacy","legacy","0","incongruent","uniform","1","undefined","1","h","16","0","0","0","16","0","16","0","16","0","0","0","16","16","16","16","Sun Sep 27 16:54:31 2020","1500","The main experiment item","yes","ab-Flankertask-1.osexp","C:/Users/Elaine/AppData/Roaming/Microsoft/Windows/Network Shortcuts","no","mono","no","18","no","white","no","yes","768","legacy","16","16","C:/Users/Elaine/Documents/E Beason/subject-2.csv","legacy","Lentiform Loewenfeld","3.3.3","0","h","NA","return","NA","NA","h","695","NA","32894","NA","NA","695","2","legacy","1024","2","48000","-16","experiment","SSHSS","2","even","72647","40330","NA","NA","49837","7422","NA","NA","73759","7434","NA","NA","73861","74557","73756","73860","Flanker task","15","13383","17","yes","1024"
"88.88888888888889","88.88888888888889","776","776","black","legacy","legacy","legacy","0","congruent","uniform","1","undefined","1","s","17","0","0","0","17","0","17","0","17","0","0","0","17","17","17","17","Sun Sep 27 16:54:31 2020","1500","The main experiment item","yes","ab-Flankertask-1.osexp","C:/Users/Elaine/AppData/Roaming/Microsoft/Windows/Network Shortcuts","no","mono","no","18","no","white","no","yes","768","legacy","17","17","C:/Users/Elaine/Documents/E Beason/subject-2.csv","legacy","Lentiform Loewenfeld","3.3.3","0","s","NA","return","NA","NA","s","585","NA","32894","NA","NA","585","2","legacy","1024","2","48000","-16","experiment","SSSSS","2","even","74566","40330","NA","NA","49837","7422","NA","NA","75689","7434","NA","NA","75791","76377","75686","75790","Flanker task","16","13968","18","yes","1024"
"89.47368421052632","89.47368421052632","770.3684210526316","770.3684210526316","black","legacy","legacy","legacy","0","congruent","uniform","1","undefined","1","h","18","0","0","0","18","0","18","0","18","0","0","0","18","18","18","18","Sun Sep 27 16:54:31 2020","1500","The main experiment item","yes","ab-Flankertask-1.osexp","C:/Users/Elaine/AppData/Roaming/Microsoft/Windows/Network Shortcuts","no","mono","no","18","no","white","no","yes","768","legacy","18","18","C:/Users/Elaine/Documents/E Beason/subject-2.csv","legacy","Lentiform Loewenfeld","3.3.3","0","h","NA","return","NA","NA","h","669","NA","32894","NA","NA","669","2","legacy","1024","2","48000","-16","experiment","HHHHH","2","even","76393","40330","NA","NA","49837","7422","NA","NA","77505","7434","NA","NA","77607","78277","77502","77606","Flanker task","17","14637","19","yes","1024"
"90","90","761.1","761.1","black","legacy","legacy","legacy","0","incongruent","uniform","1","undefined","1","s","19","0","0","0","19","0","19","0","19","0","0","0","19","19","19","19","Sun Sep 27 16:54:31 2020","1500","The main experiment item","yes","ab-Flankertask-1.osexp","C:/Users/Elaine/AppData/Roaming/Microsoft/Windows/Network Shortcuts","no","mono","no","18","no","white","no","yes","768","legacy","19","19","C:/Users/Elaine/Documents/E Beason/subject-2.csv","legacy","Lentiform Loewenfeld","3.3.3","0","s","NA","return","NA","NA","s","585","NA","32894","NA","NA","585","2","legacy","1024","2","48000","-16","experiment","HHSHH","2","even","78285","40330","NA","NA","49837","7422","NA","NA","79399","7434","NA","NA","79501","80086","79396","79501","Flanker task","18","15222","20","yes","1024"
"90.47619047619048","90.47619047619048","766.6666666666666","766.6666666666666","black","legacy","legacy","legacy","0","congruent","uniform","1","undefined","1","h","20","0","0","0","20","0","20","0","20","0","0","0","20","20","20","20","Sun Sep 27 16:54:31 2020","1500","The main experiment item","yes","ab-Flankertask-1.osexp","C:/Users/Elaine/AppData/Roaming/Microsoft/Windows/Network Shortcuts","no","mono","no","18","no","white","no","yes","768","legacy","20","20","C:/Users/Elaine/Documents/E Beason/subject-2.csv","legacy","Lentiform Loewenfeld","3.3.3","0","h","NA","return","NA","NA","h","878","NA","32894","NA","NA","878","2","legacy","1024","2","48000","-16","experiment","HHHHH","2","even","80100","40330","NA","NA","49837","7422","NA","NA","81216","7434","NA","NA","81318","82197","81213","81317","Flanker task","19","16100","21","yes","1024"
"90.9090909090909","90.9090909090909","757","757","black","legacy","legacy","legacy","0","congruent","uniform","1","undefined","1","s","21","0","0","0","21","0","21","0","21","0","0","0","21","21","21","21","Sun Sep 27 16:54:31 2020","1500","The main experiment item","yes","ab-Flankertask-1.osexp","C:/Users/Elaine/AppData/Roaming/Microsoft/Windows/Network Shortcuts","no","mono","no","18","no","white","no","yes","768","legacy","21","21","C:/Users/Elaine/Documents/E Beason/subject-2.csv","legacy","Lentiform Loewenfeld","3.3.3","0","s","NA","return","NA","NA","s","554","NA","32894","NA","NA","554","2","legacy","1024","2","48000","-16","experiment","SSSSS","2","even","82206","40330","NA","NA","49837","7422","NA","NA","83315","7434","NA","NA","83417","83972","83312","83417","Flanker task","20","16654","22","yes","1024"
"91.30434782608695","91.30434782608695","749.3913043478261","749.3913043478261","black","legacy","legacy","legacy","0","congruent","uniform","1","undefined","1","s","22","0","0","0","22","0","22","0","22","0","0","0","22","22","22","22","Sun Sep 27 16:54:31 2020","1500","The main experiment item","yes","ab-Flankertask-1.osexp","C:/Users/Elaine/AppData/Roaming/Microsoft/Windows/Network Shortcuts","no","mono","no","18","no","white","no","yes","768","legacy","22","22","C:/Users/Elaine/Documents/E Beason/subject-2.csv","legacy","Lentiform Loewenfeld","3.3.3","0","s","NA","return","NA","NA","s","582","NA","32894","NA","NA","582","2","legacy","1024","2","48000","-16","experiment","SSSSS","2","even","83980","40330","NA","NA","49837","7422","NA","NA","85101","7434","NA","NA","85203","85786","85098","85203","Flanker task","21","17236","23","yes","1024"
"91.66666666666667","91.66666666666667","741.0833333333334","741.0833333333334","black","legacy","legacy","legacy","0","congruent","uniform","1","undefined","1","h","23","0","0","0","23","0","23","0","23","0","0","0","23","23","23","23","Sun Sep 27 16:54:31 2020","1500","The main experiment item","yes","ab-Flankertask-1.osexp","C:/Users/Elaine/AppData/Roaming/Microsoft/Windows/Network Shortcuts","no","mono","no","18","no","white","no","yes","768","legacy","23","23","C:/Users/Elaine/Documents/E Beason/subject-2.csv","legacy","Lentiform Loewenfeld","3.3.3","0","h","NA","return","NA","NA","h","550","NA","32894","NA","NA","550","2","legacy","1024","2","48000","-16","experiment","HHHHH","2","even","85796","40330","NA","NA","49837","7422","NA","NA","86909","7434","NA","NA","87011","87562","86906","87011","Flanker task","22","17786","24","yes","1024"
"92","92","742.56","742.56","black","legacy","legacy","legacy","0","congruent","uniform","1","undefined","1","s","24","0","0","0","24","0","24","0","24","0","0","0","24","24","24","24","Sun Sep 27 16:54:31 2020","1500","The main experiment item","yes","ab-Flankertask-1.osexp","C:/Users/Elaine/AppData/Roaming/Microsoft/Windows/Network Shortcuts","no","mono","no","18","no","white","no","yes","768","legacy","24","24","C:/Users/Elaine/Documents/E Beason/subject-2.csv","legacy","Lentiform Loewenfeld","3.3.3","0","s","NA","return","NA","NA","s","778","NA","32894","NA","NA","778","2","legacy","1024","2","48000","-16","experiment","SSSSS","2","even","87570","40330","NA","NA","49837","7422","NA","NA","88690","7434","NA","NA","88793","89572","88688","88792","Flanker task","23","18564","25","yes","1024"
"92.3076923076923","92.3076923076923","740.3076923076923","740.3076923076923","black","legacy","legacy","legacy","0","congruent","uniform","1","undefined","1","h","25","0","0","0","25","0","25","0","25","0","0","0","25","25","25","25","Sun Sep 27 16:54:31 2020","1500","The main experiment item","yes","ab-Flankertask-1.osexp","C:/Users/Elaine/AppData/Roaming/Microsoft/Windows/Network Shortcuts","no","mono","no","18","no","white","no","yes","768","legacy","25","25","C:/Users/Elaine/Documents/E Beason/subject-2.csv","legacy","Lentiform Loewenfeld","3.3.3","0","h","NA","return","NA","NA","h","684","NA","32894","NA","NA","684","2","legacy","1024","2","48000","-16","experiment","HHHHH","2","even","89581","40330","NA","NA","49837","7422","NA","NA","90695","7434","NA","NA","90797","91482","90692","90797","Flanker task","24","19248","26","yes","1024"
"92.5925925925926","92.5925925925926","747.2962962962963","747.2962962962963","black","legacy","legacy","legacy","0","incongruent","uniform","1","undefined","1","h","26","0","0","0","26","0","26","0","26","0","0","0","26","26","26","26","Sun Sep 27 16:54:31 2020","1500","The main experiment item","yes","ab-Flankertask-1.osexp","C:/Users/Elaine/AppData/Roaming/Microsoft/Windows/Network Shortcuts","no","mono","no","18","no","white","no","yes","768","legacy","26","26","C:/Users/Elaine/Documents/E Beason/subject-2.csv","legacy","Lentiform Loewenfeld","3.3.3","0","h","NA","return","NA","NA","h","929","NA","32894","NA","NA","929","2","legacy","1024","2","48000","-16","experiment","SSHSS","2","even","91490","40330","NA","NA","49837","7422","NA","NA","92599","7434","NA","NA","92701","93632","92596","92701","Flanker task","25","20177","27","yes","1024"
"92.85714285714286","92.85714285714286","743.9642857142857","743.9642857142857","black","legacy","legacy","legacy","0","incongruent","uniform","1","undefined","1","s","27","0","0","0","27","0","27","0","27","0","0","0","27","27","27","27","Sun Sep 27 16:54:31 2020","1500","The main experiment item","yes","ab-Flankertask-1.osexp","C:/Users/Elaine/AppData/Roaming/Microsoft/Windows/Network Shortcuts","no","mono","no","18","no","white","no","yes","768","legacy","27","27","C:/Users/Elaine/Documents/E Beason/subject-2.csv","legacy","Lentiform Loewenfeld","3.3.3","0","s","NA","return","NA","NA","s","654","NA","32894","NA","NA","654","2","legacy","1024","2","48000","-16","experiment","HHSHH","2","even","93641","40330","NA","NA","49837","7422","NA","NA","94754","7434","NA","NA","94857","95512","94751","94857","Flanker task","26","20831","28","yes","1024"
"93.10344827586206","93.10344827586206","737.7931034482758","737.7931034482758","black","legacy","legacy","legacy","0","congruent","uniform","1","undefined","1","s","28","0","0","0","28","0","28","0","28","0","0","0","28","28","28","28","Sun Sep 27 16:54:31 2020","1500","The main experiment item","yes","ab-Flankertask-1.osexp","C:/Users/Elaine/AppData/Roaming/Microsoft/Windows/Network Shortcuts","no","mono","no","18","no","white","no","yes","768","legacy","28","28","C:/Users/Elaine/Documents/E Beason/subject-2.csv","legacy","Lentiform Loewenfeld","3.3.3","0","s","NA","return","NA","NA","s","565","NA","32894","NA","NA","565","2","legacy","1024","2","48000","-16","experiment","SSSSS","2","even","95528","40330","NA","NA","49837","7422","NA","NA","96634","7434","NA","NA","96736","97302","96631","96736","Flanker task","27","21396","29","yes","1024"
"93.33333333333333","93.33333333333333","734.3666666666667","734.3666666666667","black","legacy","legacy","legacy","0","incongruent","uniform","1","undefined","1","h","29","0","0","0","29","0","29","0","29","0","0","0","29","29","29","29","Sun Sep 27 16:54:31 2020","1500","The main experiment item","yes","ab-Flankertask-1.osexp","C:/Users/Elaine/AppData/Roaming/Microsoft/Windows/Network Shortcuts","no","mono","no","18","no","white","no","yes","768","legacy","29","29","C:/Users/Elaine/Documents/E Beason/subject-2.csv","legacy","Lentiform Loewenfeld","3.3.3","0","h","NA","return","NA","NA","h","635","NA","32894","NA","NA","635","2","legacy","1024","2","48000","-16","experiment","SSHSS","2","even","97319","40330","NA","NA","49837","7422","NA","NA","98439","7434","NA","NA","98541","99177","98436","98540","Flanker task","28","22031","30","yes","1024"
"93.54838709677419","93.54838709677419","733.9354838709677","733.9354838709677","black","legacy","legacy","legacy","0","congruent","uniform","1","undefined","1","s","30","0","0","0","30","0","30","0","30","0","0","0","30","30","30","30","Sun Sep 27 16:54:31 2020","1500","The main experiment item","yes","ab-Flankertask-1.osexp","C:/Users/Elaine/AppData/Roaming/Microsoft/Windows/Network Shortcuts","no","mono","no","18","no","white","no","yes","768","legacy","30","30","C:/Users/Elaine/Documents/E Beason/subject-2.csv","legacy","Lentiform Loewenfeld","3.3.3","0","s","NA","return","NA","NA","s","721","NA","32894","NA","NA","721","2","legacy","1024","2","48000","-16","experiment","SSSSS","2","even","99192","40330","NA","NA","49837","7422","NA","NA","100307","7434","NA","NA","100410","101132","100303","100410","Flanker task","29","22752","31","yes","1024"
"93.75","93.75","732.53125","732.53125","black","legacy","legacy","legacy","0","incongruent","uniform","1","undefined","1","h","31","0","0","0","31","0","31","0","31","0","0","0","31","31","31","31","Sun Sep 27 16:54:31 2020","1500","The main experiment item","yes","ab-Flankertask-1.osexp","C:/Users/Elaine/AppData/Roaming/Microsoft/Windows/Network Shortcuts","no","mono","no","18","no","white","no","yes","768","legacy","31","31","C:/Users/Elaine/Documents/E Beason/subject-2.csv","legacy","Lentiform Loewenfeld","3.3.3","0","h","NA","return","NA","NA","h","689","NA","32894","NA","NA","689","2","legacy","1024","2","48000","-16","experiment","SSHSS","2","even","101148","40330","NA","NA","49837","7422","NA","NA","102270","7434","NA","NA","102372","103062","102267","102372","Flanker task","30","23441","32","yes","1024"
"93.93939393939394","93.93939393939394","727.4242424242424","727.4242424242424","black","legacy","legacy","legacy","0","congruent","uniform","1","undefined","1","s","32","0","0","0","32","0","32","0","32","0","0","0","32","32","32","32","Sun Sep 27 16:54:31 2020","1500","The main experiment item","yes","ab-Flankertask-1.osexp","C:/Users/Elaine/AppData/Roaming/Microsoft/Windows/Network Shortcuts","no","mono","no","18","no","white","no","yes","768","legacy","32","32","C:/Users/Elaine/Documents/E Beason/subject-2.csv","legacy","Lentiform Loewenfeld","3.3.3","0","s","NA","return","NA","NA","s","564","NA","32894","NA","NA","564","2","legacy","1024","2","48000","-16","experiment","SSSSS","2","even","103072","40330","NA","NA","49837","7422","NA","NA","104190","7434","NA","NA","104292","104857","104187","104291","Flanker task","31","24005","33","yes","1024"
"94.11764705882354","94.11764705882354","722.9411764705883","722.9411764705883","black","legacy","legacy","legacy","0","congruent","uniform","1","undefined","1","s","33","0","0","0","33","0","33","0","33","0","0","0","33","33","33","33","Sun Sep 27 16:54:31 2020","1500","The main experiment item","yes","ab-Flankertask-1.osexp","C:/Users/Elaine/AppData/Roaming/Microsoft/Windows/Network Shortcuts","no","mono","no","18","no","white","no","yes","768","legacy","33","33","C:/Users/Elaine/Documents/E Beason/subject-2.csv","legacy","Lentiform Loewenfeld","3.3.3","0","s","NA","return","NA","NA","s","575","NA","32894","NA","NA","575","2","legacy","1024","2","48000","-16","experiment","SSSSS","2","even","104866","40330","NA","NA","49837","7422","NA","NA","105979","7434","NA","NA","106081","106657","105976","106080","Flanker task","32","24580","34","yes","1024"
"94.28571428571429","94.28571428571429","720.8857142857142","720.8857142857142","black","legacy","legacy","legacy","0","incongruent","uniform","1","undefined","1","h","34","0","0","0","34","0","34","0","34","0","0","0","34","34","34","34","Sun Sep 27 16:54:31 2020","1500","The main experiment item","yes","ab-Flankertask-1.osexp","C:/Users/Elaine/AppData/Roaming/Microsoft/Windows/Network Shortcuts","no","mono","no","18","no","white","no","yes","768","legacy","34","34","C:/Users/Elaine/Documents/E Beason/subject-2.csv","legacy","Lentiform Loewenfeld","3.3.3","0","h","NA","return","NA","NA","h","651","NA","32894","NA","NA","651","2","legacy","1024","2","48000","-16","experiment","SSHSS","2","even","106667","40330","NA","NA","49837","7422","NA","NA","107777","7434","NA","NA","107879","108531","107774","107878","Flanker task","33","25231","35","yes","1024"
"94.44444444444444","94.44444444444444","718.0833333333334","718.0833333333334","black","legacy","legacy","legacy","0","incongruent","uniform","1","undefined","1","s","35","0","0","0","35","0","35","0","35","0","0","0","35","35","35","35","Sun Sep 27 16:54:31 2020","1500","The main experiment item","yes","ab-Flankertask-1.osexp","C:/Users/Elaine/AppData/Roaming/Microsoft/Windows/Network Shortcuts","no","mono","no","18","no","white","no","yes","768","legacy","35","35","C:/Users/Elaine/Documents/E Beason/subject-2.csv","legacy","Lentiform Loewenfeld","3.3.3","0","s","NA","return","NA","NA","s","620","NA","32894","NA","NA","620","2","legacy","1024","2","48000","-16","experiment","HHSHH","2","even","108540","40330","NA","NA","49837","7422","NA","NA","109658","7434","NA","NA","109760","110380","109655","109760","Flanker task","34","25851","36","yes","1024"
"94.5945945945946","94.5945945945946","715.8918918918919","715.8918918918919","black","legacy","legacy","legacy","0","congruent","uniform","1","undefined","1","h","36","0","0","0","36","0","36","0","36","0","0","0","36","36","36","36","Sun Sep 27 16:54:31 2020","1500","The main experiment item","yes","ab-Flankertask-1.osexp","C:/Users/Elaine/AppData/Roaming/Microsoft/Windows/Network Shortcuts","no","mono","no","18","no","white","no","yes","768","legacy","36","36","C:/Users/Elaine/Documents/E Beason/subject-2.csv","legacy","Lentiform Loewenfeld","3.3.3","0","h","NA","return","NA","NA","h","637","NA","32894","NA","NA","637","2","legacy","1024","2","48000","-16","experiment","HHHHH","2","even","110391","40330","NA","NA","49837","7422","NA","NA","111501","7434","NA","NA","111603","112241","111498","111603","Flanker task","35","26488","37","yes","1024"
"94.73684210526316","94.73684210526316","713.078947368421","713.078947368421","black","legacy","legacy","legacy","0","congruent","uniform","1","undefined","1","h","37","0","0","0","37","0","37","0","37","0","0","0","37","37","37","37","Sun Sep 27 16:54:31 2020","1500","The main experiment item","yes","ab-Flankertask-1.osexp","C:/Users/Elaine/AppData/Roaming/Microsoft/Windows/Network Shortcuts","no","mono","no","18","no","white","no","yes","768","legacy","37","37","C:/Users/Elaine/Documents/E Beason/subject-2.csv","legacy","Lentiform Loewenfeld","3.3.3","0","h","NA","return","NA","NA","h","609","NA","32894","NA","NA","609","2","legacy","1024","2","48000","-16","experiment","HHHHH","2","even","112251","40330","NA","NA","49837","7422","NA","NA","113369","7434","NA","NA","113471","114081","113366","113471","Flanker task","36","27097","38","yes","1024"
"94.87179487179488","94.87179487179488","712.4358974358975","712.4358974358975","black","legacy","legacy","legacy","0","congruent","uniform","1","undefined","1","s","38","0","0","0","38","0","38","0","38","0","0","0","38","38","38","38","Sun Sep 27 16:54:31 2020","1500","The main experiment item","yes","ab-Flankertask-1.osexp","C:/Users/Elaine/AppData/Roaming/Microsoft/Windows/Network Shortcuts","no","mono","no","18","no","white","no","yes","768","legacy","38","38","C:/Users/Elaine/Documents/E Beason/subject-2.csv","legacy","Lentiform Loewenfeld","3.3.3","0","s","NA","return","NA","NA","s","688","NA","32894","NA","NA","688","2","legacy","1024","2","48000","-16","experiment","SSSSS","2","even","114089","40330","NA","NA","49837","7422","NA","NA","115199","7434","NA","NA","115302","115991","115196","115301","Flanker task","37","27785","39","yes","1024"
"95","95","715.875","715.875","black","legacy","legacy","legacy","0","incongruent","uniform","1","undefined","1","s","39","0","0","0","39","0","39","0","39","0","0","0","39","39","39","39","Sun Sep 27 16:54:31 2020","1500","The main experiment item","yes","ab-Flankertask-1.osexp","C:/Users/Elaine/AppData/Roaming/Microsoft/Windows/Network Shortcuts","no","mono","no","18","no","white","no","yes","768","legacy","39","39","C:/Users/Elaine/Documents/E Beason/subject-2.csv","legacy","Lentiform Loewenfeld","3.3.3","0","s","NA","return","NA","NA","s","850","NA","32894","NA","NA","850","2","legacy","1024","2","48000","-16","experiment","HHSHH","2","even","116008","40330","NA","NA","49837","7422","NA","NA","117123","7434","NA","NA","117225","118076","117119","117225","Flanker task","38","28635","40","yes","1024"
"95.1219512195122","95.1219512195122","714.3170731707318","714.3170731707318","black","legacy","legacy","legacy","0","congruent","uniform","1","undefined","1","h","40","0","0","0","40","0","40","0","40","0","0","0","40","40","40","40","Sun Sep 27 16:54:31 2020","1500","The main experiment item","yes","ab-Flankertask-1.osexp","C:/Users/Elaine/AppData/Roaming/Microsoft/Windows/Network Shortcuts","no","mono","no","18","no","white","no","yes","768","legacy","40","40","C:/Users/Elaine/Documents/E Beason/subject-2.csv","legacy","Lentiform Loewenfeld","3.3.3","0","h","NA","return","NA","NA","h","652","NA","32894","NA","NA","652","2","legacy","1024","2","48000","-16","experiment","HHHHH","2","even","118086","40330","NA","NA","49837","7422","NA","NA","119201","7434","NA","NA","119303","119956","119197","119303","Flanker task","39","29287","41","yes","1024"
"95.23809523809524","95.23809523809524","712.2380952380952","712.2380952380952","black","legacy","legacy","legacy","0","congruent","uniform","1","undefined","1","h","41","0","0","0","41","0","41","0","41","0","0","0","41","41","41","41","Sun Sep 27 16:54:31 2020","1500","The main experiment item","yes","ab-Flankertask-1.osexp","C:/Users/Elaine/AppData/Roaming/Microsoft/Windows/Network Shortcuts","no","mono","no","18","no","white","no","yes","768","legacy","41","41","C:/Users/Elaine/Documents/E Beason/subject-2.csv","legacy","Lentiform Loewenfeld","3.3.3","0","h","NA","return","NA","NA","h","627","NA","32894","NA","NA","627","2","legacy","1024","2","48000","-16","experiment","HHHHH","2","even","119965","40330","NA","NA","49837","7422","NA","NA","121076","7434","NA","NA","121178","121806","121073","121177","Flanker task","40","29914","42","yes","1024"
"95.34883720930233","95.34883720930233","708.4418604651163","708.4418604651163","black","legacy","legacy","legacy","0","congruent","uniform","1","undefined","1","h","42","0","0","0","42","0","42","0","42","0","0","0","42","42","42","42","Sun Sep 27 16:54:31 2020","1500","The main experiment item","yes","ab-Flankertask-1.osexp","C:/Users/Elaine/AppData/Roaming/Microsoft/Windows/Network Shortcuts","no","mono","no","18","no","white","no","yes","768","legacy","42","42","C:/Users/Elaine/Documents/E Beason/subject-2.csv","legacy","Lentiform Loewenfeld","3.3.3","0","h","NA","return","NA","NA","h","549","NA","32894","NA","NA","549","2","legacy","1024","2","48000","-16","experiment","HHHHH","2","even","121816","40330","NA","NA","49837","7422","NA","NA","122929","7434","NA","NA","123031","123581","122925","123030","Flanker task","41","30463","43","yes","1024"
"95.45454545454545","95.45454545454545","704.7954545454545","704.7954545454545","black","legacy","legacy","legacy","0","congruent","uniform","1","undefined","1","h","43","0","0","0","43","0","43","0","43","0","0","0","43","43","43","43","Sun Sep 27 16:54:31 2020","1500","The main experiment item","yes","ab-Flankertask-1.osexp","C:/Users/Elaine/AppData/Roaming/Microsoft/Windows/Network Shortcuts","no","mono","no","18","no","white","no","yes","768","legacy","43","43","C:/Users/Elaine/Documents/E Beason/subject-2.csv","legacy","Lentiform Loewenfeld","3.3.3","0","h","NA","return","NA","NA","h","548","NA","32894","NA","NA","548","2","legacy","1024","2","48000","-16","experiment","HHHHH","2","even","123591","40330","NA","NA","49837","7422","NA","NA","124699","7434","NA","NA","124802","125351","124696","124802","Flanker task","42","31011","44","yes","1024"
"95.55555555555556","95.55555555555556","703.0888888888888","703.0888888888888","black","legacy","legacy","legacy","0","incongruent","uniform","1","undefined","1","h","44","0","0","0","44","0","44","0","44","0","0","0","44","44","44","44","Sun Sep 27 16:54:31 2020","1500","The main experiment item","yes","ab-Flankertask-1.osexp","C:/Users/Elaine/AppData/Roaming/Microsoft/Windows/Network Shortcuts","no","mono","no","18","no","white","no","yes","768","legacy","44","44","C:/Users/Elaine/Documents/E Beason/subject-2.csv","legacy","Lentiform Loewenfeld","3.3.3","0","h","NA","return","NA","NA","h","628","NA","32894","NA","NA","628","2","legacy","1024","2","48000","-16","experiment","SSHSS","2","even","125361","40330","NA","NA","49837","7422","NA","NA","126470","7434","NA","NA","126572","127201","126466","126572","Flanker task","43","31639","45","yes","1024"
"95.65217391304348","95.65217391304348","697.5217391304348","697.5217391304348","black","legacy","legacy","legacy","0","congruent","uniform","1","undefined","1","h","45","0","0","0","45","0","45","0","45","0","0","0","45","45","45","45","Sun Sep 27 16:54:31 2020","1500","The main experiment item","yes","ab-Flankertask-1.osexp","C:/Users/Elaine/AppData/Roaming/Microsoft/Windows/Network Shortcuts","no","mono","no","18","no","white","no","yes","768","legacy","45","45","C:/Users/Elaine/Documents/E Beason/subject-2.csv","legacy","Lentiform Loewenfeld","3.3.3","0","h","NA","return","NA","NA","h","447","NA","32894","NA","NA","447","2","legacy","1024","2","48000","-16","experiment","HHHHH","2","even","127988","40330","NA","NA","49837","7422","NA","NA","129099","7434","NA","NA","129202","129650","129097","129202","Flanker task","44","32086","46","yes","1024"
"95.74468085106383","95.74468085106383","695","695","black","legacy","legacy","legacy","0","congruent","uniform","1","undefined","1","s","46","0","0","0","46","0","46","0","46","0","0","0","46","46","46","46","Sun Sep 27 16:54:31 2020","1500","The main experiment item","yes","ab-Flankertask-1.osexp","C:/Users/Elaine/AppData/Roaming/Microsoft/Windows/Network Shortcuts","no","mono","no","18","no","white","no","yes","768","legacy","46","46","C:/Users/Elaine/Documents/E Beason/subject-2.csv","legacy","Lentiform Loewenfeld","3.3.3","0","s","NA","return","NA","NA","s","579","NA","32894","NA","NA","579","2","legacy","1024","2","48000","-16","experiment","SSSSS","2","even","129660","40330","NA","NA","49837","7422","NA","NA","130774","7434","NA","NA","130876","131456","130771","130876","Flanker task","45","32665","47","yes","1024"
"95.83333333333333","95.83333333333333","694.9583333333334","694.9583333333334","black","legacy","legacy","legacy","0","congruent","uniform","1","undefined","1","h","47","0","0","0","47","0","47","0","47","0","0","0","47","47","47","47","Sun Sep 27 16:54:31 2020","1500","The main experiment item","yes","ab-Flankertask-1.osexp","C:/Users/Elaine/AppData/Roaming/Microsoft/Windows/Network Shortcuts","no","mono","no","18","no","white","no","yes","768","legacy","47","47","C:/Users/Elaine/Documents/E Beason/subject-2.csv","legacy","Lentiform Loewenfeld","3.3.3","0","h","NA","return","NA","NA","h","693","NA","32894","NA","NA","693","2","legacy","1024","2","48000","-16","experiment","HHHHH","2","even","131463","40330","NA","NA","49837","7422","NA","NA","132575","7434","NA","NA","132677","133371","132572","132677","Flanker task","46","33358","48","yes","1024"
"95.91836734693878","95.91836734693878","695.1224489795918","695.1224489795918","black","legacy","legacy","legacy","0","incongruent","uniform","1","undefined","1","s","48","0","0","0","48","0","48","0","48","0","0","0","48","48","48","48","Sun Sep 27 16:54:31 2020","1500","The main experiment item","yes","ab-Flankertask-1.osexp","C:/Users/Elaine/AppData/Roaming/Microsoft/Windows/Network Shortcuts","no","mono","no","18","no","white","no","yes","768","legacy","48","48","C:/Users/Elaine/Documents/E Beason/subject-2.csv","legacy","Lentiform Loewenfeld","3.3.3","0","s","NA","return","NA","NA","s","703","NA","32894","NA","NA","703","2","legacy","1024","2","48000","-16","experiment","HHSHH","2","even","133381","40330","NA","NA","49837","7422","NA","NA","134490","7434","NA","NA","134592","135296","134487","134592","Flanker task","47","34061","49","yes","1024"
"96","96","696.12","696.12","black","legacy","legacy","legacy","0","incongruent","uniform","1","undefined","1","s","49","0","0","0","49","0","49","0","49","0","0","0","49","49","49","49","Sun Sep 27 16:54:31 2020","1500","The main experiment item","yes","ab-Flankertask-1.osexp","C:/Users/Elaine/AppData/Roaming/Microsoft/Windows/Network Shortcuts","no","mono","no","18","no","white","no","yes","768","legacy","49","49","C:/Users/Elaine/Documents/E Beason/subject-2.csv","legacy","Lentiform Loewenfeld","3.3.3","0","s","NA","return","NA","NA","s","745","NA","32894","NA","NA","745","2","legacy","1024","2","48000","-16","experiment","HHSHH","2","even","135307","40330","NA","NA","49837","7422","NA","NA","136443","7434","NA","NA","136545","137291","136440","136545","Flanker task","48","34806","50","yes","1024"
"96.07843137254902","96.07843137254902","694.4705882352941","694.4705882352941","black","legacy","legacy","legacy","0","incongruent","uniform","1","undefined","1","h","50","0","0","0","50","0","50","0","50","0","0","0","50","50","50","50","Sun Sep 27 16:54:31 2020","1500","The main experiment item","yes","ab-Flankertask-1.osexp","C:/Users/Elaine/AppData/Roaming/Microsoft/Windows/Network Shortcuts","no","mono","no","18","no","white","no","yes","768","legacy","50","50","C:/Users/Elaine/Documents/E Beason/subject-2.csv","legacy","Lentiform Loewenfeld","3.3.3","0","h","NA","return","NA","NA","h","612","NA","32894","NA","NA","612","2","legacy","1024","2","48000","-16","experiment","SSHSS","2","even","137307","40330","NA","NA","49837","7422","NA","NA","138426","7434","NA","NA","138528","139141","138423","138528","Flanker task","49","35418","51","yes","1024"
"96.15384615384616","96.15384615384616","693.0961538461538","693.0961538461538","black","legacy","legacy","legacy","0","incongruent","uniform","1","undefined","1","s","51","0","0","0","51","0","51","0","51","0","0","0","51","51","51","51","Sun Sep 27 16:54:31 2020","1500","The main experiment item","yes","ab-Flankertask-1.osexp","C:/Users/Elaine/AppData/Roaming/Microsoft/Windows/Network Shortcuts","no","mono","no","18","no","white","no","yes","768","legacy","51","51","C:/Users/Elaine/Documents/E Beason/subject-2.csv","legacy","Lentiform Loewenfeld","3.3.3","0","s","NA","return","NA","NA","s","623","NA","32894","NA","NA","623","2","legacy","1024","2","48000","-16","experiment","HHSHH","2","even","139158","40330","NA","NA","49837","7422","NA","NA","140280","7434","NA","NA","140382","141006","140277","140382","Flanker task","50","36041","52","yes","1024"
"96.22641509433963","96.22641509433963","692.3962264150944","692.3962264150944","black","legacy","legacy","legacy","0","incongruent","uniform","1","undefined","1","h","52","0","0","0","52","0","52","0","52","0","0","0","52","52","52","52","Sun Sep 27 16:54:31 2020","1500","The main experiment item","yes","ab-Flankertask-1.osexp","C:/Users/Elaine/AppData/Roaming/Microsoft/Windows/Network Shortcuts","no","mono","no","18","no","white","no","yes","768","legacy","52","52","C:/Users/Elaine/Documents/E Beason/subject-2.csv","legacy","Lentiform Loewenfeld","3.3.3","0","h","NA","return","NA","NA","h","656","NA","32894","NA","NA","656","2","legacy","1024","2","48000","-16","experiment","SSHSS","2","even","141016","40330","NA","NA","49837","7422","NA","NA","142132","7434","NA","NA","142234","142891","142129","142233","Flanker task","51","36697","53","yes","1024"
"96.29629629629629","96.29629629629629","691.1481481481482","691.1481481481482","black","legacy","legacy","legacy","0","congruent","uniform","1","undefined","1","s","53","0","0","0","53","0","53","0","53","0","0","0","53","53","53","53","Sun Sep 27 16:54:31 2020","1500","The main experiment item","yes","ab-Flankertask-1.osexp","C:/Users/Elaine/AppData/Roaming/Microsoft/Windows/Network Shortcuts","no","mono","no","18","no","white","no","yes","768","legacy","53","53","C:/Users/Elaine/Documents/E Beason/subject-2.csv","legacy","Lentiform Loewenfeld","3.3.3","0","s","NA","return","NA","NA","s","625","NA","32894","NA","NA","625","2","legacy","1024","2","48000","-16","experiment","SSSSS","2","even","142898","40330","NA","NA","49837","7422","NA","NA","144012","7434","NA","NA","144115","144741","144010","144114","Flanker task","52","37322","54","yes","1024"
"96.36363636363636","96.36363636363636","691.3818181818182","691.3818181818182","black","legacy","legacy","legacy","0","incongruent","uniform","1","undefined","1","s","54","0","0","0","54","0","54","0","54","0","0","0","54","54","54","54","Sun Sep 27 16:54:31 2020","1500","The main experiment item","yes","ab-Flankertask-1.osexp","C:/Users/Elaine/AppData/Roaming/Microsoft/Windows/Network Shortcuts","no","mono","no","18","no","white","no","yes","768","legacy","54","54","C:/Users/Elaine/Documents/E Beason/subject-2.csv","legacy","Lentiform Loewenfeld","3.3.3","0","s","NA","return","NA","NA","s","704","NA","32894","NA","NA","704","2","legacy","1024","2","48000","-16","experiment","HHSHH","2","even","144751","40330","NA","NA","49837","7422","NA","NA","145864","7434","NA","NA","145966","146672","145860","145966","Flanker task","53","38026","55","yes","1024"
"96.42857142857143","96.42857142857143","690.1607142857143","690.1607142857143","black","legacy","legacy","legacy","0","incongruent","uniform","1","undefined","1","h","55","0","0","0","55","0","55","0","55","0","0","0","55","55","55","55","Sun Sep 27 16:54:31 2020","1500","The main experiment item","yes","ab-Flankertask-1.osexp","C:/Users/Elaine/AppData/Roaming/Microsoft/Windows/Network Shortcuts","no","mono","no","18","no","white","no","yes","768","legacy","55","55","C:/Users/Elaine/Documents/E Beason/subject-2.csv","legacy","Lentiform Loewenfeld","3.3.3","0","h","NA","return","NA","NA","h","623","NA","32894","NA","NA","623","2","legacy","1024","2","48000","-16","experiment","SSHSS","2","even","146681","40330","NA","NA","49837","7422","NA","NA","147795","7434","NA","NA","147897","148521","147792","147897","Flanker task","54","38649","56","yes","1024"
"96.49122807017544","96.49122807017544","687.9122807017544","687.9122807017544","black","legacy","legacy","legacy","0","incongruent","uniform","1","undefined","1","h","56","0","0","0","56","0","56","0","56","0","0","0","56","56","56","56","Sun Sep 27 16:54:31 2020","1500","The main experiment item","yes","ab-Flankertask-1.osexp","C:/Users/Elaine/AppData/Roaming/Microsoft/Windows/Network Shortcuts","no","mono","no","18","no","white","no","yes","768","legacy","56","56","C:/Users/Elaine/Documents/E Beason/subject-2.csv","legacy","Lentiform Loewenfeld","3.3.3","0","h","NA","return","NA","NA","h","562","NA","32894","NA","NA","562","2","legacy","1024","2","48000","-16","experiment","SSHSS","2","even","148538","40330","NA","NA","49837","7422","NA","NA","149646","7434","NA","NA","149748","150311","149643","149748","Flanker task","55","39211","57","yes","1024"
"96.55172413793103","96.55172413793103","686.4827586206897","686.4827586206897","black","legacy","legacy","legacy","0","incongruent","uniform","1","undefined","1","h","57","0","0","0","57","0","57","0","57","0","0","0","57","57","57","57","Sun Sep 27 16:54:31 2020","1500","The main experiment item","yes","ab-Flankertask-1.osexp","C:/Users/Elaine/AppData/Roaming/Microsoft/Windows/Network Shortcuts","no","mono","no","18","no","white","no","yes","768","legacy","57","57","C:/Users/Elaine/Documents/E Beason/subject-2.csv","legacy","Lentiform Loewenfeld","3.3.3","0","h","NA","return","NA","NA","h","605","NA","32894","NA","NA","605","2","legacy","1024","2","48000","-16","experiment","SSHSS","2","even","150320","40330","NA","NA","49837","7422","NA","NA","151433","7434","NA","NA","151535","152141","151429","151535","Flanker task","56","39816","58","yes","1024"
"96.61016949152543","96.61016949152543","685.9491525423729","685.9491525423729","black","legacy","legacy","legacy","0","congruent","uniform","1","undefined","1","s","58","0","0","0","58","0","58","0","58","0","0","0","58","58","58","58","Sun Sep 27 16:54:31 2020","1500","The main experiment item","yes","ab-Flankertask-1.osexp","C:/Users/Elaine/AppData/Roaming/Microsoft/Windows/Network Shortcuts","no","mono","no","18","no","white","no","yes","768","legacy","58","58","C:/Users/Elaine/Documents/E Beason/subject-2.csv","legacy","Lentiform Loewenfeld","3.3.3","0","s","NA","return","NA","NA","s","655","NA","32894","NA","NA","655","2","legacy","1024","2","48000","-16","experiment","SSSSS","2","even","152152","40330","NA","NA","49837","7422","NA","NA","153263","7434","NA","NA","153365","154021","153259","153365","Flanker task","57","40471","59","yes","1024"
"96.66666666666667","96.66666666666667","686.7833333333333","686.7833333333333","black","legacy","legacy","legacy","0","incongruent","uniform","1","undefined","1","s","59","0","0","0","59","0","59","0","59","0","0","0","59","59","59","59","Sun Sep 27 16:54:31 2020","1500","The main experiment item","yes","ab-Flankertask-1.osexp","C:/Users/Elaine/AppData/Roaming/Microsoft/Windows/Network Shortcuts","no","mono","no","18","no","white","no","yes","768","legacy","59","59","C:/Users/Elaine/Documents/E Beason/subject-2.csv","legacy","Lentiform Loewenfeld","3.3.3","0","s","NA","return","NA","NA","s","736","NA","32894","NA","NA","736","2","legacy","1024","2","48000","-16","experiment","HHSHH","2","even","154032","40330","NA","NA","49837","7422","NA","NA","155142","7434","NA","NA","155244","155981","155139","155243","Flanker task","58","41207","60","yes","1024"
"96.72131147540983","96.72131147540983","686.0655737704918","686.0655737704918","black","legacy","legacy","legacy","0","congruent","uniform","1","undefined","1","h","60","0","0","0","60","0","60","0","60","0","0","0","60","60","60","60","Sun Sep 27 16:54:31 2020","1500","The main experiment item","yes","ab-Flankertask-1.osexp","C:/Users/Elaine/AppData/Roaming/Microsoft/Windows/Network Shortcuts","no","mono","no","18","no","white","no","yes","768","legacy","60","60","C:/Users/Elaine/Documents/E Beason/subject-2.csv","legacy","Lentiform Loewenfeld","3.3.3","0","h","NA","return","NA","NA","h","643","NA","32894","NA","NA","643","2","legacy","1024","2","48000","-16","experiment","HHHHH","2","even","155991","40330","NA","NA","49837","7422","NA","NA","157105","7434","NA","NA","157207","157851","157102","157207","Flanker task","59","41850","61","yes","1024"
"96.7741935483871","96.7741935483871","684.7741935483871","684.7741935483871","black","legacy","legacy","legacy","0","incongruent","uniform","1","undefined","1","s","61","0","0","0","61","0","61","0","61","0","0","0","61","61","61","61","Sun Sep 27 16:54:31 2020","1500","The main experiment item","yes","ab-Flankertask-1.osexp","C:/Users/Elaine/AppData/Roaming/Microsoft/Windows/Network Shortcuts","no","mono","no","18","no","white","no","yes","768","legacy","61","61","C:/Users/Elaine/Documents/E Beason/subject-2.csv","legacy","Lentiform Loewenfeld","3.3.3","0","s","NA","return","NA","NA","s","606","NA","32894","NA","NA","606","2","legacy","1024","2","48000","-16","experiment","HHSHH","2","even","157861","40330","NA","NA","49837","7422","NA","NA","158972","7434","NA","NA","159074","159681","158969","159073","Flanker task","60","42456","62","yes","1024"
"96.82539682539682","96.82539682539682","685.2857142857143","685.2857142857143","black","legacy","legacy","legacy","0","incongruent","uniform","1","undefined","1","h","62","0","0","0","62","0","62","0","62","0","0","0","62","62","62","62","Sun Sep 27 16:54:31 2020","1500","The main experiment item","yes","ab-Flankertask-1.osexp","C:/Users/Elaine/AppData/Roaming/Microsoft/Windows/Network Shortcuts","no","mono","no","18","no","white","no","yes","768","legacy","62","62","C:/Users/Elaine/Documents/E Beason/subject-2.csv","legacy","Lentiform Loewenfeld","3.3.3","0","h","NA","return","NA","NA","h","717","NA","32894","NA","NA","717","2","legacy","1024","2","48000","-16","experiment","SSHSS","2","even","159698","40330","NA","NA","49837","7422","NA","NA","160806","7434","NA","NA","160908","161627","160802","160907","Flanker task","61","43173","63","yes","1024"
"96.875","96.875","683.484375","683.484375","black","legacy","legacy","legacy","0","congruent","uniform","1","undefined","1","s","63","0","0","0","63","0","63","0","63","0","0","0","63","63","63","63","Sun Sep 27 16:54:31 2020","1500","The main experiment item","yes","ab-Flankertask-1.osexp","C:/Users/Elaine/AppData/Roaming/Microsoft/Windows/Network Shortcuts","no","mono","no","18","no","white","no","yes","768","legacy","63","63","C:/Users/Elaine/Documents/E Beason/subject-2.csv","legacy","Lentiform Loewenfeld","3.3.3","0","s","NA","return","NA","NA","s","570","NA","32894","NA","NA","570","2","legacy","1024","2","48000","-16","experiment","SSSSS","2","even","161637","40330","NA","NA","49837","7422","NA","NA","162747","7434","NA","NA","162850","163421","162745","162849","Flanker task","62","43743","64","yes","1024"
"95.38461538461539","95.38461538461539","680.5846153846154","680.5846153846154","black","legacy","legacy","legacy","0","incongruent","uniform","0","undefined","0","h","64","0","0","0","64","0","64","0","64","0","0","0","64","64","64","64","Sun Sep 27 16:54:31 2020","1500","The main experiment item","yes","ab-Flankertask-1.osexp","C:/Users/Elaine/AppData/Roaming/Microsoft/Windows/Network Shortcuts","no","mono","no","18","no","white","no","yes","768","legacy","64","64","C:/Users/Elaine/Documents/E Beason/subject-2.csv","legacy","Lentiform Loewenfeld","3.3.3","0","s","NA","return","NA","NA","s","495","NA","32894","NA","NA","495","2","legacy","1024","2","48000","-16","experiment","SSHSS","2","even","163432","40330","NA","NA","49837","7422","NA","NA","164543","7434","NA","NA","164645","165141","164540","164645","Flanker task","62","44238","65","yes","1024"
"95.45454545454545","95.45454545454545","680.0454545454545","680.0454545454545","black","legacy","legacy","legacy","0","incongruent","uniform","1","undefined","1","s","65","0","0","0","65","0","65","0","65","0","0","0","65","65","65","65","Sun Sep 27 16:54:31 2020","1500","The main experiment item","yes","ab-Flankertask-1.osexp","C:/Users/Elaine/AppData/Roaming/Microsoft/Windows/Network Shortcuts","no","mono","no","18","no","white","no","yes","768","legacy","65","65","C:/Users/Elaine/Documents/E Beason/subject-2.csv","legacy","Lentiform Loewenfeld","3.3.3","0","s","NA","return","NA","NA","s","645","NA","32894","NA","NA","645","2","legacy","1024","2","48000","-16","experiment","HHSHH","2","even","165653","40330","NA","NA","165151","7422","NA","NA","166762","7434","NA","NA","166865","167511","166759","166865","Flanker task","63","44883","66","yes","1024"
"95.5223880597015","95.5223880597015","679.8358208955224","679.8358208955224","black","legacy","legacy","legacy","0","incongruent","uniform","1","undefined","1","s","66","0","0","0","66","0","66","0","66","0","0","0","66","66","66","66","Sun Sep 27 16:54:31 2020","1500","The main experiment item","yes","ab-Flankertask-1.osexp","C:/Users/Elaine/AppData/Roaming/Microsoft/Windows/Network Shortcuts","no","mono","no","18","no","white","no","yes","768","legacy","66","66","C:/Users/Elaine/Documents/E Beason/subject-2.csv","legacy","Lentiform Loewenfeld","3.3.3","0","s","NA","return","NA","NA","s","666","NA","32894","NA","NA","666","2","legacy","1024","2","48000","-16","experiment","HHSHH","2","even","167521","40330","NA","NA","165151","7422","NA","NA","168642","7434","NA","NA","168744","169411","168638","168743","Flanker task","64","45549","67","yes","1024"
"95.58823529411765","95.58823529411765","677.6617647058823","677.6617647058823","black","legacy","legacy","legacy","0","incongruent","uniform","1","undefined","1","h","67","0","0","0","67","0","67","0","67","0","0","0","67","67","67","67","Sun Sep 27 16:54:31 2020","1500","The main experiment item","yes","ab-Flankertask-1.osexp","C:/Users/Elaine/AppData/Roaming/Microsoft/Windows/Network Shortcuts","no","mono","no","18","no","white","no","yes","768","legacy","67","67","C:/Users/Elaine/Documents/E Beason/subject-2.csv","legacy","Lentiform Loewenfeld","3.3.3","0","h","NA","return","NA","NA","h","532","NA","32894","NA","NA","532","2","legacy","1024","2","48000","-16","experiment","SSHSS","2","even","169421","40330","NA","NA","165151","7422","NA","NA","170536","7434","NA","NA","170638","171172","170533","170638","Flanker task","65","46081","68","yes","1024"
"95.65217391304348","95.65217391304348","675.9710144927536","675.9710144927536","black","legacy","legacy","legacy","0","congruent","uniform","1","undefined","1","s","68","0","0","0","68","0","68","0","68","0","0","0","68","68","68","68","Sun Sep 27 16:54:31 2020","1500","The main experiment item","yes","ab-Flankertask-1.osexp","C:/Users/Elaine/AppData/Roaming/Microsoft/Windows/Network Shortcuts","no","mono","no","18","no","white","no","yes","768","legacy","68","68","C:/Users/Elaine/Documents/E Beason/subject-2.csv","legacy","Lentiform Loewenfeld","3.3.3","0","s","NA","return","NA","NA","s","561","NA","32894","NA","NA","561","2","legacy","1024","2","48000","-16","experiment","SSSSS","2","even","171182","40330","NA","NA","165151","7422","NA","NA","172296","7434","NA","NA","172398","172961","172293","172397","Flanker task","66","46642","69","yes","1024"
"95.71428571428571","95.71428571428571","676.0571428571428","676.0571428571428","black","legacy","legacy","legacy","0","incongruent","uniform","1","undefined","1","s","69","0","0","0","69","0","69","0","69","0","0","0","69","69","69","69","Sun Sep 27 16:54:31 2020","1500","The main experiment item","yes","ab-Flankertask-1.osexp","C:/Users/Elaine/AppData/Roaming/Microsoft/Windows/Network Shortcuts","no","mono","no","18","no","white","no","yes","768","legacy","69","69","C:/Users/Elaine/Documents/E Beason/subject-2.csv","legacy","Lentiform Loewenfeld","3.3.3","0","s","NA","return","NA","NA","s","682","NA","32894","NA","NA","682","2","legacy","1024","2","48000","-16","experiment","HHSHH","2","even","172977","40330","NA","NA","165151","7422","NA","NA","174086","7434","NA","NA","174188","174871","174083","174188","Flanker task","67","47324","70","yes","1024"
"95.77464788732394","95.77464788732394","675.9154929577464","675.9154929577464","black","legacy","legacy","legacy","0","incongruent","uniform","1","undefined","1","h","70","0","0","0","70","0","70","0","70","0","0","0","70","70","70","70","Sun Sep 27 16:54:31 2020","1500","The main experiment item","yes","ab-Flankertask-1.osexp","C:/Users/Elaine/AppData/Roaming/Microsoft/Windows/Network Shortcuts","no","mono","no","18","no","white","no","yes","768","legacy","70","70","C:/Users/Elaine/Documents/E Beason/subject-2.csv","legacy","Lentiform Loewenfeld","3.3.3","0","h","NA","return","NA","NA","h","666","NA","32894","NA","NA","666","2","legacy","1024","2","48000","-16","experiment","SSHSS","2","even","174881","40330","NA","NA","165151","7422","NA","NA","176026","7434","NA","NA","176128","176796","176022","176128","Flanker task","68","47990","71","yes","1024"
"95.83333333333333","95.83333333333333","676.3611111111111","676.3611111111111","black","legacy","legacy","legacy","0","incongruent","uniform","1","undefined","1","h","71","0","0","0","71","0","71","0","71","0","0","0","71","71","71","71","Sun Sep 27 16:54:31 2020","1500","The main experiment item","yes","ab-Flankertask-1.osexp","C:/Users/Elaine/AppData/Roaming/Microsoft/Windows/Network Shortcuts","no","mono","no","18","no","white","no","yes","768","legacy","71","71","C:/Users/Elaine/Documents/E Beason/subject-2.csv","legacy","Lentiform Loewenfeld","3.3.3","0","h","NA","return","NA","NA","h","708","NA","32894","NA","NA","708","2","legacy","1024","2","48000","-16","experiment","SSHSS","2","even","176806","40330","NA","NA","165151","7422","NA","NA","177920","7434","NA","NA","178022","178731","177917","178021","Flanker task","69","48698","72","yes","1024"
"95.89041095890411","95.89041095890411","675.4657534246576","675.4657534246576","black","legacy","legacy","legacy","0","congruent","uniform","1","undefined","1","s","72","0","0","0","72","0","72","0","72","0","0","0","72","72","72","72","Sun Sep 27 16:54:31 2020","1500","The main experiment item","yes","ab-Flankertask-1.osexp","C:/Users/Elaine/AppData/Roaming/Microsoft/Windows/Network Shortcuts","no","mono","no","18","no","white","no","yes","768","legacy","72","72","C:/Users/Elaine/Documents/E Beason/subject-2.csv","legacy","Lentiform Loewenfeld","3.3.3","0","s","NA","return","NA","NA","s","611","NA","32894","NA","NA","611","2","legacy","1024","2","48000","-16","experiment","SSSSS","2","even","178747","40330","NA","NA","165151","7422","NA","NA","179865","7434","NA","NA","179968","180581","179862","179967","Flanker task","70","49309","73","yes","1024"
"95.94594594594595","95.94594594594595","673.9864864864865","673.9864864864865","black","legacy","legacy","legacy","0","congruent","uniform","1","undefined","1","h","73","0","0","0","73","0","73","0","73","0","0","0","73","73","73","73","Sun Sep 27 16:54:31 2020","1500","The main experiment item","yes","ab-Flankertask-1.osexp","C:/Users/Elaine/AppData/Roaming/Microsoft/Windows/Network Shortcuts","no","mono","no","18","no","white","no","yes","768","legacy","73","73","C:/Users/Elaine/Documents/E Beason/subject-2.csv","legacy","Lentiform Loewenfeld","3.3.3","0","h","NA","return","NA","NA","h","566","NA","32894","NA","NA","566","2","legacy","1024","2","48000","-16","experiment","HHHHH","2","even","180598","40330","NA","NA","165151","7422","NA","NA","181712","7434","NA","NA","181814","182381","181708","181813","Flanker task","71","49875","74","yes","1024"
"96","96","672.5066666666667","672.5066666666667","black","legacy","legacy","legacy","0","congruent","uniform","1","undefined","1","s","74","0","0","0","74","0","74","0","74","0","0","0","74","74","74","74","Sun Sep 27 16:54:31 2020","1500","The main experiment item","yes","ab-Flankertask-1.osexp","C:/Users/Elaine/AppData/Roaming/Microsoft/Windows/Network Shortcuts","no","mono","no","18","no","white","no","yes","768","legacy","74","74","C:/Users/Elaine/Documents/E Beason/subject-2.csv","legacy","Lentiform Loewenfeld","3.3.3","0","s","NA","return","NA","NA","s","563","NA","32894","NA","NA","563","2","legacy","1024","2","48000","-16","experiment","SSSSS","2","even","182392","40330","NA","NA","165151","7422","NA","NA","183504","7434","NA","NA","183606","184170","183501","183606","Flanker task","72","50438","75","yes","1024"
"96.05263157894737","96.05263157894737","671.8157894736842","671.8157894736842","black","legacy","legacy","legacy","0","congruent","uniform","1","undefined","1","h","75","0","0","0","75","0","75","0","75","0","0","0","75","75","75","75","Sun Sep 27 16:54:31 2020","1500","The main experiment item","yes","ab-Flankertask-1.osexp","C:/Users/Elaine/AppData/Roaming/Microsoft/Windows/Network Shortcuts","no","mono","no","18","no","white","no","yes","768","legacy","75","75","C:/Users/Elaine/Documents/E Beason/subject-2.csv","legacy","Lentiform Loewenfeld","3.3.3","0","h","NA","return","NA","NA","h","620","NA","32894","NA","NA","620","2","legacy","1024","2","48000","-16","experiment","HHHHH","2","even","184180","40330","NA","NA","165151","7422","NA","NA","185297","7434","NA","NA","185399","186020","185294","185398","Flanker task","73","51058","76","yes","1024"
"96.1038961038961","96.1038961038961","672.7792207792207","672.7792207792207","black","legacy","legacy","legacy","0","incongruent","uniform","1","undefined","1","h","76","0","0","0","76","0","76","0","76","0","0","0","76","76","76","76","Sun Sep 27 16:54:31 2020","1500","The main experiment item","yes","ab-Flankertask-1.osexp","C:/Users/Elaine/AppData/Roaming/Microsoft/Windows/Network Shortcuts","no","mono","no","18","no","white","no","yes","768","legacy","76","76","C:/Users/Elaine/Documents/E Beason/subject-2.csv","legacy","Lentiform Loewenfeld","3.3.3","0","h","NA","return","NA","NA","h","746","NA","32894","NA","NA","746","2","legacy","1024","2","48000","-16","experiment","SSHSS","2","even","186028","40330","NA","NA","165151","7422","NA","NA","187145","7434","NA","NA","187248","187995","187142","187248","Flanker task","74","51804","77","yes","1024"
"96.15384615384616","96.15384615384616","671.1410256410256","671.1410256410256","black","legacy","legacy","legacy","0","incongruent","uniform","1","undefined","1","h","77","0","0","0","77","0","77","0","77","0","0","0","77","77","77","77","Sun Sep 27 16:54:31 2020","1500","The main experiment item","yes","ab-Flankertask-1.osexp","C:/Users/Elaine/AppData/Roaming/Microsoft/Windows/Network Shortcuts","no","mono","no","18","no","white","no","yes","768","legacy","77","77","C:/Users/Elaine/Documents/E Beason/subject-2.csv","legacy","Lentiform Loewenfeld","3.3.3","0","h","NA","return","NA","NA","h","545","NA","32894","NA","NA","545","2","legacy","1024","2","48000","-16","experiment","SSHSS","2","even","188005","40330","NA","NA","165151","7422","NA","NA","189117","7434","NA","NA","189219","189765","189114","189218","Flanker task","75","52349","78","yes","1024"
"96.20253164556962","96.20253164556962","669.8101265822785","669.8101265822785","black","legacy","legacy","legacy","0","incongruent","uniform","1","undefined","1","h","78","0","0","0","78","0","78","0","78","0","0","0","78","78","78","78","Sun Sep 27 16:54:31 2020","1500","The main experiment item","yes","ab-Flankertask-1.osexp","C:/Users/Elaine/AppData/Roaming/Microsoft/Windows/Network Shortcuts","no","mono","no","18","no","white","no","yes","768","legacy","78","78","C:/Users/Elaine/Documents/E Beason/subject-2.csv","legacy","Lentiform Loewenfeld","3.3.3","0","h","NA","return","NA","NA","h","566","NA","32894","NA","NA","566","2","legacy","1024","2","48000","-16","experiment","SSHSS","2","even","189774","40330","NA","NA","165151","7422","NA","NA","190891","7434","NA","NA","190993","191560","190887","190992","Flanker task","76","52915","79","yes","1024"
"96.25","96.25","668.5375","668.5375","black","legacy","legacy","legacy","0","congruent","uniform","1","undefined","1","h","79","0","0","0","79","0","79","0","79","0","0","0","79","79","79","79","Sun Sep 27 16:54:31 2020","1500","The main experiment item","yes","ab-Flankertask-1.osexp","C:/Users/Elaine/AppData/Roaming/Microsoft/Windows/Network Shortcuts","no","mono","no","18","no","white","no","yes","768","legacy","79","79","C:/Users/Elaine/Documents/E Beason/subject-2.csv","legacy","Lentiform Loewenfeld","3.3.3","0","h","NA","return","NA","NA","h","568","NA","32894","NA","NA","568","2","legacy","1024","2","48000","-16","experiment","HHHHH","2","even","191569","40330","NA","NA","165151","7422","NA","NA","192679","7434","NA","NA","192781","193350","192677","192780","Flanker task","77","53483","80","yes","1024"
"96.29629629629629","96.29629629629629","670.8395061728395","670.8395061728395","black","legacy","legacy","legacy","0","incongruent","uniform","1","undefined","1","h","80","0","0","0","80","0","80","0","80","0","0","0","80","80","80","80","Sun Sep 27 16:54:31 2020","600","The main experiment item","yes","ab-Flankertask-1.osexp","C:/Users/Elaine/AppData/Roaming/Microsoft/Windows/Network Shortcuts","no","mono","no","18","no","white","no","yes","768","legacy","0","79","C:/Users/Elaine/Documents/E Beason/subject-2.csv","legacy","Lentiform Loewenfeld","3.3.3","0","h","NA","return","s","NA","h","855","NA","32894","15218","NA","855","2","legacy","1024","2","48000","-16","experiment","SSHSS","2","even","193367","40330","209621","NA","165151","7422","NA","NA","209722","7434","194401","NA","209824","210680","209719","209823","Flanker task","78","54338","81","yes","1024"
"96.34146341463415","96.34146341463415","670.1585365853658","670.1585365853658","black","legacy","legacy","legacy","0","congruent","uniform","1","undefined","1","h","81","0","0","0","81","0","81","0","81","0","0","0","81","81","81","81","Sun Sep 27 16:54:31 2020","600","The main experiment item","yes","ab-Flankertask-1.osexp","C:/Users/Elaine/AppData/Roaming/Microsoft/Windows/Network Shortcuts","no","mono","no","18","no","white","no","yes","768","legacy","1","79","C:/Users/Elaine/Documents/E Beason/subject-2.csv","legacy","Lentiform Loewenfeld","3.3.3","0","h","NA","return","s","NA","h","615","NA","32894","15218","NA","615","2","legacy","1024","2","48000","-16","experiment","HHHHH","2","even","211190","40330","209621","NA","165151","7422","210689","NA","212302","7434","194401","NA","212404","213020","212298","212403","Flanker task","79","54953","82","yes","1024"
"96.3855421686747","96.3855421686747","669.855421686747","669.855421686747","black","legacy","legacy","legacy","0","incongruent","uniform","1","undefined","1","s","82","0","0","0","82","0","82","0","82","0","0","0","82","82","82","82","Sun Sep 27 16:54:31 2020","600","The main experiment item","yes","ab-Flankertask-1.osexp","C:/Users/Elaine/AppData/Roaming/Microsoft/Windows/Network Shortcuts","no","mono","no","18","no","white","no","yes","768","legacy","2","79","C:/Users/Elaine/Documents/E Beason/subject-2.csv","legacy","Lentiform Loewenfeld","3.3.3","0","s","NA","return","s","NA","s","645","NA","32894","15218","NA","645","2","legacy","1024","2","48000","-16","experiment","HHSHH","2","even","213532","40330","209621","NA","165151","7422","213031","NA","214642","7434","194401","NA","214744","215391","214639","214743","Flanker task","80","55598","83","yes","1024"
"96.42857142857143","96.42857142857143","670.7619047619048","670.7619047619048","black","legacy","legacy","legacy","0","incongruent","uniform","1","undefined","1","h","83","0","0","0","83","0","83","0","83","0","0","0","83","83","83","83","Sun Sep 27 16:54:31 2020","600","The main experiment item","yes","ab-Flankertask-1.osexp","C:/Users/Elaine/AppData/Roaming/Microsoft/Windows/Network Shortcuts","no","mono","no","18","no","white","no","yes","768","legacy","3","79","C:/Users/Elaine/Documents/E Beason/subject-2.csv","legacy","Lentiform Loewenfeld","3.3.3","0","h","NA","return","s","NA","h","746","NA","32894","15218","NA","746","2","legacy","1024","2","48000","-16","experiment","SSHSS","2","even","215903","40330","209621","NA","165151","7422","215400","NA","217009","7434","194401","NA","217112","217860","217006","217111","Flanker task","81","56344","84","yes","1024"
"96.47058823529412","96.47058823529412","669.6117647058824","669.6117647058824","black","legacy","legacy","legacy","0","congruent","uniform","1","undefined","1","s","84","0","0","0","84","0","84","0","84","0","0","0","84","84","84","84","Sun Sep 27 16:54:31 2020","600","The main experiment item","yes","ab-Flankertask-1.osexp","C:/Users/Elaine/AppData/Roaming/Microsoft/Windows/Network Shortcuts","no","mono","no","18","no","white","no","yes","768","legacy","4","79","C:/Users/Elaine/Documents/E Beason/subject-2.csv","legacy","Lentiform Loewenfeld","3.3.3","0","s","NA","return","s","NA","s","573","NA","32894","15218","NA","573","2","legacy","1024","2","48000","-16","experiment","SSSSS","2","even","218368","40330","209621","NA","165151","7422","217867","NA","219504","7434","194401","NA","219606","220181","219501","219605","Flanker task","82","56917","85","yes","1024"
"95.34883720930233","95.34883720930233","668.7674418604652","668.7674418604652","black","legacy","legacy","legacy","0","incongruent","uniform","0","undefined","0","s","85","0","0","0","85","0","85","0","85","0","0","0","85","85","85","85","Sun Sep 27 16:54:31 2020","600","The main experiment item","yes","ab-Flankertask-1.osexp","C:/Users/Elaine/AppData/Roaming/Microsoft/Windows/Network Shortcuts","no","mono","no","18","no","white","no","yes","768","legacy","5","79","C:/Users/Elaine/Documents/E Beason/subject-2.csv","legacy","Lentiform Loewenfeld","3.3.3","0","h","NA","return","s","NA","h","597","NA","32894","15218","NA","597","2","legacy","1024","2","48000","-16","experiment","HHSHH","2","even","220189","40330","209621","NA","165151","7422","217867","NA","221300","7434","194401","NA","221402","222000","221297","221402","Flanker task","82","57514","86","yes","1024"
"95.40229885057471","95.40229885057471","667.5172413793103","667.5172413793103","black","legacy","legacy","legacy","0","congruent","uniform","1","undefined","1","h","86","0","0","0","86","0","86","0","86","0","0","0","86","86","86","86","Sun Sep 27 16:54:31 2020","600","The main experiment item","yes","ab-Flankertask-1.osexp","C:/Users/Elaine/AppData/Roaming/Microsoft/Windows/Network Shortcuts","no","mono","no","18","no","white","no","yes","768","legacy","6","79","C:/Users/Elaine/Documents/E Beason/subject-2.csv","legacy","Lentiform Loewenfeld","3.3.3","0","h","NA","return","s","NA","h","560","NA","32894","15218","NA","560","2","legacy","1024","2","48000","-16","experiment","HHHHH","2","even","222512","40330","209621","NA","222009","7422","217867","NA","223627","7434","194401","NA","223729","224291","223624","223729","Flanker task","83","58074","87","yes","1024"
"95.45454545454545","95.45454545454545","666.1818181818181","666.1818181818181","black","legacy","legacy","legacy","0","congruent","uniform","1","undefined","1","h","87","0","0","0","87","0","87","0","87","0","0","0","87","87","87","87","Sun Sep 27 16:54:31 2020","600","The main experiment item","yes","ab-Flankertask-1.osexp","C:/Users/Elaine/AppData/Roaming/Microsoft/Windows/Network Shortcuts","no","mono","no","18","no","white","no","yes","768","legacy","7","79","C:/Users/Elaine/Documents/E Beason/subject-2.csv","legacy","Lentiform Loewenfeld","3.3.3","0","h","NA","return","s","NA","h","550","NA","32894","15218","NA","550","2","legacy","1024","2","48000","-16","experiment","HHHHH","2","even","224300","40330","209621","NA","222009","7422","217867","NA","225412","7434","194401","NA","225514","226066","225409","225514","Flanker task","84","58624","88","yes","1024"
"95.50561797752809","95.50561797752809","665.3258426966293","665.3258426966293","black","legacy","legacy","legacy","0","incongruent","uniform","1","undefined","1","s","88","0","0","0","88","0","88","0","88","0","0","0","88","88","88","88","Sun Sep 27 16:54:31 2020","600","The main experiment item","yes","ab-Flankertask-1.osexp","C:/Users/Elaine/AppData/Roaming/Microsoft/Windows/Network Shortcuts","no","mono","no","18","no","white","no","yes","768","legacy","8","79","C:/Users/Elaine/Documents/E Beason/subject-2.csv","legacy","Lentiform Loewenfeld","3.3.3","0","s","NA","return","s","NA","s","590","NA","32894","15218","NA","590","2","legacy","1024","2","48000","-16","experiment","HHSHH","2","even","226076","40330","209621","NA","222009","7422","217867","NA","227191","7434","194401","NA","227293","227885","227188","227292","Flanker task","85","59214","89","yes","1024"
"95.55555555555556","95.55555555555556","666.6222222222223","666.6222222222223","black","legacy","legacy","legacy","0","incongruent","uniform","1","undefined","1","h","89","0","0","0","89","0","89","0","89","0","0","0","89","89","89","89","Sun Sep 27 16:54:31 2020","600","The main experiment item","yes","ab-Flankertask-1.osexp","C:/Users/Elaine/AppData/Roaming/Microsoft/Windows/Network Shortcuts","no","mono","no","18","no","white","no","yes","768","legacy","9","79","C:/Users/Elaine/Documents/E Beason/subject-2.csv","legacy","Lentiform Loewenfeld","3.3.3","0","h","NA","return","s","NA","h","782","NA","32894","15218","NA","782","2","legacy","1024","2","48000","-16","experiment","SSHSS","2","even","227893","40330","209621","NA","222009","7422","217867","NA","229010","7434","194401","NA","229112","229896","229007","229111","Flanker task","86","59996","90","yes","1024"
"95.6043956043956","95.6043956043956","666.8241758241758","666.8241758241758","black","legacy","legacy","legacy","0","congruent","uniform","1","undefined","1","s","90","0","0","0","90","0","90","0","90","0","0","0","90","90","90","90","Sun Sep 27 16:54:31 2020","600","The main experiment item","yes","ab-Flankertask-1.osexp","C:/Users/Elaine/AppData/Roaming/Microsoft/Windows/Network Shortcuts","no","mono","no","18","no","white","no","yes","768","legacy","10","79","C:/Users/Elaine/Documents/E Beason/subject-2.csv","legacy","Lentiform Loewenfeld","3.3.3","0","s","NA","return","s","NA","s","685","NA","32894","15218","NA","685","2","legacy","1024","2","48000","-16","experiment","SSSSS","2","even","230411","40330","209621","NA","222009","7422","229909","NA","231527","7434","194401","NA","231629","232315","231522","231628","Flanker task","87","60681","91","yes","1024"
"95.65217391304348","95.65217391304348","666.7391304347826","666.7391304347826","black","legacy","legacy","legacy","0","incongruent","uniform","1","undefined","1","h","91","0","0","0","91","0","91","0","91","0","0","0","91","91","91","91","Sun Sep 27 16:54:31 2020","600","The main experiment item","yes","ab-Flankertask-1.osexp","C:/Users/Elaine/AppData/Roaming/Microsoft/Windows/Network Shortcuts","no","mono","no","18","no","white","no","yes","768","legacy","11","79","C:/Users/Elaine/Documents/E Beason/subject-2.csv","legacy","Lentiform Loewenfeld","3.3.3","0","h","NA","return","s","NA","h","659","NA","32894","15218","NA","659","2","legacy","1024","2","48000","-16","experiment","SSHSS","2","even","232826","40330","209621","NA","222009","7422","232325","NA","233938","7434","194401","NA","234040","234701","233934","234039","Flanker task","88","61340","92","yes","1024"
"95.6989247311828","95.6989247311828","664.7849462365591","664.7849462365591","black","legacy","legacy","legacy","0","congruent","uniform","1","undefined","1","h","92","0","0","0","92","0","92","0","92","0","0","0","92","92","92","92","Sun Sep 27 16:54:31 2020","600","The main experiment item","yes","ab-Flankertask-1.osexp","C:/Users/Elaine/AppData/Roaming/Microsoft/Windows/Network Shortcuts","no","mono","no","18","no","white","no","yes","768","legacy","12","79","C:/Users/Elaine/Documents/E Beason/subject-2.csv","legacy","Lentiform Loewenfeld","3.3.3","0","h","NA","return","s","NA","h","485","NA","32894","15218","NA","485","2","legacy","1024","2","48000","-16","experiment","HHHHH","2","even","235211","40330","209621","NA","222009","7422","234710","NA","236326","7434","194401","NA","236428","236916","236322","236428","Flanker task","89","61825","93","yes","1024"
"95.74468085106383","95.74468085106383","664.3404255319149","664.3404255319149","black","legacy","legacy","legacy","0","incongruent","uniform","1","undefined","1","s","93","0","0","0","93","0","93","0","93","0","0","0","93","93","93","93","Sun Sep 27 16:54:31 2020","600","The main experiment item","yes","ab-Flankertask-1.osexp","C:/Users/Elaine/AppData/Roaming/Microsoft/Windows/Network Shortcuts","no","mono","no","18","no","white","no","yes","768","legacy","13","79","C:/Users/Elaine/Documents/E Beason/subject-2.csv","legacy","Lentiform Loewenfeld","3.3.3","0","s","NA","return","s","NA","s","623","NA","32894","15218","NA","623","2","legacy","1024","2","48000","-16","experiment","HHSHH","2","even","236926","40330","209621","NA","222009","7422","234710","NA","238039","7434","194401","NA","238141","238766","238036","238141","Flanker task","90","62448","94","yes","1024"
"95.78947368421052","95.78947368421052","664.6526315789474","664.6526315789474","black","legacy","legacy","legacy","0","incongruent","uniform","1","undefined","1","s","94","0","0","0","94","0","94","0","94","0","0","0","94","94","94","94","Sun Sep 27 16:54:31 2020","600","The main experiment item","yes","ab-Flankertask-1.osexp","C:/Users/Elaine/AppData/Roaming/Microsoft/Windows/Network Shortcuts","no","mono","no","18","no","white","no","yes","768","legacy","14","79","C:/Users/Elaine/Documents/E Beason/subject-2.csv","legacy","Lentiform Loewenfeld","3.3.3","0","s","NA","return","s","NA","s","694","NA","32894","15218","NA","694","2","legacy","1024","2","48000","-16","experiment","HHSHH","2","even","239284","40330","209621","NA","222009","7422","238782","NA","240411","7434","194401","NA","240514","241210","240407","240514","Flanker task","91","63142","95","yes","1024"
"95.83333333333333","95.83333333333333","665.6354166666666","665.6354166666666","black","legacy","legacy","legacy","0","congruent","uniform","1","undefined","1","h","95","0","0","0","95","0","95","0","95","0","0","0","95","95","95","95","Sun Sep 27 16:54:31 2020","600","The main experiment item","yes","ab-Flankertask-1.osexp","C:/Users/Elaine/AppData/Roaming/Microsoft/Windows/Network Shortcuts","no","mono","no","18","no","white","no","yes","768","legacy","15","79","C:/Users/Elaine/Documents/E Beason/subject-2.csv","legacy","Lentiform Loewenfeld","3.3.3","0","h","NA","return","s","NA","h","759","NA","32894","15218","NA","759","2","legacy","1024","2","48000","-16","experiment","HHHHH","2","even","241721","40330","209621","NA","222009","7422","241220","NA","242836","7434","194401","NA","242938","243699","242833","242937","Flanker task","92","63901","96","yes","1024"
"95.87628865979381","95.87628865979381","665","665","black","legacy","legacy","legacy","0","incongruent","uniform","1","undefined","1","s","96","0","0","0","96","0","96","0","96","0","0","0","96","96","96","96","Sun Sep 27 16:54:31 2020","600","The main experiment item","yes","ab-Flankertask-1.osexp","C:/Users/Elaine/AppData/Roaming/Microsoft/Windows/Network Shortcuts","no","mono","no","18","no","white","no","yes","768","legacy","16","79","C:/Users/Elaine/Documents/E Beason/subject-2.csv","legacy","Lentiform Loewenfeld","3.3.3","0","s","NA","return","s","NA","s","604","NA","32894","15218","NA","604","2","legacy","1024","2","48000","-16","experiment","HHSHH","2","even","244219","40330","209621","NA","222009","7422","243718","NA","245336","7434","194401","NA","245438","246044","245332","245437","Flanker task","93","64505","97","yes","1024"
"95.91836734693878","95.91836734693878","664.7857142857143","664.7857142857143","black","legacy","legacy","legacy","0","congruent","uniform","1","undefined","1","h","97","0","0","0","97","0","97","0","97","0","0","0","97","97","97","97","Sun Sep 27 16:54:31 2020","600","The main experiment item","yes","ab-Flankertask-1.osexp","C:/Users/Elaine/AppData/Roaming/Microsoft/Windows/Network Shortcuts","no","mono","no","18","no","white","no","yes","768","legacy","17","79","C:/Users/Elaine/Documents/E Beason/subject-2.csv","legacy","Lentiform Loewenfeld","3.3.3","0","h","NA","return","s","NA","h","644","NA","32894","15218","NA","644","2","legacy","1024","2","48000","-16","experiment","HHHHH","2","even","246567","40330","209621","NA","222009","7422","246065","NA","247681","7434","194401","NA","247783","248429","247678","247783","Flanker task","94","65149","98","yes","1024"
"95.95959595959596","95.95959595959596","664.1313131313132","664.1313131313132","black","legacy","legacy","legacy","0","congruent","uniform","1","undefined","1","s","98","0","0","0","98","0","98","0","98","0","0","0","98","98","98","98","Sun Sep 27 16:54:31 2020","600","The main experiment item","yes","ab-Flankertask-1.osexp","C:/Users/Elaine/AppData/Roaming/Microsoft/Windows/Network Shortcuts","no","mono","no","18","no","white","no","yes","768","legacy","18","79","C:/Users/Elaine/Documents/E Beason/subject-2.csv","legacy","Lentiform Loewenfeld","3.3.3","0","s","NA","return","s","NA","s","600","NA","32894","15218","NA","600","2","legacy","1024","2","48000","-16","experiment","SSSSS","2","even","248939","40330","209621","NA","222009","7422","248437","NA","250055","7434","194401","NA","250157","250759","250051","250156","Flanker task","95","65749","99","yes","1024"
"96","96","663.96","663.96","black","legacy","legacy","legacy","0","incongruent","uniform","1","undefined","1","h","99","0","0","0","99","0","99","0","99","0","0","0","99","99","99","99","Sun Sep 27 16:54:31 2020","600","The main experiment item","yes","ab-Flankertask-1.osexp","C:/Users/Elaine/AppData/Roaming/Microsoft/Windows/Network Shortcuts","no","mono","no","18","no","white","no","yes","768","legacy","19","79","C:/Users/Elaine/Documents/E Beason/subject-2.csv","legacy","Lentiform Loewenfeld","3.3.3","0","h","NA","return","s","NA","h","647","NA","32894","15218","NA","647","2","legacy","1024","2","48000","-16","experiment","SSHSS","2","even","250775","40330","209621","NA","222009","7422","248437","NA","251889","7434","194401","NA","251991","252639","251886","251990","Flanker task","96","66396","100","yes","1024"
"96.03960396039604","96.03960396039604","662.7227722772277","662.7227722772277","black","legacy","legacy","legacy","0","congruent","uniform","1","undefined","1","s","100","0","0","0","100","0","100","0","100","0","0","0","100","100","100","100","Sun Sep 27 16:54:31 2020","600","The main experiment item","yes","ab-Flankertask-1.osexp","C:/Users/Elaine/AppData/Roaming/Microsoft/Windows/Network Shortcuts","no","mono","no","18","no","white","no","yes","768","legacy","20","79","C:/Users/Elaine/Documents/E Beason/subject-2.csv","legacy","Lentiform Loewenfeld","3.3.3","0","s","NA","return","s","NA","s","539","NA","32894","15218","NA","539","2","legacy","1024","2","48000","-16","experiment","SSSSS","2","even","253156","40330","209621","NA","222009","7422","252654","NA","254266","7434","194401","NA","254369","254910","254262","254368","Flanker task","97","66935","101","yes","1024"
"96.07843137254902","96.07843137254902","662.4607843137255","662.4607843137255","black","legacy","legacy","legacy","0","congruent","uniform","1","undefined","1","h","101","0","0","0","101","0","101","0","101","0","0","0","101","101","101","101","Sun Sep 27 16:54:31 2020","600","The main experiment item","yes","ab-Flankertask-1.osexp","C:/Users/Elaine/AppData/Roaming/Microsoft/Windows/Network Shortcuts","no","mono","no","18","no","white","no","yes","768","legacy","21","79","C:/Users/Elaine/Documents/E Beason/subject-2.csv","legacy","Lentiform Loewenfeld","3.3.3","0","h","NA","return","s","NA","h","636","NA","32894","15218","NA","636","2","legacy","1024","2","48000","-16","experiment","HHHHH","2","even","254920","40330","209621","NA","222009","7422","252654","NA","256030","7434","194401","NA","256132","256770","256025","256132","Flanker task","98","67571","102","yes","1024"
"96.11650485436893","96.11650485436893","660.4854368932039","660.4854368932039","black","legacy","legacy","legacy","0","incongruent","uniform","1","undefined","1","h","102","0","0","0","102","0","102","0","102","0","0","0","102","102","102","102","Sun Sep 27 16:54:31 2020","600","The main experiment item","yes","ab-Flankertask-1.osexp","C:/Users/Elaine/AppData/Roaming/Microsoft/Windows/Network Shortcuts","no","mono","no","18","no","white","no","yes","768","legacy","22","79","C:/Users/Elaine/Documents/E Beason/subject-2.csv","legacy","Lentiform Loewenfeld","3.3.3","0","h","NA","return","s","NA","h","459","NA","32894","15218","NA","459","2","legacy","1024","2","48000","-16","experiment","SSHSS","2","even","257280","40330","209621","NA","222009","7422","256779","NA","258396","7434","194401","NA","258499","258960","258393","258499","Flanker task","99","68030","103","yes","1024"
"96.15384615384616","96.15384615384616","659.5480769230769","659.5480769230769","black","legacy","legacy","legacy","0","congruent","uniform","1","undefined","1","s","103","0","0","0","103","0","103","0","103","0","0","0","103","103","103","103","Sun Sep 27 16:54:31 2020","600","The main experiment item","yes","ab-Flankertask-1.osexp","C:/Users/Elaine/AppData/Roaming/Microsoft/Windows/Network Shortcuts","no","mono","no","18","no","white","no","yes","768","legacy","23","79","C:/Users/Elaine/Documents/E Beason/subject-2.csv","legacy","Lentiform Loewenfeld","3.3.3","0","s","NA","return","s","NA","s","563","NA","32894","15218","NA","563","2","legacy","1024","2","48000","-16","experiment","SSSSS","2","even","258969","40330","209621","NA","222009","7422","256779","NA","260117","7434","194401","NA","260219","260783","260113","260219","Flanker task","100","68593","104","yes","1024"
"96.19047619047619","96.19047619047619","658.9428571428572","658.9428571428572","black","legacy","legacy","legacy","0","congruent","uniform","1","undefined","1","h","104","0","0","0","104","0","104","0","104","0","0","0","104","104","104","104","Sun Sep 27 16:54:31 2020","600","The main experiment item","yes","ab-Flankertask-1.osexp","C:/Users/Elaine/AppData/Roaming/Microsoft/Windows/Network Shortcuts","no","mono","no","18","no","white","no","yes","768","legacy","24","79","C:/Users/Elaine/Documents/E Beason/subject-2.csv","legacy","Lentiform Loewenfeld","3.3.3","0","h","NA","return","s","NA","h","596","NA","32894","15218","NA","596","2","legacy","1024","2","48000","-16","experiment","HHHHH","2","even","260793","40330","209621","NA","222009","7422","256779","NA","261910","7434","194401","NA","262012","262610","261907","262011","Flanker task","101","69189","105","yes","1024"
"96.22641509433963","96.22641509433963","658.3584905660377","658.3584905660377","black","legacy","legacy","legacy","0","congruent","uniform","1","undefined","1","h","105","0","0","0","105","0","105","0","105","0","0","0","105","105","105","105","Sun Sep 27 16:54:31 2020","600","The main experiment item","yes","ab-Flankertask-1.osexp","C:/Users/Elaine/AppData/Roaming/Microsoft/Windows/Network Shortcuts","no","mono","no","18","no","white","no","yes","768","legacy","25","79","C:/Users/Elaine/Documents/E Beason/subject-2.csv","legacy","Lentiform Loewenfeld","3.3.3","0","h","NA","return","s","NA","h","597","NA","32894","15218","NA","597","2","legacy","1024","2","48000","-16","experiment","HHHHH","2","even","262620","40330","209621","NA","222009","7422","256779","NA","263728","7434","194401","NA","263830","264429","263725","263829","Flanker task","102","69786","106","yes","1024"
"96.26168224299066","96.26168224299066","657.0841121495328","657.0841121495328","black","legacy","legacy","legacy","0","incongruent","uniform","1","undefined","1","h","106","0","0","0","106","0","106","0","106","0","0","0","106","106","106","106","Sun Sep 27 16:54:31 2020","600","The main experiment item","yes","ab-Flankertask-1.osexp","C:/Users/Elaine/AppData/Roaming/Microsoft/Windows/Network Shortcuts","no","mono","no","18","no","white","no","yes","768","legacy","26","79","C:/Users/Elaine/Documents/E Beason/subject-2.csv","legacy","Lentiform Loewenfeld","3.3.3","0","h","NA","return","s","NA","h","522","NA","32894","15218","NA","522","2","legacy","1024","2","48000","-16","experiment","SSHSS","2","even","264439","40330","209621","NA","222009","7422","256779","NA","265553","7434","194401","NA","265655","266179","265550","265654","Flanker task","103","70308","107","yes","1024"
"96.29629629629629","96.29629629629629","655.3333333333334","655.3333333333334","black","legacy","legacy","legacy","0","incongruent","uniform","1","undefined","1","h","107","0","0","0","107","0","107","0","107","0","0","0","107","107","107","107","Sun Sep 27 16:54:31 2020","600","The main experiment item","yes","ab-Flankertask-1.osexp","C:/Users/Elaine/AppData/Roaming/Microsoft/Windows/Network Shortcuts","no","mono","no","18","no","white","no","yes","768","legacy","27","79","C:/Users/Elaine/Documents/E Beason/subject-2.csv","legacy","Lentiform Loewenfeld","3.3.3","0","h","NA","return","s","NA","h","468","NA","32894","15218","NA","468","2","legacy","1024","2","48000","-16","experiment","SSHSS","2","even","266196","40330","209621","NA","222009","7422","256779","NA","267307","7434","194401","NA","267409","267880","267304","267408","Flanker task","104","70776","108","yes","1024"
"96.3302752293578","96.3302752293578","653.9633027522935","653.9633027522935","black","legacy","legacy","legacy","0","congruent","uniform","1","undefined","1","h","108","0","0","0","108","0","108","0","108","0","0","0","108","108","108","108","Sun Sep 27 16:54:31 2020","600","The main experiment item","yes","ab-Flankertask-1.osexp","C:/Users/Elaine/AppData/Roaming/Microsoft/Windows/Network Shortcuts","no","mono","no","18","no","white","no","yes","768","legacy","28","79","C:/Users/Elaine/Documents/E Beason/subject-2.csv","legacy","Lentiform Loewenfeld","3.3.3","0","h","NA","return","s","NA","h","506","NA","32894","15218","NA","506","2","legacy","1024","2","48000","-16","experiment","HHHHH","2","even","267899","40330","209621","NA","222009","7422","256779","NA","269010","7434","194401","NA","269112","269619","269007","269111","Flanker task","105","71282","109","yes","1024"
"96.36363636363636","96.36363636363636","652.9545454545455","652.9545454545455","black","legacy","legacy","legacy","0","congruent","uniform","1","undefined","1","s","109","0","0","0","109","0","109","0","109","0","0","0","109","109","109","109","Sun Sep 27 16:54:31 2020","600","The main experiment item","yes","ab-Flankertask-1.osexp","C:/Users/Elaine/AppData/Roaming/Microsoft/Windows/Network Shortcuts","no","mono","no","18","no","white","no","yes","768","legacy","29","79","C:/Users/Elaine/Documents/E Beason/subject-2.csv","legacy","Lentiform Loewenfeld","3.3.3","0","s","NA","return","s","NA","s","543","NA","32894","15218","NA","543","2","legacy","1024","2","48000","-16","experiment","SSSSS","2","even","269634","40330","209621","NA","222009","7422","256779","NA","270742","7434","194401","NA","270844","271389","270739","270844","Flanker task","106","71825","110","yes","1024"
"96.3963963963964","96.3963963963964","651.5405405405405","651.5405405405405","black","legacy","legacy","legacy","0","congruent","uniform","1","undefined","1","s","110","0","0","0","110","0","110","0","110","0","0","0","110","110","110","110","Sun Sep 27 16:54:31 2020","600","The main experiment item","yes","ab-Flankertask-1.osexp","C:/Users/Elaine/AppData/Roaming/Microsoft/Windows/Network Shortcuts","no","mono","no","18","no","white","no","yes","768","legacy","30","79","C:/Users/Elaine/Documents/E Beason/subject-2.csv","legacy","Lentiform Loewenfeld","3.3.3","0","s","NA","return","s","NA","s","496","NA","32894","15218","NA","496","2","legacy","1024","2","48000","-16","experiment","SSSSS","2","even","271398","40330","209621","NA","222009","7422","256779","NA","272508","7434","194401","NA","272611","273109","272506","272610","Flanker task","107","72321","111","yes","1024"
"96.42857142857143","96.42857142857143","650.2410714285714","650.2410714285714","black","legacy","legacy","legacy","0","congruent","uniform","1","undefined","1","s","111","0","0","0","111","0","111","0","111","0","0","0","111","111","111","111","Sun Sep 27 16:54:31 2020","600","The main experiment item","yes","ab-Flankertask-1.osexp","C:/Users/Elaine/AppData/Roaming/Microsoft/Windows/Network Shortcuts","no","mono","no","18","no","white","no","yes","768","legacy","31","79","C:/Users/Elaine/Documents/E Beason/subject-2.csv","legacy","Lentiform Loewenfeld","3.3.3","0","s","NA","return","s","NA","s","506","NA","32894","15218","NA","506","2","legacy","1024","2","48000","-16","experiment","SSSSS","2","even","273119","40330","209621","NA","222009","7422","256779","NA","274230","7434","194401","NA","274332","274839","274227","274332","Flanker task","108","72827","112","yes","1024"
"96.46017699115045","96.46017699115045","649.1858407079646","649.1858407079646","black","legacy","legacy","legacy","0","congruent","uniform","1","undefined","1","h","112","0","0","0","112","0","112","0","112","0","0","0","112","112","112","112","Sun Sep 27 16:54:31 2020","600","The main experiment item","yes","ab-Flankertask-1.osexp","C:/Users/Elaine/AppData/Roaming/Microsoft/Windows/Network Shortcuts","no","mono","no","18","no","white","no","yes","768","legacy","32","79","C:/Users/Elaine/Documents/E Beason/subject-2.csv","legacy","Lentiform Loewenfeld","3.3.3","0","h","NA","return","s","NA","h","531","NA","32894","15218","NA","531","2","legacy","1024","2","48000","-16","experiment","HHHHH","2","even","274849","40330","209621","NA","222009","7422","256779","NA","275959","7434","194401","NA","276061","276594","275955","276061","Flanker task","109","73358","113","yes","1024"
"96.49122807017544","96.49122807017544","648.6754385964912","648.6754385964912","black","legacy","legacy","legacy","0","incongruent","uniform","1","undefined","1","h","113","0","0","0","113","0","113","0","113","0","0","0","113","113","113","113","Sun Sep 27 16:54:31 2020","600","The main experiment item","yes","ab-Flankertask-1.osexp","C:/Users/Elaine/AppData/Roaming/Microsoft/Windows/Network Shortcuts","no","mono","no","18","no","white","no","yes","768","legacy","33","79","C:/Users/Elaine/Documents/E Beason/subject-2.csv","legacy","Lentiform Loewenfeld","3.3.3","0","h","NA","return","s","NA","h","591","NA","32894","15218","NA","591","2","legacy","1024","2","48000","-16","experiment","SSHSS","2","even","276604","40330","209621","NA","222009","7422","256779","NA","277715","7434","194401","NA","277817","278410","277711","277816","Flanker task","110","73949","114","yes","1024"
