"acc","accuracy","average_response_time","avg_rt","background","canvas_backend","clock_backend","color_backend","condition","correct","correct_Instructions1","correct_keyboard_response","correct_response","count_Faster","count_Finish","count_ISI","count_Instructions1","count_Instructions2","count_Instructions3","count_block1","count_block2","count_block3","count_errorFeedback","count_experiment","count_fixation","count_keyboard_response","count_logger","count_sequence","count_stimulus","datetime","deadline","description","disable_garbage_collection","experiment_file","experiment_path","font_bold","font_family","font_italic","font_size","font_underline","foreground","form_clicks","fullscreen","height","keyboard_backend","live_row","live_row_block1","logfile","mouse_backend","opensesame_codename","opensesame_version","repeat_cycle","response","response_Finish","response_Instructions1","response_Instructions2","response_Instructions3","response_keyboard_response","response_time","response_time_Finish","response_time_Instructions1","response_time_Instructions2","response_time_Instructions3","response_time_keyboard_response","round_decimals","sampler_backend","sound_buf_size","sound_channels","sound_freq","sound_sample_size","start","stimulus","subject_nr","subject_parity","time_Faster","time_Finish","time_ISI","time_Instructions1","time_Instructions2","time_Instructions3","time_block1","time_block2","time_block3","time_errorFeedback","time_experiment","time_fixation","time_keyboard_response","time_logger","time_sequence","time_stimulus","title","total_correct","total_response_time","total_responses","width"
"100","100","1261","1261","black","legacy","legacy","legacy","incongruent","1","undefined","1","h","0","0","0","0","0","0","0","0","0","0","0","0","0","0","0","0","Sat Sep 23 20:27:53 2023","1500","The main experiment item","True","FlankerTask.osexp","/Users/baileymcwhirter/Downloads","False","mono","False","18","no","white","no","yes","768","legacy","0","0","/Users/baileymcwhirter/Downloads/BMsubject-5.csv","legacy","Melodramatic Milgram","4.0.5","0","h","NA","h","NA","NA","h","1261.0","NA","32903","NA","NA","1261","2","legacy","1024","2","48000","-16","experiment","SSHSS","1","odd","NA","NA","NA","1342","NA","NA","34267","NA","NA","NA","1278","34308","34411","35681","34305","34411","Flanker Task","1","1261.0","1","1024"
"100","100","950","950","black","legacy","legacy","legacy","incongruent","1","undefined","1","h","1","0","1","0","0","0","0","0","0","1","0","1","1","1","1","1","Sat Sep 23 20:27:53 2023","1500","The main experiment item","True","FlankerTask.osexp","/Users/baileymcwhirter/Downloads","False","mono","False","18","no","white","no","yes","768","legacy","1","1","/Users/baileymcwhirter/Downloads/BMsubject-5.csv","legacy","Melodramatic Milgram","4.0.5","0","h","NA","h","NA","NA","h","639.0","NA","32903","NA","NA","639","2","legacy","1024","2","48000","-16","experiment","SSHSS","1","odd","NA","NA","35686","1342","NA","NA","34267","NA","NA","NA","1278","36730","36832","37472","36726","36832","Flanker Task","2","1900.0","2","1024"
"100","100","810","810","black","legacy","legacy","legacy","congruent","1","undefined","1","h","2","0","2","0","0","0","0","0","0","2","0","2","2","2","2","2","Sat Sep 23 20:27:53 2023","1500","The main experiment item","True","FlankerTask.osexp","/Users/baileymcwhirter/Downloads","False","mono","False","18","no","white","no","yes","768","legacy","2","2","/Users/baileymcwhirter/Downloads/BMsubject-5.csv","legacy","Melodramatic Milgram","4.0.5","0","h","NA","h","NA","NA","h","531.0","NA","32903","NA","NA","531","2","legacy","1024","2","48000","-16","experiment","HHHHH","1","odd","NA","NA","37474","1342","NA","NA","34267","NA","NA","NA","1278","38510","38613","39145","38507","38612","Flanker Task","3","2431.0","3","1024"
"100","100","750","750","black","legacy","legacy","legacy","congruent","1","undefined","1","s","3","0","3","0","0","0","0","0","0","3","0","3","3","3","3","3","Sat Sep 23 20:27:53 2023","1500","The main experiment item","True","FlankerTask.osexp","/Users/baileymcwhirter/Downloads","False","mono","False","18","no","white","no","yes","768","legacy","3","3","/Users/baileymcwhirter/Downloads/BMsubject-5.csv","legacy","Melodramatic Milgram","4.0.5","0","s","NA","h","NA","NA","s","569.0","NA","32903","NA","NA","569","2","legacy","1024","2","48000","-16","experiment","SSSSS","1","odd","NA","NA","39147","1342","NA","NA","34267","NA","NA","NA","1278","40191","40294","40863","40188","40294","Flanker Task","4","3000.0","4","1024"
"100","100","725","725","black","legacy","legacy","legacy","incongruent","1","undefined","1","h","4","0","4","0","0","0","0","0","0","4","0","4","4","4","4","4","Sat Sep 23 20:27:53 2023","1500","The main experiment item","True","FlankerTask.osexp","/Users/baileymcwhirter/Downloads","False","mono","False","18","no","white","no","yes","768","legacy","4","4","/Users/baileymcwhirter/Downloads/BMsubject-5.csv","legacy","Melodramatic Milgram","4.0.5","0","h","NA","h","NA","NA","h","626.0","NA","32903","NA","NA","626","2","legacy","1024","2","48000","-16","experiment","SSHSS","1","odd","NA","NA","40866","1342","NA","NA","34267","NA","NA","NA","1278","41901","42004","42630","41899","42004","Flanker Task","5","3626.0","5","1024"
"100","100","699","699","black","legacy","legacy","legacy","incongruent","1","undefined","1","h","5","0","5","0","0","0","0","0","0","5","0","5","5","5","5","5","Sat Sep 23 20:27:53 2023","1500","The main experiment item","True","FlankerTask.osexp","/Users/baileymcwhirter/Downloads","False","mono","False","18","no","white","no","yes","768","legacy","5","5","/Users/baileymcwhirter/Downloads/BMsubject-5.csv","legacy","Melodramatic Milgram","4.0.5","0","h","NA","h","NA","NA","h","572.0","NA","32903","NA","NA","572","2","legacy","1024","2","48000","-16","experiment","SSHSS","1","odd","NA","NA","42633","1342","NA","NA","34267","NA","NA","NA","1278","43676","43778","44350","43673","43778","Flanker Task","6","4198.0","6","1024"
"100","100","684","684","black","legacy","legacy","legacy","incongruent","1","undefined","1","s","6","0","6","0","0","0","0","0","0","6","0","6","6","6","6","6","Sat Sep 23 20:27:53 2023","1500","The main experiment item","True","FlankerTask.osexp","/Users/baileymcwhirter/Downloads","False","mono","False","18","no","white","no","yes","768","legacy","6","6","/Users/baileymcwhirter/Downloads/BMsubject-5.csv","legacy","Melodramatic Milgram","4.0.5","0","s","NA","h","NA","NA","s","595.0","NA","32903","NA","NA","595","2","legacy","1024","2","48000","-16","experiment","HHSHH","1","odd","NA","NA","44353","1342","NA","NA","34267","NA","NA","NA","1278","45387","45491","46086","45385","45491","Flanker Task","7","4793.0","7","1024"
"100","100","660","660","black","legacy","legacy","legacy","congruent","1","undefined","1","h","7","0","7","0","0","0","0","0","0","7","0","7","7","7","7","7","Sat Sep 23 20:27:53 2023","1500","The main experiment item","True","FlankerTask.osexp","/Users/baileymcwhirter/Downloads","False","mono","False","18","no","white","no","yes","768","legacy","7","7","/Users/baileymcwhirter/Downloads/BMsubject-5.csv","legacy","Melodramatic Milgram","4.0.5","0","h","NA","h","NA","NA","h","489.0","NA","32903","NA","NA","489","2","legacy","1024","2","48000","-16","experiment","HHHHH","1","odd","NA","NA","46089","1342","NA","NA","34267","NA","NA","NA","1278","47117","47219","47709","47115","47219","Flanker Task","8","5282.0","8","1024"
"100","100","634","634","black","legacy","legacy","legacy","incongruent","1","undefined","1","h","8","0","8","0","0","0","0","0","0","8","0","8","8","8","8","8","Sat Sep 23 20:27:53 2023","1500","The main experiment item","True","FlankerTask.osexp","/Users/baileymcwhirter/Downloads","False","mono","False","18","no","white","no","yes","768","legacy","8","8","/Users/baileymcwhirter/Downloads/BMsubject-5.csv","legacy","Melodramatic Milgram","4.0.5","0","h","NA","h","NA","NA","h","427.0","NA","32903","NA","NA","427","2","legacy","1024","2","48000","-16","experiment","SSHSS","1","odd","NA","NA","47712","1342","NA","NA","34267","NA","NA","NA","1278","48739","48841","49269","48736","48841","Flanker Task","9","5709.0","9","1024"
"100","100","613","613","black","legacy","legacy","legacy","congruent","1","undefined","1","h","9","0","9","0","0","0","0","0","0","9","0","9","9","9","9","9","Sat Sep 23 20:27:53 2023","1500","The main experiment item","True","FlankerTask.osexp","/Users/baileymcwhirter/Downloads","False","mono","False","18","no","white","no","yes","768","legacy","9","9","/Users/baileymcwhirter/Downloads/BMsubject-5.csv","legacy","Melodramatic Milgram","4.0.5","0","h","NA","h","NA","NA","h","426.0","NA","32903","NA","NA","426","2","legacy","1024","2","48000","-16","experiment","HHHHH","1","odd","NA","NA","49272","1342","NA","NA","34267","NA","NA","NA","1278","50303","50405","50832","50300","50405","Flanker Task","10","6135.0","10","1024"
"100","100","606","606","black","legacy","legacy","legacy","incongruent","1","undefined","1","s","10","0","10","0","0","0","0","0","0","10","0","10","10","10","10","10","Sat Sep 23 20:27:53 2023","1500","The main experiment item","True","FlankerTask.osexp","/Users/baileymcwhirter/Downloads","False","mono","False","18","no","white","no","yes","768","legacy","10","10","/Users/baileymcwhirter/Downloads/BMsubject-5.csv","legacy","Melodramatic Milgram","4.0.5","0","s","NA","h","NA","NA","s","537.0","NA","32903","NA","NA","537","2","legacy","1024","2","48000","-16","experiment","HHSHH","1","odd","NA","NA","50835","1342","NA","NA","34267","NA","NA","NA","1278","51870","51973","52511","51867","51973","Flanker Task","11","6672.0","11","1024"
"100","100","598","598","black","legacy","legacy","legacy","congruent","1","undefined","1","s","11","0","11","0","0","0","0","0","0","11","0","11","11","11","11","11","Sat Sep 23 20:27:53 2023","1500","The main experiment item","True","FlankerTask.osexp","/Users/baileymcwhirter/Downloads","False","mono","False","18","no","white","no","yes","768","legacy","11","11","/Users/baileymcwhirter/Downloads/BMsubject-5.csv","legacy","Melodramatic Milgram","4.0.5","0","s","NA","h","NA","NA","s","514.0","NA","32903","NA","NA","514","2","legacy","1024","2","48000","-16","experiment","SSSSS","1","odd","NA","NA","52514","1342","NA","NA","34267","NA","NA","NA","1278","53550","53653","54168","53547","53652","Flanker Task","12","7186.0","12","1024"
"100","100","593","593","black","legacy","legacy","legacy","incongruent","1","undefined","1","h","12","0","12","0","0","0","0","0","0","12","0","12","12","12","12","12","Sat Sep 23 20:27:53 2023","1500","The main experiment item","True","FlankerTask.osexp","/Users/baileymcwhirter/Downloads","False","mono","False","18","no","white","no","yes","768","legacy","12","12","/Users/baileymcwhirter/Downloads/BMsubject-5.csv","legacy","Melodramatic Milgram","4.0.5","0","h","NA","h","NA","NA","h","523.0","NA","32903","NA","NA","523","2","legacy","1024","2","48000","-16","experiment","SSHSS","1","odd","NA","NA","54171","1342","NA","NA","34267","NA","NA","NA","1278","55205","55307","55831","55203","55307","Flanker Task","13","7709.0","13","1024"
"100","100","588","588","black","legacy","legacy","legacy","incongruent","1","undefined","1","h","13","0","13","0","0","0","0","0","0","13","0","13","13","13","13","13","Sat Sep 23 20:27:53 2023","1500","The main experiment item","True","FlankerTask.osexp","/Users/baileymcwhirter/Downloads","False","mono","False","18","no","white","no","yes","768","legacy","13","13","/Users/baileymcwhirter/Downloads/BMsubject-5.csv","legacy","Melodramatic Milgram","4.0.5","0","h","NA","h","NA","NA","h","533.0","NA","32903","NA","NA","533","2","legacy","1024","2","48000","-16","experiment","SSHSS","1","odd","NA","NA","55834","1342","NA","NA","34267","NA","NA","NA","1278","56870","56972","57506","56867","56972","Flanker Task","14","8242.0","14","1024"
"100","100","589","589","black","legacy","legacy","legacy","incongruent","1","undefined","1","s","14","0","14","0","0","0","0","0","0","14","0","14","14","14","14","14","Sat Sep 23 20:27:53 2023","1500","The main experiment item","True","FlankerTask.osexp","/Users/baileymcwhirter/Downloads","False","mono","False","18","no","white","no","yes","768","legacy","14","14","/Users/baileymcwhirter/Downloads/BMsubject-5.csv","legacy","Melodramatic Milgram","4.0.5","0","s","NA","h","NA","NA","s","599.0","NA","32903","NA","NA","599","2","legacy","1024","2","48000","-16","experiment","HHSHH","1","odd","NA","NA","57509","1342","NA","NA","34267","NA","NA","NA","1278","58537","58639","59239","58535","58639","Flanker Task","15","8841.0","15","1024"
"100","100","582","582","black","legacy","legacy","legacy","congruent","1","undefined","1","s","15","0","15","0","0","0","0","0","0","15","0","15","15","15","15","15","Sat Sep 23 20:27:53 2023","1500","The main experiment item","True","FlankerTask.osexp","/Users/baileymcwhirter/Downloads","False","mono","False","18","no","white","no","yes","768","legacy","15","15","/Users/baileymcwhirter/Downloads/BMsubject-5.csv","legacy","Melodramatic Milgram","4.0.5","0","s","NA","h","NA","NA","s","482.0","NA","32903","NA","NA","482","2","legacy","1024","2","48000","-16","experiment","SSSSS","1","odd","NA","NA","59241","1342","NA","NA","34267","NA","NA","NA","1278","60268","60371","60854","60266","60371","Flanker Task","16","9323.0","16","1024"
"100","100","578","578","black","legacy","legacy","legacy","congruent","1","undefined","1","s","16","0","16","0","0","0","0","0","0","16","0","16","16","16","16","16","Sat Sep 23 20:27:53 2023","1500","The main experiment item","True","FlankerTask.osexp","/Users/baileymcwhirter/Downloads","False","mono","False","18","no","white","no","yes","768","legacy","16","16","/Users/baileymcwhirter/Downloads/BMsubject-5.csv","legacy","Melodramatic Milgram","4.0.5","0","s","NA","h","NA","NA","s","504.0","NA","32903","NA","NA","504","2","legacy","1024","2","48000","-16","experiment","SSSSS","1","odd","NA","NA","60857","1342","NA","NA","34267","NA","NA","NA","1278","61892","61994","62499","61890","61994","Flanker Task","17","9827.0","17","1024"
"100","100","569","569","black","legacy","legacy","legacy","congruent","1","undefined","1","s","17","0","17","0","0","0","0","0","0","17","0","17","17","17","17","17","Sat Sep 23 20:27:53 2023","1500","The main experiment item","True","FlankerTask.osexp","/Users/baileymcwhirter/Downloads","False","mono","False","18","no","white","no","yes","768","legacy","17","17","/Users/baileymcwhirter/Downloads/BMsubject-5.csv","legacy","Melodramatic Milgram","4.0.5","0","s","NA","h","NA","NA","s","415.0","NA","32903","NA","NA","415","2","legacy","1024","2","48000","-16","experiment","SSSSS","1","odd","NA","NA","62501","1342","NA","NA","34267","NA","NA","NA","1278","63538","63640","64056","63536","63640","Flanker Task","18","10242.0","18","1024"
"100","100","566","566","black","legacy","legacy","legacy","incongruent","1","undefined","1","s","18","0","18","0","0","0","0","0","0","18","0","18","18","18","18","18","Sat Sep 23 20:27:53 2023","1500","The main experiment item","True","FlankerTask.osexp","/Users/baileymcwhirter/Downloads","False","mono","False","18","no","white","no","yes","768","legacy","18","18","/Users/baileymcwhirter/Downloads/BMsubject-5.csv","legacy","Melodramatic Milgram","4.0.5","0","s","NA","h","NA","NA","s","514.0","NA","32903","NA","NA","514","2","legacy","1024","2","48000","-16","experiment","HHSHH","1","odd","NA","NA","64059","1342","NA","NA","34267","NA","NA","NA","1278","65093","65195","65710","65091","65195","Flanker Task","19","10756.0","19","1024"
"100","100","562","562","black","legacy","legacy","legacy","incongruent","1","undefined","1","s","19","0","19","0","0","0","0","0","0","19","0","19","19","19","19","19","Sat Sep 23 20:27:53 2023","1500","The main experiment item","True","FlankerTask.osexp","/Users/baileymcwhirter/Downloads","False","mono","False","18","no","white","no","yes","768","legacy","19","19","/Users/baileymcwhirter/Downloads/BMsubject-5.csv","legacy","Melodramatic Milgram","4.0.5","0","s","NA","h","NA","NA","s","498.0","NA","32903","NA","NA","498","2","legacy","1024","2","48000","-16","experiment","HHSHH","1","odd","NA","NA","65712","1342","NA","NA","34267","NA","NA","NA","1278","66745","66846","67345","66743","66846","Flanker Task","20","11254.0","20","1024"
"100","100","560","560","black","legacy","legacy","legacy","congruent","1","undefined","1","s","20","0","20","0","0","0","0","0","0","20","0","20","20","20","20","20","Sat Sep 23 20:27:53 2023","1500","The main experiment item","True","FlankerTask.osexp","/Users/baileymcwhirter/Downloads","False","mono","False","18","no","white","no","yes","768","legacy","20","20","/Users/baileymcwhirter/Downloads/BMsubject-5.csv","legacy","Melodramatic Milgram","4.0.5","0","s","NA","h","NA","NA","s","506.0","NA","32903","NA","NA","506","2","legacy","1024","2","48000","-16","experiment","SSSSS","1","odd","NA","NA","67348","1342","NA","NA","34267","NA","NA","NA","1278","68381","68484","68990","68379","68484","Flanker Task","21","11760.0","21","1024"
"100","100","552","552","black","legacy","legacy","legacy","congruent","1","undefined","1","s","21","0","21","0","0","0","0","0","0","21","0","21","21","21","21","21","Sat Sep 23 20:27:53 2023","1500","The main experiment item","True","FlankerTask.osexp","/Users/baileymcwhirter/Downloads","False","mono","False","18","no","white","no","yes","768","legacy","21","21","/Users/baileymcwhirter/Downloads/BMsubject-5.csv","legacy","Melodramatic Milgram","4.0.5","0","s","NA","h","NA","NA","s","388.0","NA","32903","NA","NA","388","2","legacy","1024","2","48000","-16","experiment","SSSSS","1","odd","NA","NA","68993","1342","NA","NA","34267","NA","NA","NA","1278","70031","70134","70523","70028","70134","Flanker Task","22","12148.0","22","1024"
"100","100","550","550","black","legacy","legacy","legacy","congruent","1","undefined","1","h","22","0","22","0","0","0","0","0","0","22","0","22","22","22","22","22","Sat Sep 23 20:27:53 2023","1500","The main experiment item","True","FlankerTask.osexp","/Users/baileymcwhirter/Downloads","False","mono","False","18","no","white","no","yes","768","legacy","22","22","/Users/baileymcwhirter/Downloads/BMsubject-5.csv","legacy","Melodramatic Milgram","4.0.5","0","h","NA","h","NA","NA","h","522.0","NA","32903","NA","NA","522","2","legacy","1024","2","48000","-16","experiment","HHHHH","1","odd","NA","NA","70525","1342","NA","NA","34267","NA","NA","NA","1278","71562","71666","72189","71560","71666","Flanker Task","23","12670.0","23","1024"
"100","100","548","548","black","legacy","legacy","legacy","congruent","1","undefined","1","s","23","0","23","0","0","0","0","0","0","23","0","23","23","23","23","23","Sat Sep 23 20:27:53 2023","1500","The main experiment item","True","FlankerTask.osexp","/Users/baileymcwhirter/Downloads","False","mono","False","18","no","white","no","yes","768","legacy","23","23","/Users/baileymcwhirter/Downloads/BMsubject-5.csv","legacy","Melodramatic Milgram","4.0.5","0","s","NA","h","NA","NA","s","494.0","NA","32903","NA","NA","494","2","legacy","1024","2","48000","-16","experiment","SSSSS","1","odd","NA","NA","72191","1342","NA","NA","34267","NA","NA","NA","1278","73226","73329","73823","73223","73329","Flanker Task","24","13164.0","24","1024"
"100","100","548","548","black","legacy","legacy","legacy","congruent","1","undefined","1","h","24","0","24","0","0","0","0","0","0","24","0","24","24","24","24","24","Sat Sep 23 20:27:53 2023","1500","The main experiment item","True","FlankerTask.osexp","/Users/baileymcwhirter/Downloads","False","mono","False","18","no","white","no","yes","768","legacy","24","24","/Users/baileymcwhirter/Downloads/BMsubject-5.csv","legacy","Melodramatic Milgram","4.0.5","0","h","NA","h","NA","NA","h","557.0","NA","32903","NA","NA","557","2","legacy","1024","2","48000","-16","experiment","HHHHH","1","odd","NA","NA","73826","1342","NA","NA","34267","NA","NA","NA","1278","74861","74963","75520","74858","74963","Flanker Task","25","13721.0","25","1024"
"100","100","545","545","black","legacy","legacy","legacy","congruent","1","undefined","1","s","25","0","25","0","0","0","0","0","0","25","0","25","25","25","25","25","Sat Sep 23 20:27:53 2023","1500","The main experiment item","True","FlankerTask.osexp","/Users/baileymcwhirter/Downloads","False","mono","False","18","no","white","no","yes","768","legacy","25","25","/Users/baileymcwhirter/Downloads/BMsubject-5.csv","legacy","Melodramatic Milgram","4.0.5","0","s","NA","h","NA","NA","s","450.0","NA","32903","NA","NA","450","2","legacy","1024","2","48000","-16","experiment","SSSSS","1","odd","NA","NA","75523","1342","NA","NA","34267","NA","NA","NA","1278","76560","76662","77113","76557","76662","Flanker Task","26","14171.0","26","1024"
"100","100","546","546","black","legacy","legacy","legacy","incongruent","1","undefined","1","s","26","0","26","0","0","0","0","0","0","26","0","26","26","26","26","26","Sat Sep 23 20:27:53 2023","1500","The main experiment item","True","FlankerTask.osexp","/Users/baileymcwhirter/Downloads","False","mono","False","18","no","white","no","yes","768","legacy","26","26","/Users/baileymcwhirter/Downloads/BMsubject-5.csv","legacy","Melodramatic Milgram","4.0.5","0","s","NA","h","NA","NA","s","579.0","NA","32903","NA","NA","579","2","legacy","1024","2","48000","-16","experiment","HHSHH","1","odd","NA","NA","77115","1342","NA","NA","34267","NA","NA","NA","1278","78150","78253","78832","78147","78253","Flanker Task","27","14750.0","27","1024"
"100","100","542","542","black","legacy","legacy","legacy","incongruent","1","undefined","1","s","27","0","27","0","0","0","0","0","0","27","0","27","27","27","27","27","Sat Sep 23 20:27:53 2023","1500","The main experiment item","True","FlankerTask.osexp","/Users/baileymcwhirter/Downloads","False","mono","False","18","no","white","no","yes","768","legacy","27","27","/Users/baileymcwhirter/Downloads/BMsubject-5.csv","legacy","Melodramatic Milgram","4.0.5","0","s","NA","h","NA","NA","s","452.0","NA","32903","NA","NA","452","2","legacy","1024","2","48000","-16","experiment","HHSHH","1","odd","NA","NA","78835","1342","NA","NA","34267","NA","NA","NA","1278","79871","79974","80426","79869","79974","Flanker Task","28","15202.0","28","1024"
"100","100","541","541","black","legacy","legacy","legacy","congruent","1","undefined","1","h","28","0","28","0","0","0","0","0","0","28","0","28","28","28","28","28","Sat Sep 23 20:27:53 2023","1500","The main experiment item","True","FlankerTask.osexp","/Users/baileymcwhirter/Downloads","False","mono","False","18","no","white","no","yes","768","legacy","28","28","/Users/baileymcwhirter/Downloads/BMsubject-5.csv","legacy","Melodramatic Milgram","4.0.5","0","h","NA","h","NA","NA","h","491.0","NA","32903","NA","NA","491","2","legacy","1024","2","48000","-16","experiment","HHHHH","1","odd","NA","NA","80429","1342","NA","NA","34267","NA","NA","NA","1278","81464","81566","82058","81461","81566","Flanker Task","29","15693.0","29","1024"
"100","100","539","539","black","legacy","legacy","legacy","incongruent","1","undefined","1","s","29","0","29","0","0","0","0","0","0","29","0","29","29","29","29","29","Sat Sep 23 20:27:53 2023","1500","The main experiment item","True","FlankerTask.osexp","/Users/baileymcwhirter/Downloads","False","mono","False","18","no","white","no","yes","768","legacy","29","29","/Users/baileymcwhirter/Downloads/BMsubject-5.csv","legacy","Melodramatic Milgram","4.0.5","0","s","NA","h","NA","NA","s","490.0","NA","32903","NA","NA","490","2","legacy","1024","2","48000","-16","experiment","HHSHH","1","odd","NA","NA","82061","1342","NA","NA","34267","NA","NA","NA","1278","83093","83196","83686","83091","83196","Flanker Task","30","16183.0","30","1024"
"100","100","549","549","black","legacy","legacy","legacy","incongruent","1","undefined","1","s","30","0","30","0","0","0","0","0","0","30","0","30","30","30","30","30","Sat Sep 23 20:27:53 2023","1500","The main experiment item","True","FlankerTask.osexp","/Users/baileymcwhirter/Downloads","False","mono","False","18","no","white","no","yes","768","legacy","30","30","/Users/baileymcwhirter/Downloads/BMsubject-5.csv","legacy","Melodramatic Milgram","4.0.5","0","s","NA","h","NA","NA","s","837.0","NA","32903","NA","NA","837","2","legacy","1024","2","48000","-16","experiment","HHSHH","1","odd","NA","NA","83689","1342","NA","NA","34267","NA","NA","NA","1278","84719","84822","85660","84717","84822","Flanker Task","31","17020.0","31","1024"
"100","100","548","548","black","legacy","legacy","legacy","congruent","1","undefined","1","h","31","0","31","0","0","0","0","0","0","31","0","31","31","31","31","31","Sat Sep 23 20:27:53 2023","1500","The main experiment item","True","FlankerTask.osexp","/Users/baileymcwhirter/Downloads","False","mono","False","18","no","white","no","yes","768","legacy","31","31","/Users/baileymcwhirter/Downloads/BMsubject-5.csv","legacy","Melodramatic Milgram","4.0.5","0","h","NA","h","NA","NA","h","529.0","NA","32903","NA","NA","529","2","legacy","1024","2","48000","-16","experiment","HHHHH","1","odd","NA","NA","85662","1342","NA","NA","34267","NA","NA","NA","1278","86694","86798","87328","86692","86798","Flanker Task","32","17549.0","32","1024"
"100","100","545","545","black","legacy","legacy","legacy","congruent","1","undefined","1","h","32","0","32","0","0","0","0","0","0","32","0","32","32","32","32","32","Sat Sep 23 20:27:53 2023","1500","The main experiment item","True","FlankerTask.osexp","/Users/baileymcwhirter/Downloads","False","mono","False","18","no","white","no","yes","768","legacy","32","32","/Users/baileymcwhirter/Downloads/BMsubject-5.csv","legacy","Melodramatic Milgram","4.0.5","0","h","NA","h","NA","NA","h","456.0","NA","32903","NA","NA","456","2","legacy","1024","2","48000","-16","experiment","HHHHH","1","odd","NA","NA","87331","1342","NA","NA","34267","NA","NA","NA","1278","88366","88470","88927","88364","88470","Flanker Task","33","18005.0","33","1024"
"100","100","544","544","black","legacy","legacy","legacy","incongruent","1","undefined","1","s","33","0","33","0","0","0","0","0","0","33","0","33","33","33","33","33","Sat Sep 23 20:27:53 2023","1500","The main experiment item","True","FlankerTask.osexp","/Users/baileymcwhirter/Downloads","False","mono","False","18","no","white","no","yes","768","legacy","33","33","/Users/baileymcwhirter/Downloads/BMsubject-5.csv","legacy","Melodramatic Milgram","4.0.5","0","s","NA","h","NA","NA","s","491.0","NA","32903","NA","NA","491","2","legacy","1024","2","48000","-16","experiment","HHSHH","1","odd","NA","NA","88929","1342","NA","NA","34267","NA","NA","NA","1278","89958","90060","90552","89956","90060","Flanker Task","34","18496.0","34","1024"
"100","100","546","546","black","legacy","legacy","legacy","incongruent","1","undefined","1","s","34","0","34","0","0","0","0","0","0","34","0","34","34","34","34","34","Sat Sep 23 20:27:53 2023","1500","The main experiment item","True","FlankerTask.osexp","/Users/baileymcwhirter/Downloads","False","mono","False","18","no","white","no","yes","768","legacy","34","34","/Users/baileymcwhirter/Downloads/BMsubject-5.csv","legacy","Melodramatic Milgram","4.0.5","0","s","NA","h","NA","NA","s","629.0","NA","32903","NA","NA","629","2","legacy","1024","2","48000","-16","experiment","HHSHH","1","odd","NA","NA","90554","1342","NA","NA","34267","NA","NA","NA","1278","91592","91696","92326","91590","91696","Flanker Task","35","19125.0","35","1024"
"100","100","545","545","black","legacy","legacy","legacy","congruent","1","undefined","1","s","35","0","35","0","0","0","0","0","0","35","0","35","35","35","35","35","Sat Sep 23 20:27:53 2023","1500","The main experiment item","True","FlankerTask.osexp","/Users/baileymcwhirter/Downloads","False","mono","False","18","no","white","no","yes","768","legacy","35","35","/Users/baileymcwhirter/Downloads/BMsubject-5.csv","legacy","Melodramatic Milgram","4.0.5","0","s","NA","h","NA","NA","s","512.0","NA","32903","NA","NA","512","2","legacy","1024","2","48000","-16","experiment","SSSSS","1","odd","NA","NA","92328","1342","NA","NA","34267","NA","NA","NA","1278","93356","93458","93971","93354","93458","Flanker Task","36","19637.0","36","1024"
"100","100","546","546","black","legacy","legacy","legacy","incongruent","1","undefined","1","h","36","0","36","0","0","0","0","0","0","36","0","36","36","36","36","36","Sat Sep 23 20:27:53 2023","1500","The main experiment item","True","FlankerTask.osexp","/Users/baileymcwhirter/Downloads","False","mono","False","18","no","white","no","yes","768","legacy","36","36","/Users/baileymcwhirter/Downloads/BMsubject-5.csv","legacy","Melodramatic Milgram","4.0.5","0","h","NA","h","NA","NA","h","578.0","NA","32903","NA","NA","578","2","legacy","1024","2","48000","-16","experiment","SSHSS","1","odd","NA","NA","93973","1342","NA","NA","34267","NA","NA","NA","1278","94999","95101","95680","94997","95101","Flanker Task","37","20215.0","37","1024"
"100","100","547","547","black","legacy","legacy","legacy","congruent","1","undefined","1","s","37","0","37","0","0","0","0","0","0","37","0","37","37","37","37","37","Sat Sep 23 20:27:53 2023","1500","The main experiment item","True","FlankerTask.osexp","/Users/baileymcwhirter/Downloads","False","mono","False","18","no","white","no","yes","768","legacy","37","37","/Users/baileymcwhirter/Downloads/BMsubject-5.csv","legacy","Melodramatic Milgram","4.0.5","0","s","NA","h","NA","NA","s","581.0","NA","32903","NA","NA","581","2","legacy","1024","2","48000","-16","experiment","SSSSS","1","odd","NA","NA","95682","1342","NA","NA","34267","NA","NA","NA","1278","96711","96813","97395","96709","96813","Flanker Task","38","20796.0","38","1024"
"100","100","548","548","black","legacy","legacy","legacy","incongruent","1","undefined","1","h","38","0","38","0","0","0","0","0","0","38","0","38","38","38","38","38","Sat Sep 23 20:27:53 2023","1500","The main experiment item","True","FlankerTask.osexp","/Users/baileymcwhirter/Downloads","False","mono","False","18","no","white","no","yes","768","legacy","38","38","/Users/baileymcwhirter/Downloads/BMsubject-5.csv","legacy","Melodramatic Milgram","4.0.5","0","h","NA","h","NA","NA","h","581.0","NA","32903","NA","NA","581","2","legacy","1024","2","48000","-16","experiment","SSHSS","1","odd","NA","NA","97397","1342","NA","NA","34267","NA","NA","NA","1278","98425","98528","99109","98423","98528","Flanker Task","39","21377.0","39","1024"
"100","100","548","548","black","legacy","legacy","legacy","incongruent","1","undefined","1","h","39","0","39","0","0","0","0","0","0","39","0","39","39","39","39","39","Sat Sep 23 20:27:53 2023","1500","The main experiment item","True","FlankerTask.osexp","/Users/baileymcwhirter/Downloads","False","mono","False","18","no","white","no","yes","768","legacy","39","39","/Users/baileymcwhirter/Downloads/BMsubject-5.csv","legacy","Melodramatic Milgram","4.0.5","0","h","NA","h","NA","NA","h","543.0","NA","32903","NA","NA","543","2","legacy","1024","2","48000","-16","experiment","SSHSS","1","odd","NA","NA","99112","1342","NA","NA","34267","NA","NA","NA","1278","100139","100241","100785","100137","100241","Flanker Task","40","21920.0","40","1024"
"100","100","547","547","black","legacy","legacy","legacy","congruent","1","undefined","1","h","40","0","40","0","0","0","0","0","0","40","0","40","40","40","40","40","Sat Sep 23 20:27:53 2023","1500","The main experiment item","True","FlankerTask.osexp","/Users/baileymcwhirter/Downloads","False","mono","False","18","no","white","no","yes","768","legacy","40","40","/Users/baileymcwhirter/Downloads/BMsubject-5.csv","legacy","Melodramatic Milgram","4.0.5","0","h","NA","h","NA","NA","h","525.0","NA","32903","NA","NA","525","2","legacy","1024","2","48000","-16","experiment","HHHHH","1","odd","NA","NA","100787","1342","NA","NA","34267","NA","NA","NA","1278","101820","101923","102449","101817","101923","Flanker Task","41","22445.0","41","1024"
"100","100","544","544","black","legacy","legacy","legacy","congruent","1","undefined","1","h","41","0","41","0","0","0","0","0","0","41","0","41","41","41","41","41","Sat Sep 23 20:27:53 2023","1500","The main experiment item","True","FlankerTask.osexp","/Users/baileymcwhirter/Downloads","False","mono","False","18","no","white","no","yes","768","legacy","41","41","/Users/baileymcwhirter/Downloads/BMsubject-5.csv","legacy","Melodramatic Milgram","4.0.5","0","h","NA","h","NA","NA","h","438.0","NA","32903","NA","NA","438","2","legacy","1024","2","48000","-16","experiment","HHHHH","1","odd","NA","NA","102452","1342","NA","NA","34267","NA","NA","NA","1278","103477","103579","104017","103475","103579","Flanker Task","42","22883.0","42","1024"
"100","100","544","544","black","legacy","legacy","legacy","incongruent","1","undefined","1","s","42","0","42","0","0","0","0","0","0","42","0","42","42","42","42","42","Sat Sep 23 20:27:53 2023","1500","The main experiment item","True","FlankerTask.osexp","/Users/baileymcwhirter/Downloads","False","mono","False","18","no","white","no","yes","768","legacy","42","42","/Users/baileymcwhirter/Downloads/BMsubject-5.csv","legacy","Melodramatic Milgram","4.0.5","0","s","NA","h","NA","NA","s","532.0","NA","32903","NA","NA","532","2","legacy","1024","2","48000","-16","experiment","HHSHH","1","odd","NA","NA","104020","1342","NA","NA","34267","NA","NA","NA","1278","105045","105147","105679","105043","105147","Flanker Task","43","23415.0","43","1024"
"100","100","547","547","black","legacy","legacy","legacy","congruent","1","undefined","1","s","43","0","43","0","0","0","0","0","0","43","0","43","43","43","43","43","Sat Sep 23 20:27:53 2023","1500","The main experiment item","True","FlankerTask.osexp","/Users/baileymcwhirter/Downloads","False","mono","False","18","no","white","no","yes","768","legacy","43","43","/Users/baileymcwhirter/Downloads/BMsubject-5.csv","legacy","Melodramatic Milgram","4.0.5","0","s","NA","h","NA","NA","s","681.0","NA","32903","NA","NA","681","2","legacy","1024","2","48000","-16","experiment","SSSSS","1","odd","NA","NA","105682","1342","NA","NA","34267","NA","NA","NA","1278","106708","106810","107492","106706","106810","Flanker Task","44","24096.0","44","1024"
"100","100","548","548","black","legacy","legacy","legacy","incongruent","1","undefined","1","h","44","0","44","0","0","0","0","0","0","44","0","44","44","44","44","44","Sat Sep 23 20:27:53 2023","1500","The main experiment item","True","FlankerTask.osexp","/Users/baileymcwhirter/Downloads","False","mono","False","18","no","white","no","yes","768","legacy","44","44","/Users/baileymcwhirter/Downloads/BMsubject-5.csv","legacy","Melodramatic Milgram","4.0.5","0","h","NA","h","NA","NA","h","579.0","NA","32903","NA","NA","579","2","legacy","1024","2","48000","-16","experiment","SSHSS","1","odd","NA","NA","107495","1342","NA","NA","34267","NA","NA","NA","1278","108522","108624","109203","108520","108624","Flanker Task","45","24675.0","45","1024"
"100","100","547","547","black","legacy","legacy","legacy","congruent","1","undefined","1","s","45","0","45","0","0","0","0","0","0","45","0","45","45","45","45","45","Sat Sep 23 20:27:53 2023","1500","The main experiment item","True","FlankerTask.osexp","/Users/baileymcwhirter/Downloads","False","mono","False","18","no","white","no","yes","768","legacy","45","45","/Users/baileymcwhirter/Downloads/BMsubject-5.csv","legacy","Melodramatic Milgram","4.0.5","0","s","NA","h","NA","NA","s","517.0","NA","32903","NA","NA","517","2","legacy","1024","2","48000","-16","experiment","SSSSS","1","odd","NA","NA","109206","1342","NA","NA","34267","NA","NA","NA","1278","110232","110334","110852","110230","110334","Flanker Task","46","25192.0","46","1024"
"100","100","547","547","black","legacy","legacy","legacy","congruent","1","undefined","1","h","46","0","46","0","0","0","0","0","0","46","0","46","46","46","46","46","Sat Sep 23 20:27:53 2023","1500","The main experiment item","True","FlankerTask.osexp","/Users/baileymcwhirter/Downloads","False","mono","False","18","no","white","no","yes","768","legacy","46","46","/Users/baileymcwhirter/Downloads/BMsubject-5.csv","legacy","Melodramatic Milgram","4.0.5","0","h","NA","h","NA","NA","h","524.0","NA","32903","NA","NA","524","2","legacy","1024","2","48000","-16","experiment","HHHHH","1","odd","NA","NA","110855","1342","NA","NA","34267","NA","NA","NA","1278","111885","111990","112515","111884","111989","Flanker Task","47","25716.0","47","1024"
"100","100","545","545","black","legacy","legacy","legacy","incongruent","1","undefined","1","s","47","0","47","0","0","0","0","0","0","47","0","47","47","47","47","47","Sat Sep 23 20:27:53 2023","1500","The main experiment item","True","FlankerTask.osexp","/Users/baileymcwhirter/Downloads","False","mono","False","18","no","white","no","yes","768","legacy","47","47","/Users/baileymcwhirter/Downloads/BMsubject-5.csv","legacy","Melodramatic Milgram","4.0.5","0","s","NA","h","NA","NA","s","475.0","NA","32903","NA","NA","475","2","legacy","1024","2","48000","-16","experiment","HHSHH","1","odd","NA","NA","112518","1342","NA","NA","34267","NA","NA","NA","1278","113545","113647","114123","113543","113647","Flanker Task","48","26191.0","48","1024"
"100","100","545","545","black","legacy","legacy","legacy","congruent","1","undefined","1","s","48","0","48","0","0","0","0","0","0","48","0","48","48","48","48","48","Sat Sep 23 20:27:53 2023","1500","The main experiment item","True","FlankerTask.osexp","/Users/baileymcwhirter/Downloads","False","mono","False","18","no","white","no","yes","768","legacy","48","48","/Users/baileymcwhirter/Downloads/BMsubject-5.csv","legacy","Melodramatic Milgram","4.0.5","0","s","NA","h","NA","NA","s","526.0","NA","32903","NA","NA","526","2","legacy","1024","2","48000","-16","experiment","SSSSS","1","odd","NA","NA","114126","1342","NA","NA","34267","NA","NA","NA","1278","115155","115259","115786","115153","115259","Flanker Task","49","26717.0","49","1024"
"100","100","544","544","black","legacy","legacy","legacy","congruent","1","undefined","1","h","49","0","49","0","0","0","0","0","0","49","0","49","49","49","49","49","Sat Sep 23 20:27:53 2023","1500","The main experiment item","True","FlankerTask.osexp","/Users/baileymcwhirter/Downloads","False","mono","False","18","no","white","no","yes","768","legacy","49","49","/Users/baileymcwhirter/Downloads/BMsubject-5.csv","legacy","Melodramatic Milgram","4.0.5","0","h","NA","h","NA","NA","h","517.0","NA","32903","NA","NA","517","2","legacy","1024","2","48000","-16","experiment","HHHHH","1","odd","NA","NA","115789","1342","NA","NA","34267","NA","NA","NA","1278","116815","116918","117435","116813","116918","Flanker Task","50","27234.0","50","1024"
"100","100","543","543","black","legacy","legacy","legacy","congruent","1","undefined","1","s","50","0","50","0","0","0","0","0","0","50","0","50","50","50","50","50","Sat Sep 23 20:27:53 2023","1500","The main experiment item","True","FlankerTask.osexp","/Users/baileymcwhirter/Downloads","False","mono","False","18","no","white","no","yes","768","legacy","50","50","/Users/baileymcwhirter/Downloads/BMsubject-5.csv","legacy","Melodramatic Milgram","4.0.5","0","s","NA","h","NA","NA","s","460.0","NA","32903","NA","NA","460","2","legacy","1024","2","48000","-16","experiment","SSSSS","1","odd","NA","NA","117438","1342","NA","NA","34267","NA","NA","NA","1278","118470","118575","119036","118468","118574","Flanker Task","51","27694.0","51","1024"
"100","100","541","541","black","legacy","legacy","legacy","incongruent","1","undefined","1","h","51","0","51","0","0","0","0","0","0","51","0","51","51","51","51","51","Sat Sep 23 20:27:53 2023","1500","The main experiment item","True","FlankerTask.osexp","/Users/baileymcwhirter/Downloads","False","mono","False","18","no","white","no","yes","768","legacy","51","51","/Users/baileymcwhirter/Downloads/BMsubject-5.csv","legacy","Melodramatic Milgram","4.0.5","0","h","NA","h","NA","NA","h","487.0","NA","32903","NA","NA","487","2","legacy","1024","2","48000","-16","experiment","SSHSS","1","odd","NA","NA","119039","1342","NA","NA","34267","NA","NA","NA","1278","120063","120166","120654","120061","120166","Flanker Task","52","28181.0","52","1024"
"100","100","540","540","black","legacy","legacy","legacy","congruent","1","undefined","1","s","52","0","52","0","0","0","0","0","0","52","0","52","52","52","52","52","Sat Sep 23 20:27:53 2023","1500","The main experiment item","True","FlankerTask.osexp","/Users/baileymcwhirter/Downloads","False","mono","False","18","no","white","no","yes","768","legacy","52","52","/Users/baileymcwhirter/Downloads/BMsubject-5.csv","legacy","Melodramatic Milgram","4.0.5","0","s","NA","h","NA","NA","s","462.0","NA","32903","NA","NA","462","2","legacy","1024","2","48000","-16","experiment","SSSSS","1","odd","NA","NA","120656","1342","NA","NA","34267","NA","NA","NA","1278","121681","121784","122247","121679","121784","Flanker Task","53","28643.0","53","1024"
"100","100","540","540","black","legacy","legacy","legacy","incongruent","1","undefined","1","s","53","0","53","0","0","0","0","0","0","53","0","53","53","53","53","53","Sat Sep 23 20:27:53 2023","1500","The main experiment item","True","FlankerTask.osexp","/Users/baileymcwhirter/Downloads","False","mono","False","18","no","white","no","yes","768","legacy","53","53","/Users/baileymcwhirter/Downloads/BMsubject-5.csv","legacy","Melodramatic Milgram","4.0.5","0","s","NA","h","NA","NA","s","531.0","NA","32903","NA","NA","531","2","legacy","1024","2","48000","-16","experiment","HHSHH","1","odd","NA","NA","122249","1342","NA","NA","34267","NA","NA","NA","1278","123274","123376","123908","123272","123376","Flanker Task","54","29174.0","54","1024"
"100","100","540","540","black","legacy","legacy","legacy","congruent","1","undefined","1","h","54","0","54","0","0","0","0","0","0","54","0","54","54","54","54","54","Sat Sep 23 20:27:53 2023","1500","The main experiment item","True","FlankerTask.osexp","/Users/baileymcwhirter/Downloads","False","mono","False","18","no","white","no","yes","768","legacy","54","54","/Users/baileymcwhirter/Downloads/BMsubject-5.csv","legacy","Melodramatic Milgram","4.0.5","0","h","NA","h","NA","NA","h","536.0","NA","32903","NA","NA","536","2","legacy","1024","2","48000","-16","experiment","HHHHH","1","odd","NA","NA","123910","1342","NA","NA","34267","NA","NA","NA","1278","124937","125039","125576","124935","125039","Flanker Task","55","29710.0","55","1024"
"100","100","539","539","black","legacy","legacy","legacy","congruent","1","undefined","1","h","55","0","55","0","0","0","0","0","0","55","0","55","55","55","55","55","Sat Sep 23 20:27:53 2023","1500","The main experiment item","True","FlankerTask.osexp","/Users/baileymcwhirter/Downloads","False","mono","False","18","no","white","no","yes","768","legacy","55","55","/Users/baileymcwhirter/Downloads/BMsubject-5.csv","legacy","Melodramatic Milgram","4.0.5","0","h","NA","h","NA","NA","h","505.0","NA","32903","NA","NA","505","2","legacy","1024","2","48000","-16","experiment","HHHHH","1","odd","NA","NA","125578","1342","NA","NA","34267","NA","NA","NA","1278","126603","126705","127211","126601","126705","Flanker Task","56","30215.0","56","1024"
"100","100","540","540","black","legacy","legacy","legacy","incongruent","1","undefined","1","h","56","0","56","0","0","0","0","0","0","56","0","56","56","56","56","56","Sat Sep 23 20:27:53 2023","1500","The main experiment item","True","FlankerTask.osexp","/Users/baileymcwhirter/Downloads","False","mono","False","18","no","white","no","yes","768","legacy","56","56","/Users/baileymcwhirter/Downloads/BMsubject-5.csv","legacy","Melodramatic Milgram","4.0.5","0","h","NA","h","NA","NA","h","586.0","NA","32903","NA","NA","586","2","legacy","1024","2","48000","-16","experiment","SSHSS","1","odd","NA","NA","127213","1342","NA","NA","34267","NA","NA","NA","1278","128240","128342","128928","128238","128342","Flanker Task","57","30801.0","57","1024"
"100","100","539","539","black","legacy","legacy","legacy","incongruent","1","undefined","1","s","57","0","57","0","0","0","0","0","0","57","0","57","57","57","57","57","Sat Sep 23 20:27:53 2023","1500","The main experiment item","True","FlankerTask.osexp","/Users/baileymcwhirter/Downloads","False","mono","False","18","no","white","no","yes","768","legacy","57","57","/Users/baileymcwhirter/Downloads/BMsubject-5.csv","legacy","Melodramatic Milgram","4.0.5","0","s","NA","h","NA","NA","s","505.0","NA","32903","NA","NA","505","2","legacy","1024","2","48000","-16","experiment","HHSHH","1","odd","NA","NA","128931","1342","NA","NA","34267","NA","NA","NA","1278","129961","130063","130569","129958","130063","Flanker Task","58","31306.0","58","1024"
"100","100","540","540","black","legacy","legacy","legacy","congruent","1","undefined","1","h","58","0","58","0","0","0","0","0","0","58","0","58","58","58","58","58","Sat Sep 23 20:27:53 2023","1500","The main experiment item","True","FlankerTask.osexp","/Users/baileymcwhirter/Downloads","False","mono","False","18","no","white","no","yes","768","legacy","58","58","/Users/baileymcwhirter/Downloads/BMsubject-5.csv","legacy","Melodramatic Milgram","4.0.5","0","h","NA","h","NA","NA","h","591.0","NA","32903","NA","NA","591","2","legacy","1024","2","48000","-16","experiment","HHHHH","1","odd","NA","NA","130571","1342","NA","NA","34267","NA","NA","NA","1278","131605","131707","132299","131603","131707","Flanker Task","59","31897.0","59","1024"
"100","100","539","539","black","legacy","legacy","legacy","congruent","1","undefined","1","s","59","0","59","0","0","0","0","0","0","59","0","59","59","59","59","59","Sat Sep 23 20:27:53 2023","1500","The main experiment item","True","FlankerTask.osexp","/Users/baileymcwhirter/Downloads","False","mono","False","18","no","white","no","yes","768","legacy","59","59","/Users/baileymcwhirter/Downloads/BMsubject-5.csv","legacy","Melodramatic Milgram","4.0.5","0","s","NA","h","NA","NA","s","500.0","NA","32903","NA","NA","500","2","legacy","1024","2","48000","-16","experiment","SSSSS","1","odd","NA","NA","132302","1342","NA","NA","34267","NA","NA","NA","1278","133333","133437","133938","133331","133437","Flanker Task","60","32397.0","60","1024"
"100","100","540","540","black","legacy","legacy","legacy","congruent","1","undefined","1","h","60","0","60","0","0","0","0","0","0","60","0","60","60","60","60","60","Sat Sep 23 20:27:53 2023","1500","The main experiment item","True","FlankerTask.osexp","/Users/baileymcwhirter/Downloads","False","mono","False","18","no","white","no","yes","768","legacy","60","60","/Users/baileymcwhirter/Downloads/BMsubject-5.csv","legacy","Melodramatic Milgram","4.0.5","0","h","NA","h","NA","NA","h","573.0","NA","32903","NA","NA","573","2","legacy","1024","2","48000","-16","experiment","HHHHH","1","odd","NA","NA","133940","1342","NA","NA","34267","NA","NA","NA","1278","134966","135068","135641","134964","135068","Flanker Task","61","32970.0","61","1024"
"100","100","538","538","black","legacy","legacy","legacy","incongruent","1","undefined","1","s","61","0","61","0","0","0","0","0","0","61","0","61","61","61","61","61","Sat Sep 23 20:27:53 2023","1500","The main experiment item","True","FlankerTask.osexp","/Users/baileymcwhirter/Downloads","False","mono","False","18","no","white","no","yes","768","legacy","61","61","/Users/baileymcwhirter/Downloads/BMsubject-5.csv","legacy","Melodramatic Milgram","4.0.5","0","s","NA","h","NA","NA","s","434.0","NA","32903","NA","NA","434","2","legacy","1024","2","48000","-16","experiment","HHSHH","1","odd","NA","NA","135644","1342","NA","NA","34267","NA","NA","NA","1278","136675","136777","137212","136672","136777","Flanker Task","62","33404.0","62","1024"
"100","100","539","539","black","legacy","legacy","legacy","incongruent","1","undefined","1","h","62","0","62","0","0","0","0","0","0","62","0","62","62","62","62","62","Sat Sep 23 20:27:53 2023","1500","The main experiment item","True","FlankerTask.osexp","/Users/baileymcwhirter/Downloads","False","mono","False","18","no","white","no","yes","768","legacy","62","62","/Users/baileymcwhirter/Downloads/BMsubject-5.csv","legacy","Melodramatic Milgram","4.0.5","0","h","NA","h","NA","NA","h","557.0","NA","32903","NA","NA","557","2","legacy","1024","2","48000","-16","experiment","SSHSS","1","odd","NA","NA","137215","1342","NA","NA","34267","NA","NA","NA","1278","138254","138356","138914","138251","138356","Flanker Task","63","33961.0","63","1024"
"100","100","538","538","black","legacy","legacy","legacy","incongruent","1","undefined","1","s","63","0","63","0","0","0","0","0","0","63","0","63","63","63","63","63","Sat Sep 23 20:27:53 2023","1500","The main experiment item","True","FlankerTask.osexp","/Users/baileymcwhirter/Downloads","False","mono","False","18","no","white","no","yes","768","legacy","63","63","/Users/baileymcwhirter/Downloads/BMsubject-5.csv","legacy","Melodramatic Milgram","4.0.5","0","s","NA","h","NA","NA","s","504.0","NA","32903","NA","NA","504","2","legacy","1024","2","48000","-16","experiment","HHSHH","1","odd","NA","NA","138917","1342","NA","NA","34267","NA","NA","NA","1278","139956","140058","140563","139953","140058","Flanker Task","64","34465.0","64","1024"
"100","100","538","538","black","legacy","legacy","legacy","incongruent","1","undefined","1","h","64","0","64","0","0","0","0","0","0","64","0","64","64","64","64","64","Sat Sep 23 20:27:53 2023","1500","The main experiment item","True","FlankerTask.osexp","/Users/baileymcwhirter/Downloads","False","mono","False","18","no","white","no","yes","768","legacy","64","64","/Users/baileymcwhirter/Downloads/BMsubject-5.csv","legacy","Melodramatic Milgram","4.0.5","0","h","NA","h","NA","NA","h","506.0","NA","32903","NA","NA","506","2","legacy","1024","2","48000","-16","experiment","SSHSS","1","odd","NA","NA","140565","1342","NA","NA","34267","NA","NA","NA","1278","141603","141707","142213","141601","141707","Flanker Task","65","34971.0","65","1024"
"100","100","543","543","black","legacy","legacy","legacy","incongruent","1","undefined","1","h","65","0","65","0","0","0","0","0","0","65","0","65","65","65","65","65","Sat Sep 23 20:27:53 2023","1500","The main experiment item","True","FlankerTask.osexp","/Users/baileymcwhirter/Downloads","False","mono","False","18","no","white","no","yes","768","legacy","65","65","/Users/baileymcwhirter/Downloads/BMsubject-5.csv","legacy","Melodramatic Milgram","4.0.5","0","h","NA","h","NA","NA","h","923.0","NA","32903","NA","NA","923","2","legacy","1024","2","48000","-16","experiment","SSHSS","1","odd","NA","NA","142216","1342","NA","NA","34267","NA","NA","NA","1278","143253","143356","144280","143250","143356","Flanker Task","66","35894.0","66","1024"
"100","100","547","547","black","legacy","legacy","legacy","incongruent","1","undefined","1","h","66","0","66","0","0","0","0","0","0","66","0","66","66","66","66","66","Sat Sep 23 20:27:53 2023","1500","The main experiment item","True","FlankerTask.osexp","/Users/baileymcwhirter/Downloads","False","mono","False","18","no","white","no","yes","768","legacy","66","66","/Users/baileymcwhirter/Downloads/BMsubject-5.csv","legacy","Melodramatic Milgram","4.0.5","0","h","NA","h","NA","NA","h","761.0","NA","32903","NA","NA","761","2","legacy","1024","2","48000","-16","experiment","SSHSS","1","odd","NA","NA","144283","1342","NA","NA","34267","NA","NA","NA","1278","145321","145423","146185","145319","145423","Flanker Task","67","36655.0","67","1024"
"100","100","549","549","black","legacy","legacy","legacy","incongruent","1","undefined","1","h","67","0","67","0","0","0","0","0","0","67","0","67","67","67","67","67","Sat Sep 23 20:27:53 2023","1500","The main experiment item","True","FlankerTask.osexp","/Users/baileymcwhirter/Downloads","False","mono","False","18","no","white","no","yes","768","legacy","67","67","/Users/baileymcwhirter/Downloads/BMsubject-5.csv","legacy","Melodramatic Milgram","4.0.5","0","h","NA","h","NA","NA","h","703.0","NA","32903","NA","NA","703","2","legacy","1024","2","48000","-16","experiment","SSHSS","1","odd","NA","NA","146187","1342","NA","NA","34267","NA","NA","NA","1278","147216","147318","148022","147213","147318","Flanker Task","68","37358.0","68","1024"
"100","100","549","549","black","legacy","legacy","legacy","incongruent","1","undefined","1","h","68","0","68","0","0","0","0","0","0","68","0","68","68","68","68","68","Sat Sep 23 20:27:53 2023","1500","The main experiment item","True","FlankerTask.osexp","/Users/baileymcwhirter/Downloads","False","mono","False","18","no","white","no","yes","768","legacy","68","68","/Users/baileymcwhirter/Downloads/BMsubject-5.csv","legacy","Melodramatic Milgram","4.0.5","0","h","NA","h","NA","NA","h","573.0","NA","32903","NA","NA","573","2","legacy","1024","2","48000","-16","experiment","SSHSS","1","odd","NA","NA","148024","1342","NA","NA","34267","NA","NA","NA","1278","149056","149159","149733","149053","149159","Flanker Task","69","37931.0","69","1024"
"100","100","549","549","black","legacy","legacy","legacy","congruent","1","undefined","1","s","69","0","69","0","0","0","0","0","0","69","0","69","69","69","69","69","Sat Sep 23 20:27:53 2023","1500","The main experiment item","True","FlankerTask.osexp","/Users/baileymcwhirter/Downloads","False","mono","False","18","no","white","no","yes","768","legacy","69","69","/Users/baileymcwhirter/Downloads/BMsubject-5.csv","legacy","Melodramatic Milgram","4.0.5","0","s","NA","h","NA","NA","s","554.0","NA","32903","NA","NA","554","2","legacy","1024","2","48000","-16","experiment","SSSSS","1","odd","NA","NA","149735","1342","NA","NA","34267","NA","NA","NA","1278","150774","150878","151433","150772","150878","Flanker Task","70","38485.0","70","1024"
"100","100","550","550","black","legacy","legacy","legacy","congruent","1","undefined","1","h","70","0","70","0","0","0","0","0","0","70","0","70","70","70","70","70","Sat Sep 23 20:27:53 2023","1500","The main experiment item","True","FlankerTask.osexp","/Users/baileymcwhirter/Downloads","False","mono","False","18","no","white","no","yes","768","legacy","70","70","/Users/baileymcwhirter/Downloads/BMsubject-5.csv","legacy","Melodramatic Milgram","4.0.5","0","h","NA","h","NA","NA","h","609.0","NA","32903","NA","NA","609","2","legacy","1024","2","48000","-16","experiment","HHHHH","1","odd","NA","NA","151435","1342","NA","NA","34267","NA","NA","NA","1278","152462","152564","153174","152460","152564","Flanker Task","71","39094.0","71","1024"
"100","100","550","550","black","legacy","legacy","legacy","congruent","1","undefined","1","h","71","0","71","0","0","0","0","0","0","71","0","71","71","71","71","71","Sat Sep 23 20:27:53 2023","1500","The main experiment item","True","FlankerTask.osexp","/Users/baileymcwhirter/Downloads","False","mono","False","18","no","white","no","yes","768","legacy","71","71","/Users/baileymcwhirter/Downloads/BMsubject-5.csv","legacy","Melodramatic Milgram","4.0.5","0","h","NA","h","NA","NA","h","571.0","NA","32903","NA","NA","571","2","legacy","1024","2","48000","-16","experiment","HHHHH","1","odd","NA","NA","153176","1342","NA","NA","34267","NA","NA","NA","1278","154209","154311","154883","154207","154311","Flanker Task","72","39665.0","72","1024"
"100","100","550","550","black","legacy","legacy","legacy","congruent","1","undefined","1","s","72","0","72","0","0","0","0","0","0","72","0","72","72","72","72","72","Sat Sep 23 20:27:53 2023","1500","The main experiment item","True","FlankerTask.osexp","/Users/baileymcwhirter/Downloads","False","mono","False","18","no","white","no","yes","768","legacy","72","72","/Users/baileymcwhirter/Downloads/BMsubject-5.csv","legacy","Melodramatic Milgram","4.0.5","0","s","NA","h","NA","NA","s","532.0","NA","32903","NA","NA","532","2","legacy","1024","2","48000","-16","experiment","SSSSS","1","odd","NA","NA","154885","1342","NA","NA","34267","NA","NA","NA","1278","155919","156021","156554","155916","156021","Flanker Task","73","40197.0","73","1024"
"100","100","549","549","black","legacy","legacy","legacy","congruent","1","undefined","1","s","73","0","73","0","0","0","0","0","0","73","0","73","73","73","73","73","Sat Sep 23 20:27:53 2023","1500","The main experiment item","True","FlankerTask.osexp","/Users/baileymcwhirter/Downloads","False","mono","False","18","no","white","no","yes","768","legacy","73","73","/Users/baileymcwhirter/Downloads/BMsubject-5.csv","legacy","Melodramatic Milgram","4.0.5","0","s","NA","h","NA","NA","s","461.0","NA","32903","NA","NA","461","2","legacy","1024","2","48000","-16","experiment","SSSSS","1","odd","NA","NA","156556","1342","NA","NA","34267","NA","NA","NA","1278","157586","157688","158149","157584","157688","Flanker Task","74","40658.0","74","1024"
"100","100","550","550","black","legacy","legacy","legacy","incongruent","1","undefined","1","s","74","0","74","0","0","0","0","0","0","74","0","74","74","74","74","74","Sat Sep 23 20:27:53 2023","1500","The main experiment item","True","FlankerTask.osexp","/Users/baileymcwhirter/Downloads","False","mono","False","18","no","white","no","yes","768","legacy","74","74","/Users/baileymcwhirter/Downloads/BMsubject-5.csv","legacy","Melodramatic Milgram","4.0.5","0","s","NA","h","NA","NA","s","596.0","NA","32903","NA","NA","596","2","legacy","1024","2","48000","-16","experiment","HHSHH","1","odd","NA","NA","158152","1342","NA","NA","34267","NA","NA","NA","1278","159177","159279","159876","159175","159279","Flanker Task","75","41254.0","75","1024"
"100","100","551","551","black","legacy","legacy","legacy","incongruent","1","undefined","1","h","75","0","75","0","0","0","0","0","0","75","0","75","75","75","75","75","Sat Sep 23 20:27:53 2023","1500","The main experiment item","True","FlankerTask.osexp","/Users/baileymcwhirter/Downloads","False","mono","False","18","no","white","no","yes","768","legacy","75","75","/Users/baileymcwhirter/Downloads/BMsubject-5.csv","legacy","Melodramatic Milgram","4.0.5","0","h","NA","h","NA","NA","h","656.0","NA","32903","NA","NA","656","2","legacy","1024","2","48000","-16","experiment","SSHSS","1","odd","NA","NA","159879","1342","NA","NA","34267","NA","NA","NA","1278","160905","161007","161663","160903","161007","Flanker Task","76","41910.0","76","1024"
"100","100","552","552","black","legacy","legacy","legacy","incongruent","1","undefined","1","s","76","0","76","0","0","0","0","0","0","76","0","76","76","76","76","76","Sat Sep 23 20:27:53 2023","1500","The main experiment item","True","FlankerTask.osexp","/Users/baileymcwhirter/Downloads","False","mono","False","18","no","white","no","yes","768","legacy","76","76","/Users/baileymcwhirter/Downloads/BMsubject-5.csv","legacy","Melodramatic Milgram","4.0.5","0","s","NA","h","NA","NA","s","649.0","NA","32903","NA","NA","649","2","legacy","1024","2","48000","-16","experiment","HHSHH","1","odd","NA","NA","161666","1342","NA","NA","34267","NA","NA","NA","1278","162693","162797","163446","162691","162797","Flanker Task","77","42559.0","77","1024"
"100","100","551","551","black","legacy","legacy","legacy","incongruent","1","undefined","1","s","77","0","77","0","0","0","0","0","0","77","0","77","77","77","77","77","Sat Sep 23 20:27:53 2023","1500","The main experiment item","True","FlankerTask.osexp","/Users/baileymcwhirter/Downloads","False","mono","False","18","no","white","no","yes","768","legacy","77","77","/Users/baileymcwhirter/Downloads/BMsubject-5.csv","legacy","Melodramatic Milgram","4.0.5","0","s","NA","h","NA","NA","s","482.0","NA","32903","NA","NA","482","2","legacy","1024","2","48000","-16","experiment","HHSHH","1","odd","NA","NA","163449","1342","NA","NA","34267","NA","NA","NA","1278","164475","164577","165060","164473","164577","Flanker Task","78","43041.0","78","1024"
"100","100","551","551","black","legacy","legacy","legacy","congruent","1","undefined","1","h","78","0","78","0","0","0","0","0","0","78","0","78","78","78","78","78","Sat Sep 23 20:27:53 2023","1500","The main experiment item","True","FlankerTask.osexp","/Users/baileymcwhirter/Downloads","False","mono","False","18","no","white","no","yes","768","legacy","78","78","/Users/baileymcwhirter/Downloads/BMsubject-5.csv","legacy","Melodramatic Milgram","4.0.5","0","h","NA","h","NA","NA","h","545.0","NA","32903","NA","NA","545","2","legacy","1024","2","48000","-16","experiment","HHHHH","1","odd","NA","NA","165063","1342","NA","NA","34267","NA","NA","NA","1278","166094","166196","166742","166092","166196","Flanker Task","79","43586.0","79","1024"
"100","100","551","551","black","legacy","legacy","legacy","congruent","1","undefined","1","h","79","0","79","0","0","0","0","0","0","79","0","79","79","79","79","79","Sat Sep 23 20:27:53 2023","1500","The main experiment item","True","FlankerTask.osexp","/Users/baileymcwhirter/Downloads","False","mono","False","18","no","white","no","yes","768","legacy","79","79","/Users/baileymcwhirter/Downloads/BMsubject-5.csv","legacy","Melodramatic Milgram","4.0.5","0","h","NA","h","NA","NA","h","554.0","NA","32903","NA","NA","554","2","legacy","1024","2","48000","-16","experiment","HHHHH","1","odd","NA","NA","166744","1342","NA","NA","34267","NA","NA","NA","1278","167773","167877","168432","167772","167877","Flanker Task","80","44140.0","80","1024"
"100","100","555","555","black","legacy","legacy","legacy","incongruent","1","undefined","1","h","80","0","80","0","0","0","0","0","0","80","0","80","80","80","80","80","Sat Sep 23 20:27:53 2023","600","The main experiment item","True","FlankerTask.osexp","/Users/baileymcwhirter/Downloads","False","mono","False","18","no","white","no","yes","768","legacy","0","79","/Users/baileymcwhirter/Downloads/BMsubject-5.csv","legacy","Melodramatic Milgram","4.0.5","0","h","NA","h","[","NA","h","869.0","NA","32903","9815","NA","869","2","legacy","1024","2","48000","-16","experiment","SSHSS","1","odd","NA","NA","168435","1342","169440","NA","34267","179256","NA","NA","1278","179283","179384","180254","179281","179384","Flanker Task","81","45009.0","81","1024"
"100","100","556","556","black","legacy","legacy","legacy","congruent","1","undefined","1","h","81","0","81","0","0","0","0","0","0","81","0","81","81","81","81","81","Sat Sep 23 20:27:53 2023","600","The main experiment item","True","FlankerTask.osexp","/Users/baileymcwhirter/Downloads","False","mono","False","18","no","white","no","yes","768","legacy","1","79","/Users/baileymcwhirter/Downloads/BMsubject-5.csv","legacy","Melodramatic Milgram","4.0.5","0","h","NA","h","[","NA","h","642.0","NA","32903","9815","NA","642","2","legacy","1024","2","48000","-16","experiment","HHHHH","1","odd","180257","NA","180759","1342","169440","NA","34267","179256","NA","NA","1278","181788","181891","182534","181786","181890","Flanker Task","82","45651.0","82","1024"
"98","98","554","554","black","legacy","legacy","legacy","incongruent","0","undefined","0","s","82","0","82","0","0","0","0","0","0","82","0","82","82","82","82","82","Sat Sep 23 20:27:53 2023","600","The main experiment item","True","FlankerTask.osexp","/Users/baileymcwhirter/Downloads","False","mono","False","18","no","white","no","yes","768","legacy","2","79","/Users/baileymcwhirter/Downloads/BMsubject-5.csv","legacy","Melodramatic Milgram","4.0.5","0","h","NA","h","[","NA","h","357.0","NA","32903","9815","NA","357","2","legacy","1024","2","48000","-16","experiment","HHSHH","1","odd","182537","NA","183040","1342","169440","NA","34267","179256","NA","NA","1278","184065","184167","184525","184063","184167","Flanker Task","82","46008.0","83","1024"
"98","98","553","553","black","legacy","legacy","legacy","incongruent","1","undefined","1","s","83","0","83","0","0","0","0","0","0","83","0","83","83","83","83","83","Sat Sep 23 20:27:53 2023","600","The main experiment item","True","FlankerTask.osexp","/Users/baileymcwhirter/Downloads","False","mono","False","18","no","white","no","yes","768","legacy","3","79","/Users/baileymcwhirter/Downloads/BMsubject-5.csv","legacy","Melodramatic Milgram","4.0.5","0","s","NA","h","[","NA","s","520.0","NA","32903","9815","NA","520","2","legacy","1024","2","48000","-16","experiment","HHSHH","1","odd","182537","NA","185031","1342","169440","NA","34267","179256","NA","184528","1278","186063","186165","186686","186061","186165","Flanker Task","83","46528.0","84","1024"
"98","98","552","552","black","legacy","legacy","legacy","incongruent","1","undefined","1","h","84","0","84","0","0","0","0","0","0","84","0","84","84","84","84","84","Sat Sep 23 20:27:53 2023","600","The main experiment item","True","FlankerTask.osexp","/Users/baileymcwhirter/Downloads","False","mono","False","18","no","white","no","yes","768","legacy","4","79","/Users/baileymcwhirter/Downloads/BMsubject-5.csv","legacy","Melodramatic Milgram","4.0.5","0","h","NA","h","[","NA","h","468.0","NA","32903","9815","NA","468","2","legacy","1024","2","48000","-16","experiment","SSHSS","1","odd","182537","NA","186689","1342","169440","NA","34267","179256","NA","184528","1278","187719","187822","188291","187716","187822","Flanker Task","84","46996.0","85","1024"
"98","98","551","551","black","legacy","legacy","legacy","congruent","1","undefined","1","s","85","0","85","0","0","0","0","0","0","85","0","85","85","85","85","85","Sat Sep 23 20:27:53 2023","600","The main experiment item","True","FlankerTask.osexp","/Users/baileymcwhirter/Downloads","False","mono","False","18","no","white","no","yes","768","legacy","5","79","/Users/baileymcwhirter/Downloads/BMsubject-5.csv","legacy","Melodramatic Milgram","4.0.5","0","s","NA","h","[","NA","s","416.0","NA","32903","9815","NA","416","2","legacy","1024","2","48000","-16","experiment","SSSSS","1","odd","182537","NA","188294","1342","169440","NA","34267","179256","NA","184528","1278","189322","189427","189844","189320","189426","Flanker Task","85","47412.0","86","1024"
"98","98","549","549","black","legacy","legacy","legacy","congruent","1","undefined","1","s","86","0","86","0","0","0","0","0","0","86","0","86","86","86","86","86","Sat Sep 23 20:27:53 2023","600","The main experiment item","True","FlankerTask.osexp","/Users/baileymcwhirter/Downloads","False","mono","False","18","no","white","no","yes","768","legacy","6","79","/Users/baileymcwhirter/Downloads/BMsubject-5.csv","legacy","Melodramatic Milgram","4.0.5","0","s","NA","h","[","NA","s","426.0","NA","32903","9815","NA","426","2","legacy","1024","2","48000","-16","experiment","SSSSS","1","odd","182537","NA","189847","1342","169440","NA","34267","179256","NA","184528","1278","190876","190980","191407","190874","190980","Flanker Task","86","47838.0","87","1024"
"98","98","549","549","black","legacy","legacy","legacy","congruent","1","undefined","1","h","87","0","87","0","0","0","0","0","0","87","0","87","87","87","87","87","Sat Sep 23 20:27:53 2023","600","The main experiment item","True","FlankerTask.osexp","/Users/baileymcwhirter/Downloads","False","mono","False","18","no","white","no","yes","768","legacy","7","79","/Users/baileymcwhirter/Downloads/BMsubject-5.csv","legacy","Melodramatic Milgram","4.0.5","0","h","NA","h","[","NA","h","480.0","NA","32903","9815","NA","480","2","legacy","1024","2","48000","-16","experiment","HHHHH","1","odd","182537","NA","191410","1342","169440","NA","34267","179256","NA","184528","1278","192437","192541","193022","192435","192541","Flanker Task","87","48318.0","88","1024"
"98","98","547","547","black","legacy","legacy","legacy","incongruent","1","undefined","1","s","88","0","88","0","0","0","0","0","0","88","0","88","88","88","88","88","Sat Sep 23 20:27:53 2023","600","The main experiment item","True","FlankerTask.osexp","/Users/baileymcwhirter/Downloads","False","mono","False","18","no","white","no","yes","768","legacy","8","79","/Users/baileymcwhirter/Downloads/BMsubject-5.csv","legacy","Melodramatic Milgram","4.0.5","0","s","NA","h","[","NA","s","417.0","NA","32903","9815","NA","417","2","legacy","1024","2","48000","-16","experiment","HHSHH","1","odd","182537","NA","193025","1342","169440","NA","34267","179256","NA","184528","1278","194051","194153","194571","194048","194153","Flanker Task","88","48735.0","89","1024"
"98","98","546","546","black","legacy","legacy","legacy","incongruent","1","undefined","1","s","89","0","89","0","0","0","0","0","0","89","0","89","89","89","89","89","Sat Sep 23 20:27:53 2023","600","The main experiment item","True","FlankerTask.osexp","/Users/baileymcwhirter/Downloads","False","mono","False","18","no","white","no","yes","768","legacy","9","79","/Users/baileymcwhirter/Downloads/BMsubject-5.csv","legacy","Melodramatic Milgram","4.0.5","0","s","NA","h","[","NA","s","411.0","NA","32903","9815","NA","411","2","legacy","1024","2","48000","-16","experiment","HHSHH","1","odd","182537","NA","194574","1342","169440","NA","34267","179256","NA","184528","1278","195605","195709","196121","195603","195709","Flanker Task","89","49146.0","90","1024"
"98","98","545","545","black","legacy","legacy","legacy","congruent","1","undefined","1","h","90","0","90","0","0","0","0","0","0","90","0","90","90","90","90","90","Sat Sep 23 20:27:53 2023","600","The main experiment item","True","FlankerTask.osexp","/Users/baileymcwhirter/Downloads","False","mono","False","18","no","white","no","yes","768","legacy","10","79","/Users/baileymcwhirter/Downloads/BMsubject-5.csv","legacy","Melodramatic Milgram","4.0.5","0","h","NA","h","[","NA","h","466.0","NA","32903","9815","NA","466","2","legacy","1024","2","48000","-16","experiment","HHHHH","1","odd","182537","NA","196124","1342","169440","NA","34267","179256","NA","184528","1278","197153","197257","197724","197151","197256","Flanker Task","90","49612.0","91","1024"
"98","98","544","544","black","legacy","legacy","legacy","congruent","1","undefined","1","h","91","0","91","0","0","0","0","0","0","91","0","91","91","91","91","91","Sat Sep 23 20:27:53 2023","600","The main experiment item","True","FlankerTask.osexp","/Users/baileymcwhirter/Downloads","False","mono","False","18","no","white","no","yes","768","legacy","11","79","/Users/baileymcwhirter/Downloads/BMsubject-5.csv","legacy","Melodramatic Milgram","4.0.5","0","h","NA","h","[","NA","h","471.0","NA","32903","9815","NA","471","2","legacy","1024","2","48000","-16","experiment","HHHHH","1","odd","182537","NA","197726","1342","169440","NA","34267","179256","NA","184528","1278","198760","198863","199335","198758","198863","Flanker Task","91","50083.0","92","1024"
"98","98","543","543","black","legacy","legacy","legacy","incongruent","1","undefined","1","s","92","0","92","0","0","0","0","0","0","92","0","92","92","92","92","92","Sat Sep 23 20:27:53 2023","600","The main experiment item","True","FlankerTask.osexp","/Users/baileymcwhirter/Downloads","False","mono","False","18","no","white","no","yes","768","legacy","12","79","/Users/baileymcwhirter/Downloads/BMsubject-5.csv","legacy","Melodramatic Milgram","4.0.5","0","s","NA","h","[","NA","s","495.0","NA","32903","9815","NA","495","2","legacy","1024","2","48000","-16","experiment","HHSHH","1","odd","182537","NA","199338","1342","169440","NA","34267","179256","NA","184528","1278","200372","200474","200970","200369","200474","Flanker Task","92","50578.0","93","1024"
"98","98","542","542","black","legacy","legacy","legacy","congruent","1","undefined","1","h","93","0","93","0","0","0","0","0","0","93","0","93","93","93","93","93","Sat Sep 23 20:27:53 2023","600","The main experiment item","True","FlankerTask.osexp","/Users/baileymcwhirter/Downloads","False","mono","False","18","no","white","no","yes","768","legacy","13","79","/Users/baileymcwhirter/Downloads/BMsubject-5.csv","legacy","Melodramatic Milgram","4.0.5","0","h","NA","h","[","NA","h","413.0","NA","32903","9815","NA","413","2","legacy","1024","2","48000","-16","experiment","HHHHH","1","odd","182537","NA","200973","1342","169440","NA","34267","179256","NA","184528","1278","202006","202108","202522","202004","202108","Flanker Task","93","50991.0","94","1024"
"97","97","542","542","black","legacy","legacy","legacy","incongruent","0","undefined","0","h","94","0","94","0","0","0","0","0","0","94","0","94","94","94","94","94","Sat Sep 23 20:27:53 2023","600","The main experiment item","True","FlankerTask.osexp","/Users/baileymcwhirter/Downloads","False","mono","False","18","no","white","no","yes","768","legacy","14","79","/Users/baileymcwhirter/Downloads/BMsubject-5.csv","legacy","Melodramatic Milgram","4.0.5","0","s","NA","h","[","NA","s","534.0","NA","32903","9815","NA","534","2","legacy","1024","2","48000","-16","experiment","SSHSS","1","odd","182537","NA","202524","1342","169440","NA","34267","179256","NA","184528","1278","203558","203661","204196","203557","203661","Flanker Task","93","51525.0","95","1024"
"97","97","543","543","black","legacy","legacy","legacy","incongruent","1","undefined","1","h","95","0","95","0","0","0","0","0","0","95","0","95","95","95","95","95","Sat Sep 23 20:27:53 2023","600","The main experiment item","True","FlankerTask.osexp","/Users/baileymcwhirter/Downloads","False","mono","False","18","no","white","no","yes","768","legacy","15","79","/Users/baileymcwhirter/Downloads/BMsubject-5.csv","legacy","Melodramatic Milgram","4.0.5","0","h","NA","h","[","NA","h","666.0","NA","32903","9815","NA","666","2","legacy","1024","2","48000","-16","experiment","SSHSS","1","odd","182537","NA","204703","1342","169440","NA","34267","179256","NA","204198","1278","205735","205839","206506","205733","205839","Flanker Task","94","52191.0","96","1024"
"97","97","542","542","black","legacy","legacy","legacy","incongruent","1","undefined","1","h","96","0","96","0","0","0","0","0","0","96","0","96","96","96","96","96","Sat Sep 23 20:27:53 2023","600","The main experiment item","True","FlankerTask.osexp","/Users/baileymcwhirter/Downloads","False","mono","False","18","no","white","no","yes","768","legacy","16","79","/Users/baileymcwhirter/Downloads/BMsubject-5.csv","legacy","Melodramatic Milgram","4.0.5","0","h","NA","h","[","NA","h","457.0","NA","32903","9815","NA","457","2","legacy","1024","2","48000","-16","experiment","SSHSS","1","odd","206508","NA","207010","1342","169440","NA","34267","179256","NA","204198","1278","208039","208142","208600","208037","208142","Flanker Task","95","52648.0","97","1024"
"97","97","541","541","black","legacy","legacy","legacy","incongruent","1","undefined","1","s","97","0","97","0","0","0","0","0","0","97","0","97","97","97","97","97","Sat Sep 23 20:27:53 2023","600","The main experiment item","True","FlankerTask.osexp","/Users/baileymcwhirter/Downloads","False","mono","False","18","no","white","no","yes","768","legacy","17","79","/Users/baileymcwhirter/Downloads/BMsubject-5.csv","legacy","Melodramatic Milgram","4.0.5","0","s","NA","h","[","NA","s","430.0","NA","32903","9815","NA","430","2","legacy","1024","2","48000","-16","experiment","HHSHH","1","odd","206508","NA","208602","1342","169440","NA","34267","179256","NA","204198","1278","209629","209731","210162","209627","209731","Flanker Task","96","53078.0","98","1024"
"97","97","540","540","black","legacy","legacy","legacy","incongruent","1","undefined","1","h","98","0","98","0","0","0","0","0","0","98","0","98","98","98","98","98","Sat Sep 23 20:27:53 2023","600","The main experiment item","True","FlankerTask.osexp","/Users/baileymcwhirter/Downloads","False","mono","False","18","no","white","no","yes","768","legacy","18","79","/Users/baileymcwhirter/Downloads/BMsubject-5.csv","legacy","Melodramatic Milgram","4.0.5","0","h","NA","h","[","NA","h","394.0","NA","32903","9815","NA","394","2","legacy","1024","2","48000","-16","experiment","SSHSS","1","odd","206508","NA","210164","1342","169440","NA","34267","179256","NA","204198","1278","211196","211300","211695","211194","211300","Flanker Task","97","53472.0","99","1024"
"97","97","538","538","black","legacy","legacy","legacy","congruent","0","undefined","0","h","99","0","99","0","0","0","0","0","0","99","0","99","99","99","99","99","Sat Sep 23 20:27:53 2023","600","The main experiment item","True","FlankerTask.osexp","/Users/baileymcwhirter/Downloads","False","mono","False","18","no","white","no","yes","768","legacy","19","79","/Users/baileymcwhirter/Downloads/BMsubject-5.csv","legacy","Melodramatic Milgram","4.0.5","0","s","NA","h","[","NA","s","396.0","NA","32903","9815","NA","396","2","legacy","1024","2","48000","-16","experiment","HHHHH","1","odd","206508","NA","211698","1342","169440","NA","34267","179256","NA","204198","1278","212726","212829","213226","212724","212829","Flanker Task","97","53868.0","100","1024"
"97","97","539","539","black","legacy","legacy","legacy","congruent","1","undefined","1","s","100","0","100","0","0","0","0","0","0","100","0","100","100","100","100","100","Sat Sep 23 20:27:53 2023","600","The main experiment item","True","FlankerTask.osexp","/Users/baileymcwhirter/Downloads","False","mono","False","18","no","white","no","yes","768","legacy","20","79","/Users/baileymcwhirter/Downloads/BMsubject-5.csv","legacy","Melodramatic Milgram","4.0.5","0","s","NA","h","[","NA","s","601.0","NA","32903","9815","NA","601","2","legacy","1024","2","48000","-16","experiment","SSSSS","1","odd","206508","NA","213731","1342","169440","NA","34267","179256","NA","213229","1278","214757","214859","215461","214755","214859","Flanker Task","98","54469.0","101","1024"
"97","97","539","539","black","legacy","legacy","legacy","incongruent","1","undefined","1","h","101","0","101","0","0","0","0","0","0","101","0","101","101","101","101","101","Sat Sep 23 20:27:53 2023","600","The main experiment item","True","FlankerTask.osexp","/Users/baileymcwhirter/Downloads","False","mono","False","18","no","white","no","yes","768","legacy","21","79","/Users/baileymcwhirter/Downloads/BMsubject-5.csv","legacy","Melodramatic Milgram","4.0.5","0","h","NA","h","[","NA","h","547.0","NA","32903","9815","NA","547","2","legacy","1024","2","48000","-16","experiment","SSHSS","1","odd","215464","NA","215966","1342","169440","NA","34267","179256","NA","213229","1278","216995","217097","217645","216993","217097","Flanker Task","99","55016.0","102","1024"
"97","97","538","538","black","legacy","legacy","legacy","congruent","1","undefined","1","h","102","0","102","0","0","0","0","0","0","102","0","102","102","102","102","102","Sat Sep 23 20:27:53 2023","600","The main experiment item","True","FlankerTask.osexp","/Users/baileymcwhirter/Downloads","False","mono","False","18","no","white","no","yes","768","legacy","22","79","/Users/baileymcwhirter/Downloads/BMsubject-5.csv","legacy","Melodramatic Milgram","4.0.5","0","h","NA","h","[","NA","h","497.0","NA","32903","9815","NA","497","2","legacy","1024","2","48000","-16","experiment","HHHHH","1","odd","215464","NA","217647","1342","169440","NA","34267","179256","NA","213229","1278","218683","218788","219286","218681","218787","Flanker Task","100","55513.0","103","1024"
"97","97","538","538","black","legacy","legacy","legacy","incongruent","1","undefined","1","s","103","0","103","0","0","0","0","0","0","103","0","103","103","103","103","103","Sat Sep 23 20:27:53 2023","600","The main experiment item","True","FlankerTask.osexp","/Users/baileymcwhirter/Downloads","False","mono","False","18","no","white","no","yes","768","legacy","23","79","/Users/baileymcwhirter/Downloads/BMsubject-5.csv","legacy","Melodramatic Milgram","4.0.5","0","s","NA","h","[","NA","s","521.0","NA","32903","9815","NA","521","2","legacy","1024","2","48000","-16","experiment","HHSHH","1","odd","215464","NA","219289","1342","169440","NA","34267","179256","NA","213229","1278","220321","220426","220948","220319","220425","Flanker Task","101","56034.0","104","1024"
"97","97","537","537","black","legacy","legacy","legacy","congruent","1","undefined","1","s","104","0","104","0","0","0","0","0","0","104","0","104","104","104","104","104","Sat Sep 23 20:27:53 2023","600","The main experiment item","True","FlankerTask.osexp","/Users/baileymcwhirter/Downloads","False","mono","False","18","no","white","no","yes","768","legacy","24","79","/Users/baileymcwhirter/Downloads/BMsubject-5.csv","legacy","Melodramatic Milgram","4.0.5","0","s","NA","h","[","NA","s","434.0","NA","32903","9815","NA","434","2","legacy","1024","2","48000","-16","experiment","SSSSS","1","odd","215464","NA","220951","1342","169440","NA","34267","179256","NA","213229","1278","221977","222080","222515","221975","222080","Flanker Task","102","56468.0","105","1024"
"97","97","537","537","black","legacy","legacy","legacy","incongruent","1","undefined","1","s","105","0","105","0","0","0","0","0","0","105","0","105","105","105","105","105","Sat Sep 23 20:27:53 2023","600","The main experiment item","True","FlankerTask.osexp","/Users/baileymcwhirter/Downloads","False","mono","False","18","no","white","no","yes","768","legacy","25","79","/Users/baileymcwhirter/Downloads/BMsubject-5.csv","legacy","Melodramatic Milgram","4.0.5","0","s","NA","h","[","NA","s","471.0","NA","32903","9815","NA","471","2","legacy","1024","2","48000","-16","experiment","HHSHH","1","odd","215464","NA","222518","1342","169440","NA","34267","179256","NA","213229","1278","223543","223646","224118","223541","223646","Flanker Task","103","56939.0","106","1024"
"97","97","536","536","black","legacy","legacy","legacy","incongruent","1","undefined","1","s","106","0","106","0","0","0","0","0","0","106","0","106","106","106","106","106","Sat Sep 23 20:27:53 2023","600","The main experiment item","True","FlankerTask.osexp","/Users/baileymcwhirter/Downloads","False","mono","False","18","no","white","no","yes","768","legacy","26","79","/Users/baileymcwhirter/Downloads/BMsubject-5.csv","legacy","Melodramatic Milgram","4.0.5","0","s","NA","h","[","NA","s","490.0","NA","32903","9815","NA","490","2","legacy","1024","2","48000","-16","experiment","HHSHH","1","odd","215464","NA","224121","1342","169440","NA","34267","179256","NA","213229","1278","225146","225249","225740","225144","225249","Flanker Task","104","57429.0","107","1024"
"97","97","536","536","black","legacy","legacy","legacy","incongruent","1","undefined","1","s","107","0","107","0","0","0","0","0","0","107","0","107","107","107","107","107","Sat Sep 23 20:27:53 2023","600","The main experiment item","True","FlankerTask.osexp","/Users/baileymcwhirter/Downloads","False","mono","False","18","no","white","no","yes","768","legacy","27","79","/Users/baileymcwhirter/Downloads/BMsubject-5.csv","legacy","Melodramatic Milgram","4.0.5","0","s","NA","h","[","NA","s","500.0","NA","32903","9815","NA","500","2","legacy","1024","2","48000","-16","experiment","HHSHH","1","odd","215464","NA","225742","1342","169440","NA","34267","179256","NA","213229","1278","226769","226872","227373","226767","226872","Flanker Task","105","57929.0","108","1024"
"97","97","536","536","black","legacy","legacy","legacy","congruent","1","undefined","1","h","108","0","108","0","0","0","0","0","0","108","0","108","108","108","108","108","Sat Sep 23 20:27:53 2023","600","The main experiment item","True","FlankerTask.osexp","/Users/baileymcwhirter/Downloads","False","mono","False","18","no","white","no","yes","768","legacy","28","79","/Users/baileymcwhirter/Downloads/BMsubject-5.csv","legacy","Melodramatic Milgram","4.0.5","0","h","NA","h","[","NA","h","568.0","NA","32903","9815","NA","568","2","legacy","1024","2","48000","-16","experiment","HHHHH","1","odd","215464","NA","227376","1342","169440","NA","34267","179256","NA","213229","1278","228402","228505","229074","228400","228505","Flanker Task","106","58497.0","109","1024"
"97","97","536","536","black","legacy","legacy","legacy","incongruent","1","undefined","1","h","109","0","109","0","0","0","0","0","0","109","0","109","109","109","109","109","Sat Sep 23 20:27:53 2023","600","The main experiment item","True","FlankerTask.osexp","/Users/baileymcwhirter/Downloads","False","mono","False","18","no","white","no","yes","768","legacy","29","79","/Users/baileymcwhirter/Downloads/BMsubject-5.csv","legacy","Melodramatic Milgram","4.0.5","0","h","NA","h","[","NA","h","535.0","NA","32903","9815","NA","535","2","legacy","1024","2","48000","-16","experiment","SSHSS","1","odd","215464","NA","229076","1342","169440","NA","34267","179256","NA","213229","1278","230103","230207","230743","230101","230207","Flanker Task","107","59032.0","110","1024"
"97","97","536","536","black","legacy","legacy","legacy","incongruent","1","undefined","1","h","110","0","110","0","0","0","0","0","0","110","0","110","110","110","110","110","Sat Sep 23 20:27:53 2023","600","The main experiment item","True","FlankerTask.osexp","/Users/baileymcwhirter/Downloads","False","mono","False","18","no","white","no","yes","768","legacy","30","79","/Users/baileymcwhirter/Downloads/BMsubject-5.csv","legacy","Melodramatic Milgram","4.0.5","0","h","NA","h","[","NA","h","514.0","NA","32903","9815","NA","514","2","legacy","1024","2","48000","-16","experiment","SSHSS","1","odd","215464","NA","230745","1342","169440","NA","34267","179256","NA","213229","1278","231770","231872","232387","231768","231872","Flanker Task","108","59546.0","111","1024"
"97","97","536","536","black","legacy","legacy","legacy","congruent","1","undefined","1","h","111","0","111","0","0","0","0","0","0","111","0","111","111","111","111","111","Sat Sep 23 20:27:53 2023","600","The main experiment item","True","FlankerTask.osexp","/Users/baileymcwhirter/Downloads","False","mono","False","18","no","white","no","yes","768","legacy","31","79","/Users/baileymcwhirter/Downloads/BMsubject-5.csv","legacy","Melodramatic Milgram","4.0.5","0","h","NA","h","[","NA","h","539.0","NA","32903","9815","NA","539","2","legacy","1024","2","48000","-16","experiment","HHHHH","1","odd","215464","NA","232389","1342","169440","NA","34267","179256","NA","213229","1278","233414","233517","234057","233412","233517","Flanker Task","109","60085.0","112","1024"
"97","97","536","536","black","legacy","legacy","legacy","incongruent","1","undefined","1","h","112","0","112","0","0","0","0","0","0","112","0","112","112","112","112","112","Sat Sep 23 20:27:53 2023","600","The main experiment item","True","FlankerTask.osexp","/Users/baileymcwhirter/Downloads","False","mono","False","18","no","white","no","yes","768","legacy","32","79","/Users/baileymcwhirter/Downloads/BMsubject-5.csv","legacy","Melodramatic Milgram","4.0.5","0","h","NA","h","[","NA","h","552.0","NA","32903","9815","NA","552","2","legacy","1024","2","48000","-16","experiment","SSHSS","1","odd","215464","NA","234059","1342","169440","NA","34267","179256","NA","213229","1278","235092","235196","235749","235090","235196","Flanker Task","110","60637.0","113","1024"
"97","97","535","535","black","legacy","legacy","legacy","congruent","1","undefined","1","s","113","0","113","0","0","0","0","0","0","113","0","113","113","113","113","113","Sat Sep 23 20:27:53 2023","600","The main experiment item","True","FlankerTask.osexp","/Users/baileymcwhirter/Downloads","False","mono","False","18","no","white","no","yes","768","legacy","33","79","/Users/baileymcwhirter/Downloads/BMsubject-5.csv","legacy","Melodramatic Milgram","4.0.5","0","s","NA","h","[","NA","s","435.0","NA","32903","9815","NA","435","2","legacy","1024","2","48000","-16","experiment","SSSSS","1","odd","215464","NA","235752","1342","169440","NA","34267","179256","NA","213229","1278","236776","236878","237314","236774","236878","Flanker Task","111","61072.0","114","1024"
"97","97","535","535","black","legacy","legacy","legacy","congruent","1","undefined","1","h","114","0","114","0","0","0","0","0","0","114","0","114","114","114","114","114","Sat Sep 23 20:27:53 2023","600","The main experiment item","True","FlankerTask.osexp","/Users/baileymcwhirter/Downloads","False","mono","False","18","no","white","no","yes","768","legacy","34","79","/Users/baileymcwhirter/Downloads/BMsubject-5.csv","legacy","Melodramatic Milgram","4.0.5","0","h","NA","h","[","NA","h","539.0","NA","32903","9815","NA","539","2","legacy","1024","2","48000","-16","experiment","HHHHH","1","odd","215464","NA","237317","1342","169440","NA","34267","179256","NA","213229","1278","238345","238448","238988","238343","238448","Flanker Task","112","61611.0","115","1024"
"97","97","536","536","black","legacy","legacy","legacy","incongruent","1","undefined","1","h","115","0","115","0","0","0","0","0","0","115","0","115","115","115","115","115","Sat Sep 23 20:27:53 2023","600","The main experiment item","True","FlankerTask.osexp","/Users/baileymcwhirter/Downloads","False","mono","False","18","no","white","no","yes","768","legacy","35","79","/Users/baileymcwhirter/Downloads/BMsubject-5.csv","legacy","Melodramatic Milgram","4.0.5","0","h","NA","h","[","NA","h","574.0","NA","32903","9815","NA","574","2","legacy","1024","2","48000","-16","experiment","SSHSS","1","odd","215464","NA","238991","1342","169440","NA","34267","179256","NA","213229","1278","240027","240130","240706","240025","240129","Flanker Task","113","62185.0","116","1024"
"97","97","535","535","black","legacy","legacy","legacy","congruent","1","undefined","1","s","116","0","116","0","0","0","0","0","0","116","0","116","116","116","116","116","Sat Sep 23 20:27:53 2023","600","The main experiment item","True","FlankerTask.osexp","/Users/baileymcwhirter/Downloads","False","mono","False","18","no","white","no","yes","768","legacy","36","79","/Users/baileymcwhirter/Downloads/BMsubject-5.csv","legacy","Melodramatic Milgram","4.0.5","0","s","NA","h","[","NA","s","468.0","NA","32903","9815","NA","468","2","legacy","1024","2","48000","-16","experiment","SSSSS","1","odd","215464","NA","240708","1342","169440","NA","34267","179256","NA","213229","1278","241741","241843","242312","241739","241843","Flanker Task","114","62653.0","117","1024"
"97","97","535","535","black","legacy","legacy","legacy","incongruent","1","undefined","1","h","117","0","117","0","0","0","0","0","0","117","0","117","117","117","117","117","Sat Sep 23 20:27:53 2023","600","The main experiment item","True","FlankerTask.osexp","/Users/baileymcwhirter/Downloads","False","mono","False","18","no","white","no","yes","768","legacy","37","79","/Users/baileymcwhirter/Downloads/BMsubject-5.csv","legacy","Melodramatic Milgram","4.0.5","0","h","NA","h","[","NA","h","563.0","NA","32903","9815","NA","563","2","legacy","1024","2","48000","-16","experiment","SSHSS","1","odd","215464","NA","242315","1342","169440","NA","34267","179256","NA","213229","1278","243342","243445","244009","243340","243445","Flanker Task","115","63216.0","118","1024"
"97","97","536","536","black","legacy","legacy","legacy","congruent","1","undefined","1","h","118","0","118","0","0","0","0","0","0","118","0","118","118","118","118","118","Sat Sep 23 20:27:53 2023","600","The main experiment item","True","FlankerTask.osexp","/Users/baileymcwhirter/Downloads","False","mono","False","18","no","white","no","yes","768","legacy","38","79","/Users/baileymcwhirter/Downloads/BMsubject-5.csv","legacy","Melodramatic Milgram","4.0.5","0","h","NA","h","[","NA","h","592.0","NA","32903","9815","NA","592","2","legacy","1024","2","48000","-16","experiment","HHHHH","1","odd","215464","NA","244012","1342","169440","NA","34267","179256","NA","213229","1278","245046","245150","245743","245044","245150","Flanker Task","116","63808.0","119","1024"
"97","97","535","535","black","legacy","legacy","legacy","congruent","1","undefined","1","s","119","0","119","0","0","0","0","0","0","119","0","119","119","119","119","119","Sat Sep 23 20:27:53 2023","600","The main experiment item","True","FlankerTask.osexp","/Users/baileymcwhirter/Downloads","False","mono","False","18","no","white","no","yes","768","legacy","39","79","/Users/baileymcwhirter/Downloads/BMsubject-5.csv","legacy","Melodramatic Milgram","4.0.5","0","s","NA","h","[","NA","s","504.0","NA","32903","9815","NA","504","2","legacy","1024","2","48000","-16","experiment","SSSSS","1","odd","215464","NA","245746","1342","169440","NA","34267","179256","NA","213229","1278","246772","246874","247379","246769","246874","Flanker Task","117","64312.0","120","1024"
"97","97","537","537","black","legacy","legacy","legacy","incongruent","1","undefined","1","s","120","0","120","0","0","0","0","0","0","120","0","120","120","120","120","120","Sat Sep 23 20:27:53 2023","600","The main experiment item","True","FlankerTask.osexp","/Users/baileymcwhirter/Downloads","False","mono","False","18","no","white","no","yes","768","legacy","40","79","/Users/baileymcwhirter/Downloads/BMsubject-5.csv","legacy","Melodramatic Milgram","4.0.5","0","s","NA","h","[","NA","s","746.0","NA","32903","9815","NA","746","2","legacy","1024","2","48000","-16","experiment","HHSHH","1","odd","215464","NA","247382","1342","169440","NA","34267","179256","NA","213229","1278","248409","248512","249259","248407","248512","Flanker Task","118","65058.0","121","1024"
"97","97","537","537","black","legacy","legacy","legacy","incongruent","1","undefined","1","h","121","0","121","0","0","0","0","0","0","121","0","121","121","121","121","121","Sat Sep 23 20:27:53 2023","600","The main experiment item","True","FlankerTask.osexp","/Users/baileymcwhirter/Downloads","False","mono","False","18","no","white","no","yes","768","legacy","41","79","/Users/baileymcwhirter/Downloads/BMsubject-5.csv","legacy","Melodramatic Milgram","4.0.5","0","h","NA","h","[","NA","h","575.0","NA","32903","9815","NA","575","2","legacy","1024","2","48000","-16","experiment","SSHSS","1","odd","249262","NA","249765","1342","169440","NA","34267","179256","NA","213229","1278","250792","250896","251472","250790","250895","Flanker Task","119","65633.0","122","1024"
"97","97","538","538","black","legacy","legacy","legacy","congruent","1","undefined","1","s","122","0","122","0","0","0","0","0","0","122","0","122","122","122","122","122","Sat Sep 23 20:27:53 2023","600","The main experiment item","True","FlankerTask.osexp","/Users/baileymcwhirter/Downloads","False","mono","False","18","no","white","no","yes","768","legacy","42","79","/Users/baileymcwhirter/Downloads/BMsubject-5.csv","legacy","Melodramatic Milgram","4.0.5","0","s","NA","h","[","NA","s","581.0","NA","32903","9815","NA","581","2","legacy","1024","2","48000","-16","experiment","SSSSS","1","odd","249262","NA","251475","1342","169440","NA","34267","179256","NA","213229","1278","252500","252604","253186","252498","252604","Flanker Task","120","66214.0","123","1024"
"97","97","538","538","black","legacy","legacy","legacy","congruent","1","undefined","1","s","123","0","123","0","0","0","0","0","0","123","0","123","123","123","123","123","Sat Sep 23 20:27:53 2023","600","The main experiment item","True","FlankerTask.osexp","/Users/baileymcwhirter/Downloads","False","mono","False","18","no","white","no","yes","768","legacy","43","79","/Users/baileymcwhirter/Downloads/BMsubject-5.csv","legacy","Melodramatic Milgram","4.0.5","0","s","NA","h","[","NA","s","501.0","NA","32903","9815","NA","501","2","legacy","1024","2","48000","-16","experiment","SSSSS","1","odd","249262","NA","253188","1342","169440","NA","34267","179256","NA","213229","1278","254216","254318","254820","254214","254318","Flanker Task","121","66715.0","124","1024"
"97","97","538","538","black","legacy","legacy","legacy","congruent","1","undefined","1","h","124","0","124","0","0","0","0","0","0","124","0","124","124","124","124","124","Sat Sep 23 20:27:53 2023","600","The main experiment item","True","FlankerTask.osexp","/Users/baileymcwhirter/Downloads","False","mono","False","18","no","white","no","yes","768","legacy","44","79","/Users/baileymcwhirter/Downloads/BMsubject-5.csv","legacy","Melodramatic Milgram","4.0.5","0","h","NA","h","[","NA","h","540.0","NA","32903","9815","NA","540","2","legacy","1024","2","48000","-16","experiment","HHHHH","1","odd","249262","NA","254823","1342","169440","NA","34267","179256","NA","213229","1278","255859","255961","256502","255856","255961","Flanker Task","122","67255.0","125","1024"
"97","97","537","537","black","legacy","legacy","legacy","congruent","1","undefined","1","h","125","0","125","0","0","0","0","0","0","125","0","125","125","125","125","125","Sat Sep 23 20:27:53 2023","600","The main experiment item","True","FlankerTask.osexp","/Users/baileymcwhirter/Downloads","False","mono","False","18","no","white","no","yes","768","legacy","45","79","/Users/baileymcwhirter/Downloads/BMsubject-5.csv","legacy","Melodramatic Milgram","4.0.5","0","h","NA","h","[","NA","h","492.0","NA","32903","9815","NA","492","2","legacy","1024","2","48000","-16","experiment","HHHHH","1","odd","249262","NA","256505","1342","169440","NA","34267","179256","NA","213229","1278","257529","257631","258124","257527","257631","Flanker Task","123","67747.0","126","1024"
"97","97","537","537","black","legacy","legacy","legacy","congruent","1","undefined","1","h","126","0","126","0","0","0","0","0","0","126","0","126","126","126","126","126","Sat Sep 23 20:27:53 2023","600","The main experiment item","True","FlankerTask.osexp","/Users/baileymcwhirter/Downloads","False","mono","False","18","no","white","no","yes","768","legacy","46","79","/Users/baileymcwhirter/Downloads/BMsubject-5.csv","legacy","Melodramatic Milgram","4.0.5","0","h","NA","h","[","NA","h","504.0","NA","32903","9815","NA","504","2","legacy","1024","2","48000","-16","experiment","HHHHH","1","odd","249262","NA","258126","1342","169440","NA","34267","179256","NA","213229","1278","259155","259259","259764","259153","259258","Flanker Task","124","68251.0","127","1024"
"97","97","536","536","black","legacy","legacy","legacy","congruent","1","undefined","1","s","127","0","127","0","0","0","0","0","0","127","0","127","127","127","127","127","Sat Sep 23 20:27:53 2023","600","The main experiment item","True","FlankerTask.osexp","/Users/baileymcwhirter/Downloads","False","mono","False","18","no","white","no","yes","768","legacy","47","79","/Users/baileymcwhirter/Downloads/BMsubject-5.csv","legacy","Melodramatic Milgram","4.0.5","0","s","NA","h","[","NA","s","458.0","NA","32903","9815","NA","458","2","legacy","1024","2","48000","-16","experiment","SSSSS","1","odd","249262","NA","259766","1342","169440","NA","34267","179256","NA","213229","1278","260797","260901","261360","260795","260901","Flanker Task","125","68709.0","128","1024"
"97","97","536","536","black","legacy","legacy","legacy","incongruent","1","undefined","1","s","128","0","128","0","0","0","0","0","0","128","0","128","128","128","128","128","Sat Sep 23 20:27:53 2023","600","The main experiment item","True","FlankerTask.osexp","/Users/baileymcwhirter/Downloads","False","mono","False","18","no","white","no","yes","768","legacy","48","79","/Users/baileymcwhirter/Downloads/BMsubject-5.csv","legacy","Melodramatic Milgram","4.0.5","0","s","NA","h","[","NA","s","495.0","NA","32903","9815","NA","495","2","legacy","1024","2","48000","-16","experiment","HHSHH","1","odd","249262","NA","261362","1342","169440","NA","34267","179256","NA","213229","1278","262388","262490","262986","262386","262490","Flanker Task","126","69204.0","129","1024"
"97","97","536","536","black","legacy","legacy","legacy","incongruent","1","undefined","1","h","129","0","129","0","0","0","0","0","0","129","0","129","129","129","129","129","Sat Sep 23 20:27:53 2023","600","The main experiment item","True","FlankerTask.osexp","/Users/baileymcwhirter/Downloads","False","mono","False","18","no","white","no","yes","768","legacy","49","79","/Users/baileymcwhirter/Downloads/BMsubject-5.csv","legacy","Melodramatic Milgram","4.0.5","0","h","NA","h","[","NA","h","582.0","NA","32903","9815","NA","582","2","legacy","1024","2","48000","-16","experiment","SSHSS","1","odd","249262","NA","262988","1342","169440","NA","34267","179256","NA","213229","1278","264022","264127","264711","264020","264126","Flanker Task","127","69786.0","130","1024"
