"acc","accuracy","average_response_time","avg_rt","background","canvas_backend","clock_backend","color_backend","condition","correct","correct_instructions1_sketchpad","correct_keyboard_response","correct_response","count_Block1","count_Block2","count_Block3","count_Finish_sketchpad","count_ISI_sketchpad","count_Sequence","count_errorFeedback_sketchpad","count_experiment","count_faster_sketchpad","count_fixation_sketchpad","count_instructions1_sketchpad","count_keyboard_response","count_logger","count_new_1_sketchpad","count_new_sketchpad","count_stimulus_sketchpad","datetime","deadline","description","disable_garbage_collection","experiment_file","experiment_path","font_bold","font_family","font_italic","font_size","font_underline","foreground","form_clicks","fullscreen","height","keyboard_backend","live_row","live_row_Block1","logfile","mouse_backend","opensesame_codename","opensesame_version","repeat_cycle","response","response_Finish_sketchpad","response_instructions1_sketchpad","response_keyboard_response","response_new_1_sketchpad","response_new_sketchpad","response_time","response_time_Finish_sketchpad","response_time_instructions1_sketchpad","response_time_keyboard_response","response_time_new_1_sketchpad","response_time_new_sketchpad","round_decimals","sampler_backend","sound_buf_size","sound_channels","sound_freq","sound_sample_size","start","stimulus","subject_nr","subject_parity","time_Block1","time_Block2","time_Block3","time_Finish_sketchpad","time_ISI_sketchpad","time_Sequence","time_errorFeedback_sketchpad","time_experiment","time_faster_sketchpad","time_fixation_sketchpad","time_instructions1_sketchpad","time_keyboard_response","time_logger","time_new_1_sketchpad","time_new_sketchpad","time_stimulus_sketchpad","title","total_correct","total_response_time","total_responses","width"
"100","100","789","789","#3d3846","legacy","legacy","legacy","congruent","1","undefined","1","h","0","0","0","0","0","0","0","0","0","0","0","0","0","0","0","0","Tue Sep  5 19:10:39 2023","1500","The main experiment item","True","Flankertask.osexp","C:/Users/juzal/OneDrive/Documents/Masters of Equine Science/Advanced Quantitative Methods and Experiment Design","False","mono","False","18","no","white","no","yes","768","legacy","0","0","C:/Users/juzal/OneDrive/Documents/Masters of Equine Science/Advanced Quantitative Methods and Experiment Design/CH-subject-2.csv","legacy","Melodramatic Milgram","4.0.5","0","h","NA","h","h","NA","NA","789.0","NA","39738","789","NA","NA","2","legacy","1024","2","48000","-16","experiment","HHHHH","2","even","41410","NA","NA","NA","NA","41455","NA","1670","NA","41456","1672","41557","42346","NA","NA","41557","Flanker task","1","789.0","1","1024"
"100","100","714","714","#3d3846","legacy","legacy","legacy","incongruent","1","undefined","1","s","0","0","0","0","1","1","1","0","1","1","0","1","1","0","0","1","Tue Sep  5 19:10:39 2023","1500","The main experiment item","True","Flankertask.osexp","C:/Users/juzal/OneDrive/Documents/Masters of Equine Science/Advanced Quantitative Methods and Experiment Design","False","mono","False","18","no","white","no","yes","768","legacy","1","1","C:/Users/juzal/OneDrive/Documents/Masters of Equine Science/Advanced Quantitative Methods and Experiment Design/CH-subject-2.csv","legacy","Melodramatic Milgram","4.0.5","0","s","NA","h","s","NA","NA","639.0","NA","39738","639","NA","NA","2","legacy","1024","2","48000","-16","experiment","HHSHH","2","even","41410","NA","NA","NA","42355","43380","NA","1670","NA","43381","1672","43482","44121","NA","NA","43482","Flanker task","2","1428.0","2","1024"
"100","100","674","674","#3d3846","legacy","legacy","legacy","congruent","1","undefined","1","s","0","0","0","0","2","2","2","0","2","2","0","2","2","0","0","2","Tue Sep  5 19:10:39 2023","1500","The main experiment item","True","Flankertask.osexp","C:/Users/juzal/OneDrive/Documents/Masters of Equine Science/Advanced Quantitative Methods and Experiment Design","False","mono","False","18","no","white","no","yes","768","legacy","2","2","C:/Users/juzal/OneDrive/Documents/Masters of Equine Science/Advanced Quantitative Methods and Experiment Design/CH-subject-2.csv","legacy","Melodramatic Milgram","4.0.5","0","s","NA","h","s","NA","NA","596.0","NA","39738","596","NA","NA","2","legacy","1024","2","48000","-16","experiment","SSSSS","2","even","41410","NA","NA","NA","44125","45150","NA","1670","NA","45150","1672","45251","45848","NA","NA","45251","Flanker task","3","2024.0","3","1024"
"100","100","643","643","#3d3846","legacy","legacy","legacy","incongruent","1","undefined","1","s","0","0","0","0","3","3","3","0","3","3","0","3","3","0","0","3","Tue Sep  5 19:10:39 2023","1500","The main experiment item","True","Flankertask.osexp","C:/Users/juzal/OneDrive/Documents/Masters of Equine Science/Advanced Quantitative Methods and Experiment Design","False","mono","False","18","no","white","no","yes","768","legacy","3","3","C:/Users/juzal/OneDrive/Documents/Masters of Equine Science/Advanced Quantitative Methods and Experiment Design/CH-subject-2.csv","legacy","Melodramatic Milgram","4.0.5","0","s","NA","h","s","NA","NA","550.0","NA","39738","550","NA","NA","2","legacy","1024","2","48000","-16","experiment","HHSHH","2","even","41410","NA","NA","NA","45852","46881","NA","1670","NA","46882","1672","46982","47532","NA","NA","46982","Flanker task","4","2574.0","4","1024"
"80","80","600","600","#3d3846","legacy","legacy","legacy","incongruent","0","undefined","0","h","0","0","0","0","4","4","4","0","4","4","0","4","4","0","0","4","Tue Sep  5 19:10:39 2023","1500","The main experiment item","True","Flankertask.osexp","C:/Users/juzal/OneDrive/Documents/Masters of Equine Science/Advanced Quantitative Methods and Experiment Design","False","mono","False","18","no","white","no","yes","768","legacy","4","4","C:/Users/juzal/OneDrive/Documents/Masters of Equine Science/Advanced Quantitative Methods and Experiment Design/CH-subject-2.csv","legacy","Melodramatic Milgram","4.0.5","0","s","NA","h","s","NA","NA","427.0","NA","39738","427","NA","NA","2","legacy","1024","2","48000","-16","experiment","SSHSS","2","even","41410","NA","NA","NA","47536","48565","NA","1670","NA","48566","1672","48666","49093","NA","NA","48666","Flanker task","4","3001.0","5","1024"
"83","83","600","600","#3d3846","legacy","legacy","legacy","congruent","1","undefined","1","h","0","0","0","0","5","5","5","0","5","5","0","5","5","0","0","5","Tue Sep  5 19:10:39 2023","1500","The main experiment item","True","Flankertask.osexp","C:/Users/juzal/OneDrive/Documents/Masters of Equine Science/Advanced Quantitative Methods and Experiment Design","False","mono","False","18","no","white","no","yes","768","legacy","5","5","C:/Users/juzal/OneDrive/Documents/Masters of Equine Science/Advanced Quantitative Methods and Experiment Design/CH-subject-2.csv","legacy","Melodramatic Milgram","4.0.5","0","h","NA","h","h","NA","NA","600.0","NA","39738","600","NA","NA","2","legacy","1024","2","48000","-16","experiment","HHHHH","2","even","41410","NA","NA","NA","49627","50654","49127","1670","NA","50655","1672","50755","51355","NA","NA","50755","Flanker task","5","3601.0","6","1024"
"85","85","579","579","#3d3846","legacy","legacy","legacy","incongruent","1","undefined","1","s","0","0","0","0","6","6","6","0","6","6","0","6","6","0","0","6","Tue Sep  5 19:10:39 2023","1500","The main experiment item","True","Flankertask.osexp","C:/Users/juzal/OneDrive/Documents/Masters of Equine Science/Advanced Quantitative Methods and Experiment Design","False","mono","False","18","no","white","no","yes","768","legacy","6","6","C:/Users/juzal/OneDrive/Documents/Masters of Equine Science/Advanced Quantitative Methods and Experiment Design/CH-subject-2.csv","legacy","Melodramatic Milgram","4.0.5","0","s","NA","h","s","NA","NA","452.0","NA","39738","452","NA","NA","2","legacy","1024","2","48000","-16","experiment","HHSHH","2","even","41410","NA","NA","NA","51359","52384","49127","1670","NA","52384","1672","52484","52936","NA","NA","52484","Flanker task","6","4053.0","7","1024"
"87","87","574","574","#3d3846","legacy","legacy","legacy","congruent","1","undefined","1","s","0","0","0","0","7","7","7","0","7","7","0","7","7","0","0","7","Tue Sep  5 19:10:39 2023","1500","The main experiment item","True","Flankertask.osexp","C:/Users/juzal/OneDrive/Documents/Masters of Equine Science/Advanced Quantitative Methods and Experiment Design","False","mono","False","18","no","white","no","yes","768","legacy","7","7","C:/Users/juzal/OneDrive/Documents/Masters of Equine Science/Advanced Quantitative Methods and Experiment Design/CH-subject-2.csv","legacy","Melodramatic Milgram","4.0.5","0","s","NA","h","s","NA","NA","543.0","NA","39738","543","NA","NA","2","legacy","1024","2","48000","-16","experiment","SSSSS","2","even","41410","NA","NA","NA","52961","53987","49127","1670","NA","53988","1672","54088","54631","NA","NA","54088","Flanker task","7","4596.0","8","1024"
"88","88","577","577","#3d3846","legacy","legacy","legacy","congruent","1","undefined","1","h","0","0","0","0","8","8","8","0","8","8","0","8","8","0","0","8","Tue Sep  5 19:10:39 2023","1500","The main experiment item","True","Flankertask.osexp","C:/Users/juzal/OneDrive/Documents/Masters of Equine Science/Advanced Quantitative Methods and Experiment Design","False","mono","False","18","no","white","no","yes","768","legacy","8","8","C:/Users/juzal/OneDrive/Documents/Masters of Equine Science/Advanced Quantitative Methods and Experiment Design/CH-subject-2.csv","legacy","Melodramatic Milgram","4.0.5","0","h","NA","h","h","NA","NA","597.0","NA","39738","597","NA","NA","2","legacy","1024","2","48000","-16","experiment","HHHHH","2","even","41410","NA","NA","NA","54663","55689","49127","1670","NA","55690","1672","55790","56387","NA","NA","55790","Flanker task","8","5193.0","9","1024"
"90","90","565","565","#3d3846","legacy","legacy","legacy","congruent","1","undefined","1","s","0","0","0","0","9","9","9","0","9","9","0","9","9","0","0","9","Tue Sep  5 19:10:39 2023","1500","The main experiment item","True","Flankertask.osexp","C:/Users/juzal/OneDrive/Documents/Masters of Equine Science/Advanced Quantitative Methods and Experiment Design","False","mono","False","18","no","white","no","yes","768","legacy","9","9","C:/Users/juzal/OneDrive/Documents/Masters of Equine Science/Advanced Quantitative Methods and Experiment Design/CH-subject-2.csv","legacy","Melodramatic Milgram","4.0.5","0","s","NA","h","s","NA","NA","460.0","NA","39738","460","NA","NA","2","legacy","1024","2","48000","-16","experiment","SSSSS","2","even","41410","NA","NA","NA","56426","57454","49127","1670","NA","57455","1672","57555","58015","NA","NA","57555","Flanker task","9","5653.0","10","1024"
"90","90","567","567","#3d3846","legacy","legacy","legacy","incongruent","1","undefined","1","h","0","0","0","0","10","10","10","0","10","10","0","10","10","0","0","10","Tue Sep  5 19:10:39 2023","1500","The main experiment item","True","Flankertask.osexp","C:/Users/juzal/OneDrive/Documents/Masters of Equine Science/Advanced Quantitative Methods and Experiment Design","False","mono","False","18","no","white","no","yes","768","legacy","10","10","C:/Users/juzal/OneDrive/Documents/Masters of Equine Science/Advanced Quantitative Methods and Experiment Design/CH-subject-2.csv","legacy","Melodramatic Milgram","4.0.5","0","h","NA","h","h","NA","NA","584.0","NA","39738","584","NA","NA","2","legacy","1024","2","48000","-16","experiment","SSHSS","2","even","41410","NA","NA","NA","58019","59050","49127","1670","NA","59051","1672","59151","59735","NA","NA","59151","Flanker task","10","6237.0","11","1024"
"83","83","562","562","#3d3846","legacy","legacy","legacy","incongruent","0","undefined","0","s","0","0","0","0","11","11","11","0","11","11","0","11","11","0","0","11","Tue Sep  5 19:10:39 2023","1500","The main experiment item","True","Flankertask.osexp","C:/Users/juzal/OneDrive/Documents/Masters of Equine Science/Advanced Quantitative Methods and Experiment Design","False","mono","False","18","no","white","no","yes","768","legacy","11","11","C:/Users/juzal/OneDrive/Documents/Masters of Equine Science/Advanced Quantitative Methods and Experiment Design/CH-subject-2.csv","legacy","Melodramatic Milgram","4.0.5","0","h","NA","h","h","NA","NA","516.0","NA","39738","516","NA","NA","2","legacy","1024","2","48000","-16","experiment","HHSHH","2","even","41410","NA","NA","NA","59767","60797","49127","1670","NA","60799","1672","60899","61416","NA","NA","60899","Flanker task","10","6753.0","12","1024"
"84","84","563","563","#3d3846","legacy","legacy","legacy","incongruent","1","undefined","1","s","0","0","0","0","12","12","12","0","12","12","0","12","12","0","0","12","Tue Sep  5 19:10:39 2023","1500","The main experiment item","True","Flankertask.osexp","C:/Users/juzal/OneDrive/Documents/Masters of Equine Science/Advanced Quantitative Methods and Experiment Design","False","mono","False","18","no","white","no","yes","768","legacy","12","12","C:/Users/juzal/OneDrive/Documents/Masters of Equine Science/Advanced Quantitative Methods and Experiment Design/CH-subject-2.csv","legacy","Melodramatic Milgram","4.0.5","0","s","NA","h","s","NA","NA","567.0","NA","39738","567","NA","NA","2","legacy","1024","2","48000","-16","experiment","HHSHH","2","even","41410","NA","NA","NA","61920","62945","61420","1670","NA","62946","1672","63046","63614","NA","NA","63046","Flanker task","11","7320.0","13","1024"
"85","85","565","565","#3d3846","legacy","legacy","legacy","incongruent","1","undefined","1","h","0","0","0","0","13","13","13","0","13","13","0","13","13","0","0","13","Tue Sep  5 19:10:39 2023","1500","The main experiment item","True","Flankertask.osexp","C:/Users/juzal/OneDrive/Documents/Masters of Equine Science/Advanced Quantitative Methods and Experiment Design","False","mono","False","18","no","white","no","yes","768","legacy","13","13","C:/Users/juzal/OneDrive/Documents/Masters of Equine Science/Advanced Quantitative Methods and Experiment Design/CH-subject-2.csv","legacy","Melodramatic Milgram","4.0.5","0","h","NA","h","h","NA","NA","592.0","NA","39738","592","NA","NA","2","legacy","1024","2","48000","-16","experiment","SSHSS","2","even","41410","NA","NA","NA","63617","64645","61420","1670","NA","64646","1672","64747","65340","NA","NA","64747","Flanker task","12","7912.0","14","1024"
"86","86","563","563","#3d3846","legacy","legacy","legacy","congruent","1","undefined","1","s","0","0","0","0","14","14","14","0","14","14","0","14","14","0","0","14","Tue Sep  5 19:10:39 2023","1500","The main experiment item","True","Flankertask.osexp","C:/Users/juzal/OneDrive/Documents/Masters of Equine Science/Advanced Quantitative Methods and Experiment Design","False","mono","False","18","no","white","no","yes","768","legacy","14","14","C:/Users/juzal/OneDrive/Documents/Masters of Equine Science/Advanced Quantitative Methods and Experiment Design/CH-subject-2.csv","legacy","Melodramatic Milgram","4.0.5","0","s","NA","h","s","NA","NA","542.0","NA","39738","542","NA","NA","2","legacy","1024","2","48000","-16","experiment","SSSSS","2","even","41410","NA","NA","NA","65351","66382","61420","1670","NA","66383","1672","66483","67025","NA","NA","66483","Flanker task","13","8454.0","15","1024"
"87","87","562","562","#3d3846","legacy","legacy","legacy","incongruent","1","undefined","1","h","0","0","0","0","15","15","15","0","15","15","0","15","15","0","0","15","Tue Sep  5 19:10:39 2023","1500","The main experiment item","True","Flankertask.osexp","C:/Users/juzal/OneDrive/Documents/Masters of Equine Science/Advanced Quantitative Methods and Experiment Design","False","mono","False","18","no","white","no","yes","768","legacy","15","15","C:/Users/juzal/OneDrive/Documents/Masters of Equine Science/Advanced Quantitative Methods and Experiment Design/CH-subject-2.csv","legacy","Melodramatic Milgram","4.0.5","0","h","NA","h","h","NA","NA","543.0","NA","39738","543","NA","NA","2","legacy","1024","2","48000","-16","experiment","SSHSS","2","even","41410","NA","NA","NA","67065","68091","61420","1670","NA","68094","1672","68195","68738","NA","NA","68194","Flanker task","14","8997.0","16","1024"
"88","88","561","561","#3d3846","legacy","legacy","legacy","incongruent","1","undefined","1","s","0","0","0","0","16","16","16","0","16","16","0","16","16","0","0","16","Tue Sep  5 19:10:39 2023","1500","The main experiment item","True","Flankertask.osexp","C:/Users/juzal/OneDrive/Documents/Masters of Equine Science/Advanced Quantitative Methods and Experiment Design","False","mono","False","18","no","white","no","yes","768","legacy","16","16","C:/Users/juzal/OneDrive/Documents/Masters of Equine Science/Advanced Quantitative Methods and Experiment Design/CH-subject-2.csv","legacy","Melodramatic Milgram","4.0.5","0","s","NA","h","s","NA","NA","555.0","NA","39738","555","NA","NA","2","legacy","1024","2","48000","-16","experiment","HHSHH","2","even","41410","NA","NA","NA","68777","69802","61420","1670","NA","69803","1672","69904","70459","NA","NA","69903","Flanker task","15","9552.0","17","1024"
"88","88","560","560","#3d3846","legacy","legacy","legacy","congruent","1","undefined","1","h","0","0","0","0","17","17","17","0","17","17","0","17","17","0","0","17","Tue Sep  5 19:10:39 2023","1500","The main experiment item","True","Flankertask.osexp","C:/Users/juzal/OneDrive/Documents/Masters of Equine Science/Advanced Quantitative Methods and Experiment Design","False","mono","False","18","no","white","no","yes","768","legacy","17","17","C:/Users/juzal/OneDrive/Documents/Masters of Equine Science/Advanced Quantitative Methods and Experiment Design/CH-subject-2.csv","legacy","Melodramatic Milgram","4.0.5","0","h","NA","h","h","NA","NA","544.0","NA","39738","544","NA","NA","2","legacy","1024","2","48000","-16","experiment","HHHHH","2","even","41410","NA","NA","NA","70463","71487","61420","1670","NA","71488","1672","71588","72133","NA","NA","71588","Flanker task","16","10096.0","18","1024"
"89","89","560","560","#3d3846","legacy","legacy","legacy","incongruent","1","undefined","1","h","0","0","0","0","18","18","18","0","18","18","0","18","18","0","0","18","Tue Sep  5 19:10:39 2023","1500","The main experiment item","True","Flankertask.osexp","C:/Users/juzal/OneDrive/Documents/Masters of Equine Science/Advanced Quantitative Methods and Experiment Design","False","mono","False","18","no","white","no","yes","768","legacy","18","18","C:/Users/juzal/OneDrive/Documents/Masters of Equine Science/Advanced Quantitative Methods and Experiment Design/CH-subject-2.csv","legacy","Melodramatic Milgram","4.0.5","0","h","NA","h","h","NA","NA","551.0","NA","39738","551","NA","NA","2","legacy","1024","2","48000","-16","experiment","SSHSS","2","even","41410","NA","NA","NA","72136","73175","61420","1670","NA","73177","1672","73277","73828","NA","NA","73277","Flanker task","17","10647.0","19","1024"
"90","90","561","561","#3d3846","legacy","legacy","legacy","incongruent","1","undefined","1","s","0","0","0","0","19","19","19","0","19","19","0","19","19","0","0","19","Tue Sep  5 19:10:39 2023","1500","The main experiment item","True","Flankertask.osexp","C:/Users/juzal/OneDrive/Documents/Masters of Equine Science/Advanced Quantitative Methods and Experiment Design","False","mono","False","18","no","white","no","yes","768","legacy","19","19","C:/Users/juzal/OneDrive/Documents/Masters of Equine Science/Advanced Quantitative Methods and Experiment Design/CH-subject-2.csv","legacy","Melodramatic Milgram","4.0.5","0","s","NA","h","s","NA","NA","579.0","NA","39738","579","NA","NA","2","legacy","1024","2","48000","-16","experiment","HHSHH","2","even","41410","NA","NA","NA","73833","74867","61420","1670","NA","74868","1672","74968","75547","NA","NA","74968","Flanker task","18","11226.0","20","1024"
"90","90","562","562","#3d3846","legacy","legacy","legacy","congruent","1","undefined","1","h","0","0","0","0","20","20","20","0","20","20","0","20","20","0","0","20","Tue Sep  5 19:10:39 2023","1500","The main experiment item","True","Flankertask.osexp","C:/Users/juzal/OneDrive/Documents/Masters of Equine Science/Advanced Quantitative Methods and Experiment Design","False","mono","False","18","no","white","no","yes","768","legacy","20","20","C:/Users/juzal/OneDrive/Documents/Masters of Equine Science/Advanced Quantitative Methods and Experiment Design/CH-subject-2.csv","legacy","Melodramatic Milgram","4.0.5","0","h","NA","h","h","NA","NA","593.0","NA","39738","593","NA","NA","2","legacy","1024","2","48000","-16","experiment","HHHHH","2","even","41410","NA","NA","NA","75583","76610","61420","1670","NA","76611","1672","76711","77305","NA","NA","76711","Flanker task","19","11819.0","21","1024"
"86","86","560","560","#3d3846","legacy","legacy","legacy","incongruent","0","undefined","0","h","0","0","0","0","21","21","21","0","21","21","0","21","21","0","0","21","Tue Sep  5 19:10:39 2023","1500","The main experiment item","True","Flankertask.osexp","C:/Users/juzal/OneDrive/Documents/Masters of Equine Science/Advanced Quantitative Methods and Experiment Design","False","mono","False","18","no","white","no","yes","768","legacy","21","21","C:/Users/juzal/OneDrive/Documents/Masters of Equine Science/Advanced Quantitative Methods and Experiment Design/CH-subject-2.csv","legacy","Melodramatic Milgram","4.0.5","0","s","NA","h","s","NA","NA","506.0","NA","39738","506","NA","NA","2","legacy","1024","2","48000","-16","experiment","SSHSS","2","even","41410","NA","NA","NA","77343","78370","61420","1670","NA","78371","1672","78471","78977","NA","NA","78471","Flanker task","19","12325.0","22","1024"
"86","86","563","563","#3d3846","legacy","legacy","legacy","incongruent","1","undefined","1","s","0","0","0","0","22","22","22","0","22","22","0","22","22","0","0","22","Tue Sep  5 19:10:39 2023","1500","The main experiment item","True","Flankertask.osexp","C:/Users/juzal/OneDrive/Documents/Masters of Equine Science/Advanced Quantitative Methods and Experiment Design","False","mono","False","18","no","white","no","yes","768","legacy","22","22","C:/Users/juzal/OneDrive/Documents/Masters of Equine Science/Advanced Quantitative Methods and Experiment Design/CH-subject-2.csv","legacy","Melodramatic Milgram","4.0.5","0","s","NA","h","s","NA","NA","633.0","NA","39738","633","NA","NA","2","legacy","1024","2","48000","-16","experiment","HHSHH","2","even","41410","NA","NA","NA","79512","80538","79012","1670","NA","80539","1672","80639","81272","NA","NA","80639","Flanker task","20","12958.0","23","1024"
"87","87","562","562","#3d3846","legacy","legacy","legacy","incongruent","1","undefined","1","s","0","0","0","0","23","23","23","0","23","23","0","23","23","0","0","23","Tue Sep  5 19:10:39 2023","1500","The main experiment item","True","Flankertask.osexp","C:/Users/juzal/OneDrive/Documents/Masters of Equine Science/Advanced Quantitative Methods and Experiment Design","False","mono","False","18","no","white","no","yes","768","legacy","23","23","C:/Users/juzal/OneDrive/Documents/Masters of Equine Science/Advanced Quantitative Methods and Experiment Design/CH-subject-2.csv","legacy","Melodramatic Milgram","4.0.5","0","s","NA","h","s","NA","NA","536.0","NA","39738","536","NA","NA","2","legacy","1024","2","48000","-16","experiment","HHSHH","2","even","41410","NA","NA","NA","81276","82300","79012","1670","NA","82301","1672","82401","82937","NA","NA","82401","Flanker task","21","13494.0","24","1024"
"88","88","560","560","#3d3846","legacy","legacy","legacy","incongruent","1","undefined","1","h","0","0","0","0","24","24","24","0","24","24","0","24","24","0","0","24","Tue Sep  5 19:10:39 2023","1500","The main experiment item","True","Flankertask.osexp","C:/Users/juzal/OneDrive/Documents/Masters of Equine Science/Advanced Quantitative Methods and Experiment Design","False","mono","False","18","no","white","no","yes","768","legacy","24","24","C:/Users/juzal/OneDrive/Documents/Masters of Equine Science/Advanced Quantitative Methods and Experiment Design/CH-subject-2.csv","legacy","Melodramatic Milgram","4.0.5","0","h","NA","h","h","NA","NA","525.0","NA","39738","525","NA","NA","2","legacy","1024","2","48000","-16","experiment","SSHSS","2","even","41410","NA","NA","NA","82965","83990","79012","1670","NA","83991","1672","84092","84618","NA","NA","84091","Flanker task","22","14019.0","25","1024"
"88","88","556","556","#3d3846","legacy","legacy","legacy","incongruent","1","undefined","1","h","0","0","0","0","25","25","25","0","25","25","0","25","25","0","0","25","Tue Sep  5 19:10:39 2023","1500","The main experiment item","True","Flankertask.osexp","C:/Users/juzal/OneDrive/Documents/Masters of Equine Science/Advanced Quantitative Methods and Experiment Design","False","mono","False","18","no","white","no","yes","768","legacy","25","25","C:/Users/juzal/OneDrive/Documents/Masters of Equine Science/Advanced Quantitative Methods and Experiment Design/CH-subject-2.csv","legacy","Melodramatic Milgram","4.0.5","0","h","NA","h","h","NA","NA","444.0","NA","39738","444","NA","NA","2","legacy","1024","2","48000","-16","experiment","SSHSS","2","even","41410","NA","NA","NA","84650","85679","79012","1670","NA","85680","1672","85781","86226","NA","NA","85781","Flanker task","23","14463.0","26","1024"
"88","88","554","554","#3d3846","legacy","legacy","legacy","congruent","1","undefined","1","h","0","0","0","0","26","26","26","0","26","26","0","26","26","0","0","26","Tue Sep  5 19:10:39 2023","1500","The main experiment item","True","Flankertask.osexp","C:/Users/juzal/OneDrive/Documents/Masters of Equine Science/Advanced Quantitative Methods and Experiment Design","False","mono","False","18","no","white","no","yes","768","legacy","26","26","C:/Users/juzal/OneDrive/Documents/Masters of Equine Science/Advanced Quantitative Methods and Experiment Design/CH-subject-2.csv","legacy","Melodramatic Milgram","4.0.5","0","h","NA","h","h","NA","NA","498.0","NA","39738","498","NA","NA","2","legacy","1024","2","48000","-16","experiment","HHHHH","2","even","41410","NA","NA","NA","86265","87291","79012","1670","NA","87292","1672","87392","87890","NA","NA","87392","Flanker task","24","14961.0","27","1024"
"89","89","551","551","#3d3846","legacy","legacy","legacy","incongruent","1","undefined","1","s","0","0","0","0","27","27","27","0","27","27","0","27","27","0","0","27","Tue Sep  5 19:10:39 2023","1500","The main experiment item","True","Flankertask.osexp","C:/Users/juzal/OneDrive/Documents/Masters of Equine Science/Advanced Quantitative Methods and Experiment Design","False","mono","False","18","no","white","no","yes","768","legacy","27","27","C:/Users/juzal/OneDrive/Documents/Masters of Equine Science/Advanced Quantitative Methods and Experiment Design/CH-subject-2.csv","legacy","Melodramatic Milgram","4.0.5","0","s","NA","h","s","NA","NA","494.0","NA","39738","494","NA","NA","2","legacy","1024","2","48000","-16","experiment","HHSHH","2","even","41410","NA","NA","NA","87894","88920","79012","1670","NA","88921","1672","89021","89516","NA","NA","89021","Flanker task","25","15455.0","28","1024"
"89","89","551","551","#3d3846","legacy","legacy","legacy","congruent","1","undefined","1","s","0","0","0","0","28","28","28","0","28","28","0","28","28","0","0","28","Tue Sep  5 19:10:39 2023","1500","The main experiment item","True","Flankertask.osexp","C:/Users/juzal/OneDrive/Documents/Masters of Equine Science/Advanced Quantitative Methods and Experiment Design","False","mono","False","18","no","white","no","yes","768","legacy","28","28","C:/Users/juzal/OneDrive/Documents/Masters of Equine Science/Advanced Quantitative Methods and Experiment Design/CH-subject-2.csv","legacy","Melodramatic Milgram","4.0.5","0","s","NA","h","s","NA","NA","544.0","NA","39738","544","NA","NA","2","legacy","1024","2","48000","-16","experiment","SSSSS","2","even","41410","NA","NA","NA","89519","90549","79012","1670","NA","90550","1672","90650","91195","NA","NA","90650","Flanker task","26","15999.0","29","1024"
"90","90","549","549","#3d3846","legacy","legacy","legacy","congruent","1","undefined","1","s","0","0","0","0","29","29","29","0","29","29","0","29","29","0","0","29","Tue Sep  5 19:10:39 2023","1500","The main experiment item","True","Flankertask.osexp","C:/Users/juzal/OneDrive/Documents/Masters of Equine Science/Advanced Quantitative Methods and Experiment Design","False","mono","False","18","no","white","no","yes","768","legacy","29","29","C:/Users/juzal/OneDrive/Documents/Masters of Equine Science/Advanced Quantitative Methods and Experiment Design/CH-subject-2.csv","legacy","Melodramatic Milgram","4.0.5","0","s","NA","h","s","NA","NA","490.0","NA","39738","490","NA","NA","2","legacy","1024","2","48000","-16","experiment","SSSSS","2","even","41410","NA","NA","NA","91211","92237","79012","1670","NA","92238","1672","92339","92829","NA","NA","92338","Flanker task","27","16489.0","30","1024"
"90","90","552","552","#3d3846","legacy","legacy","legacy","congruent","1","undefined","1","s","0","0","0","0","30","30","30","0","30","30","0","30","30","0","0","30","Tue Sep  5 19:10:39 2023","1500","The main experiment item","True","Flankertask.osexp","C:/Users/juzal/OneDrive/Documents/Masters of Equine Science/Advanced Quantitative Methods and Experiment Design","False","mono","False","18","no","white","no","yes","768","legacy","30","30","C:/Users/juzal/OneDrive/Documents/Masters of Equine Science/Advanced Quantitative Methods and Experiment Design/CH-subject-2.csv","legacy","Melodramatic Milgram","4.0.5","0","s","NA","h","s","NA","NA","646.0","NA","39738","646","NA","NA","2","legacy","1024","2","48000","-16","experiment","SSSSS","2","even","41410","NA","NA","NA","92859","93883","79012","1670","NA","93884","1672","93984","94630","NA","NA","93984","Flanker task","28","17135.0","31","1024"
"90","90","549","549","#3d3846","legacy","legacy","legacy","congruent","1","undefined","1","s","0","0","0","0","31","31","31","0","31","31","0","31","31","0","0","31","Tue Sep  5 19:10:39 2023","1500","The main experiment item","True","Flankertask.osexp","C:/Users/juzal/OneDrive/Documents/Masters of Equine Science/Advanced Quantitative Methods and Experiment Design","False","mono","False","18","no","white","no","yes","768","legacy","31","31","C:/Users/juzal/OneDrive/Documents/Masters of Equine Science/Advanced Quantitative Methods and Experiment Design/CH-subject-2.csv","legacy","Melodramatic Milgram","4.0.5","0","s","NA","h","s","NA","NA","444.0","NA","39738","444","NA","NA","2","legacy","1024","2","48000","-16","experiment","SSSSS","2","even","41410","NA","NA","NA","94665","95690","79012","1670","NA","95691","1672","95792","96236","NA","NA","95791","Flanker task","29","17579.0","32","1024"
"90","90","551","551","#3d3846","legacy","legacy","legacy","incongruent","1","undefined","1","s","0","0","0","0","32","32","32","0","32","32","0","32","32","0","0","32","Tue Sep  5 19:10:39 2023","1500","The main experiment item","True","Flankertask.osexp","C:/Users/juzal/OneDrive/Documents/Masters of Equine Science/Advanced Quantitative Methods and Experiment Design","False","mono","False","18","no","white","no","yes","768","legacy","32","32","C:/Users/juzal/OneDrive/Documents/Masters of Equine Science/Advanced Quantitative Methods and Experiment Design/CH-subject-2.csv","legacy","Melodramatic Milgram","4.0.5","0","s","NA","h","s","NA","NA","627.0","NA","39738","627","NA","NA","2","legacy","1024","2","48000","-16","experiment","HHSHH","2","even","41410","NA","NA","NA","96274","97297","79012","1670","NA","97298","1672","97398","98025","NA","NA","97398","Flanker task","30","18206.0","33","1024"
"91","91","548","548","#3d3846","legacy","legacy","legacy","congruent","1","undefined","1","s","0","0","0","0","33","33","33","0","33","33","0","33","33","0","0","33","Tue Sep  5 19:10:39 2023","1500","The main experiment item","True","Flankertask.osexp","C:/Users/juzal/OneDrive/Documents/Masters of Equine Science/Advanced Quantitative Methods and Experiment Design","False","mono","False","18","no","white","no","yes","768","legacy","33","33","C:/Users/juzal/OneDrive/Documents/Masters of Equine Science/Advanced Quantitative Methods and Experiment Design/CH-subject-2.csv","legacy","Melodramatic Milgram","4.0.5","0","s","NA","h","s","NA","NA","455.0","NA","39738","455","NA","NA","2","legacy","1024","2","48000","-16","experiment","SSSSS","2","even","41410","NA","NA","NA","98059","99084","79012","1670","NA","99085","1672","99185","99641","NA","NA","99185","Flanker task","31","18661.0","34","1024"
"91","91","546","546","#3d3846","legacy","legacy","legacy","incongruent","1","undefined","1","h","0","0","0","0","34","34","34","0","34","34","0","34","34","0","0","34","Tue Sep  5 19:10:39 2023","1500","The main experiment item","True","Flankertask.osexp","C:/Users/juzal/OneDrive/Documents/Masters of Equine Science/Advanced Quantitative Methods and Experiment Design","False","mono","False","18","no","white","no","yes","768","legacy","34","34","C:/Users/juzal/OneDrive/Documents/Masters of Equine Science/Advanced Quantitative Methods and Experiment Design/CH-subject-2.csv","legacy","Melodramatic Milgram","4.0.5","0","h","NA","h","h","NA","NA","463.0","NA","39738","463","NA","NA","2","legacy","1024","2","48000","-16","experiment","SSHSS","2","even","41410","NA","NA","NA","99679","100710","79012","1670","NA","100711","1672","100811","101274","NA","NA","100811","Flanker task","32","19124.0","35","1024"
"91","91","545","545","#3d3846","legacy","legacy","legacy","incongruent","1","undefined","1","h","0","0","0","0","35","35","35","0","35","35","0","35","35","0","0","35","Tue Sep  5 19:10:39 2023","1500","The main experiment item","True","Flankertask.osexp","C:/Users/juzal/OneDrive/Documents/Masters of Equine Science/Advanced Quantitative Methods and Experiment Design","False","mono","False","18","no","white","no","yes","768","legacy","35","35","C:/Users/juzal/OneDrive/Documents/Masters of Equine Science/Advanced Quantitative Methods and Experiment Design/CH-subject-2.csv","legacy","Melodramatic Milgram","4.0.5","0","h","NA","h","h","NA","NA","498.0","NA","39738","498","NA","NA","2","legacy","1024","2","48000","-16","experiment","SSHSS","2","even","41410","NA","NA","NA","101317","102345","79012","1670","NA","102346","1672","102446","102944","NA","NA","102446","Flanker task","33","19622.0","36","1024"
"91","91","543","543","#3d3846","legacy","legacy","legacy","congruent","1","undefined","1","s","0","0","0","0","36","36","36","0","36","36","0","36","36","0","0","36","Tue Sep  5 19:10:39 2023","1500","The main experiment item","True","Flankertask.osexp","C:/Users/juzal/OneDrive/Documents/Masters of Equine Science/Advanced Quantitative Methods and Experiment Design","False","mono","False","18","no","white","no","yes","768","legacy","36","36","C:/Users/juzal/OneDrive/Documents/Masters of Equine Science/Advanced Quantitative Methods and Experiment Design/CH-subject-2.csv","legacy","Melodramatic Milgram","4.0.5","0","s","NA","h","s","NA","NA","484.0","NA","39738","484","NA","NA","2","legacy","1024","2","48000","-16","experiment","SSSSS","2","even","41410","NA","NA","NA","102948","103974","79012","1670","NA","103975","1672","104075","104560","NA","NA","104075","Flanker task","34","20106.0","37","1024"
"92","92","539","539","#3d3846","legacy","legacy","legacy","congruent","1","undefined","1","s","0","0","0","0","37","37","37","0","37","37","0","37","37","0","0","37","Tue Sep  5 19:10:39 2023","1500","The main experiment item","True","Flankertask.osexp","C:/Users/juzal/OneDrive/Documents/Masters of Equine Science/Advanced Quantitative Methods and Experiment Design","False","mono","False","18","no","white","no","yes","768","legacy","37","37","C:/Users/juzal/OneDrive/Documents/Masters of Equine Science/Advanced Quantitative Methods and Experiment Design/CH-subject-2.csv","legacy","Melodramatic Milgram","4.0.5","0","s","NA","h","s","NA","NA","413.0","NA","39738","413","NA","NA","2","legacy","1024","2","48000","-16","experiment","SSSSS","2","even","41410","NA","NA","NA","104563","105593","79012","1670","NA","105594","1672","105694","106107","NA","NA","105694","Flanker task","35","20519.0","38","1024"
"92","92","537","537","#3d3846","legacy","legacy","legacy","congruent","1","undefined","1","s","0","0","0","0","38","38","38","0","38","38","0","38","38","0","0","38","Tue Sep  5 19:10:39 2023","1500","The main experiment item","True","Flankertask.osexp","C:/Users/juzal/OneDrive/Documents/Masters of Equine Science/Advanced Quantitative Methods and Experiment Design","False","mono","False","18","no","white","no","yes","768","legacy","38","38","C:/Users/juzal/OneDrive/Documents/Masters of Equine Science/Advanced Quantitative Methods and Experiment Design/CH-subject-2.csv","legacy","Melodramatic Milgram","4.0.5","0","s","NA","h","s","NA","NA","424.0","NA","39738","424","NA","NA","2","legacy","1024","2","48000","-16","experiment","SSSSS","2","even","41410","NA","NA","NA","106111","107136","79012","1670","NA","107137","1672","107237","107661","NA","NA","107237","Flanker task","36","20943.0","39","1024"
"92","92","534","534","#3d3846","legacy","legacy","legacy","congruent","1","undefined","1","s","0","0","0","0","39","39","39","0","39","39","0","39","39","0","0","39","Tue Sep  5 19:10:39 2023","1500","The main experiment item","True","Flankertask.osexp","C:/Users/juzal/OneDrive/Documents/Masters of Equine Science/Advanced Quantitative Methods and Experiment Design","False","mono","False","18","no","white","no","yes","768","legacy","39","39","C:/Users/juzal/OneDrive/Documents/Masters of Equine Science/Advanced Quantitative Methods and Experiment Design/CH-subject-2.csv","legacy","Melodramatic Milgram","4.0.5","0","s","NA","h","s","NA","NA","422.0","NA","39738","422","NA","NA","2","legacy","1024","2","48000","-16","experiment","SSSSS","2","even","41410","NA","NA","NA","107694","108718","79012","1670","NA","108719","1672","108819","109241","NA","NA","108819","Flanker task","37","21365.0","40","1024"
"92","92","533","533","#3d3846","legacy","legacy","legacy","incongruent","1","undefined","1","h","0","0","0","0","40","40","40","0","40","40","0","40","40","0","0","40","Tue Sep  5 19:10:39 2023","1500","The main experiment item","True","Flankertask.osexp","C:/Users/juzal/OneDrive/Documents/Masters of Equine Science/Advanced Quantitative Methods and Experiment Design","False","mono","False","18","no","white","no","yes","768","legacy","40","40","C:/Users/juzal/OneDrive/Documents/Masters of Equine Science/Advanced Quantitative Methods and Experiment Design/CH-subject-2.csv","legacy","Melodramatic Milgram","4.0.5","0","h","NA","h","h","NA","NA","518.0","NA","39738","518","NA","NA","2","legacy","1024","2","48000","-16","experiment","SSHSS","2","even","41410","NA","NA","NA","109280","110306","79012","1670","NA","110307","1672","110407","110926","NA","NA","110407","Flanker task","38","21883.0","41","1024"
"92","92","532","532","#3d3846","legacy","legacy","legacy","congruent","1","undefined","1","h","0","0","0","0","41","41","41","0","41","41","0","41","41","0","0","41","Tue Sep  5 19:10:39 2023","1500","The main experiment item","True","Flankertask.osexp","C:/Users/juzal/OneDrive/Documents/Masters of Equine Science/Advanced Quantitative Methods and Experiment Design","False","mono","False","18","no","white","no","yes","768","legacy","41","41","C:/Users/juzal/OneDrive/Documents/Masters of Equine Science/Advanced Quantitative Methods and Experiment Design/CH-subject-2.csv","legacy","Melodramatic Milgram","4.0.5","0","h","NA","h","h","NA","NA","479.0","NA","39738","479","NA","NA","2","legacy","1024","2","48000","-16","experiment","HHHHH","2","even","41410","NA","NA","NA","110970","111994","79012","1670","NA","111995","1672","112096","112575","NA","NA","112095","Flanker task","39","22362.0","42","1024"
"93","93","532","532","#3d3846","legacy","legacy","legacy","incongruent","1","undefined","1","s","0","0","0","0","42","42","42","0","42","42","0","42","42","0","0","42","Tue Sep  5 19:10:39 2023","1500","The main experiment item","True","Flankertask.osexp","C:/Users/juzal/OneDrive/Documents/Masters of Equine Science/Advanced Quantitative Methods and Experiment Design","False","mono","False","18","no","white","no","yes","768","legacy","42","42","C:/Users/juzal/OneDrive/Documents/Masters of Equine Science/Advanced Quantitative Methods and Experiment Design/CH-subject-2.csv","legacy","Melodramatic Milgram","4.0.5","0","s","NA","h","s","NA","NA","531.0","NA","39738","531","NA","NA","2","legacy","1024","2","48000","-16","experiment","HHSHH","2","even","41410","NA","NA","NA","112625","113648","79012","1670","NA","113649","1672","113750","114282","NA","NA","113749","Flanker task","40","22893.0","43","1024"
"93","93","530","530","#3d3846","legacy","legacy","legacy","incongruent","1","undefined","1","s","0","0","0","0","43","43","43","0","43","43","0","43","43","0","0","43","Tue Sep  5 19:10:39 2023","1500","The main experiment item","True","Flankertask.osexp","C:/Users/juzal/OneDrive/Documents/Masters of Equine Science/Advanced Quantitative Methods and Experiment Design","False","mono","False","18","no","white","no","yes","768","legacy","43","43","C:/Users/juzal/OneDrive/Documents/Masters of Equine Science/Advanced Quantitative Methods and Experiment Design/CH-subject-2.csv","legacy","Melodramatic Milgram","4.0.5","0","s","NA","h","s","NA","NA","454.0","NA","39738","454","NA","NA","2","legacy","1024","2","48000","-16","experiment","HHSHH","2","even","41410","NA","NA","NA","114334","115359","79012","1670","NA","115360","1672","115461","115915","NA","NA","115460","Flanker task","41","23347.0","44","1024"
"93","93","530","530","#3d3846","legacy","legacy","legacy","congruent","1","undefined","1","h","0","0","0","0","44","44","44","0","44","44","0","44","44","0","0","44","Tue Sep  5 19:10:39 2023","1500","The main experiment item","True","Flankertask.osexp","C:/Users/juzal/OneDrive/Documents/Masters of Equine Science/Advanced Quantitative Methods and Experiment Design","False","mono","False","18","no","white","no","yes","768","legacy","44","44","C:/Users/juzal/OneDrive/Documents/Masters of Equine Science/Advanced Quantitative Methods and Experiment Design/CH-subject-2.csv","legacy","Melodramatic Milgram","4.0.5","0","h","NA","h","h","NA","NA","527.0","NA","39738","527","NA","NA","2","legacy","1024","2","48000","-16","experiment","HHHHH","2","even","41410","NA","NA","NA","115919","116946","79012","1670","NA","116948","1672","117048","117575","NA","NA","117048","Flanker task","42","23874.0","45","1024"
"93","93","531","531","#3d3846","legacy","legacy","legacy","congruent","1","undefined","1","s","0","0","0","0","45","45","45","0","45","45","0","45","45","0","0","45","Tue Sep  5 19:10:39 2023","1500","The main experiment item","True","Flankertask.osexp","C:/Users/juzal/OneDrive/Documents/Masters of Equine Science/Advanced Quantitative Methods and Experiment Design","False","mono","False","18","no","white","no","yes","768","legacy","45","45","C:/Users/juzal/OneDrive/Documents/Masters of Equine Science/Advanced Quantitative Methods and Experiment Design/CH-subject-2.csv","legacy","Melodramatic Milgram","4.0.5","0","s","NA","h","s","NA","NA","576.0","NA","39738","576","NA","NA","2","legacy","1024","2","48000","-16","experiment","SSSSS","2","even","41410","NA","NA","NA","117579","118604","79012","1670","NA","118605","1672","118705","119282","NA","NA","118705","Flanker task","43","24450.0","46","1024"
"93","93","529","529","#3d3846","legacy","legacy","legacy","congruent","1","undefined","1","h","0","0","0","0","46","46","46","0","46","46","0","46","46","0","0","46","Tue Sep  5 19:10:39 2023","1500","The main experiment item","True","Flankertask.osexp","C:/Users/juzal/OneDrive/Documents/Masters of Equine Science/Advanced Quantitative Methods and Experiment Design","False","mono","False","18","no","white","no","yes","768","legacy","46","46","C:/Users/juzal/OneDrive/Documents/Masters of Equine Science/Advanced Quantitative Methods and Experiment Design/CH-subject-2.csv","legacy","Melodramatic Milgram","4.0.5","0","h","NA","h","h","NA","NA","454.0","NA","39738","454","NA","NA","2","legacy","1024","2","48000","-16","experiment","HHHHH","2","even","41410","NA","NA","NA","119327","120357","79012","1670","NA","120358","1672","120458","120912","NA","NA","120458","Flanker task","44","24904.0","47","1024"
"93","93","527","527","#3d3846","legacy","legacy","legacy","congruent","1","undefined","1","h","0","0","0","0","47","47","47","0","47","47","0","47","47","0","0","47","Tue Sep  5 19:10:39 2023","1500","The main experiment item","True","Flankertask.osexp","C:/Users/juzal/OneDrive/Documents/Masters of Equine Science/Advanced Quantitative Methods and Experiment Design","False","mono","False","18","no","white","no","yes","768","legacy","47","47","C:/Users/juzal/OneDrive/Documents/Masters of Equine Science/Advanced Quantitative Methods and Experiment Design/CH-subject-2.csv","legacy","Melodramatic Milgram","4.0.5","0","h","NA","h","h","NA","NA","433.0","NA","39738","433","NA","NA","2","legacy","1024","2","48000","-16","experiment","HHHHH","2","even","41410","NA","NA","NA","120916","121939","79012","1670","NA","121940","1672","122041","122474","NA","NA","122040","Flanker task","45","25337.0","48","1024"
"93","93","529","529","#3d3846","legacy","legacy","legacy","incongruent","1","undefined","1","h","0","0","0","0","48","48","48","0","48","48","0","48","48","0","0","48","Tue Sep  5 19:10:39 2023","1500","The main experiment item","True","Flankertask.osexp","C:/Users/juzal/OneDrive/Documents/Masters of Equine Science/Advanced Quantitative Methods and Experiment Design","False","mono","False","18","no","white","no","yes","768","legacy","48","48","C:/Users/juzal/OneDrive/Documents/Masters of Equine Science/Advanced Quantitative Methods and Experiment Design/CH-subject-2.csv","legacy","Melodramatic Milgram","4.0.5","0","h","NA","h","h","NA","NA","611.0","NA","39738","611","NA","NA","2","legacy","1024","2","48000","-16","experiment","SSHSS","2","even","41410","NA","NA","NA","122479","123502","79012","1670","NA","123503","1672","123603","124215","NA","NA","123603","Flanker task","46","25948.0","49","1024"
"94","94","527","527","#3d3846","legacy","legacy","legacy","incongruent","1","undefined","1","h","0","0","0","0","49","49","49","0","49","49","0","49","49","0","0","49","Tue Sep  5 19:10:39 2023","1500","The main experiment item","True","Flankertask.osexp","C:/Users/juzal/OneDrive/Documents/Masters of Equine Science/Advanced Quantitative Methods and Experiment Design","False","mono","False","18","no","white","no","yes","768","legacy","49","49","C:/Users/juzal/OneDrive/Documents/Masters of Equine Science/Advanced Quantitative Methods and Experiment Design/CH-subject-2.csv","legacy","Melodramatic Milgram","4.0.5","0","h","NA","h","h","NA","NA","448.0","NA","39738","448","NA","NA","2","legacy","1024","2","48000","-16","experiment","SSHSS","2","even","41410","NA","NA","NA","124219","125244","79012","1670","NA","125245","1672","125346","125794","NA","NA","125345","Flanker task","47","26396.0","50","1024"
"94","94","525","525","#3d3846","legacy","legacy","legacy","congruent","1","undefined","1","s","0","0","0","0","50","50","50","0","50","50","0","50","50","0","0","50","Tue Sep  5 19:10:39 2023","1500","The main experiment item","True","Flankertask.osexp","C:/Users/juzal/OneDrive/Documents/Masters of Equine Science/Advanced Quantitative Methods and Experiment Design","False","mono","False","18","no","white","no","yes","768","legacy","50","50","C:/Users/juzal/OneDrive/Documents/Masters of Equine Science/Advanced Quantitative Methods and Experiment Design/CH-subject-2.csv","legacy","Melodramatic Milgram","4.0.5","0","s","NA","h","s","NA","NA","387.0","NA","39738","387","NA","NA","2","legacy","1024","2","48000","-16","experiment","SSSSS","2","even","41410","NA","NA","NA","125838","126861","79012","1670","NA","126862","1672","126962","127349","NA","NA","126962","Flanker task","48","26783.0","51","1024"
"94","94","523","523","#3d3846","legacy","legacy","legacy","congruent","1","undefined","1","s","0","0","0","0","51","51","51","0","51","51","0","51","51","0","0","51","Tue Sep  5 19:10:39 2023","1500","The main experiment item","True","Flankertask.osexp","C:/Users/juzal/OneDrive/Documents/Masters of Equine Science/Advanced Quantitative Methods and Experiment Design","False","mono","False","18","no","white","no","yes","768","legacy","51","51","C:/Users/juzal/OneDrive/Documents/Masters of Equine Science/Advanced Quantitative Methods and Experiment Design/CH-subject-2.csv","legacy","Melodramatic Milgram","4.0.5","0","s","NA","h","s","NA","NA","463.0","NA","39738","463","NA","NA","2","legacy","1024","2","48000","-16","experiment","SSSSS","2","even","41410","NA","NA","NA","127353","128378","79012","1670","NA","128379","1672","128480","128944","NA","NA","128479","Flanker task","49","27246.0","52","1024"
"94","94","523","523","#3d3846","legacy","legacy","legacy","incongruent","1","undefined","1","h","0","0","0","0","52","52","52","0","52","52","0","52","52","0","0","52","Tue Sep  5 19:10:39 2023","1500","The main experiment item","True","Flankertask.osexp","C:/Users/juzal/OneDrive/Documents/Masters of Equine Science/Advanced Quantitative Methods and Experiment Design","False","mono","False","18","no","white","no","yes","768","legacy","52","52","C:/Users/juzal/OneDrive/Documents/Masters of Equine Science/Advanced Quantitative Methods and Experiment Design/CH-subject-2.csv","legacy","Melodramatic Milgram","4.0.5","0","h","NA","h","h","NA","NA","523.0","NA","39738","523","NA","NA","2","legacy","1024","2","48000","-16","experiment","SSHSS","2","even","41410","NA","NA","NA","128948","129978","79012","1670","NA","129979","1672","130079","130603","NA","NA","130079","Flanker task","50","27769.0","53","1024"
"94","94","527","527","#3d3846","legacy","legacy","legacy","incongruent","1","undefined","1","h","0","0","0","0","53","53","53","0","53","53","0","53","53","0","0","53","Tue Sep  5 19:10:39 2023","1500","The main experiment item","True","Flankertask.osexp","C:/Users/juzal/OneDrive/Documents/Masters of Equine Science/Advanced Quantitative Methods and Experiment Design","False","mono","False","18","no","white","no","yes","768","legacy","53","53","C:/Users/juzal/OneDrive/Documents/Masters of Equine Science/Advanced Quantitative Methods and Experiment Design/CH-subject-2.csv","legacy","Melodramatic Milgram","4.0.5","0","h","NA","h","h","NA","NA","690.0","NA","39738","690","NA","NA","2","legacy","1024","2","48000","-16","experiment","SSHSS","2","even","41410","NA","NA","NA","130637","131664","79012","1670","NA","131665","1672","131765","132456","NA","NA","131765","Flanker task","51","28459.0","54","1024"
"94","94","528","528","#3d3846","legacy","legacy","legacy","incongruent","1","undefined","1","s","0","0","0","0","54","54","54","0","54","54","0","54","54","0","0","54","Tue Sep  5 19:10:39 2023","1500","The main experiment item","True","Flankertask.osexp","C:/Users/juzal/OneDrive/Documents/Masters of Equine Science/Advanced Quantitative Methods and Experiment Design","False","mono","False","18","no","white","no","yes","768","legacy","54","54","C:/Users/juzal/OneDrive/Documents/Masters of Equine Science/Advanced Quantitative Methods and Experiment Design/CH-subject-2.csv","legacy","Melodramatic Milgram","4.0.5","0","s","NA","h","s","NA","NA","601.0","NA","39738","601","NA","NA","2","legacy","1024","2","48000","-16","experiment","HHSHH","2","even","41410","NA","NA","NA","132459","133485","79012","1670","NA","133486","1672","133586","134187","NA","NA","133586","Flanker task","52","29060.0","55","1024"
"94","94","527","527","#3d3846","legacy","legacy","legacy","incongruent","1","undefined","1","s","0","0","0","0","55","55","55","0","55","55","0","55","55","0","0","55","Tue Sep  5 19:10:39 2023","1500","The main experiment item","True","Flankertask.osexp","C:/Users/juzal/OneDrive/Documents/Masters of Equine Science/Advanced Quantitative Methods and Experiment Design","False","mono","False","18","no","white","no","yes","768","legacy","55","55","C:/Users/juzal/OneDrive/Documents/Masters of Equine Science/Advanced Quantitative Methods and Experiment Design/CH-subject-2.csv","legacy","Melodramatic Milgram","4.0.5","0","s","NA","h","s","NA","NA","471.0","NA","39738","471","NA","NA","2","legacy","1024","2","48000","-16","experiment","HHSHH","2","even","41410","NA","NA","NA","134218","135248","79012","1670","NA","135249","1672","135349","135820","NA","NA","135349","Flanker task","53","29531.0","56","1024"
"94","94","526","526","#3d3846","legacy","legacy","legacy","congruent","1","undefined","1","h","0","0","0","0","56","56","56","0","56","56","0","56","56","0","0","56","Tue Sep  5 19:10:39 2023","1500","The main experiment item","True","Flankertask.osexp","C:/Users/juzal/OneDrive/Documents/Masters of Equine Science/Advanced Quantitative Methods and Experiment Design","False","mono","False","18","no","white","no","yes","768","legacy","56","56","C:/Users/juzal/OneDrive/Documents/Masters of Equine Science/Advanced Quantitative Methods and Experiment Design/CH-subject-2.csv","legacy","Melodramatic Milgram","4.0.5","0","h","NA","h","h","NA","NA","507.0","NA","39738","507","NA","NA","2","legacy","1024","2","48000","-16","experiment","HHHHH","2","even","41410","NA","NA","NA","135824","136847","79012","1670","NA","136848","1672","136949","137456","NA","NA","136948","Flanker task","54","30038.0","57","1024"
"94","94","526","526","#3d3846","legacy","legacy","legacy","congruent","1","undefined","1","h","0","0","0","0","57","57","57","0","57","57","0","57","57","0","0","57","Tue Sep  5 19:10:39 2023","1500","The main experiment item","True","Flankertask.osexp","C:/Users/juzal/OneDrive/Documents/Masters of Equine Science/Advanced Quantitative Methods and Experiment Design","False","mono","False","18","no","white","no","yes","768","legacy","57","57","C:/Users/juzal/OneDrive/Documents/Masters of Equine Science/Advanced Quantitative Methods and Experiment Design/CH-subject-2.csv","legacy","Melodramatic Milgram","4.0.5","0","h","NA","h","h","NA","NA","516.0","NA","39738","516","NA","NA","2","legacy","1024","2","48000","-16","experiment","HHHHH","2","even","41410","NA","NA","NA","137460","138483","79012","1670","NA","138484","1672","138584","139100","NA","NA","138584","Flanker task","55","30554.0","58","1024"
"94","94","529","529","#3d3846","legacy","legacy","legacy","incongruent","1","undefined","1","h","0","0","0","0","58","58","58","0","58","58","0","58","58","0","0","58","Tue Sep  5 19:10:39 2023","1500","The main experiment item","True","Flankertask.osexp","C:/Users/juzal/OneDrive/Documents/Masters of Equine Science/Advanced Quantitative Methods and Experiment Design","False","mono","False","18","no","white","no","yes","768","legacy","58","58","C:/Users/juzal/OneDrive/Documents/Masters of Equine Science/Advanced Quantitative Methods and Experiment Design/CH-subject-2.csv","legacy","Melodramatic Milgram","4.0.5","0","h","NA","h","h","NA","NA","690.0","NA","39738","690","NA","NA","2","legacy","1024","2","48000","-16","experiment","SSHSS","2","even","41410","NA","NA","NA","139132","140155","79012","1670","NA","140156","1672","140256","140947","NA","NA","140256","Flanker task","56","31244.0","59","1024"
"95","95","530","530","#3d3846","legacy","legacy","legacy","congruent","1","undefined","1","h","0","0","0","0","59","59","59","0","59","59","0","59","59","0","0","59","Tue Sep  5 19:10:39 2023","1500","The main experiment item","True","Flankertask.osexp","C:/Users/juzal/OneDrive/Documents/Masters of Equine Science/Advanced Quantitative Methods and Experiment Design","False","mono","False","18","no","white","no","yes","768","legacy","59","59","C:/Users/juzal/OneDrive/Documents/Masters of Equine Science/Advanced Quantitative Methods and Experiment Design/CH-subject-2.csv","legacy","Melodramatic Milgram","4.0.5","0","h","NA","h","h","NA","NA","587.0","NA","39738","587","NA","NA","2","legacy","1024","2","48000","-16","experiment","HHHHH","2","even","41410","NA","NA","NA","140982","142005","79012","1670","NA","142006","1672","142107","142695","NA","NA","142107","Flanker task","57","31831.0","60","1024"
"93","93","529","529","#3d3846","legacy","legacy","legacy","incongruent","0","undefined","0","h","0","0","0","0","60","60","60","0","60","60","0","60","60","0","0","60","Tue Sep  5 19:10:39 2023","1500","The main experiment item","True","Flankertask.osexp","C:/Users/juzal/OneDrive/Documents/Masters of Equine Science/Advanced Quantitative Methods and Experiment Design","False","mono","False","18","no","white","no","yes","768","legacy","60","60","C:/Users/juzal/OneDrive/Documents/Masters of Equine Science/Advanced Quantitative Methods and Experiment Design/CH-subject-2.csv","legacy","Melodramatic Milgram","4.0.5","0","s","NA","h","s","NA","NA","477.0","NA","39738","477","NA","NA","2","legacy","1024","2","48000","-16","experiment","SSHSS","2","even","41410","NA","NA","NA","142719","143744","79012","1670","NA","143745","1672","143845","144324","NA","NA","143845","Flanker task","57","32308.0","61","1024"
"93","93","532","532","#3d3846","legacy","legacy","legacy","incongruent","1","undefined","1","s","0","0","0","0","61","61","61","0","61","61","0","61","61","0","0","61","Tue Sep  5 19:10:39 2023","1500","The main experiment item","True","Flankertask.osexp","C:/Users/juzal/OneDrive/Documents/Masters of Equine Science/Advanced Quantitative Methods and Experiment Design","False","mono","False","18","no","white","no","yes","768","legacy","61","61","C:/Users/juzal/OneDrive/Documents/Masters of Equine Science/Advanced Quantitative Methods and Experiment Design/CH-subject-2.csv","legacy","Melodramatic Milgram","4.0.5","0","s","NA","h","s","NA","NA","683.0","NA","39738","683","NA","NA","2","legacy","1024","2","48000","-16","experiment","HHSHH","2","even","41410","NA","NA","NA","144855","145879","144355","1670","NA","145880","1672","145981","146665","NA","NA","145981","Flanker task","58","32991.0","62","1024"
"93","93","531","531","#3d3846","legacy","legacy","legacy","congruent","1","undefined","1","h","0","0","0","0","62","62","62","0","62","62","0","62","62","0","0","62","Tue Sep  5 19:10:39 2023","1500","The main experiment item","True","Flankertask.osexp","C:/Users/juzal/OneDrive/Documents/Masters of Equine Science/Advanced Quantitative Methods and Experiment Design","False","mono","False","18","no","white","no","yes","768","legacy","62","62","C:/Users/juzal/OneDrive/Documents/Masters of Equine Science/Advanced Quantitative Methods and Experiment Design/CH-subject-2.csv","legacy","Melodramatic Milgram","4.0.5","0","h","NA","h","h","NA","NA","480.0","NA","39738","480","NA","NA","2","legacy","1024","2","48000","-16","experiment","HHHHH","2","even","41410","NA","NA","NA","146669","147697","144355","1670","NA","147698","1672","147799","148280","NA","NA","147798","Flanker task","59","33471.0","63","1024"
"93","93","529","529","#3d3846","legacy","legacy","legacy","congruent","1","undefined","1","h","0","0","0","0","63","63","63","0","63","63","0","63","63","0","0","63","Tue Sep  5 19:10:39 2023","1500","The main experiment item","True","Flankertask.osexp","C:/Users/juzal/OneDrive/Documents/Masters of Equine Science/Advanced Quantitative Methods and Experiment Design","False","mono","False","18","no","white","no","yes","768","legacy","63","63","C:/Users/juzal/OneDrive/Documents/Masters of Equine Science/Advanced Quantitative Methods and Experiment Design/CH-subject-2.csv","legacy","Melodramatic Milgram","4.0.5","0","h","NA","h","h","NA","NA","415.0","NA","39738","415","NA","NA","2","legacy","1024","2","48000","-16","experiment","HHHHH","2","even","41410","NA","NA","NA","148315","149341","144355","1670","NA","149342","1672","149443","149858","NA","NA","149442","Flanker task","60","33886.0","64","1024"
"93","93","527","527","#3d3846","legacy","legacy","legacy","congruent","1","undefined","1","h","0","0","0","0","64","64","64","0","64","64","0","64","64","0","0","64","Tue Sep  5 19:10:39 2023","1500","The main experiment item","True","Flankertask.osexp","C:/Users/juzal/OneDrive/Documents/Masters of Equine Science/Advanced Quantitative Methods and Experiment Design","False","mono","False","18","no","white","no","yes","768","legacy","64","64","C:/Users/juzal/OneDrive/Documents/Masters of Equine Science/Advanced Quantitative Methods and Experiment Design/CH-subject-2.csv","legacy","Melodramatic Milgram","4.0.5","0","h","NA","h","h","NA","NA","406.0","NA","39738","406","NA","NA","2","legacy","1024","2","48000","-16","experiment","HHHHH","2","even","41410","NA","NA","NA","149895","150924","144355","1670","NA","150925","1672","151026","151432","NA","NA","151026","Flanker task","61","34292.0","65","1024"
"93","93","526","526","#3d3846","legacy","legacy","legacy","incongruent","1","undefined","1","s","0","0","0","0","65","65","65","0","65","65","0","65","65","0","0","65","Tue Sep  5 19:10:39 2023","1500","The main experiment item","True","Flankertask.osexp","C:/Users/juzal/OneDrive/Documents/Masters of Equine Science/Advanced Quantitative Methods and Experiment Design","False","mono","False","18","no","white","no","yes","768","legacy","65","65","C:/Users/juzal/OneDrive/Documents/Masters of Equine Science/Advanced Quantitative Methods and Experiment Design/CH-subject-2.csv","legacy","Melodramatic Milgram","4.0.5","0","s","NA","h","s","NA","NA","465.0","NA","39738","465","NA","NA","2","legacy","1024","2","48000","-16","experiment","HHSHH","2","even","41410","NA","NA","NA","151436","152460","144355","1670","NA","152461","1672","152562","153028","NA","NA","152562","Flanker task","62","34757.0","66","1024"
"94","94","525","525","#3d3846","legacy","legacy","legacy","incongruent","1","undefined","1","h","0","0","0","0","66","66","66","0","66","66","0","66","66","0","0","66","Tue Sep  5 19:10:39 2023","1500","The main experiment item","True","Flankertask.osexp","C:/Users/juzal/OneDrive/Documents/Masters of Equine Science/Advanced Quantitative Methods and Experiment Design","False","mono","False","18","no","white","no","yes","768","legacy","66","66","C:/Users/juzal/OneDrive/Documents/Masters of Equine Science/Advanced Quantitative Methods and Experiment Design/CH-subject-2.csv","legacy","Melodramatic Milgram","4.0.5","0","h","NA","h","h","NA","NA","439.0","NA","39738","439","NA","NA","2","legacy","1024","2","48000","-16","experiment","SSHSS","2","even","41410","NA","NA","NA","153070","154095","144355","1670","NA","154096","1672","154197","154637","NA","NA","154197","Flanker task","63","35196.0","67","1024"
"94","94","523","523","#3d3846","legacy","legacy","legacy","congruent","1","undefined","1","h","0","0","0","0","67","67","67","0","67","67","0","67","67","0","0","67","Tue Sep  5 19:10:39 2023","1500","The main experiment item","True","Flankertask.osexp","C:/Users/juzal/OneDrive/Documents/Masters of Equine Science/Advanced Quantitative Methods and Experiment Design","False","mono","False","18","no","white","no","yes","768","legacy","67","67","C:/Users/juzal/OneDrive/Documents/Masters of Equine Science/Advanced Quantitative Methods and Experiment Design/CH-subject-2.csv","legacy","Melodramatic Milgram","4.0.5","0","h","NA","h","h","NA","NA","434.0","NA","39738","434","NA","NA","2","legacy","1024","2","48000","-16","experiment","HHHHH","2","even","41410","NA","NA","NA","154681","155705","144355","1670","NA","155706","1672","155807","156241","NA","NA","155807","Flanker task","64","35630.0","68","1024"
"94","94","523","523","#3d3846","legacy","legacy","legacy","incongruent","1","undefined","1","s","0","0","0","0","68","68","68","0","68","68","0","68","68","0","0","68","Tue Sep  5 19:10:39 2023","1500","The main experiment item","True","Flankertask.osexp","C:/Users/juzal/OneDrive/Documents/Masters of Equine Science/Advanced Quantitative Methods and Experiment Design","False","mono","False","18","no","white","no","yes","768","legacy","68","68","C:/Users/juzal/OneDrive/Documents/Masters of Equine Science/Advanced Quantitative Methods and Experiment Design/CH-subject-2.csv","legacy","Melodramatic Milgram","4.0.5","0","s","NA","h","s","NA","NA","465.0","NA","39738","465","NA","NA","2","legacy","1024","2","48000","-16","experiment","HHSHH","2","even","41410","NA","NA","NA","156245","157270","144355","1670","NA","157271","1672","157372","157838","NA","NA","157371","Flanker task","65","36095.0","69","1024"
"94","94","523","523","#3d3846","legacy","legacy","legacy","incongruent","1","undefined","1","s","0","0","0","0","69","69","69","0","69","69","0","69","69","0","0","69","Tue Sep  5 19:10:39 2023","1500","The main experiment item","True","Flankertask.osexp","C:/Users/juzal/OneDrive/Documents/Masters of Equine Science/Advanced Quantitative Methods and Experiment Design","False","mono","False","18","no","white","no","yes","768","legacy","69","69","C:/Users/juzal/OneDrive/Documents/Masters of Equine Science/Advanced Quantitative Methods and Experiment Design/CH-subject-2.csv","legacy","Melodramatic Milgram","4.0.5","0","s","NA","h","s","NA","NA","516.0","NA","39738","516","NA","NA","2","legacy","1024","2","48000","-16","experiment","HHSHH","2","even","41410","NA","NA","NA","157863","158887","144355","1670","NA","158888","1672","158988","159504","NA","NA","158988","Flanker task","66","36611.0","70","1024"
"94","94","523","523","#3d3846","legacy","legacy","legacy","incongruent","1","undefined","1","h","0","0","0","0","70","70","70","0","70","70","0","70","70","0","0","70","Tue Sep  5 19:10:39 2023","1500","The main experiment item","True","Flankertask.osexp","C:/Users/juzal/OneDrive/Documents/Masters of Equine Science/Advanced Quantitative Methods and Experiment Design","False","mono","False","18","no","white","no","yes","768","legacy","70","70","C:/Users/juzal/OneDrive/Documents/Masters of Equine Science/Advanced Quantitative Methods and Experiment Design/CH-subject-2.csv","legacy","Melodramatic Milgram","4.0.5","0","h","NA","h","h","NA","NA","568.0","NA","39738","568","NA","NA","2","legacy","1024","2","48000","-16","experiment","SSHSS","2","even","41410","NA","NA","NA","159537","160562","144355","1670","NA","160563","1672","160663","161232","NA","NA","160663","Flanker task","67","37179.0","71","1024"
"94","94","523","523","#3d3846","legacy","legacy","legacy","congruent","1","undefined","1","s","0","0","0","0","71","71","71","0","71","71","0","71","71","0","0","71","Tue Sep  5 19:10:39 2023","1500","The main experiment item","True","Flankertask.osexp","C:/Users/juzal/OneDrive/Documents/Masters of Equine Science/Advanced Quantitative Methods and Experiment Design","False","mono","False","18","no","white","no","yes","768","legacy","71","71","C:/Users/juzal/OneDrive/Documents/Masters of Equine Science/Advanced Quantitative Methods and Experiment Design/CH-subject-2.csv","legacy","Melodramatic Milgram","4.0.5","0","s","NA","h","s","NA","NA","523.0","NA","39738","523","NA","NA","2","legacy","1024","2","48000","-16","experiment","SSSSS","2","even","41410","NA","NA","NA","161254","162277","144355","1670","NA","162278","1672","162379","162903","NA","NA","162378","Flanker task","68","37702.0","72","1024"
"94","94","524","524","#3d3846","legacy","legacy","legacy","incongruent","1","undefined","1","s","0","0","0","0","72","72","72","0","72","72","0","72","72","0","0","72","Tue Sep  5 19:10:39 2023","1500","The main experiment item","True","Flankertask.osexp","C:/Users/juzal/OneDrive/Documents/Masters of Equine Science/Advanced Quantitative Methods and Experiment Design","False","mono","False","18","no","white","no","yes","768","legacy","72","72","C:/Users/juzal/OneDrive/Documents/Masters of Equine Science/Advanced Quantitative Methods and Experiment Design/CH-subject-2.csv","legacy","Melodramatic Milgram","4.0.5","0","s","NA","h","s","NA","NA","592.0","NA","39738","592","NA","NA","2","legacy","1024","2","48000","-16","experiment","HHSHH","2","even","41410","NA","NA","NA","162907","163933","144355","1670","NA","163934","1672","164035","164628","NA","NA","164034","Flanker task","69","38294.0","73","1024"
"94","94","533","533","#3d3846","legacy","legacy","legacy","congruent","1","undefined","1","s","0","0","0","0","73","73","73","0","73","73","0","73","73","0","0","73","Tue Sep  5 19:10:39 2023","1500","The main experiment item","True","Flankertask.osexp","C:/Users/juzal/OneDrive/Documents/Masters of Equine Science/Advanced Quantitative Methods and Experiment Design","False","mono","False","18","no","white","no","yes","768","legacy","73","73","C:/Users/juzal/OneDrive/Documents/Masters of Equine Science/Advanced Quantitative Methods and Experiment Design/CH-subject-2.csv","legacy","Melodramatic Milgram","4.0.5","0","s","NA","h","s","NA","NA","1188.0","NA","39738","1188","NA","NA","2","legacy","1024","2","48000","-16","experiment","SSSSS","2","even","41410","NA","NA","NA","164660","165715","144355","1670","NA","165716","1672","165817","167006","NA","NA","165816","Flanker task","70","39482.0","74","1024"
"94","94","534","534","#3d3846","legacy","legacy","legacy","congruent","1","undefined","1","h","0","0","0","0","74","74","74","0","74","74","0","74","74","0","0","74","Tue Sep  5 19:10:39 2023","1500","The main experiment item","True","Flankertask.osexp","C:/Users/juzal/OneDrive/Documents/Masters of Equine Science/Advanced Quantitative Methods and Experiment Design","False","mono","False","18","no","white","no","yes","768","legacy","74","74","C:/Users/juzal/OneDrive/Documents/Masters of Equine Science/Advanced Quantitative Methods and Experiment Design/CH-subject-2.csv","legacy","Melodramatic Milgram","4.0.5","0","h","NA","h","h","NA","NA","575.0","NA","39738","575","NA","NA","2","legacy","1024","2","48000","-16","experiment","HHHHH","2","even","41410","NA","NA","NA","167051","168076","144355","1670","NA","168077","1672","168177","168753","NA","NA","168177","Flanker task","71","40057.0","75","1024"
"94","94","536","536","#3d3846","legacy","legacy","legacy","congruent","1","undefined","1","s","0","0","0","0","75","75","75","0","75","75","0","75","75","0","0","75","Tue Sep  5 19:10:39 2023","1500","The main experiment item","True","Flankertask.osexp","C:/Users/juzal/OneDrive/Documents/Masters of Equine Science/Advanced Quantitative Methods and Experiment Design","False","mono","False","18","no","white","no","yes","768","legacy","75","75","C:/Users/juzal/OneDrive/Documents/Masters of Equine Science/Advanced Quantitative Methods and Experiment Design/CH-subject-2.csv","legacy","Melodramatic Milgram","4.0.5","0","s","NA","h","s","NA","NA","722.0","NA","39738","722","NA","NA","2","legacy","1024","2","48000","-16","experiment","SSSSS","2","even","41410","NA","NA","NA","168798","169825","144355","1670","NA","169826","1672","169926","170648","NA","NA","169926","Flanker task","72","40779.0","76","1024"
"94","94","535","535","#3d3846","legacy","legacy","legacy","congruent","1","undefined","1","h","0","0","0","0","76","76","76","0","76","76","0","76","76","0","0","76","Tue Sep  5 19:10:39 2023","1500","The main experiment item","True","Flankertask.osexp","C:/Users/juzal/OneDrive/Documents/Masters of Equine Science/Advanced Quantitative Methods and Experiment Design","False","mono","False","18","no","white","no","yes","768","legacy","76","76","C:/Users/juzal/OneDrive/Documents/Masters of Equine Science/Advanced Quantitative Methods and Experiment Design/CH-subject-2.csv","legacy","Melodramatic Milgram","4.0.5","0","h","NA","h","h","NA","NA","482.0","NA","39738","482","NA","NA","2","legacy","1024","2","48000","-16","experiment","HHHHH","2","even","41410","NA","NA","NA","170694","171719","144355","1670","NA","171720","1672","171821","172303","NA","NA","171820","Flanker task","73","41261.0","77","1024"
"94","94","534","534","#3d3846","legacy","legacy","legacy","congruent","1","undefined","1","s","0","0","0","0","77","77","77","0","77","77","0","77","77","0","0","77","Tue Sep  5 19:10:39 2023","1500","The main experiment item","True","Flankertask.osexp","C:/Users/juzal/OneDrive/Documents/Masters of Equine Science/Advanced Quantitative Methods and Experiment Design","False","mono","False","18","no","white","no","yes","768","legacy","77","77","C:/Users/juzal/OneDrive/Documents/Masters of Equine Science/Advanced Quantitative Methods and Experiment Design/CH-subject-2.csv","legacy","Melodramatic Milgram","4.0.5","0","s","NA","h","s","NA","NA","464.0","NA","39738","464","NA","NA","2","legacy","1024","2","48000","-16","experiment","SSSSS","2","even","41410","NA","NA","NA","172349","173372","144355","1670","NA","173373","1672","173474","173938","NA","NA","173473","Flanker task","74","41725.0","78","1024"
"94","94","533","533","#3d3846","legacy","legacy","legacy","congruent","1","undefined","1","h","0","0","0","0","78","78","78","0","78","78","0","78","78","0","0","78","Tue Sep  5 19:10:39 2023","1500","The main experiment item","True","Flankertask.osexp","C:/Users/juzal/OneDrive/Documents/Masters of Equine Science/Advanced Quantitative Methods and Experiment Design","False","mono","False","18","no","white","no","yes","768","legacy","78","78","C:/Users/juzal/OneDrive/Documents/Masters of Equine Science/Advanced Quantitative Methods and Experiment Design/CH-subject-2.csv","legacy","Melodramatic Milgram","4.0.5","0","h","NA","h","h","NA","NA","458.0","NA","39738","458","NA","NA","2","legacy","1024","2","48000","-16","experiment","HHHHH","2","even","41410","NA","NA","NA","173988","175014","144355","1670","NA","175015","1672","175115","175574","NA","NA","175115","Flanker task","75","42183.0","79","1024"
"93","93","533","533","#3d3846","legacy","legacy","legacy","incongruent","0","undefined","0","h","0","0","0","0","79","79","79","0","79","79","0","79","79","0","0","79","Tue Sep  5 19:10:39 2023","1500","The main experiment item","True","Flankertask.osexp","C:/Users/juzal/OneDrive/Documents/Masters of Equine Science/Advanced Quantitative Methods and Experiment Design","False","mono","False","18","no","white","no","yes","768","legacy","79","79","C:/Users/juzal/OneDrive/Documents/Masters of Equine Science/Advanced Quantitative Methods and Experiment Design/CH-subject-2.csv","legacy","Melodramatic Milgram","4.0.5","0","s","NA","h","s","NA","NA","490.0","NA","39738","490","NA","NA","2","legacy","1024","2","48000","-16","experiment","SSHSS","2","even","41410","NA","NA","NA","175623","176647","144355","1670","NA","176648","1672","176749","177240","NA","NA","176749","Flanker task","75","42673.0","80","1024"
"93","93","534","534","#3d3846","legacy","legacy","legacy","incongruent","1","undefined","1","s","0","0","0","0","80","80","80","0","80","80","0","80","80","0","0","80","Tue Sep  5 19:10:39 2023","600","The main experiment item","True","Flankertask.osexp","C:/Users/juzal/OneDrive/Documents/Masters of Equine Science/Advanced Quantitative Methods and Experiment Design","False","mono","False","18","no","white","no","yes","768","legacy","0","79","C:/Users/juzal/OneDrive/Documents/Masters of Equine Science/Advanced Quantitative Methods and Experiment Design/CH-subject-2.csv","legacy","Melodramatic Milgram","4.0.5","0","s","NA","h","s","NA","h","601.0","NA","39738","601","NA","24743","2","legacy","1024","2","48000","-16","experiment","HHSHH","2","even","41410","203533","NA","NA","177789","203571","177289","1670","NA","203571","1672","203672","204273","NA","178790","203672","Flanker task","76","43274.0","81","1024"
"93","93","532","532","#3d3846","legacy","legacy","legacy","incongruent","1","undefined","1","s","0","0","0","0","81","81","81","0","81","81","0","81","81","0","0","81","Tue Sep  5 19:10:39 2023","600","The main experiment item","True","Flankertask.osexp","C:/Users/juzal/OneDrive/Documents/Masters of Equine Science/Advanced Quantitative Methods and Experiment Design","False","mono","False","18","no","white","no","yes","768","legacy","1","79","C:/Users/juzal/OneDrive/Documents/Masters of Equine Science/Advanced Quantitative Methods and Experiment Design/CH-subject-2.csv","legacy","Melodramatic Milgram","4.0.5","0","s","NA","h","s","NA","h","419.0","NA","39738","419","NA","24743","2","legacy","1024","2","48000","-16","experiment","HHSHH","2","even","41410","203533","NA","NA","204798","205822","177289","1670","204298","205823","1672","205923","206342","NA","178790","205923","Flanker task","77","43693.0","82","1024"
"93","93","531","531","#3d3846","legacy","legacy","legacy","congruent","1","undefined","1","h","0","0","0","0","82","82","82","0","82","82","0","82","82","0","0","82","Tue Sep  5 19:10:39 2023","600","The main experiment item","True","Flankertask.osexp","C:/Users/juzal/OneDrive/Documents/Masters of Equine Science/Advanced Quantitative Methods and Experiment Design","False","mono","False","18","no","white","no","yes","768","legacy","2","79","C:/Users/juzal/OneDrive/Documents/Masters of Equine Science/Advanced Quantitative Methods and Experiment Design/CH-subject-2.csv","legacy","Melodramatic Milgram","4.0.5","0","h","NA","h","h","NA","h","422.0","NA","39738","422","NA","24743","2","legacy","1024","2","48000","-16","experiment","HHHHH","2","even","41410","203533","NA","NA","206346","207369","177289","1670","204298","207370","1672","207471","207894","NA","178790","207470","Flanker task","78","44115.0","83","1024"
"92","92","529","529","#3d3846","legacy","legacy","legacy","incongruent","0","undefined","0","s","0","0","0","0","83","83","83","0","83","83","0","83","83","0","0","83","Tue Sep  5 19:10:39 2023","600","The main experiment item","True","Flankertask.osexp","C:/Users/juzal/OneDrive/Documents/Masters of Equine Science/Advanced Quantitative Methods and Experiment Design","False","mono","False","18","no","white","no","yes","768","legacy","3","79","C:/Users/juzal/OneDrive/Documents/Masters of Equine Science/Advanced Quantitative Methods and Experiment Design/CH-subject-2.csv","legacy","Melodramatic Milgram","4.0.5","0","h","NA","h","h","NA","h","388.0","NA","39738","388","NA","24743","2","legacy","1024","2","48000","-16","experiment","HHSHH","2","even","41410","203533","NA","NA","207898","208921","177289","1670","204298","208922","1672","209022","209411","NA","178790","209022","Flanker task","78","44503.0","84","1024"
"92","92","529","529","#3d3846","legacy","legacy","legacy","incongruent","1","undefined","1","h","0","0","0","0","84","84","84","0","84","84","0","84","84","0","0","84","Tue Sep  5 19:10:39 2023","600","The main experiment item","True","Flankertask.osexp","C:/Users/juzal/OneDrive/Documents/Masters of Equine Science/Advanced Quantitative Methods and Experiment Design","False","mono","False","18","no","white","no","yes","768","legacy","4","79","C:/Users/juzal/OneDrive/Documents/Masters of Equine Science/Advanced Quantitative Methods and Experiment Design/CH-subject-2.csv","legacy","Melodramatic Milgram","4.0.5","0","h","NA","h","h","NA","h","527.0","NA","39738","527","NA","24743","2","legacy","1024","2","48000","-16","experiment","SSHSS","2","even","41410","203533","NA","NA","209950","210976","209450","1670","204298","210977","1672","211078","211606","NA","178790","211077","Flanker task","79","45030.0","85","1024"
"93","93","528","528","#3d3846","legacy","legacy","legacy","congruent","1","undefined","1","s","0","0","0","0","85","85","85","0","85","85","0","85","85","0","0","85","Tue Sep  5 19:10:39 2023","600","The main experiment item","True","Flankertask.osexp","C:/Users/juzal/OneDrive/Documents/Masters of Equine Science/Advanced Quantitative Methods and Experiment Design","False","mono","False","18","no","white","no","yes","768","legacy","5","79","C:/Users/juzal/OneDrive/Documents/Masters of Equine Science/Advanced Quantitative Methods and Experiment Design/CH-subject-2.csv","legacy","Melodramatic Milgram","4.0.5","0","s","NA","h","s","NA","h","392.0","NA","39738","392","NA","24743","2","legacy","1024","2","48000","-16","experiment","SSSSS","2","even","41410","203533","NA","NA","211631","212659","209450","1670","204298","212660","1672","212761","213153","NA","178790","212760","Flanker task","80","45422.0","86","1024"
"93","93","526","526","#3d3846","legacy","legacy","legacy","incongruent","1","undefined","1","s","0","0","0","0","86","86","86","0","86","86","0","86","86","0","0","86","Tue Sep  5 19:10:39 2023","600","The main experiment item","True","Flankertask.osexp","C:/Users/juzal/OneDrive/Documents/Masters of Equine Science/Advanced Quantitative Methods and Experiment Design","False","mono","False","18","no","white","no","yes","768","legacy","6","79","C:/Users/juzal/OneDrive/Documents/Masters of Equine Science/Advanced Quantitative Methods and Experiment Design/CH-subject-2.csv","legacy","Melodramatic Milgram","4.0.5","0","s","NA","h","s","NA","h","411.0","NA","39738","411","NA","24743","2","legacy","1024","2","48000","-16","experiment","HHSHH","2","even","41410","203533","NA","NA","213184","214207","209450","1670","204298","214208","1672","214308","214720","NA","178790","214308","Flanker task","81","45833.0","87","1024"
"93","93","525","525","#3d3846","legacy","legacy","legacy","congruent","1","undefined","1","h","0","0","0","0","87","87","87","0","87","87","0","87","87","0","0","87","Tue Sep  5 19:10:39 2023","600","The main experiment item","True","Flankertask.osexp","C:/Users/juzal/OneDrive/Documents/Masters of Equine Science/Advanced Quantitative Methods and Experiment Design","False","mono","False","18","no","white","no","yes","768","legacy","7","79","C:/Users/juzal/OneDrive/Documents/Masters of Equine Science/Advanced Quantitative Methods and Experiment Design/CH-subject-2.csv","legacy","Melodramatic Milgram","4.0.5","0","h","NA","h","h","NA","h","425.0","NA","39738","425","NA","24743","2","legacy","1024","2","48000","-16","experiment","HHHHH","2","even","41410","203533","NA","NA","214765","215789","209450","1670","204298","215790","1672","215890","216316","NA","178790","215890","Flanker task","82","46258.0","88","1024"
"93","93","524","524","#3d3846","legacy","legacy","legacy","congruent","1","undefined","1","h","0","0","0","0","88","88","88","0","88","88","0","88","88","0","0","88","Tue Sep  5 19:10:39 2023","600","The main experiment item","True","Flankertask.osexp","C:/Users/juzal/OneDrive/Documents/Masters of Equine Science/Advanced Quantitative Methods and Experiment Design","False","mono","False","18","no","white","no","yes","768","legacy","8","79","C:/Users/juzal/OneDrive/Documents/Masters of Equine Science/Advanced Quantitative Methods and Experiment Design/CH-subject-2.csv","legacy","Melodramatic Milgram","4.0.5","0","h","NA","h","h","NA","h","389.0","NA","39738","389","NA","24743","2","legacy","1024","2","48000","-16","experiment","HHHHH","2","even","41410","203533","NA","NA","216320","217348","209450","1670","204298","217349","1672","217450","217840","NA","178790","217449","Flanker task","83","46647.0","89","1024"
"93","93","522","522","#3d3846","legacy","legacy","legacy","congruent","1","undefined","1","h","0","0","0","0","89","89","89","0","89","89","0","89","89","0","0","89","Tue Sep  5 19:10:39 2023","600","The main experiment item","True","Flankertask.osexp","C:/Users/juzal/OneDrive/Documents/Masters of Equine Science/Advanced Quantitative Methods and Experiment Design","False","mono","False","18","no","white","no","yes","768","legacy","9","79","C:/Users/juzal/OneDrive/Documents/Masters of Equine Science/Advanced Quantitative Methods and Experiment Design/CH-subject-2.csv","legacy","Melodramatic Milgram","4.0.5","0","h","NA","h","h","NA","h","386.0","NA","39738","386","NA","24743","2","legacy","1024","2","48000","-16","experiment","HHHHH","2","even","41410","203533","NA","NA","217887","218910","209450","1670","204298","218911","1672","219012","219398","NA","178790","219011","Flanker task","84","47033.0","90","1024"
"93","93","520","520","#3d3846","legacy","legacy","legacy","congruent","1","undefined","1","s","0","0","0","0","90","90","90","0","90","90","0","90","90","0","0","90","Tue Sep  5 19:10:39 2023","600","The main experiment item","True","Flankertask.osexp","C:/Users/juzal/OneDrive/Documents/Masters of Equine Science/Advanced Quantitative Methods and Experiment Design","False","mono","False","18","no","white","no","yes","768","legacy","10","79","C:/Users/juzal/OneDrive/Documents/Masters of Equine Science/Advanced Quantitative Methods and Experiment Design/CH-subject-2.csv","legacy","Melodramatic Milgram","4.0.5","0","s","NA","h","s","NA","h","338.0","NA","39738","338","NA","24743","2","legacy","1024","2","48000","-16","experiment","SSSSS","2","even","41410","203533","NA","NA","219402","220426","209450","1670","204298","220427","1672","220528","220867","NA","178790","220527","Flanker task","85","47371.0","91","1024"
"93","93","520","520","#3d3846","legacy","legacy","legacy","incongruent","1","undefined","1","h","0","0","0","0","91","91","91","0","91","91","0","91","91","0","0","91","Tue Sep  5 19:10:39 2023","600","The main experiment item","True","Flankertask.osexp","C:/Users/juzal/OneDrive/Documents/Masters of Equine Science/Advanced Quantitative Methods and Experiment Design","False","mono","False","18","no","white","no","yes","768","legacy","11","79","C:/Users/juzal/OneDrive/Documents/Masters of Equine Science/Advanced Quantitative Methods and Experiment Design/CH-subject-2.csv","legacy","Melodramatic Milgram","4.0.5","0","h","NA","h","h","NA","h","514.0","NA","39738","514","NA","24743","2","legacy","1024","2","48000","-16","experiment","SSHSS","2","even","41410","203533","NA","NA","220909","221933","209450","1670","204298","221934","1672","222034","222549","NA","178790","222034","Flanker task","86","47885.0","92","1024"
"92","92","519","519","#3d3846","legacy","legacy","legacy","incongruent","0","undefined","0","h","0","0","0","0","92","92","92","0","92","92","0","92","92","0","0","92","Tue Sep  5 19:10:39 2023","600","The main experiment item","True","Flankertask.osexp","C:/Users/juzal/OneDrive/Documents/Masters of Equine Science/Advanced Quantitative Methods and Experiment Design","False","mono","False","18","no","white","no","yes","768","legacy","12","79","C:/Users/juzal/OneDrive/Documents/Masters of Equine Science/Advanced Quantitative Methods and Experiment Design/CH-subject-2.csv","legacy","Melodramatic Milgram","4.0.5","0","s","NA","h","s","NA","h","457.0","NA","39738","457","NA","24743","2","legacy","1024","2","48000","-16","experiment","SSHSS","2","even","41410","203533","NA","NA","222600","223623","209450","1670","204298","223624","1672","223725","224183","NA","178790","223724","Flanker task","86","48342.0","93","1024"
"92","92","519","519","#3d3846","legacy","legacy","legacy","congruent","1","undefined","1","s","0","0","0","0","93","93","93","0","93","93","0","93","93","0","0","93","Tue Sep  5 19:10:39 2023","600","The main experiment item","True","Flankertask.osexp","C:/Users/juzal/OneDrive/Documents/Masters of Equine Science/Advanced Quantitative Methods and Experiment Design","False","mono","False","18","no","white","no","yes","768","legacy","13","79","C:/Users/juzal/OneDrive/Documents/Masters of Equine Science/Advanced Quantitative Methods and Experiment Design/CH-subject-2.csv","legacy","Melodramatic Milgram","4.0.5","0","s","NA","h","s","NA","h","487.0","NA","39738","487","NA","24743","2","legacy","1024","2","48000","-16","experiment","SSSSS","2","even","41410","203533","NA","NA","224726","225749","224226","1670","204298","225750","1672","225852","226339","NA","178790","225851","Flanker task","87","48829.0","94","1024"
"92","92","519","519","#3d3846","legacy","legacy","legacy","incongruent","1","undefined","1","s","0","0","0","0","94","94","94","0","94","94","0","94","94","0","0","94","Tue Sep  5 19:10:39 2023","600","The main experiment item","True","Flankertask.osexp","C:/Users/juzal/OneDrive/Documents/Masters of Equine Science/Advanced Quantitative Methods and Experiment Design","False","mono","False","18","no","white","no","yes","768","legacy","14","79","C:/Users/juzal/OneDrive/Documents/Masters of Equine Science/Advanced Quantitative Methods and Experiment Design/CH-subject-2.csv","legacy","Melodramatic Milgram","4.0.5","0","s","NA","h","s","NA","h","493.0","NA","39738","493","NA","24743","2","legacy","1024","2","48000","-16","experiment","HHSHH","2","even","41410","203533","NA","NA","226386","227409","224226","1670","204298","227410","1672","227511","228005","NA","178790","227510","Flanker task","88","49322.0","95","1024"
"92","92","517","517","#3d3846","legacy","legacy","legacy","congruent","1","undefined","1","h","0","0","0","0","95","95","95","0","95","95","0","95","95","0","0","95","Tue Sep  5 19:10:39 2023","600","The main experiment item","True","Flankertask.osexp","C:/Users/juzal/OneDrive/Documents/Masters of Equine Science/Advanced Quantitative Methods and Experiment Design","False","mono","False","18","no","white","no","yes","768","legacy","15","79","C:/Users/juzal/OneDrive/Documents/Masters of Equine Science/Advanced Quantitative Methods and Experiment Design/CH-subject-2.csv","legacy","Melodramatic Milgram","4.0.5","0","h","NA","h","h","NA","h","349.0","NA","39738","349","NA","24743","2","legacy","1024","2","48000","-16","experiment","HHHHH","2","even","41410","203533","NA","NA","228029","229052","224226","1670","204298","229053","1672","229153","229503","NA","178790","229153","Flanker task","89","49671.0","96","1024"
"92","92","515","515","#3d3846","legacy","legacy","legacy","congruent","1","undefined","1","h","0","0","0","0","96","96","96","0","96","96","0","96","96","0","0","96","Tue Sep  5 19:10:39 2023","600","The main experiment item","True","Flankertask.osexp","C:/Users/juzal/OneDrive/Documents/Masters of Equine Science/Advanced Quantitative Methods and Experiment Design","False","mono","False","18","no","white","no","yes","768","legacy","16","79","C:/Users/juzal/OneDrive/Documents/Masters of Equine Science/Advanced Quantitative Methods and Experiment Design/CH-subject-2.csv","legacy","Melodramatic Milgram","4.0.5","0","h","NA","h","h","NA","h","301.0","NA","39738","301","NA","24743","2","legacy","1024","2","48000","-16","experiment","HHHHH","2","even","41410","203533","NA","NA","229555","230579","224226","1670","204298","230580","1672","230680","230982","NA","178790","230680","Flanker task","90","49972.0","97","1024"
"92","92","513","513","#3d3846","legacy","legacy","legacy","incongruent","1","undefined","1","s","0","0","0","0","97","97","97","0","97","97","0","97","97","0","0","97","Tue Sep  5 19:10:39 2023","600","The main experiment item","True","Flankertask.osexp","C:/Users/juzal/OneDrive/Documents/Masters of Equine Science/Advanced Quantitative Methods and Experiment Design","False","mono","False","18","no","white","no","yes","768","legacy","17","79","C:/Users/juzal/OneDrive/Documents/Masters of Equine Science/Advanced Quantitative Methods and Experiment Design/CH-subject-2.csv","legacy","Melodramatic Milgram","4.0.5","0","s","NA","h","s","NA","h","360.0","NA","39738","360","NA","24743","2","legacy","1024","2","48000","-16","experiment","HHSHH","2","even","41410","203533","NA","NA","231032","232062","224226","1670","204298","232063","1672","232163","232526","NA","178790","232163","Flanker task","91","50332.0","98","1024"
"92","92","512","512","#3d3846","legacy","legacy","legacy","congruent","1","undefined","1","s","0","0","0","0","98","98","98","0","98","98","0","98","98","0","0","98","Tue Sep  5 19:10:39 2023","600","The main experiment item","True","Flankertask.osexp","C:/Users/juzal/OneDrive/Documents/Masters of Equine Science/Advanced Quantitative Methods and Experiment Design","False","mono","False","18","no","white","no","yes","768","legacy","18","79","C:/Users/juzal/OneDrive/Documents/Masters of Equine Science/Advanced Quantitative Methods and Experiment Design/CH-subject-2.csv","legacy","Melodramatic Milgram","4.0.5","0","s","NA","h","s","NA","h","393.0","NA","39738","393","NA","24743","2","legacy","1024","2","48000","-16","experiment","SSSSS","2","even","41410","203533","NA","NA","232530","233554","224226","1670","204298","233555","1672","233657","234051","NA","178790","233656","Flanker task","92","50725.0","99","1024"
"93","93","511","511","#3d3846","legacy","legacy","legacy","congruent","1","undefined","1","s","0","0","0","0","99","99","99","0","99","99","0","99","99","0","0","99","Tue Sep  5 19:10:39 2023","600","The main experiment item","True","Flankertask.osexp","C:/Users/juzal/OneDrive/Documents/Masters of Equine Science/Advanced Quantitative Methods and Experiment Design","False","mono","False","18","no","white","no","yes","768","legacy","19","79","C:/Users/juzal/OneDrive/Documents/Masters of Equine Science/Advanced Quantitative Methods and Experiment Design/CH-subject-2.csv","legacy","Melodramatic Milgram","4.0.5","0","s","NA","h","s","NA","h","435.0","NA","39738","435","NA","24743","2","legacy","1024","2","48000","-16","experiment","SSSSS","2","even","41410","203533","NA","NA","234055","235079","224226","1670","204298","235080","1672","235180","235616","NA","178790","235180","Flanker task","93","51160.0","100","1024"
"93","93","509","509","#3d3846","legacy","legacy","legacy","incongruent","1","undefined","1","s","0","0","0","0","100","100","100","0","100","100","0","100","100","0","0","100","Tue Sep  5 19:10:39 2023","600","The main experiment item","True","Flankertask.osexp","C:/Users/juzal/OneDrive/Documents/Masters of Equine Science/Advanced Quantitative Methods and Experiment Design","False","mono","False","18","no","white","no","yes","768","legacy","20","79","C:/Users/juzal/OneDrive/Documents/Masters of Equine Science/Advanced Quantitative Methods and Experiment Design/CH-subject-2.csv","legacy","Melodramatic Milgram","4.0.5","0","s","NA","h","s","NA","h","328.0","NA","39738","328","NA","24743","2","legacy","1024","2","48000","-16","experiment","HHSHH","2","even","41410","203533","NA","NA","235659","236683","224226","1670","204298","236684","1672","236785","237114","NA","178790","236784","Flanker task","94","51488.0","101","1024"
"93","93","509","509","#3d3846","legacy","legacy","legacy","congruent","1","undefined","1","s","0","0","0","0","101","101","101","0","101","101","0","101","101","0","0","101","Tue Sep  5 19:10:39 2023","600","The main experiment item","True","Flankertask.osexp","C:/Users/juzal/OneDrive/Documents/Masters of Equine Science/Advanced Quantitative Methods and Experiment Design","False","mono","False","18","no","white","no","yes","768","legacy","21","79","C:/Users/juzal/OneDrive/Documents/Masters of Equine Science/Advanced Quantitative Methods and Experiment Design/CH-subject-2.csv","legacy","Melodramatic Milgram","4.0.5","0","s","NA","h","s","NA","h","434.0","NA","39738","434","NA","24743","2","legacy","1024","2","48000","-16","experiment","SSSSS","2","even","41410","203533","NA","NA","237166","238193","224226","1670","204298","238194","1672","238295","238729","NA","178790","238295","Flanker task","95","51922.0","102","1024"
"93","93","507","507","#3d3846","legacy","legacy","legacy","incongruent","1","undefined","1","h","0","0","0","0","102","102","102","0","102","102","0","102","102","0","0","102","Tue Sep  5 19:10:39 2023","600","The main experiment item","True","Flankertask.osexp","C:/Users/juzal/OneDrive/Documents/Masters of Equine Science/Advanced Quantitative Methods and Experiment Design","False","mono","False","18","no","white","no","yes","768","legacy","22","79","C:/Users/juzal/OneDrive/Documents/Masters of Equine Science/Advanced Quantitative Methods and Experiment Design/CH-subject-2.csv","legacy","Melodramatic Milgram","4.0.5","0","h","NA","h","h","NA","h","341.0","NA","39738","341","NA","24743","2","legacy","1024","2","48000","-16","experiment","SSHSS","2","even","41410","203533","NA","NA","238733","239759","224226","1670","204298","239760","1672","239861","240203","NA","178790","239860","Flanker task","96","52263.0","103","1024"
"93","93","506","506","#3d3846","legacy","legacy","legacy","congruent","1","undefined","1","s","0","0","0","0","103","103","103","0","103","103","0","103","103","0","0","103","Tue Sep  5 19:10:39 2023","600","The main experiment item","True","Flankertask.osexp","C:/Users/juzal/OneDrive/Documents/Masters of Equine Science/Advanced Quantitative Methods and Experiment Design","False","mono","False","18","no","white","no","yes","768","legacy","23","79","C:/Users/juzal/OneDrive/Documents/Masters of Equine Science/Advanced Quantitative Methods and Experiment Design/CH-subject-2.csv","legacy","Melodramatic Milgram","4.0.5","0","s","NA","h","s","NA","h","439.0","NA","39738","439","NA","24743","2","legacy","1024","2","48000","-16","experiment","SSSSS","2","even","41410","203533","NA","NA","240207","241232","224226","1670","204298","241233","1672","241333","241773","NA","178790","241333","Flanker task","97","52702.0","104","1024"
"93","93","505","505","#3d3846","legacy","legacy","legacy","incongruent","1","undefined","1","h","0","0","0","0","104","104","104","0","104","104","0","104","104","0","0","104","Tue Sep  5 19:10:39 2023","600","The main experiment item","True","Flankertask.osexp","C:/Users/juzal/OneDrive/Documents/Masters of Equine Science/Advanced Quantitative Methods and Experiment Design","False","mono","False","18","no","white","no","yes","768","legacy","24","79","C:/Users/juzal/OneDrive/Documents/Masters of Equine Science/Advanced Quantitative Methods and Experiment Design/CH-subject-2.csv","legacy","Melodramatic Milgram","4.0.5","0","h","NA","h","h","NA","h","400.0","NA","39738","400","NA","24743","2","legacy","1024","2","48000","-16","experiment","SSHSS","2","even","41410","203533","NA","NA","241812","242836","224226","1670","204298","242837","1672","242937","243338","NA","178790","242937","Flanker task","98","53102.0","105","1024"
"93","93","505","505","#3d3846","legacy","legacy","legacy","incongruent","1","undefined","1","s","0","0","0","0","105","105","105","0","105","105","0","105","105","0","0","105","Tue Sep  5 19:10:39 2023","600","The main experiment item","True","Flankertask.osexp","C:/Users/juzal/OneDrive/Documents/Masters of Equine Science/Advanced Quantitative Methods and Experiment Design","False","mono","False","18","no","white","no","yes","768","legacy","25","79","C:/Users/juzal/OneDrive/Documents/Masters of Equine Science/Advanced Quantitative Methods and Experiment Design/CH-subject-2.csv","legacy","Melodramatic Milgram","4.0.5","0","s","NA","h","s","NA","h","507.0","NA","39738","507","NA","24743","2","legacy","1024","2","48000","-16","experiment","HHSHH","2","even","41410","203533","NA","NA","243379","244403","224226","1670","204298","244404","1672","244505","245013","NA","178790","244504","Flanker task","99","53609.0","106","1024"
"93","93","504","504","#3d3846","legacy","legacy","legacy","congruent","1","undefined","1","h","0","0","0","0","106","106","106","0","106","106","0","106","106","0","0","106","Tue Sep  5 19:10:39 2023","600","The main experiment item","True","Flankertask.osexp","C:/Users/juzal/OneDrive/Documents/Masters of Equine Science/Advanced Quantitative Methods and Experiment Design","False","mono","False","18","no","white","no","yes","768","legacy","26","79","C:/Users/juzal/OneDrive/Documents/Masters of Equine Science/Advanced Quantitative Methods and Experiment Design/CH-subject-2.csv","legacy","Melodramatic Milgram","4.0.5","0","h","NA","h","h","NA","h","402.0","NA","39738","402","NA","24743","2","legacy","1024","2","48000","-16","experiment","HHHHH","2","even","41410","203533","NA","NA","245060","246089","224226","1670","204298","246090","1672","246191","246593","NA","178790","246190","Flanker task","100","54011.0","107","1024"
