"acc","accuracy","average_response_time","avg_rt","background","canvas_backend","clock_backend","color_backend","compensation","condition","coordinates","correct","correct_Instructions1","correct_keyboard_response","correct_response","count_Block1","count_Block2","count_Block3","count_ISI","count_Instructions1","count_Sequence","count_errorFeedback","count_experiment","count_faster","count_fixation","count_instructions2","count_keyboard_response","count_logger","count_stimulus","datetime","deadline","description","disable_garbage_collection","experiment_path","font_bold","font_family","font_italic","font_size","font_underline","foreground","form_clicks","fullscreen","height","keyboard_backend","live_row","live_row_Block1","logfile","mouse_backend","opensesame_codename","opensesame_version","repeat_cycle","response","response_Instructions1","response_instructions2","response_keyboard_response","response_time","response_time_Instructions1","response_time_instructions2","response_time_keyboard_response","round_decimals","sampler_backend","sound_buf_size","sound_channels","sound_freq","sound_sample_size","start","stimulus","subject_nr","subject_parity","time_Block1","time_Block2","time_Block3","time_ISI","time_Instructions1","time_Sequence","time_errorFeedback","time_experiment","time_faster","time_fixation","time_instructions2","time_keyboard_response","time_logger","time_stimulus","title","total_correct","total_response_time","total_responses","uniform_coordinates","width"
"100","100","480","480","black","legacy","legacy","legacy","0","congruent","uniform","1","undefined","1","s","0","0","0","0","0","0","0","0","0","0","0","0","0","0","Sat Sep 24 14:03:45 2022","1500","The main experiment item","yes","/Users/andrea/Desktop/Adv. Quant Methods/FlankerTest_Savkovic.osexp","no","mono","no","18","no","white","no","yes","768","legacy","0","0","/Users/andrea/Desktop/Adv. Quant Methods/Lab 2.2/AS-subject-4.csv","legacy","Lentiform Loewenfeld","3.3.12","0","S","S","NA","S","480","3298","NA","480","2","legacy","1024","2","48000","-16","experiment","SSSSS","4","even","7011","NA","NA","NA","3707","7046","NA","3699","NA","7047","NA","7153","7633","7153","Flanker Test","1","480","1","yes","1024"
"100","100","482.5","482.5","black","legacy","legacy","legacy","0","congruent","uniform","1","undefined","1","h","0","0","0","1","0","1","1","0","1","1","0","1","1","1","Sat Sep 24 14:03:45 2022","1500","The main experiment item","yes","/Users/andrea/Desktop/Adv. Quant Methods/FlankerTest_Savkovic.osexp","no","mono","no","18","no","white","no","yes","768","legacy","1","1","/Users/andrea/Desktop/Adv. Quant Methods/Lab 2.2/AS-subject-4.csv","legacy","Lentiform Loewenfeld","3.3.12","0","H","S","NA","H","485","3298","NA","485","2","legacy","1024","2","48000","-16","experiment","HHHHH","4","even","7011","NA","NA","7638","3707","8694","NA","3699","NA","8695","NA","8801","9286","8801","Flanker Test","2","965","2","yes","1024"
"100","100","450","450","black","legacy","legacy","legacy","0","congruent","uniform","1","undefined","1","h","0","0","0","2","0","2","2","0","2","2","0","2","2","2","Sat Sep 24 14:03:45 2022","1500","The main experiment item","yes","/Users/andrea/Desktop/Adv. Quant Methods/FlankerTest_Savkovic.osexp","no","mono","no","18","no","white","no","yes","768","legacy","2","2","/Users/andrea/Desktop/Adv. Quant Methods/Lab 2.2/AS-subject-4.csv","legacy","Lentiform Loewenfeld","3.3.12","0","H","S","NA","H","385","3298","NA","385","2","legacy","1024","2","48000","-16","experiment","HHHHH","4","even","7011","NA","NA","9289","3707","10337","NA","3699","NA","10339","NA","10443","10828","10443","Flanker Test","3","1350","3","yes","1024"
"100","100","494","494","black","legacy","legacy","legacy","0","incongruent","uniform","1","undefined","1","s","0","0","0","3","0","3","3","0","3","3","0","3","3","3","Sat Sep 24 14:03:45 2022","1500","The main experiment item","yes","/Users/andrea/Desktop/Adv. Quant Methods/FlankerTest_Savkovic.osexp","no","mono","no","18","no","white","no","yes","768","legacy","3","3","/Users/andrea/Desktop/Adv. Quant Methods/Lab 2.2/AS-subject-4.csv","legacy","Lentiform Loewenfeld","3.3.12","0","S","S","NA","S","626","3298","NA","626","2","legacy","1024","2","48000","-16","experiment","HHSHH","4","even","7011","NA","NA","10831","3707","11879","NA","3699","NA","11881","NA","11987","12614","11986","Flanker Test","4","1976","4","yes","1024"
"100","100","495.4","495.4","black","legacy","legacy","legacy","0","congruent","uniform","1","undefined","1","h","0","0","0","4","0","4","4","0","4","4","0","4","4","4","Sat Sep 24 14:03:45 2022","1500","The main experiment item","yes","/Users/andrea/Desktop/Adv. Quant Methods/FlankerTest_Savkovic.osexp","no","mono","no","18","no","white","no","yes","768","legacy","4","4","/Users/andrea/Desktop/Adv. Quant Methods/Lab 2.2/AS-subject-4.csv","legacy","Lentiform Loewenfeld","3.3.12","0","H","S","NA","H","501","3298","NA","501","2","legacy","1024","2","48000","-16","experiment","HHHHH","4","even","7011","NA","NA","12617","3707","13671","NA","3699","NA","13673","NA","13777","14279","13777","Flanker Test","5","2477","5","yes","1024"
"100","100","482.3333333333333","482.3333333333333","black","legacy","legacy","legacy","0","congruent","uniform","1","undefined","1","h","0","0","0","5","0","5","5","0","5","5","0","5","5","5","Sat Sep 24 14:03:45 2022","1500","The main experiment item","yes","/Users/andrea/Desktop/Adv. Quant Methods/FlankerTest_Savkovic.osexp","no","mono","no","18","no","white","no","yes","768","legacy","5","5","/Users/andrea/Desktop/Adv. Quant Methods/Lab 2.2/AS-subject-4.csv","legacy","Lentiform Loewenfeld","3.3.12","0","H","S","NA","H","417","3298","NA","417","2","legacy","1024","2","48000","-16","experiment","HHHHH","4","even","7011","NA","NA","14282","3707","15329","NA","3699","NA","15331","NA","15436","15854","15435","Flanker Test","6","2894","6","yes","1024"
"100","100","471.14285714285717","471.14285714285717","black","legacy","legacy","legacy","0","congruent","uniform","1","undefined","1","s","0","0","0","6","0","6","6","0","6","6","0","6","6","6","Sat Sep 24 14:03:45 2022","1500","The main experiment item","yes","/Users/andrea/Desktop/Adv. Quant Methods/FlankerTest_Savkovic.osexp","no","mono","no","18","no","white","no","yes","768","legacy","6","6","/Users/andrea/Desktop/Adv. Quant Methods/Lab 2.2/AS-subject-4.csv","legacy","Lentiform Loewenfeld","3.3.12","0","S","S","NA","S","404","3298","NA","404","2","legacy","1024","2","48000","-16","experiment","SSSSS","4","even","7011","NA","NA","15857","3707","16904","NA","3699","NA","16905","NA","17010","17414","17010","Flanker Test","7","3298","7","yes","1024"
"100","100","458.875","458.875","black","legacy","legacy","legacy","0","congruent","uniform","1","undefined","1","s","0","0","0","7","0","7","7","0","7","7","0","7","7","7","Sat Sep 24 14:03:45 2022","1500","The main experiment item","yes","/Users/andrea/Desktop/Adv. Quant Methods/FlankerTest_Savkovic.osexp","no","mono","no","18","no","white","no","yes","768","legacy","7","7","/Users/andrea/Desktop/Adv. Quant Methods/Lab 2.2/AS-subject-4.csv","legacy","Lentiform Loewenfeld","3.3.12","0","S","S","NA","S","373","3298","NA","373","2","legacy","1024","2","48000","-16","experiment","SSSSS","4","even","7011","NA","NA","17417","3707","18464","NA","3699","NA","18466","NA","18570","18944","18570","Flanker Test","8","3671","8","yes","1024"
"100","100","466","466","black","legacy","legacy","legacy","0","incongruent","uniform","1","undefined","1","h","0","0","0","8","0","8","8","0","8","8","0","8","8","8","Sat Sep 24 14:03:45 2022","1500","The main experiment item","yes","/Users/andrea/Desktop/Adv. Quant Methods/FlankerTest_Savkovic.osexp","no","mono","no","18","no","white","no","yes","768","legacy","8","8","/Users/andrea/Desktop/Adv. Quant Methods/Lab 2.2/AS-subject-4.csv","legacy","Lentiform Loewenfeld","3.3.12","0","H","S","NA","H","523","3298","NA","523","2","legacy","1024","2","48000","-16","experiment","SSHSS","4","even","7011","NA","NA","18947","3707","19994","NA","3699","NA","19996","NA","20100","20624","20100","Flanker Test","9","4194","9","yes","1024"
"100","100","452.2","452.2","black","legacy","legacy","legacy","0","congruent","uniform","1","undefined","1","s","0","0","0","9","0","9","9","0","9","9","0","9","9","9","Sat Sep 24 14:03:45 2022","1500","The main experiment item","yes","/Users/andrea/Desktop/Adv. Quant Methods/FlankerTest_Savkovic.osexp","no","mono","no","18","no","white","no","yes","768","legacy","9","9","/Users/andrea/Desktop/Adv. Quant Methods/Lab 2.2/AS-subject-4.csv","legacy","Lentiform Loewenfeld","3.3.12","0","S","S","NA","S","328","3298","NA","328","2","legacy","1024","2","48000","-16","experiment","SSSSS","4","even","7011","NA","NA","20627","3707","21674","NA","3699","NA","21676","NA","21781","22110","21780","Flanker Test","10","4522","10","yes","1024"
"100","100","454.3636363636364","454.3636363636364","black","legacy","legacy","legacy","0","incongruent","uniform","1","undefined","1","h","0","0","0","10","0","10","10","0","10","10","0","10","10","10","Sat Sep 24 14:03:45 2022","1500","The main experiment item","yes","/Users/andrea/Desktop/Adv. Quant Methods/FlankerTest_Savkovic.osexp","no","mono","no","18","no","white","no","yes","768","legacy","10","10","/Users/andrea/Desktop/Adv. Quant Methods/Lab 2.2/AS-subject-4.csv","legacy","Lentiform Loewenfeld","3.3.12","0","H","S","NA","H","476","3298","NA","476","2","legacy","1024","2","48000","-16","experiment","SSHSS","4","even","7011","NA","NA","22113","3707","23161","NA","3699","NA","23162","NA","23268","23744","23268","Flanker Test","11","4998","11","yes","1024"
"100","100","447.5","447.5","black","legacy","legacy","legacy","0","congruent","uniform","1","undefined","1","s","0","0","0","11","0","11","11","0","11","11","0","11","11","11","Sat Sep 24 14:03:45 2022","1500","The main experiment item","yes","/Users/andrea/Desktop/Adv. Quant Methods/FlankerTest_Savkovic.osexp","no","mono","no","18","no","white","no","yes","768","legacy","11","11","/Users/andrea/Desktop/Adv. Quant Methods/Lab 2.2/AS-subject-4.csv","legacy","Lentiform Loewenfeld","3.3.12","0","S","S","NA","S","372","3298","NA","372","2","legacy","1024","2","48000","-16","experiment","SSSSS","4","even","7011","NA","NA","23747","3707","24796","NA","3699","NA","24798","NA","24902","25274","24902","Flanker Test","12","5370","12","yes","1024"
"100","100","442.84615384615387","442.84615384615387","black","legacy","legacy","legacy","0","incongruent","uniform","1","undefined","1","h","0","0","0","12","0","12","12","0","12","12","0","12","12","12","Sat Sep 24 14:03:45 2022","1500","The main experiment item","yes","/Users/andrea/Desktop/Adv. Quant Methods/FlankerTest_Savkovic.osexp","no","mono","no","18","no","white","no","yes","768","legacy","12","12","/Users/andrea/Desktop/Adv. Quant Methods/Lab 2.2/AS-subject-4.csv","legacy","Lentiform Loewenfeld","3.3.12","0","H","S","NA","H","387","3298","NA","387","2","legacy","1024","2","48000","-16","experiment","SSHSS","4","even","7011","NA","NA","25277","3707","26325","NA","3699","NA","26327","NA","26431","26819","26431","Flanker Test","13","5757","13","yes","1024"
"100","100","436.64285714285717","436.64285714285717","black","legacy","legacy","legacy","0","congruent","uniform","1","undefined","1","h","0","0","0","13","0","13","13","0","13","13","0","13","13","13","Sat Sep 24 14:03:45 2022","1500","The main experiment item","yes","/Users/andrea/Desktop/Adv. Quant Methods/FlankerTest_Savkovic.osexp","no","mono","no","18","no","white","no","yes","768","legacy","13","13","/Users/andrea/Desktop/Adv. Quant Methods/Lab 2.2/AS-subject-4.csv","legacy","Lentiform Loewenfeld","3.3.12","0","H","S","NA","H","356","3298","NA","356","2","legacy","1024","2","48000","-16","experiment","HHHHH","4","even","7011","NA","NA","26822","3707","27870","NA","3699","NA","27872","NA","27977","28334","27976","Flanker Test","14","6113","14","yes","1024"
"100","100","440.4","440.4","black","legacy","legacy","legacy","0","incongruent","uniform","1","undefined","1","h","0","0","0","14","0","14","14","0","14","14","0","14","14","14","Sat Sep 24 14:03:45 2022","1500","The main experiment item","yes","/Users/andrea/Desktop/Adv. Quant Methods/FlankerTest_Savkovic.osexp","no","mono","no","18","no","white","no","yes","768","legacy","14","14","/Users/andrea/Desktop/Adv. Quant Methods/Lab 2.2/AS-subject-4.csv","legacy","Lentiform Loewenfeld","3.3.12","0","H","S","NA","H","493","3298","NA","493","2","legacy","1024","2","48000","-16","experiment","SSHSS","4","even","7011","NA","NA","28337","3707","29385","NA","3699","NA","29386","NA","29491","29985","29491","Flanker Test","15","6606","15","yes","1024"
"100","100","439.9375","439.9375","black","legacy","legacy","legacy","0","congruent","uniform","1","undefined","1","s","0","0","0","15","0","15","15","0","15","15","0","15","15","15","Sat Sep 24 14:03:45 2022","1500","The main experiment item","yes","/Users/andrea/Desktop/Adv. Quant Methods/FlankerTest_Savkovic.osexp","no","mono","no","18","no","white","no","yes","768","legacy","15","15","/Users/andrea/Desktop/Adv. Quant Methods/Lab 2.2/AS-subject-4.csv","legacy","Lentiform Loewenfeld","3.3.12","0","S","S","NA","S","433","3298","NA","433","2","legacy","1024","2","48000","-16","experiment","SSSSS","4","even","7011","NA","NA","29988","3707","31035","NA","3699","NA","31037","NA","31141","31575","31141","Flanker Test","16","7039","16","yes","1024"
"100","100","436.88235294117646","436.88235294117646","black","legacy","legacy","legacy","0","congruent","uniform","1","undefined","1","s","0","0","0","16","0","16","16","0","16","16","0","16","16","16","Sat Sep 24 14:03:45 2022","1500","The main experiment item","yes","/Users/andrea/Desktop/Adv. Quant Methods/FlankerTest_Savkovic.osexp","no","mono","no","18","no","white","no","yes","768","legacy","16","16","/Users/andrea/Desktop/Adv. Quant Methods/Lab 2.2/AS-subject-4.csv","legacy","Lentiform Loewenfeld","3.3.12","0","S","S","NA","S","388","3298","NA","388","2","legacy","1024","2","48000","-16","experiment","SSSSS","4","even","7011","NA","NA","31578","3707","32625","NA","3699","NA","32627","NA","32731","33119","32731","Flanker Test","17","7427","17","yes","1024"
"94.44444444444444","94.44444444444444","431.6666666666667","431.6666666666667","black","legacy","legacy","legacy","0","incongruent","uniform","0","undefined","0","s","0","0","0","17","0","17","17","0","17","17","0","17","17","17","Sat Sep 24 14:03:45 2022","1500","The main experiment item","yes","/Users/andrea/Desktop/Adv. Quant Methods/FlankerTest_Savkovic.osexp","no","mono","no","18","no","white","no","yes","768","legacy","17","17","/Users/andrea/Desktop/Adv. Quant Methods/Lab 2.2/AS-subject-4.csv","legacy","Lentiform Loewenfeld","3.3.12","0","H","S","NA","H","343","3298","NA","343","2","legacy","1024","2","48000","-16","experiment","HHSHH","4","even","7011","NA","NA","33122","3707","34170","NA","3699","NA","34172","NA","34276","34619","34276","Flanker Test","17","7770","18","yes","1024"
"94.73684210526316","94.73684210526316","428.10526315789474","428.10526315789474","black","legacy","legacy","legacy","0","congruent","uniform","1","undefined","1","h","0","0","0","18","0","18","18","0","18","18","0","18","18","18","Sat Sep 24 14:03:45 2022","1500","The main experiment item","yes","/Users/andrea/Desktop/Adv. Quant Methods/FlankerTest_Savkovic.osexp","no","mono","no","18","no","white","no","yes","768","legacy","18","18","/Users/andrea/Desktop/Adv. Quant Methods/Lab 2.2/AS-subject-4.csv","legacy","Lentiform Loewenfeld","3.3.12","0","H","S","NA","H","364","3298","NA","364","2","legacy","1024","2","48000","-16","experiment","HHHHH","4","even","7011","NA","NA","35127","3707","36173","34623","3699","NA","36176","NA","36280","36645","36280","Flanker Test","18","8134","19","yes","1024"
"95","95","430.55","430.55","black","legacy","legacy","legacy","0","incongruent","uniform","1","undefined","1","s","0","0","0","19","0","19","19","0","19","19","0","19","19","19","Sat Sep 24 14:03:45 2022","1500","The main experiment item","yes","/Users/andrea/Desktop/Adv. Quant Methods/FlankerTest_Savkovic.osexp","no","mono","no","18","no","white","no","yes","768","legacy","19","19","/Users/andrea/Desktop/Adv. Quant Methods/Lab 2.2/AS-subject-4.csv","legacy","Lentiform Loewenfeld","3.3.12","0","S","S","NA","S","477","3298","NA","477","2","legacy","1024","2","48000","-16","experiment","HHSHH","4","even","7011","NA","NA","36647","3707","37696","34623","3699","NA","37697","NA","37802","38280","37801","Flanker Test","19","8611","20","yes","1024"
"95.23809523809524","95.23809523809524","429.85714285714283","429.85714285714283","black","legacy","legacy","legacy","0","incongruent","uniform","1","undefined","1","s","0","0","0","20","0","20","20","0","20","20","0","20","20","20","Sat Sep 24 14:03:45 2022","1500","The main experiment item","yes","/Users/andrea/Desktop/Adv. Quant Methods/FlankerTest_Savkovic.osexp","no","mono","no","18","no","white","no","yes","768","legacy","20","20","/Users/andrea/Desktop/Adv. Quant Methods/Lab 2.2/AS-subject-4.csv","legacy","Lentiform Loewenfeld","3.3.12","0","S","S","NA","S","416","3298","NA","416","2","legacy","1024","2","48000","-16","experiment","HHSHH","4","even","7011","NA","NA","38283","3707","39331","34623","3699","NA","39333","NA","39438","39855","39438","Flanker Test","20","9027","21","yes","1024"
"95.45454545454545","95.45454545454545","427.90909090909093","427.90909090909093","black","legacy","legacy","legacy","0","congruent","uniform","1","undefined","1","h","0","0","0","21","0","21","21","0","21","21","0","21","21","21","Sat Sep 24 14:03:45 2022","1500","The main experiment item","yes","/Users/andrea/Desktop/Adv. Quant Methods/FlankerTest_Savkovic.osexp","no","mono","no","18","no","white","no","yes","768","legacy","21","21","/Users/andrea/Desktop/Adv. Quant Methods/Lab 2.2/AS-subject-4.csv","legacy","Lentiform Loewenfeld","3.3.12","0","H","S","NA","H","387","3298","NA","387","2","legacy","1024","2","48000","-16","experiment","HHHHH","4","even","7011","NA","NA","39858","3707","40905","34623","3699","NA","40907","NA","41012","41400","41011","Flanker Test","21","9414","22","yes","1024"
"95.65217391304348","95.65217391304348","427.4347826086956","427.4347826086956","black","legacy","legacy","legacy","0","incongruent","uniform","1","undefined","1","s","0","0","0","22","0","22","22","0","22","22","0","22","22","22","Sat Sep 24 14:03:45 2022","1500","The main experiment item","yes","/Users/andrea/Desktop/Adv. Quant Methods/FlankerTest_Savkovic.osexp","no","mono","no","18","no","white","no","yes","768","legacy","22","22","/Users/andrea/Desktop/Adv. Quant Methods/Lab 2.2/AS-subject-4.csv","legacy","Lentiform Loewenfeld","3.3.12","0","S","S","NA","S","417","3298","NA","417","2","legacy","1024","2","48000","-16","experiment","HHSHH","4","even","7011","NA","NA","41403","3707","42451","34623","3699","NA","42453","NA","42557","42975","42557","Flanker Test","22","9831","23","yes","1024"
"95.83333333333333","95.83333333333333","423.875","423.875","black","legacy","legacy","legacy","0","incongruent","uniform","1","undefined","1","s","0","0","0","23","0","23","23","0","23","23","0","23","23","23","Sat Sep 24 14:03:45 2022","1500","The main experiment item","yes","/Users/andrea/Desktop/Adv. Quant Methods/FlankerTest_Savkovic.osexp","no","mono","no","18","no","white","no","yes","768","legacy","23","23","/Users/andrea/Desktop/Adv. Quant Methods/Lab 2.2/AS-subject-4.csv","legacy","Lentiform Loewenfeld","3.3.12","0","S","S","NA","S","342","3298","NA","342","2","legacy","1024","2","48000","-16","experiment","HHSHH","4","even","7011","NA","NA","42978","3707","44026","34623","3699","NA","44028","NA","44132","44475","44132","Flanker Test","23","10173","24","yes","1024"
"96","96","423.04","423.04","black","legacy","legacy","legacy","0","incongruent","uniform","1","undefined","1","h","0","0","0","24","0","24","24","0","24","24","0","24","24","24","Sat Sep 24 14:03:45 2022","1500","The main experiment item","yes","/Users/andrea/Desktop/Adv. Quant Methods/FlankerTest_Savkovic.osexp","no","mono","no","18","no","white","no","yes","768","legacy","24","24","/Users/andrea/Desktop/Adv. Quant Methods/Lab 2.2/AS-subject-4.csv","legacy","Lentiform Loewenfeld","3.3.12","0","H","S","NA","H","403","3298","NA","403","2","legacy","1024","2","48000","-16","experiment","SSHSS","4","even","7011","NA","NA","44478","3707","45525","34623","3699","NA","45527","NA","45631","46035","45631","Flanker Test","24","10576","25","yes","1024"
"96.15384615384616","96.15384615384616","420.53846153846155","420.53846153846155","black","legacy","legacy","legacy","0","congruent","uniform","1","undefined","1","h","0","0","0","25","0","25","25","0","25","25","0","25","25","25","Sat Sep 24 14:03:45 2022","1500","The main experiment item","yes","/Users/andrea/Desktop/Adv. Quant Methods/FlankerTest_Savkovic.osexp","no","mono","no","18","no","white","no","yes","768","legacy","25","25","/Users/andrea/Desktop/Adv. Quant Methods/Lab 2.2/AS-subject-4.csv","legacy","Lentiform Loewenfeld","3.3.12","0","H","S","NA","H","358","3298","NA","358","2","legacy","1024","2","48000","-16","experiment","HHHHH","4","even","7011","NA","NA","46037","3707","47086","34623","3699","NA","47088","NA","47192","47550","47192","Flanker Test","25","10934","26","yes","1024"
"96.29629629629629","96.29629629629629","423.25925925925924","423.25925925925924","black","legacy","legacy","legacy","0","incongruent","uniform","1","undefined","1","s","0","0","0","26","0","26","26","0","26","26","0","26","26","26","Sat Sep 24 14:03:45 2022","1500","The main experiment item","yes","/Users/andrea/Desktop/Adv. Quant Methods/FlankerTest_Savkovic.osexp","no","mono","no","18","no","white","no","yes","768","legacy","26","26","/Users/andrea/Desktop/Adv. Quant Methods/Lab 2.2/AS-subject-4.csv","legacy","Lentiform Loewenfeld","3.3.12","0","S","S","NA","S","494","3298","NA","494","2","legacy","1024","2","48000","-16","experiment","HHSHH","4","even","7011","NA","NA","47553","3707","48600","34623","3699","NA","48602","NA","48706","49200","48706","Flanker Test","26","11428","27","yes","1024"
"96.42857142857143","96.42857142857143","421.42857142857144","421.42857142857144","black","legacy","legacy","legacy","0","congruent","uniform","1","undefined","1","h","0","0","0","27","0","27","27","0","27","27","0","27","27","27","Sat Sep 24 14:03:45 2022","1500","The main experiment item","yes","/Users/andrea/Desktop/Adv. Quant Methods/FlankerTest_Savkovic.osexp","no","mono","no","18","no","white","no","yes","768","legacy","27","27","/Users/andrea/Desktop/Adv. Quant Methods/Lab 2.2/AS-subject-4.csv","legacy","Lentiform Loewenfeld","3.3.12","0","H","S","NA","H","372","3298","NA","372","2","legacy","1024","2","48000","-16","experiment","HHHHH","4","even","7011","NA","NA","49203","3707","50251","34623","3699","NA","50253","NA","50358","50731","50357","Flanker Test","27","11800","28","yes","1024"
"96.55172413793103","96.55172413793103","419.2758620689655","419.2758620689655","black","legacy","legacy","legacy","0","congruent","uniform","1","undefined","1","s","0","0","0","28","0","28","28","0","28","28","0","28","28","28","Sat Sep 24 14:03:45 2022","1500","The main experiment item","yes","/Users/andrea/Desktop/Adv. Quant Methods/FlankerTest_Savkovic.osexp","no","mono","no","18","no","white","no","yes","768","legacy","28","28","/Users/andrea/Desktop/Adv. Quant Methods/Lab 2.2/AS-subject-4.csv","legacy","Lentiform Loewenfeld","3.3.12","0","S","S","NA","S","359","3298","NA","359","2","legacy","1024","2","48000","-16","experiment","SSSSS","4","even","7011","NA","NA","50733","3707","51780","34623","3699","NA","51782","NA","51886","52246","51886","Flanker Test","28","12159","29","yes","1024"
"96.66666666666667","96.66666666666667","417.8","417.8","black","legacy","legacy","legacy","0","congruent","uniform","1","undefined","1","s","0","0","0","29","0","29","29","0","29","29","0","29","29","29","Sat Sep 24 14:03:45 2022","1500","The main experiment item","yes","/Users/andrea/Desktop/Adv. Quant Methods/FlankerTest_Savkovic.osexp","no","mono","no","18","no","white","no","yes","768","legacy","29","29","/Users/andrea/Desktop/Adv. Quant Methods/Lab 2.2/AS-subject-4.csv","legacy","Lentiform Loewenfeld","3.3.12","0","S","S","NA","S","375","3298","NA","375","2","legacy","1024","2","48000","-16","experiment","SSSSS","4","even","7011","NA","NA","52249","3707","53292","34623","3699","NA","53295","NA","53400","53775","53399","Flanker Test","29","12534","30","yes","1024"
"96.7741935483871","96.7741935483871","419.7096774193548","419.7096774193548","black","legacy","legacy","legacy","0","incongruent","uniform","1","undefined","1","h","0","0","0","30","0","30","30","0","30","30","0","30","30","30","Sat Sep 24 14:03:45 2022","1500","The main experiment item","yes","/Users/andrea/Desktop/Adv. Quant Methods/FlankerTest_Savkovic.osexp","no","mono","no","18","no","white","no","yes","768","legacy","30","30","/Users/andrea/Desktop/Adv. Quant Methods/Lab 2.2/AS-subject-4.csv","legacy","Lentiform Loewenfeld","3.3.12","0","H","S","NA","H","477","3298","NA","477","2","legacy","1024","2","48000","-16","experiment","SSHSS","4","even","7011","NA","NA","53779","3707","54827","34623","3699","NA","54829","NA","54933","55411","54933","Flanker Test","30","13011","31","yes","1024"
"96.875","96.875","421.59375","421.59375","black","legacy","legacy","legacy","0","incongruent","uniform","1","undefined","1","h","0","0","0","31","0","31","31","0","31","31","0","31","31","31","Sat Sep 24 14:03:45 2022","1500","The main experiment item","yes","/Users/andrea/Desktop/Adv. Quant Methods/FlankerTest_Savkovic.osexp","no","mono","no","18","no","white","no","yes","768","legacy","31","31","/Users/andrea/Desktop/Adv. Quant Methods/Lab 2.2/AS-subject-4.csv","legacy","Lentiform Loewenfeld","3.3.12","0","H","S","NA","H","480","3298","NA","480","2","legacy","1024","2","48000","-16","experiment","SSHSS","4","even","7011","NA","NA","55414","3707","56459","34623","3699","NA","56461","NA","56565","57046","56565","Flanker Test","31","13491","32","yes","1024"
"96.96969696969697","96.96969696969697","422.8181818181818","422.8181818181818","black","legacy","legacy","legacy","0","incongruent","uniform","1","undefined","1","s","0","0","0","32","0","32","32","0","32","32","0","32","32","32","Sat Sep 24 14:03:45 2022","1500","The main experiment item","yes","/Users/andrea/Desktop/Adv. Quant Methods/FlankerTest_Savkovic.osexp","no","mono","no","18","no","white","no","yes","768","legacy","32","32","/Users/andrea/Desktop/Adv. Quant Methods/Lab 2.2/AS-subject-4.csv","legacy","Lentiform Loewenfeld","3.3.12","0","S","S","NA","S","462","3298","NA","462","2","legacy","1024","2","48000","-16","experiment","HHSHH","4","even","7011","NA","NA","57049","3707","58097","34623","3699","NA","58099","NA","58203","58666","58203","Flanker Test","32","13953","33","yes","1024"
"97.05882352941177","97.05882352941177","423.94117647058823","423.94117647058823","black","legacy","legacy","legacy","0","incongruent","uniform","1","undefined","1","s","0","0","0","33","0","33","33","0","33","33","0","33","33","33","Sat Sep 24 14:03:45 2022","1500","The main experiment item","yes","/Users/andrea/Desktop/Adv. Quant Methods/FlankerTest_Savkovic.osexp","no","mono","no","18","no","white","no","yes","768","legacy","33","33","/Users/andrea/Desktop/Adv. Quant Methods/Lab 2.2/AS-subject-4.csv","legacy","Lentiform Loewenfeld","3.3.12","0","S","S","NA","S","461","3298","NA","461","2","legacy","1024","2","48000","-16","experiment","HHSHH","4","even","7011","NA","NA","58669","3707","59717","34623","3699","NA","59719","NA","59824","60286","59823","Flanker Test","33","14414","34","yes","1024"
"97.14285714285714","97.14285714285714","428.54285714285714","428.54285714285714","black","legacy","legacy","legacy","0","congruent","uniform","1","undefined","1","h","0","0","0","34","0","34","34","0","34","34","0","34","34","34","Sat Sep 24 14:03:45 2022","1500","The main experiment item","yes","/Users/andrea/Desktop/Adv. Quant Methods/FlankerTest_Savkovic.osexp","no","mono","no","18","no","white","no","yes","768","legacy","34","34","/Users/andrea/Desktop/Adv. Quant Methods/Lab 2.2/AS-subject-4.csv","legacy","Lentiform Loewenfeld","3.3.12","0","H","S","NA","H","585","3298","NA","585","2","legacy","1024","2","48000","-16","experiment","HHHHH","4","even","7011","NA","NA","60288","3707","61334","34623","3699","NA","61336","NA","61440","62026","61440","Flanker Test","34","14999","35","yes","1024"
"97.22222222222223","97.22222222222223","427.8611111111111","427.8611111111111","black","legacy","legacy","legacy","0","congruent","uniform","1","undefined","1","h","0","0","0","35","0","35","35","0","35","35","0","35","35","35","Sat Sep 24 14:03:45 2022","1500","The main experiment item","yes","/Users/andrea/Desktop/Adv. Quant Methods/FlankerTest_Savkovic.osexp","no","mono","no","18","no","white","no","yes","768","legacy","35","35","/Users/andrea/Desktop/Adv. Quant Methods/Lab 2.2/AS-subject-4.csv","legacy","Lentiform Loewenfeld","3.3.12","0","H","S","NA","H","404","3298","NA","404","2","legacy","1024","2","48000","-16","experiment","HHHHH","4","even","7011","NA","NA","62029","3707","63076","34623","3699","NA","63078","NA","63182","63587","63182","Flanker Test","35","15403","36","yes","1024"
"97.29729729729729","97.29729729729729","427.5405405405405","427.5405405405405","black","legacy","legacy","legacy","0","incongruent","uniform","1","undefined","1","s","0","0","0","36","0","36","36","0","36","36","0","36","36","36","Sat Sep 24 14:03:45 2022","1500","The main experiment item","yes","/Users/andrea/Desktop/Adv. Quant Methods/FlankerTest_Savkovic.osexp","no","mono","no","18","no","white","no","yes","768","legacy","36","36","/Users/andrea/Desktop/Adv. Quant Methods/Lab 2.2/AS-subject-4.csv","legacy","Lentiform Loewenfeld","3.3.12","0","S","S","NA","S","416","3298","NA","416","2","legacy","1024","2","48000","-16","experiment","HHSHH","4","even","7011","NA","NA","63590","3707","64638","34623","3699","NA","64640","NA","64744","65161","64744","Flanker Test","36","15819","37","yes","1024"
"97.36842105263158","97.36842105263158","428.5","428.5","black","legacy","legacy","legacy","0","incongruent","uniform","1","undefined","1","h","0","0","0","37","0","37","37","0","37","37","0","37","37","37","Sat Sep 24 14:03:45 2022","1500","The main experiment item","yes","/Users/andrea/Desktop/Adv. Quant Methods/FlankerTest_Savkovic.osexp","no","mono","no","18","no","white","no","yes","768","legacy","37","37","/Users/andrea/Desktop/Adv. Quant Methods/Lab 2.2/AS-subject-4.csv","legacy","Lentiform Loewenfeld","3.3.12","0","H","S","NA","H","464","3298","NA","464","2","legacy","1024","2","48000","-16","experiment","SSHSS","4","even","7011","NA","NA","65164","3707","66211","34623","3699","NA","66213","NA","66317","66781","66317","Flanker Test","37","16283","38","yes","1024"
"97.43589743589743","97.43589743589743","426.6666666666667","426.6666666666667","black","legacy","legacy","legacy","0","congruent","uniform","1","undefined","1","s","0","0","0","38","0","38","38","0","38","38","0","38","38","38","Sat Sep 24 14:03:45 2022","1500","The main experiment item","yes","/Users/andrea/Desktop/Adv. Quant Methods/FlankerTest_Savkovic.osexp","no","mono","no","18","no","white","no","yes","768","legacy","38","38","/Users/andrea/Desktop/Adv. Quant Methods/Lab 2.2/AS-subject-4.csv","legacy","Lentiform Loewenfeld","3.3.12","0","S","S","NA","S","357","3298","NA","357","2","legacy","1024","2","48000","-16","experiment","SSSSS","4","even","7011","NA","NA","66784","3707","67832","34623","3699","NA","67834","NA","67938","68296","67938","Flanker Test","38","16640","39","yes","1024"
"97.5","97.5","430.2","430.2","black","legacy","legacy","legacy","0","incongruent","uniform","1","undefined","1","h","0","0","0","39","0","39","39","0","39","39","0","39","39","39","Sat Sep 24 14:03:45 2022","1500","The main experiment item","yes","/Users/andrea/Desktop/Adv. Quant Methods/FlankerTest_Savkovic.osexp","no","mono","no","18","no","white","no","yes","768","legacy","39","39","/Users/andrea/Desktop/Adv. Quant Methods/Lab 2.2/AS-subject-4.csv","legacy","Lentiform Loewenfeld","3.3.12","0","H","S","NA","H","568","3298","NA","568","2","legacy","1024","2","48000","-16","experiment","SSHSS","4","even","7011","NA","NA","68299","3707","69346","34623","3699","NA","69348","NA","69452","70021","69452","Flanker Test","39","17208","40","yes","1024"
"97.5609756097561","97.5609756097561","433.5609756097561","433.5609756097561","black","legacy","legacy","legacy","0","congruent","uniform","1","undefined","1","h","0","0","0","40","0","40","40","0","40","40","0","40","40","40","Sat Sep 24 14:03:45 2022","1500","The main experiment item","yes","/Users/andrea/Desktop/Adv. Quant Methods/FlankerTest_Savkovic.osexp","no","mono","no","18","no","white","no","yes","768","legacy","40","40","/Users/andrea/Desktop/Adv. Quant Methods/Lab 2.2/AS-subject-4.csv","legacy","Lentiform Loewenfeld","3.3.12","0","H","S","NA","H","568","3298","NA","568","2","legacy","1024","2","48000","-16","experiment","HHHHH","4","even","7011","NA","NA","70024","3707","71072","34623","3699","NA","71073","NA","71178","71747","71178","Flanker Test","40","17776","41","yes","1024"
"97.61904761904762","97.61904761904762","432.7857142857143","432.7857142857143","black","legacy","legacy","legacy","0","incongruent","uniform","1","undefined","1","s","0","0","0","41","0","41","41","0","41","41","0","41","41","41","Sat Sep 24 14:03:45 2022","1500","The main experiment item","yes","/Users/andrea/Desktop/Adv. Quant Methods/FlankerTest_Savkovic.osexp","no","mono","no","18","no","white","no","yes","768","legacy","41","41","/Users/andrea/Desktop/Adv. Quant Methods/Lab 2.2/AS-subject-4.csv","legacy","Lentiform Loewenfeld","3.3.12","0","S","S","NA","S","401","3298","NA","401","2","legacy","1024","2","48000","-16","experiment","HHSHH","4","even","7011","NA","NA","71750","3707","72797","34623","3699","NA","72799","NA","72904","73306","72904","Flanker Test","41","18177","42","yes","1024"
"97.67441860465117","97.67441860465117","431.3953488372093","431.3953488372093","black","legacy","legacy","legacy","0","congruent","uniform","1","undefined","1","s","0","0","0","42","0","42","42","0","42","42","0","42","42","42","Sat Sep 24 14:03:45 2022","1500","The main experiment item","yes","/Users/andrea/Desktop/Adv. Quant Methods/FlankerTest_Savkovic.osexp","no","mono","no","18","no","white","no","yes","768","legacy","42","42","/Users/andrea/Desktop/Adv. Quant Methods/Lab 2.2/AS-subject-4.csv","legacy","Lentiform Loewenfeld","3.3.12","0","S","S","NA","S","373","3298","NA","373","2","legacy","1024","2","48000","-16","experiment","SSSSS","4","even","7011","NA","NA","73309","3707","74356","34623","3699","NA","74358","NA","74462","74836","74462","Flanker Test","42","18550","43","yes","1024"
"97.72727272727273","97.72727272727273","432.1363636363636","432.1363636363636","black","legacy","legacy","legacy","0","incongruent","uniform","1","undefined","1","s","0","0","0","43","0","43","43","0","43","43","0","43","43","43","Sat Sep 24 14:03:45 2022","1500","The main experiment item","yes","/Users/andrea/Desktop/Adv. Quant Methods/FlankerTest_Savkovic.osexp","no","mono","no","18","no","white","no","yes","768","legacy","43","43","/Users/andrea/Desktop/Adv. Quant Methods/Lab 2.2/AS-subject-4.csv","legacy","Lentiform Loewenfeld","3.3.12","0","S","S","NA","S","464","3298","NA","464","2","legacy","1024","2","48000","-16","experiment","HHSHH","4","even","7011","NA","NA","74839","3707","75886","34623","3699","NA","75888","NA","75992","76457","75992","Flanker Test","43","19014","44","yes","1024"
"97.77777777777777","97.77777777777777","430.8222222222222","430.8222222222222","black","legacy","legacy","legacy","0","congruent","uniform","1","undefined","1","s","0","0","0","44","0","44","44","0","44","44","0","44","44","44","Sat Sep 24 14:03:45 2022","1500","The main experiment item","yes","/Users/andrea/Desktop/Adv. Quant Methods/FlankerTest_Savkovic.osexp","no","mono","no","18","no","white","no","yes","768","legacy","44","44","/Users/andrea/Desktop/Adv. Quant Methods/Lab 2.2/AS-subject-4.csv","legacy","Lentiform Loewenfeld","3.3.12","0","S","S","NA","S","373","3298","NA","373","2","legacy","1024","2","48000","-16","experiment","SSSSS","4","even","7011","NA","NA","76460","3707","77506","34623","3699","NA","77508","NA","77613","77987","77613","Flanker Test","44","19387","45","yes","1024"
"97.82608695652173","97.82608695652173","430.2173913043478","430.2173913043478","black","legacy","legacy","legacy","0","incongruent","uniform","1","undefined","1","h","0","0","0","45","0","45","45","0","45","45","0","45","45","45","Sat Sep 24 14:03:45 2022","1500","The main experiment item","yes","/Users/andrea/Desktop/Adv. Quant Methods/FlankerTest_Savkovic.osexp","no","mono","no","18","no","white","no","yes","768","legacy","45","45","/Users/andrea/Desktop/Adv. Quant Methods/Lab 2.2/AS-subject-4.csv","legacy","Lentiform Loewenfeld","3.3.12","0","H","S","NA","H","403","3298","NA","403","2","legacy","1024","2","48000","-16","experiment","SSHSS","4","even","7011","NA","NA","77990","3707","79037","34623","3699","NA","79039","NA","79143","79547","79143","Flanker Test","45","19790","46","yes","1024"
"97.87234042553192","97.87234042553192","427.72340425531917","427.72340425531917","black","legacy","legacy","legacy","0","congruent","uniform","1","undefined","1","s","0","0","0","46","0","46","46","0","46","46","0","46","46","46","Sat Sep 24 14:03:45 2022","1500","The main experiment item","yes","/Users/andrea/Desktop/Adv. Quant Methods/FlankerTest_Savkovic.osexp","no","mono","no","18","no","white","no","yes","768","legacy","46","46","/Users/andrea/Desktop/Adv. Quant Methods/Lab 2.2/AS-subject-4.csv","legacy","Lentiform Loewenfeld","3.3.12","0","S","S","NA","S","313","3298","NA","313","2","legacy","1024","2","48000","-16","experiment","SSSSS","4","even","7011","NA","NA","79549","3707","80597","34623","3699","NA","80599","NA","80703","81017","80703","Flanker Test","46","20103","47","yes","1024"
"97.91666666666667","97.91666666666667","426.875","426.875","black","legacy","legacy","legacy","0","incongruent","uniform","1","undefined","1","s","0","0","0","47","0","47","47","0","47","47","0","47","47","47","Sat Sep 24 14:03:45 2022","1500","The main experiment item","yes","/Users/andrea/Desktop/Adv. Quant Methods/FlankerTest_Savkovic.osexp","no","mono","no","18","no","white","no","yes","768","legacy","47","47","/Users/andrea/Desktop/Adv. Quant Methods/Lab 2.2/AS-subject-4.csv","legacy","Lentiform Loewenfeld","3.3.12","0","S","S","NA","S","387","3298","NA","387","2","legacy","1024","2","48000","-16","experiment","HHSHH","4","even","7011","NA","NA","81020","3707","82068","34623","3699","NA","82070","NA","82174","82562","82174","Flanker Test","47","20490","48","yes","1024"
"97.95918367346938","97.95918367346938","427.3061224489796","427.3061224489796","black","legacy","legacy","legacy","0","congruent","uniform","1","undefined","1","h","0","0","0","48","0","48","48","0","48","48","0","48","48","48","Sat Sep 24 14:03:45 2022","1500","The main experiment item","yes","/Users/andrea/Desktop/Adv. Quant Methods/FlankerTest_Savkovic.osexp","no","mono","no","18","no","white","no","yes","768","legacy","48","48","/Users/andrea/Desktop/Adv. Quant Methods/Lab 2.2/AS-subject-4.csv","legacy","Lentiform Loewenfeld","3.3.12","0","H","S","NA","H","448","3298","NA","448","2","legacy","1024","2","48000","-16","experiment","HHHHH","4","even","7011","NA","NA","82565","3707","83612","34623","3699","NA","83614","NA","83718","84167","83718","Flanker Test","48","20938","49","yes","1024"
"98","98","426.52","426.52","black","legacy","legacy","legacy","0","congruent","uniform","1","undefined","1","h","0","0","0","49","0","49","49","0","49","49","0","49","49","49","Sat Sep 24 14:03:45 2022","1500","The main experiment item","yes","/Users/andrea/Desktop/Adv. Quant Methods/FlankerTest_Savkovic.osexp","no","mono","no","18","no","white","no","yes","768","legacy","49","49","/Users/andrea/Desktop/Adv. Quant Methods/Lab 2.2/AS-subject-4.csv","legacy","Lentiform Loewenfeld","3.3.12","0","H","S","NA","H","388","3298","NA","388","2","legacy","1024","2","48000","-16","experiment","HHHHH","4","even","7011","NA","NA","84169","3707","85217","34623","3699","NA","85219","NA","85323","85712","85323","Flanker Test","49","21326","50","yes","1024"
"96.07843137254902","96.07843137254902","424.3137254901961","424.3137254901961","black","legacy","legacy","legacy","0","congruent","uniform","0","undefined","0","h","0","0","0","50","0","50","50","0","50","50","0","50","50","50","Sat Sep 24 14:03:45 2022","1500","The main experiment item","yes","/Users/andrea/Desktop/Adv. Quant Methods/FlankerTest_Savkovic.osexp","no","mono","no","18","no","white","no","yes","768","legacy","50","50","/Users/andrea/Desktop/Adv. Quant Methods/Lab 2.2/AS-subject-4.csv","legacy","Lentiform Loewenfeld","3.3.12","0","S","S","NA","S","314","3298","NA","314","2","legacy","1024","2","48000","-16","experiment","HHHHH","4","even","7011","NA","NA","85715","3707","86762","34623","3699","NA","86764","NA","86868","87182","86868","Flanker Test","49","21640","51","yes","1024"
"96.15384615384616","96.15384615384616","425.4423076923077","425.4423076923077","black","legacy","legacy","legacy","0","congruent","uniform","1","undefined","1","h","0","0","0","51","0","51","51","0","51","51","0","51","51","51","Sat Sep 24 14:03:45 2022","1500","The main experiment item","yes","/Users/andrea/Desktop/Adv. Quant Methods/FlankerTest_Savkovic.osexp","no","mono","no","18","no","white","no","yes","768","legacy","51","51","/Users/andrea/Desktop/Adv. Quant Methods/Lab 2.2/AS-subject-4.csv","legacy","Lentiform Loewenfeld","3.3.12","0","H","S","NA","H","483","3298","NA","483","2","legacy","1024","2","48000","-16","experiment","HHHHH","4","even","7011","NA","NA","87689","3707","88737","87185","3699","NA","88739","NA","88843","89327","88843","Flanker Test","50","22123","52","yes","1024"
"96.22641509433963","96.22641509433963","424.92452830188677","424.92452830188677","black","legacy","legacy","legacy","0","incongruent","uniform","1","undefined","1","s","0","0","0","52","0","52","52","0","52","52","0","52","52","52","Sat Sep 24 14:03:45 2022","1500","The main experiment item","yes","/Users/andrea/Desktop/Adv. Quant Methods/FlankerTest_Savkovic.osexp","no","mono","no","18","no","white","no","yes","768","legacy","52","52","/Users/andrea/Desktop/Adv. Quant Methods/Lab 2.2/AS-subject-4.csv","legacy","Lentiform Loewenfeld","3.3.12","0","S","S","NA","S","398","3298","NA","398","2","legacy","1024","2","48000","-16","experiment","HHSHH","4","even","7011","NA","NA","89330","3707","90397","87185","3699","NA","90399","NA","90503","90902","90503","Flanker Test","51","22521","53","yes","1024"
"96.29629629629629","96.29629629629629","425.1111111111111","425.1111111111111","black","legacy","legacy","legacy","0","congruent","uniform","1","undefined","1","s","0","0","0","53","0","53","53","0","53","53","0","53","53","53","Sat Sep 24 14:03:45 2022","1500","The main experiment item","yes","/Users/andrea/Desktop/Adv. Quant Methods/FlankerTest_Savkovic.osexp","no","mono","no","18","no","white","no","yes","768","legacy","53","53","/Users/andrea/Desktop/Adv. Quant Methods/Lab 2.2/AS-subject-4.csv","legacy","Lentiform Loewenfeld","3.3.12","0","S","S","NA","S","435","3298","NA","435","2","legacy","1024","2","48000","-16","experiment","SSSSS","4","even","7011","NA","NA","90905","3707","91951","87185","3699","NA","91953","NA","92057","92492","92057","Flanker Test","52","22956","54","yes","1024"
"96.36363636363636","96.36363636363636","427.1818181818182","427.1818181818182","black","legacy","legacy","legacy","0","incongruent","uniform","1","undefined","1","s","0","0","0","54","0","54","54","0","54","54","0","54","54","54","Sat Sep 24 14:03:45 2022","1500","The main experiment item","yes","/Users/andrea/Desktop/Adv. Quant Methods/FlankerTest_Savkovic.osexp","no","mono","no","18","no","white","no","yes","768","legacy","54","54","/Users/andrea/Desktop/Adv. Quant Methods/Lab 2.2/AS-subject-4.csv","legacy","Lentiform Loewenfeld","3.3.12","0","S","S","NA","S","539","3298","NA","539","2","legacy","1024","2","48000","-16","experiment","HHSHH","4","even","7011","NA","NA","92495","3707","93542","87185","3699","NA","93544","NA","93648","94188","93648","Flanker Test","53","23495","55","yes","1024"
"96.42857142857143","96.42857142857143","427.01785714285717","427.01785714285717","black","legacy","legacy","legacy","0","congruent","uniform","1","undefined","1","s","0","0","0","55","0","55","55","0","55","55","0","55","55","55","Sat Sep 24 14:03:45 2022","1500","The main experiment item","yes","/Users/andrea/Desktop/Adv. Quant Methods/FlankerTest_Savkovic.osexp","no","mono","no","18","no","white","no","yes","768","legacy","55","55","/Users/andrea/Desktop/Adv. Quant Methods/Lab 2.2/AS-subject-4.csv","legacy","Lentiform Loewenfeld","3.3.12","0","S","S","NA","S","418","3298","NA","418","2","legacy","1024","2","48000","-16","experiment","SSSSS","4","even","7011","NA","NA","94191","3707","95238","87185","3699","NA","95240","NA","95344","95763","95344","Flanker Test","54","23913","56","yes","1024"
"96.49122807017544","96.49122807017544","426.05263157894734","426.05263157894734","black","legacy","legacy","legacy","0","congruent","uniform","1","undefined","1","s","0","0","0","56","0","56","56","0","56","56","0","56","56","56","Sat Sep 24 14:03:45 2022","1500","The main experiment item","yes","/Users/andrea/Desktop/Adv. Quant Methods/FlankerTest_Savkovic.osexp","no","mono","no","18","no","white","no","yes","768","legacy","56","56","/Users/andrea/Desktop/Adv. Quant Methods/Lab 2.2/AS-subject-4.csv","legacy","Lentiform Loewenfeld","3.3.12","0","S","S","NA","S","372","3298","NA","372","2","legacy","1024","2","48000","-16","experiment","SSSSS","4","even","7011","NA","NA","95766","3707","96814","87185","3699","NA","96816","NA","96920","97292","96920","Flanker Test","55","24285","57","yes","1024"
"94.82758620689656","94.82758620689656","425.12068965517244","425.12068965517244","black","legacy","legacy","legacy","0","incongruent","uniform","0","undefined","0","h","0","0","0","57","0","57","57","0","57","57","0","57","57","57","Sat Sep 24 14:03:45 2022","1500","The main experiment item","yes","/Users/andrea/Desktop/Adv. Quant Methods/FlankerTest_Savkovic.osexp","no","mono","no","18","no","white","no","yes","768","legacy","57","57","/Users/andrea/Desktop/Adv. Quant Methods/Lab 2.2/AS-subject-4.csv","legacy","Lentiform Loewenfeld","3.3.12","0","S","S","NA","S","372","3298","NA","372","2","legacy","1024","2","48000","-16","experiment","SSHSS","4","even","7011","NA","NA","97295","3707","98343","87185","3699","NA","98345","NA","98449","98822","98449","Flanker Test","55","24657","58","yes","1024"
"94.91525423728814","94.91525423728814","423.59322033898303","423.59322033898303","black","legacy","legacy","legacy","0","incongruent","uniform","1","undefined","1","s","0","0","0","58","0","58","58","0","58","58","0","58","58","58","Sat Sep 24 14:03:45 2022","1500","The main experiment item","yes","/Users/andrea/Desktop/Adv. Quant Methods/FlankerTest_Savkovic.osexp","no","mono","no","18","no","white","no","yes","768","legacy","58","58","/Users/andrea/Desktop/Adv. Quant Methods/Lab 2.2/AS-subject-4.csv","legacy","Lentiform Loewenfeld","3.3.12","0","S","S","NA","S","335","3298","NA","335","2","legacy","1024","2","48000","-16","experiment","HHSHH","4","even","7011","NA","NA","99329","3707","100377","98825","3699","NA","100378","NA","100482","100817","100482","Flanker Test","56","24992","59","yes","1024"
"95","95","426","426","black","legacy","legacy","legacy","0","incongruent","uniform","1","undefined","1","s","0","0","0","59","0","59","59","0","59","59","0","59","59","59","Sat Sep 24 14:03:45 2022","1500","The main experiment item","yes","/Users/andrea/Desktop/Adv. Quant Methods/FlankerTest_Savkovic.osexp","no","mono","no","18","no","white","no","yes","768","legacy","59","59","/Users/andrea/Desktop/Adv. Quant Methods/Lab 2.2/AS-subject-4.csv","legacy","Lentiform Loewenfeld","3.3.12","0","S","S","NA","S","568","3298","NA","568","2","legacy","1024","2","48000","-16","experiment","HHSHH","4","even","7011","NA","NA","100820","3707","101867","98825","3699","NA","101870","NA","101974","102543","101974","Flanker Test","57","25560","60","yes","1024"
"95.08196721311475","95.08196721311475","426.0983606557377","426.0983606557377","black","legacy","legacy","legacy","0","congruent","uniform","1","undefined","1","h","0","0","0","60","0","60","60","0","60","60","0","60","60","60","Sat Sep 24 14:03:45 2022","1500","The main experiment item","yes","/Users/andrea/Desktop/Adv. Quant Methods/FlankerTest_Savkovic.osexp","no","mono","no","18","no","white","no","yes","768","legacy","60","60","/Users/andrea/Desktop/Adv. Quant Methods/Lab 2.2/AS-subject-4.csv","legacy","Lentiform Loewenfeld","3.3.12","0","H","S","NA","H","432","3298","NA","432","2","legacy","1024","2","48000","-16","experiment","HHHHH","4","even","7011","NA","NA","102546","3707","103593","98825","3699","NA","103595","NA","103700","104133","103700","Flanker Test","58","25992","61","yes","1024"
"95.16129032258064","95.16129032258064","426.4516129032258","426.4516129032258","black","legacy","legacy","legacy","0","incongruent","uniform","1","undefined","1","h","0","0","0","61","0","61","61","0","61","61","0","61","61","61","Sat Sep 24 14:03:45 2022","1500","The main experiment item","yes","/Users/andrea/Desktop/Adv. Quant Methods/FlankerTest_Savkovic.osexp","no","mono","no","18","no","white","no","yes","768","legacy","61","61","/Users/andrea/Desktop/Adv. Quant Methods/Lab 2.2/AS-subject-4.csv","legacy","Lentiform Loewenfeld","3.3.12","0","H","S","NA","H","448","3298","NA","448","2","legacy","1024","2","48000","-16","experiment","SSHSS","4","even","7011","NA","NA","104136","3707","105183","98825","3699","NA","105185","NA","105289","105738","105289","Flanker Test","59","26440","62","yes","1024"
"95.23809523809524","95.23809523809524","428","428","black","legacy","legacy","legacy","0","congruent","uniform","1","undefined","1","h","0","0","0","62","0","62","62","0","62","62","0","62","62","62","Sat Sep 24 14:03:45 2022","1500","The main experiment item","yes","/Users/andrea/Desktop/Adv. Quant Methods/FlankerTest_Savkovic.osexp","no","mono","no","18","no","white","no","yes","768","legacy","62","62","/Users/andrea/Desktop/Adv. Quant Methods/Lab 2.2/AS-subject-4.csv","legacy","Lentiform Loewenfeld","3.3.12","0","H","S","NA","H","524","3298","NA","524","2","legacy","1024","2","48000","-16","experiment","HHHHH","4","even","7011","NA","NA","105740","3707","106787","98825","3699","NA","106789","NA","106893","107418","106893","Flanker Test","60","26964","63","yes","1024"
"95.3125","95.3125","428.765625","428.765625","black","legacy","legacy","legacy","0","incongruent","uniform","1","undefined","1","h","0","0","0","63","0","63","63","0","63","63","0","63","63","63","Sat Sep 24 14:03:45 2022","1500","The main experiment item","yes","/Users/andrea/Desktop/Adv. Quant Methods/FlankerTest_Savkovic.osexp","no","mono","no","18","no","white","no","yes","768","legacy","63","63","/Users/andrea/Desktop/Adv. Quant Methods/Lab 2.2/AS-subject-4.csv","legacy","Lentiform Loewenfeld","3.3.12","0","H","S","NA","H","477","3298","NA","477","2","legacy","1024","2","48000","-16","experiment","SSHSS","4","even","7011","NA","NA","107421","3707","108469","98825","3699","NA","108471","NA","108575","109053","108575","Flanker Test","61","27441","64","yes","1024"
"95.38461538461539","95.38461538461539","427.67692307692306","427.67692307692306","black","legacy","legacy","legacy","0","congruent","uniform","1","undefined","1","s","0","0","0","64","0","64","64","0","64","64","0","64","64","64","Sat Sep 24 14:03:45 2022","1500","The main experiment item","yes","/Users/andrea/Desktop/Adv. Quant Methods/FlankerTest_Savkovic.osexp","no","mono","no","18","no","white","no","yes","768","legacy","64","64","/Users/andrea/Desktop/Adv. Quant Methods/Lab 2.2/AS-subject-4.csv","legacy","Lentiform Loewenfeld","3.3.12","0","S","S","NA","S","358","3298","NA","358","2","legacy","1024","2","48000","-16","experiment","SSSSS","4","even","7011","NA","NA","109056","3707","110104","98825","3699","NA","110106","NA","110210","110569","110210","Flanker Test","62","27799","65","yes","1024"
"95.45454545454545","95.45454545454545","428.42424242424244","428.42424242424244","black","legacy","legacy","legacy","0","incongruent","uniform","1","undefined","1","h","0","0","0","65","0","65","65","0","65","65","0","65","65","65","Sat Sep 24 14:03:45 2022","1500","The main experiment item","yes","/Users/andrea/Desktop/Adv. Quant Methods/FlankerTest_Savkovic.osexp","no","mono","no","18","no","white","no","yes","768","legacy","65","65","/Users/andrea/Desktop/Adv. Quant Methods/Lab 2.2/AS-subject-4.csv","legacy","Lentiform Loewenfeld","3.3.12","0","H","S","NA","H","477","3298","NA","477","2","legacy","1024","2","48000","-16","experiment","SSHSS","4","even","7011","NA","NA","110571","3707","111619","98825","3699","NA","111621","NA","111725","112203","111725","Flanker Test","63","28276","66","yes","1024"
"95.5223880597015","95.5223880597015","428.4925373134328","428.4925373134328","black","legacy","legacy","legacy","0","congruent","uniform","1","undefined","1","h","0","0","0","66","0","66","66","0","66","66","0","66","66","66","Sat Sep 24 14:03:45 2022","1500","The main experiment item","yes","/Users/andrea/Desktop/Adv. Quant Methods/FlankerTest_Savkovic.osexp","no","mono","no","18","no","white","no","yes","768","legacy","66","66","/Users/andrea/Desktop/Adv. Quant Methods/Lab 2.2/AS-subject-4.csv","legacy","Lentiform Loewenfeld","3.3.12","0","H","S","NA","H","433","3298","NA","433","2","legacy","1024","2","48000","-16","experiment","HHHHH","4","even","7011","NA","NA","112225","3707","113268","98825","3699","NA","113270","NA","113374","113808","113374","Flanker Test","64","28709","67","yes","1024"
"95.58823529411765","95.58823529411765","429.3382352941176","429.3382352941176","black","legacy","legacy","legacy","0","incongruent","uniform","1","undefined","1","h","0","0","0","67","0","67","67","0","67","67","0","67","67","67","Sat Sep 24 14:03:45 2022","1500","The main experiment item","yes","/Users/andrea/Desktop/Adv. Quant Methods/FlankerTest_Savkovic.osexp","no","mono","no","18","no","white","no","yes","768","legacy","67","67","/Users/andrea/Desktop/Adv. Quant Methods/Lab 2.2/AS-subject-4.csv","legacy","Lentiform Loewenfeld","3.3.12","0","H","S","NA","H","486","3298","NA","486","2","legacy","1024","2","48000","-16","experiment","SSHSS","4","even","7011","NA","NA","113811","3707","114850","98825","3699","NA","114852","NA","114957","115443","114956","Flanker Test","65","29195","68","yes","1024"
"95.65217391304348","95.65217391304348","430.4782608695652","430.4782608695652","black","legacy","legacy","legacy","0","incongruent","uniform","1","undefined","1","h","0","0","0","68","0","68","68","0","68","68","0","68","68","68","Sat Sep 24 14:03:45 2022","1500","The main experiment item","yes","/Users/andrea/Desktop/Adv. Quant Methods/FlankerTest_Savkovic.osexp","no","mono","no","18","no","white","no","yes","768","legacy","68","68","/Users/andrea/Desktop/Adv. Quant Methods/Lab 2.2/AS-subject-4.csv","legacy","Lentiform Loewenfeld","3.3.12","0","H","S","NA","H","508","3298","NA","508","2","legacy","1024","2","48000","-16","experiment","SSHSS","4","even","7011","NA","NA","115446","3707","116493","98825","3699","NA","116496","NA","116600","117109","116600","Flanker Test","66","29703","69","yes","1024"
"95.71428571428571","95.71428571428571","430.07142857142856","430.07142857142856","black","legacy","legacy","legacy","0","incongruent","uniform","1","undefined","1","h","0","0","0","69","0","69","69","0","69","69","0","69","69","69","Sat Sep 24 14:03:45 2022","1500","The main experiment item","yes","/Users/andrea/Desktop/Adv. Quant Methods/FlankerTest_Savkovic.osexp","no","mono","no","18","no","white","no","yes","768","legacy","69","69","/Users/andrea/Desktop/Adv. Quant Methods/Lab 2.2/AS-subject-4.csv","legacy","Lentiform Loewenfeld","3.3.12","0","H","S","NA","H","402","3298","NA","402","2","legacy","1024","2","48000","-16","experiment","SSHSS","4","even","7011","NA","NA","117112","3707","118159","98825","3699","NA","118162","NA","118266","118668","118265","Flanker Test","67","30105","70","yes","1024"
"95.77464788732394","95.77464788732394","430.32394366197184","430.32394366197184","black","legacy","legacy","legacy","0","incongruent","uniform","1","undefined","1","s","0","0","0","70","0","70","70","0","70","70","0","70","70","70","Sat Sep 24 14:03:45 2022","1500","The main experiment item","yes","/Users/andrea/Desktop/Adv. Quant Methods/FlankerTest_Savkovic.osexp","no","mono","no","18","no","white","no","yes","768","legacy","70","70","/Users/andrea/Desktop/Adv. Quant Methods/Lab 2.2/AS-subject-4.csv","legacy","Lentiform Loewenfeld","3.3.12","0","S","S","NA","S","448","3298","NA","448","2","legacy","1024","2","48000","-16","experiment","HHSHH","4","even","7011","NA","NA","118671","3707","119719","98825","3699","NA","119721","NA","119825","120274","119825","Flanker Test","68","30553","71","yes","1024"
"95.83333333333333","95.83333333333333","429.7361111111111","429.7361111111111","black","legacy","legacy","legacy","0","congruent","uniform","1","undefined","1","s","0","0","0","71","0","71","71","0","71","71","0","71","71","71","Sat Sep 24 14:03:45 2022","1500","The main experiment item","yes","/Users/andrea/Desktop/Adv. Quant Methods/FlankerTest_Savkovic.osexp","no","mono","no","18","no","white","no","yes","768","legacy","71","71","/Users/andrea/Desktop/Adv. Quant Methods/Lab 2.2/AS-subject-4.csv","legacy","Lentiform Loewenfeld","3.3.12","0","S","S","NA","S","388","3298","NA","388","2","legacy","1024","2","48000","-16","experiment","SSSSS","4","even","7011","NA","NA","120276","3707","121324","98825","3699","NA","121326","NA","121430","121819","121430","Flanker Test","69","30941","72","yes","1024"
"95.89041095890411","95.89041095890411","432.24657534246575","432.24657534246575","black","legacy","legacy","legacy","0","incongruent","uniform","1","undefined","1","h","0","0","0","72","0","72","72","0","72","72","0","72","72","72","Sat Sep 24 14:03:45 2022","1500","The main experiment item","yes","/Users/andrea/Desktop/Adv. Quant Methods/FlankerTest_Savkovic.osexp","no","mono","no","18","no","white","no","yes","768","legacy","72","72","/Users/andrea/Desktop/Adv. Quant Methods/Lab 2.2/AS-subject-4.csv","legacy","Lentiform Loewenfeld","3.3.12","0","H","S","NA","H","613","3298","NA","613","2","legacy","1024","2","48000","-16","experiment","SSHSS","4","even","7011","NA","NA","121822","3707","122869","98825","3699","NA","122871","NA","122975","123589","122975","Flanker Test","70","31554","73","yes","1024"
"95.94594594594595","95.94594594594595","432.05405405405406","432.05405405405406","black","legacy","legacy","legacy","0","congruent","uniform","1","undefined","1","s","0","0","0","73","0","73","73","0","73","73","0","73","73","73","Sat Sep 24 14:03:45 2022","1500","The main experiment item","yes","/Users/andrea/Desktop/Adv. Quant Methods/FlankerTest_Savkovic.osexp","no","mono","no","18","no","white","no","yes","768","legacy","73","73","/Users/andrea/Desktop/Adv. Quant Methods/Lab 2.2/AS-subject-4.csv","legacy","Lentiform Loewenfeld","3.3.12","0","S","S","NA","S","418","3298","NA","418","2","legacy","1024","2","48000","-16","experiment","SSSSS","4","even","7011","NA","NA","123592","3707","124639","98825","3699","NA","124641","NA","124745","125164","124745","Flanker Test","71","31972","74","yes","1024"
"96","96","431.88","431.88","black","legacy","legacy","legacy","0","congruent","uniform","1","undefined","1","s","0","0","0","74","0","74","74","0","74","74","0","74","74","74","Sat Sep 24 14:03:45 2022","1500","The main experiment item","yes","/Users/andrea/Desktop/Adv. Quant Methods/FlankerTest_Savkovic.osexp","no","mono","no","18","no","white","no","yes","768","legacy","74","74","/Users/andrea/Desktop/Adv. Quant Methods/Lab 2.2/AS-subject-4.csv","legacy","Lentiform Loewenfeld","3.3.12","0","S","S","NA","S","419","3298","NA","419","2","legacy","1024","2","48000","-16","experiment","SSSSS","4","even","7011","NA","NA","125167","3707","126213","98825","3699","NA","126215","NA","126319","126739","126319","Flanker Test","72","32391","75","yes","1024"
"94.73684210526316","94.73684210526316","431.2894736842105","431.2894736842105","black","legacy","legacy","legacy","0","incongruent","uniform","0","undefined","0","s","0","0","0","75","0","75","75","0","75","75","0","75","75","75","Sat Sep 24 14:03:45 2022","1500","The main experiment item","yes","/Users/andrea/Desktop/Adv. Quant Methods/FlankerTest_Savkovic.osexp","no","mono","no","18","no","white","no","yes","768","legacy","75","75","/Users/andrea/Desktop/Adv. Quant Methods/Lab 2.2/AS-subject-4.csv","legacy","Lentiform Loewenfeld","3.3.12","0","H","S","NA","H","387","3298","NA","387","2","legacy","1024","2","48000","-16","experiment","HHSHH","4","even","7011","NA","NA","126742","3707","127790","98825","3699","NA","127792","NA","127896","128284","127896","Flanker Test","72","32778","76","yes","1024"
"94.8051948051948","94.8051948051948","431.57142857142856","431.57142857142856","black","legacy","legacy","legacy","0","incongruent","uniform","1","undefined","1","s","0","0","0","76","0","76","76","0","76","76","0","76","76","76","Sat Sep 24 14:03:45 2022","1500","The main experiment item","yes","/Users/andrea/Desktop/Adv. Quant Methods/FlankerTest_Savkovic.osexp","no","mono","no","18","no","white","no","yes","768","legacy","76","76","/Users/andrea/Desktop/Adv. Quant Methods/Lab 2.2/AS-subject-4.csv","legacy","Lentiform Loewenfeld","3.3.12","0","S","S","NA","S","453","3298","NA","453","2","legacy","1024","2","48000","-16","experiment","HHSHH","4","even","7011","NA","NA","128791","3707","129838","128287","3699","NA","129840","NA","129945","130399","129944","Flanker Test","73","33231","77","yes","1024"
"94.87179487179488","94.87179487179488","432.1794871794872","432.1794871794872","black","legacy","legacy","legacy","0","incongruent","uniform","1","undefined","1","h","0","0","0","77","0","77","77","0","77","77","0","77","77","77","Sat Sep 24 14:03:45 2022","1500","The main experiment item","yes","/Users/andrea/Desktop/Adv. Quant Methods/FlankerTest_Savkovic.osexp","no","mono","no","18","no","white","no","yes","768","legacy","77","77","/Users/andrea/Desktop/Adv. Quant Methods/Lab 2.2/AS-subject-4.csv","legacy","Lentiform Loewenfeld","3.3.12","0","H","S","NA","H","479","3298","NA","479","2","legacy","1024","2","48000","-16","experiment","SSHSS","4","even","7011","NA","NA","130402","3707","131449","128287","3699","NA","131451","NA","131555","132035","131555","Flanker Test","74","33710","78","yes","1024"
"94.9367088607595","94.9367088607595","433.1392405063291","433.1392405063291","black","legacy","legacy","legacy","0","congruent","uniform","1","undefined","1","h","0","0","0","78","0","78","78","0","78","78","0","78","78","78","Sat Sep 24 14:03:45 2022","1500","The main experiment item","yes","/Users/andrea/Desktop/Adv. Quant Methods/FlankerTest_Savkovic.osexp","no","mono","no","18","no","white","no","yes","768","legacy","78","78","/Users/andrea/Desktop/Adv. Quant Methods/Lab 2.2/AS-subject-4.csv","legacy","Lentiform Loewenfeld","3.3.12","0","H","S","NA","H","508","3298","NA","508","2","legacy","1024","2","48000","-16","experiment","HHHHH","4","even","7011","NA","NA","132037","3707","133085","128287","3699","NA","133087","NA","133191","133700","133191","Flanker Test","75","34218","79","yes","1024"
"95","95","433.4875","433.4875","black","legacy","legacy","legacy","0","incongruent","uniform","1","undefined","1","h","0","0","0","79","0","79","79","0","79","79","0","79","79","79","Sat Sep 24 14:03:45 2022","1500","The main experiment item","yes","/Users/andrea/Desktop/Adv. Quant Methods/FlankerTest_Savkovic.osexp","no","mono","no","18","no","white","no","yes","768","legacy","79","79","/Users/andrea/Desktop/Adv. Quant Methods/Lab 2.2/AS-subject-4.csv","legacy","Lentiform Loewenfeld","3.3.12","0","H","S","NA","H","461","3298","NA","461","2","legacy","1024","2","48000","-16","experiment","SSHSS","4","even","7011","NA","NA","133703","3707","134750","128287","3699","NA","134753","NA","134857","135319","134857","Flanker Test","76","34679","80","yes","1024"
"95.06172839506173","95.06172839506173","434.87654320987656","434.87654320987656","black","legacy","legacy","legacy","0","incongruent","uniform","1","undefined","1","s","0","0","0","80","0","80","80","0","80","80","0","80","80","80","Sat Sep 24 14:03:45 2022","600","The main experiment item","yes","/Users/andrea/Desktop/Adv. Quant Methods/FlankerTest_Savkovic.osexp","no","mono","no","18","no","white","no","yes","768","legacy","0","79","/Users/andrea/Desktop/Adv. Quant Methods/Lab 2.2/AS-subject-4.csv","legacy","Lentiform Loewenfeld","3.3.12","0","S","S","S","S","546","3298","2373","546","2","legacy","1024","2","48000","-16","experiment","HHSHH","4","even","7011","138724","NA","135322","3707","138747","128287","3699","NA","138749","136350","138853","139400","138853","Flanker Test","77","35225","81","yes","1024"
"95.1219512195122","95.1219512195122","434.8414634146341","434.8414634146341","black","legacy","legacy","legacy","0","incongruent","uniform","1","undefined","1","h","0","0","0","81","0","81","81","0","81","81","0","81","81","81","Sat Sep 24 14:03:45 2022","600","The main experiment item","yes","/Users/andrea/Desktop/Adv. Quant Methods/FlankerTest_Savkovic.osexp","no","mono","no","18","no","white","no","yes","768","legacy","1","79","/Users/andrea/Desktop/Adv. Quant Methods/Lab 2.2/AS-subject-4.csv","legacy","Lentiform Loewenfeld","3.3.12","0","H","S","S","H","432","3298","2373","432","2","legacy","1024","2","48000","-16","experiment","SSHSS","4","even","7011","138724","NA","139402","3707","140451","128287","3699","NA","140453","136350","140557","140990","140557","Flanker Test","78","35657","82","yes","1024"
"95.18072289156626","95.18072289156626","434.26506024096386","434.26506024096386","black","legacy","legacy","legacy","0","congruent","uniform","1","undefined","1","s","0","0","0","82","0","82","82","0","82","82","0","82","82","82","Sat Sep 24 14:03:45 2022","600","The main experiment item","yes","/Users/andrea/Desktop/Adv. Quant Methods/FlankerTest_Savkovic.osexp","no","mono","no","18","no","white","no","yes","768","legacy","2","79","/Users/andrea/Desktop/Adv. Quant Methods/Lab 2.2/AS-subject-4.csv","legacy","Lentiform Loewenfeld","3.3.12","0","S","S","S","S","387","3298","2373","387","2","legacy","1024","2","48000","-16","experiment","SSSSS","4","even","7011","138724","NA","140992","3707","142040","128287","3699","NA","142042","136350","142146","142534","142146","Flanker Test","79","36044","83","yes","1024"
"95.23809523809524","95.23809523809524","434.6190476190476","434.6190476190476","black","legacy","legacy","legacy","0","incongruent","uniform","1","undefined","1","h","0","0","0","83","0","83","83","0","83","83","0","83","83","83","Sat Sep 24 14:03:45 2022","600","The main experiment item","yes","/Users/andrea/Desktop/Adv. Quant Methods/FlankerTest_Savkovic.osexp","no","mono","no","18","no","white","no","yes","768","legacy","3","79","/Users/andrea/Desktop/Adv. Quant Methods/Lab 2.2/AS-subject-4.csv","legacy","Lentiform Loewenfeld","3.3.12","0","H","S","S","H","464","3298","2373","464","2","legacy","1024","2","48000","-16","experiment","SSHSS","4","even","7011","138724","NA","142537","3707","143584","128287","3699","NA","143586","136350","143690","144155","143690","Flanker Test","80","36508","84","yes","1024"
"95.29411764705883","95.29411764705883","434.9294117647059","434.9294117647059","black","legacy","legacy","legacy","0","congruent","uniform","1","undefined","1","s","0","0","0","84","0","84","84","0","84","84","0","84","84","84","Sat Sep 24 14:03:45 2022","600","The main experiment item","yes","/Users/andrea/Desktop/Adv. Quant Methods/FlankerTest_Savkovic.osexp","no","mono","no","18","no","white","no","yes","768","legacy","4","79","/Users/andrea/Desktop/Adv. Quant Methods/Lab 2.2/AS-subject-4.csv","legacy","Lentiform Loewenfeld","3.3.12","0","S","S","S","S","461","3298","2373","461","2","legacy","1024","2","48000","-16","experiment","SSSSS","4","even","7011","138724","NA","144158","3707","145206","128287","3699","NA","145208","136350","145313","145775","145312","Flanker Test","81","36969","85","yes","1024"
"95.34883720930233","95.34883720930233","434.54651162790697","434.54651162790697","black","legacy","legacy","legacy","0","congruent","uniform","1","undefined","1","h","0","0","0","85","0","85","85","0","85","85","0","85","85","85","Sat Sep 24 14:03:45 2022","600","The main experiment item","yes","/Users/andrea/Desktop/Adv. Quant Methods/FlankerTest_Savkovic.osexp","no","mono","no","18","no","white","no","yes","768","legacy","5","79","/Users/andrea/Desktop/Adv. Quant Methods/Lab 2.2/AS-subject-4.csv","legacy","Lentiform Loewenfeld","3.3.12","0","H","S","S","H","402","3298","2373","402","2","legacy","1024","2","48000","-16","experiment","HHHHH","4","even","7011","138724","NA","145778","3707","146826","128287","3699","NA","146828","136350","146932","147335","146932","Flanker Test","82","37371","86","yes","1024"
"95.40229885057471","95.40229885057471","434.48275862068965","434.48275862068965","black","legacy","legacy","legacy","0","congruent","uniform","1","undefined","1","h","0","0","0","86","0","86","86","0","86","86","0","86","86","86","Sat Sep 24 14:03:45 2022","600","The main experiment item","yes","/Users/andrea/Desktop/Adv. Quant Methods/FlankerTest_Savkovic.osexp","no","mono","no","18","no","white","no","yes","768","legacy","6","79","/Users/andrea/Desktop/Adv. Quant Methods/Lab 2.2/AS-subject-4.csv","legacy","Lentiform Loewenfeld","3.3.12","0","H","S","S","H","429","3298","2373","429","2","legacy","1024","2","48000","-16","experiment","HHHHH","4","even","7011","138724","NA","147338","3707","148377","128287","3699","NA","148379","136350","148480","148909","148480","Flanker Test","83","37800","87","yes","1024"
"95.45454545454545","95.45454545454545","434.20454545454544","434.20454545454544","black","legacy","legacy","legacy","0","congruent","uniform","1","undefined","1","s","0","0","0","87","0","87","87","0","87","87","0","87","87","87","Sat Sep 24 14:03:45 2022","600","The main experiment item","yes","/Users/andrea/Desktop/Adv. Quant Methods/FlankerTest_Savkovic.osexp","no","mono","no","18","no","white","no","yes","768","legacy","7","79","/Users/andrea/Desktop/Adv. Quant Methods/Lab 2.2/AS-subject-4.csv","legacy","Lentiform Loewenfeld","3.3.12","0","S","S","S","S","410","3298","2373","410","2","legacy","1024","2","48000","-16","experiment","SSSSS","4","even","7011","138724","NA","148912","3707","149954","128287","3699","NA","149956","136350","150060","150471","150060","Flanker Test","84","38210","88","yes","1024"
"95.50561797752809","95.50561797752809","434.5056179775281","434.5056179775281","black","legacy","legacy","legacy","0","incongruent","uniform","1","undefined","1","h","0","0","0","88","0","88","88","0","88","88","0","88","88","88","Sat Sep 24 14:03:45 2022","600","The main experiment item","yes","/Users/andrea/Desktop/Adv. Quant Methods/FlankerTest_Savkovic.osexp","no","mono","no","18","no","white","no","yes","768","legacy","8","79","/Users/andrea/Desktop/Adv. Quant Methods/Lab 2.2/AS-subject-4.csv","legacy","Lentiform Loewenfeld","3.3.12","0","H","S","S","H","461","3298","2373","461","2","legacy","1024","2","48000","-16","experiment","SSHSS","4","even","7011","138724","NA","150474","3707","151521","128287","3699","NA","151523","136350","151628","152090","151627","Flanker Test","85","38671","89","yes","1024"
"95.55555555555556","95.55555555555556","435.3","435.3","black","legacy","legacy","legacy","0","incongruent","uniform","1","undefined","1","h","0","0","0","89","0","89","89","0","89","89","0","89","89","89","Sat Sep 24 14:03:45 2022","600","The main experiment item","yes","/Users/andrea/Desktop/Adv. Quant Methods/FlankerTest_Savkovic.osexp","no","mono","no","18","no","white","no","yes","768","legacy","9","79","/Users/andrea/Desktop/Adv. Quant Methods/Lab 2.2/AS-subject-4.csv","legacy","Lentiform Loewenfeld","3.3.12","0","H","S","S","H","506","3298","2373","506","2","legacy","1024","2","48000","-16","experiment","SSHSS","4","even","7011","138724","NA","152093","3707","153141","128287","3699","NA","153143","136350","153248","153755","153247","Flanker Test","86","39177","90","yes","1024"
"95.6043956043956","95.6043956043956","435.0879120879121","435.0879120879121","black","legacy","legacy","legacy","0","congruent","uniform","1","undefined","1","h","0","0","0","90","0","90","90","0","90","90","0","90","90","90","Sat Sep 24 14:03:45 2022","600","The main experiment item","yes","/Users/andrea/Desktop/Adv. Quant Methods/FlankerTest_Savkovic.osexp","no","mono","no","18","no","white","no","yes","768","legacy","10","79","/Users/andrea/Desktop/Adv. Quant Methods/Lab 2.2/AS-subject-4.csv","legacy","Lentiform Loewenfeld","3.3.12","0","H","S","S","H","416","3298","2373","416","2","legacy","1024","2","48000","-16","experiment","HHHHH","4","even","7011","138724","NA","153758","3707","154806","128287","3699","NA","154809","136350","154913","155330","154913","Flanker Test","87","39593","91","yes","1024"
"95.65217391304348","95.65217391304348","435.3804347826087","435.3804347826087","black","legacy","legacy","legacy","0","incongruent","uniform","1","undefined","1","h","0","0","0","91","0","91","91","0","91","91","0","91","91","91","Sat Sep 24 14:03:45 2022","600","The main experiment item","yes","/Users/andrea/Desktop/Adv. Quant Methods/FlankerTest_Savkovic.osexp","no","mono","no","18","no","white","no","yes","768","legacy","11","79","/Users/andrea/Desktop/Adv. Quant Methods/Lab 2.2/AS-subject-4.csv","legacy","Lentiform Loewenfeld","3.3.12","0","H","S","S","H","462","3298","2373","462","2","legacy","1024","2","48000","-16","experiment","SSHSS","4","even","7011","138724","NA","155333","3707","156381","128287","3699","NA","156383","136350","156487","156950","156487","Flanker Test","88","40055","92","yes","1024"
"95.6989247311828","95.6989247311828","434.38709677419354","434.38709677419354","black","legacy","legacy","legacy","0","congruent","uniform","1","undefined","1","h","0","0","0","92","0","92","92","0","92","92","0","92","92","92","Sat Sep 24 14:03:45 2022","600","The main experiment item","yes","/Users/andrea/Desktop/Adv. Quant Methods/FlankerTest_Savkovic.osexp","no","mono","no","18","no","white","no","yes","768","legacy","12","79","/Users/andrea/Desktop/Adv. Quant Methods/Lab 2.2/AS-subject-4.csv","legacy","Lentiform Loewenfeld","3.3.12","0","H","S","S","H","343","3298","2373","343","2","legacy","1024","2","48000","-16","experiment","HHHHH","4","even","7011","138724","NA","156953","3707","158000","128287","3699","NA","158002","136350","158106","158450","158106","Flanker Test","89","40398","93","yes","1024"
"94.68085106382979","94.68085106382979","433.7340425531915","433.7340425531915","black","legacy","legacy","legacy","0","incongruent","uniform","0","undefined","0","s","0","0","0","93","0","93","93","0","93","93","0","93","93","93","Sat Sep 24 14:03:45 2022","600","The main experiment item","yes","/Users/andrea/Desktop/Adv. Quant Methods/FlankerTest_Savkovic.osexp","no","mono","no","18","no","white","no","yes","768","legacy","13","79","/Users/andrea/Desktop/Adv. Quant Methods/Lab 2.2/AS-subject-4.csv","legacy","Lentiform Loewenfeld","3.3.12","0","H","S","S","H","373","3298","2373","373","2","legacy","1024","2","48000","-16","experiment","HHSHH","4","even","7011","138724","NA","158453","3707","159500","128287","3699","NA","159502","136350","159607","159981","159606","Flanker Test","89","40771","94","yes","1024"
"94.73684210526316","94.73684210526316","434.10526315789474","434.10526315789474","black","legacy","legacy","legacy","0","incongruent","uniform","1","undefined","1","h","0","0","0","94","0","94","94","0","94","94","0","94","94","94","Sat Sep 24 14:03:45 2022","600","The main experiment item","yes","/Users/andrea/Desktop/Adv. Quant Methods/FlankerTest_Savkovic.osexp","no","mono","no","18","no","white","no","yes","768","legacy","14","79","/Users/andrea/Desktop/Adv. Quant Methods/Lab 2.2/AS-subject-4.csv","legacy","Lentiform Loewenfeld","3.3.12","0","H","S","S","H","469","3298","2373","469","2","legacy","1024","2","48000","-16","experiment","SSHSS","4","even","7011","138724","NA","160487","3707","161534","159983","3699","NA","161536","136350","161640","162110","161640","Flanker Test","90","41240","95","yes","1024"
"94.79166666666667","94.79166666666667","433.1458333333333","433.1458333333333","black","legacy","legacy","legacy","0","incongruent","uniform","1","undefined","1","s","0","0","0","95","0","95","95","0","95","95","0","95","95","95","Sat Sep 24 14:03:45 2022","600","The main experiment item","yes","/Users/andrea/Desktop/Adv. Quant Methods/FlankerTest_Savkovic.osexp","no","mono","no","18","no","white","no","yes","768","legacy","15","79","/Users/andrea/Desktop/Adv. Quant Methods/Lab 2.2/AS-subject-4.csv","legacy","Lentiform Loewenfeld","3.3.12","0","S","S","S","S","342","3298","2373","342","2","legacy","1024","2","48000","-16","experiment","HHSHH","4","even","7011","138724","NA","162113","3707","163161","159983","3699","NA","163163","136350","163267","163610","163267","Flanker Test","91","41582","96","yes","1024"
"94.84536082474227","94.84536082474227","432.54639175257734","432.54639175257734","black","legacy","legacy","legacy","0","congruent","uniform","1","undefined","1","s","0","0","0","96","0","96","96","0","96","96","0","96","96","96","Sat Sep 24 14:03:45 2022","600","The main experiment item","yes","/Users/andrea/Desktop/Adv. Quant Methods/FlankerTest_Savkovic.osexp","no","mono","no","18","no","white","no","yes","768","legacy","16","79","/Users/andrea/Desktop/Adv. Quant Methods/Lab 2.2/AS-subject-4.csv","legacy","Lentiform Loewenfeld","3.3.12","0","S","S","S","S","375","3298","2373","375","2","legacy","1024","2","48000","-16","experiment","SSSSS","4","even","7011","138724","NA","163613","3707","164658","159983","3699","NA","164661","136350","164765","165140","164765","Flanker Test","92","41957","97","yes","1024"
"94.89795918367346","94.89795918367346","431.7857142857143","431.7857142857143","black","legacy","legacy","legacy","0","congruent","uniform","1","undefined","1","s","0","0","0","97","0","97","97","0","97","97","0","97","97","97","Sat Sep 24 14:03:45 2022","600","The main experiment item","yes","/Users/andrea/Desktop/Adv. Quant Methods/FlankerTest_Savkovic.osexp","no","mono","no","18","no","white","no","yes","768","legacy","17","79","/Users/andrea/Desktop/Adv. Quant Methods/Lab 2.2/AS-subject-4.csv","legacy","Lentiform Loewenfeld","3.3.12","0","S","S","S","S","358","3298","2373","358","2","legacy","1024","2","48000","-16","experiment","SSSSS","4","even","7011","138724","NA","165143","3707","166191","159983","3699","NA","166193","136350","166297","166656","166297","Flanker Test","93","42315","98","yes","1024"
"94.94949494949495","94.94949494949495","432.26262626262627","432.26262626262627","black","legacy","legacy","legacy","0","incongruent","uniform","1","undefined","1","s","0","0","0","98","0","98","98","0","98","98","0","98","98","98","Sat Sep 24 14:03:45 2022","600","The main experiment item","yes","/Users/andrea/Desktop/Adv. Quant Methods/FlankerTest_Savkovic.osexp","no","mono","no","18","no","white","no","yes","768","legacy","18","79","/Users/andrea/Desktop/Adv. Quant Methods/Lab 2.2/AS-subject-4.csv","legacy","Lentiform Loewenfeld","3.3.12","0","S","S","S","S","479","3298","2373","479","2","legacy","1024","2","48000","-16","experiment","HHSHH","4","even","7011","138724","NA","166659","3707","167705","159983","3699","NA","167707","136350","167811","168291","167811","Flanker Test","94","42794","99","yes","1024"
"95","95","432.1","432.1","black","legacy","legacy","legacy","0","incongruent","uniform","1","undefined","1","h","0","0","0","99","0","99","99","0","99","99","0","99","99","99","Sat Sep 24 14:03:45 2022","600","The main experiment item","yes","/Users/andrea/Desktop/Adv. Quant Methods/FlankerTest_Savkovic.osexp","no","mono","no","18","no","white","no","yes","768","legacy","19","79","/Users/andrea/Desktop/Adv. Quant Methods/Lab 2.2/AS-subject-4.csv","legacy","Lentiform Loewenfeld","3.3.12","0","H","S","S","H","416","3298","2373","416","2","legacy","1024","2","48000","-16","experiment","SSHSS","4","even","7011","138724","NA","168294","3707","169342","159983","3699","NA","169344","136350","169449","169866","169448","Flanker Test","95","43210","100","yes","1024"
"95.04950495049505","95.04950495049505","431.81188118811883","431.81188118811883","black","legacy","legacy","legacy","0","congruent","uniform","1","undefined","1","s","0","0","0","100","0","100","100","0","100","100","0","100","100","100","Sat Sep 24 14:03:45 2022","600","The main experiment item","yes","/Users/andrea/Desktop/Adv. Quant Methods/FlankerTest_Savkovic.osexp","no","mono","no","18","no","white","no","yes","768","legacy","20","79","/Users/andrea/Desktop/Adv. Quant Methods/Lab 2.2/AS-subject-4.csv","legacy","Lentiform Loewenfeld","3.3.12","0","S","S","S","S","403","3298","2373","403","2","legacy","1024","2","48000","-16","experiment","SSSSS","4","even","7011","138724","NA","169869","3707","170916","159983","3699","NA","170918","136350","171022","171426","171022","Flanker Test","96","43613","101","yes","1024"
"95.09803921568627","95.09803921568627","431.8235294117647","431.8235294117647","black","legacy","legacy","legacy","0","congruent","uniform","1","undefined","1","h","0","0","0","101","0","101","101","0","101","101","0","101","101","101","Sat Sep 24 14:03:45 2022","600","The main experiment item","yes","/Users/andrea/Desktop/Adv. Quant Methods/FlankerTest_Savkovic.osexp","no","mono","no","18","no","white","no","yes","768","legacy","21","79","/Users/andrea/Desktop/Adv. Quant Methods/Lab 2.2/AS-subject-4.csv","legacy","Lentiform Loewenfeld","3.3.12","0","H","S","S","H","433","3298","2373","433","2","legacy","1024","2","48000","-16","experiment","HHHHH","4","even","7011","138724","NA","171429","3707","172476","159983","3699","NA","172478","136350","172582","173016","172582","Flanker Test","97","44046","102","yes","1024"
"95.14563106796116","95.14563106796116","432.11650485436894","432.11650485436894","black","legacy","legacy","legacy","0","incongruent","uniform","1","undefined","1","s","0","0","0","102","0","102","102","0","102","102","0","102","102","102","Sat Sep 24 14:03:45 2022","600","The main experiment item","yes","/Users/andrea/Desktop/Adv. Quant Methods/FlankerTest_Savkovic.osexp","no","mono","no","18","no","white","no","yes","768","legacy","22","79","/Users/andrea/Desktop/Adv. Quant Methods/Lab 2.2/AS-subject-4.csv","legacy","Lentiform Loewenfeld","3.3.12","0","S","S","S","S","462","3298","2373","462","2","legacy","1024","2","48000","-16","experiment","HHSHH","4","even","7011","138724","NA","173019","3707","174067","159983","3699","NA","174069","136350","174173","174636","174173","Flanker Test","98","44508","103","yes","1024"
"95.1923076923077","95.1923076923077","431.96153846153845","431.96153846153845","black","legacy","legacy","legacy","0","congruent","uniform","1","undefined","1","s","0","0","0","103","0","103","103","0","103","103","0","103","103","103","Sat Sep 24 14:03:45 2022","600","The main experiment item","yes","/Users/andrea/Desktop/Adv. Quant Methods/FlankerTest_Savkovic.osexp","no","mono","no","18","no","white","no","yes","768","legacy","23","79","/Users/andrea/Desktop/Adv. Quant Methods/Lab 2.2/AS-subject-4.csv","legacy","Lentiform Loewenfeld","3.3.12","0","S","S","S","S","416","3298","2373","416","2","legacy","1024","2","48000","-16","experiment","SSSSS","4","even","7011","138724","NA","174639","3707","175687","159983","3699","NA","175689","136350","175794","176211","175793","Flanker Test","99","44924","104","yes","1024"
"95.23809523809524","95.23809523809524","432.4095238095238","432.4095238095238","black","legacy","legacy","legacy","0","congruent","uniform","1","undefined","1","s","0","0","0","104","0","104","104","0","104","104","0","104","104","104","Sat Sep 24 14:03:45 2022","600","The main experiment item","yes","/Users/andrea/Desktop/Adv. Quant Methods/FlankerTest_Savkovic.osexp","no","mono","no","18","no","white","no","yes","768","legacy","24","79","/Users/andrea/Desktop/Adv. Quant Methods/Lab 2.2/AS-subject-4.csv","legacy","Lentiform Loewenfeld","3.3.12","0","S","S","S","S","479","3298","2373","479","2","legacy","1024","2","48000","-16","experiment","SSSSS","4","even","7011","138724","NA","176214","3707","177261","159983","3699","NA","177264","136350","177368","177847","177368","Flanker Test","100","45403","105","yes","1024"
"95.28301886792453","95.28301886792453","431.9622641509434","431.9622641509434","black","legacy","legacy","legacy","0","congruent","uniform","1","undefined","1","h","0","0","0","105","0","105","105","0","105","105","0","105","105","105","Sat Sep 24 14:03:45 2022","600","The main experiment item","yes","/Users/andrea/Desktop/Adv. Quant Methods/FlankerTest_Savkovic.osexp","no","mono","no","18","no","white","no","yes","768","legacy","25","79","/Users/andrea/Desktop/Adv. Quant Methods/Lab 2.2/AS-subject-4.csv","legacy","Lentiform Loewenfeld","3.3.12","0","H","S","S","H","385","3298","2373","385","2","legacy","1024","2","48000","-16","experiment","HHHHH","4","even","7011","138724","NA","177851","3707","178899","159983","3699","NA","178900","136350","179005","179391","179005","Flanker Test","101","45788","106","yes","1024"
"95.32710280373831","95.32710280373831","432.94392523364485","432.94392523364485","black","legacy","legacy","legacy","0","incongruent","uniform","1","undefined","1","h","0","0","0","106","0","106","106","0","106","106","0","106","106","106","Sat Sep 24 14:03:45 2022","600","The main experiment item","yes","/Users/andrea/Desktop/Adv. Quant Methods/FlankerTest_Savkovic.osexp","no","mono","no","18","no","white","no","yes","768","legacy","26","79","/Users/andrea/Desktop/Adv. Quant Methods/Lab 2.2/AS-subject-4.csv","legacy","Lentiform Loewenfeld","3.3.12","0","H","S","S","H","537","3298","2373","537","2","legacy","1024","2","48000","-16","experiment","SSHSS","4","even","7011","138724","NA","179394","3707","180443","159983","3699","NA","180444","136350","180548","181086","180548","Flanker Test","102","46325","107","yes","1024"
"95.37037037037037","95.37037037037037","433.3333333333333","433.3333333333333","black","legacy","legacy","legacy","0","incongruent","uniform","1","undefined","1","s","0","0","0","107","0","107","107","0","107","107","0","107","107","107","Sat Sep 24 14:03:45 2022","600","The main experiment item","yes","/Users/andrea/Desktop/Adv. Quant Methods/FlankerTest_Savkovic.osexp","no","mono","no","18","no","white","no","yes","768","legacy","27","79","/Users/andrea/Desktop/Adv. Quant Methods/Lab 2.2/AS-subject-4.csv","legacy","Lentiform Loewenfeld","3.3.12","0","S","S","S","S","475","3298","2373","475","2","legacy","1024","2","48000","-16","experiment","HHSHH","4","even","7011","138724","NA","181090","3707","182138","159983","3699","NA","182140","136350","182245","182721","182244","Flanker Test","103","46800","108","yes","1024"
"95.41284403669725","95.41284403669725","433.45871559633025","433.45871559633025","black","legacy","legacy","legacy","0","incongruent","uniform","1","undefined","1","s","0","0","0","108","0","108","108","0","108","108","0","108","108","108","Sat Sep 24 14:03:45 2022","600","The main experiment item","yes","/Users/andrea/Desktop/Adv. Quant Methods/FlankerTest_Savkovic.osexp","no","mono","no","18","no","white","no","yes","768","legacy","28","79","/Users/andrea/Desktop/Adv. Quant Methods/Lab 2.2/AS-subject-4.csv","legacy","Lentiform Loewenfeld","3.3.12","0","S","S","S","S","447","3298","2373","447","2","legacy","1024","2","48000","-16","experiment","HHSHH","4","even","7011","138724","NA","182724","3707","183771","159983","3699","NA","183774","136350","183878","184326","183877","Flanker Test","104","47247","109","yes","1024"
"95.45454545454545","95.45454545454545","433.03636363636366","433.03636363636366","black","legacy","legacy","legacy","0","congruent","uniform","1","undefined","1","s","0","0","0","109","0","109","109","0","109","109","0","109","109","109","Sat Sep 24 14:03:45 2022","600","The main experiment item","yes","/Users/andrea/Desktop/Adv. Quant Methods/FlankerTest_Savkovic.osexp","no","mono","no","18","no","white","no","yes","768","legacy","29","79","/Users/andrea/Desktop/Adv. Quant Methods/Lab 2.2/AS-subject-4.csv","legacy","Lentiform Loewenfeld","3.3.12","0","S","S","S","S","387","3298","2373","387","2","legacy","1024","2","48000","-16","experiment","SSSSS","4","even","7011","138724","NA","184329","3707","185377","159983","3699","NA","185379","136350","185483","185871","185483","Flanker Test","105","47634","110","yes","1024"
"95.49549549549549","95.49549549549549","432.9099099099099","432.9099099099099","black","legacy","legacy","legacy","0","congruent","uniform","1","undefined","1","h","0","0","0","110","0","110","110","0","110","110","0","110","110","110","Sat Sep 24 14:03:45 2022","600","The main experiment item","yes","/Users/andrea/Desktop/Adv. Quant Methods/FlankerTest_Savkovic.osexp","no","mono","no","18","no","white","no","yes","768","legacy","30","79","/Users/andrea/Desktop/Adv. Quant Methods/Lab 2.2/AS-subject-4.csv","legacy","Lentiform Loewenfeld","3.3.12","0","H","S","S","H","419","3298","2373","419","2","legacy","1024","2","48000","-16","experiment","HHHHH","4","even","7011","138724","NA","185874","3707","186921","159983","3699","NA","186923","136350","187027","187447","187027","Flanker Test","106","48053","111","yes","1024"
"95.53571428571429","95.53571428571429","432.89285714285717","432.89285714285717","black","legacy","legacy","legacy","0","congruent","uniform","1","undefined","1","h","0","0","0","111","0","111","111","0","111","111","0","111","111","111","Sat Sep 24 14:03:45 2022","600","The main experiment item","yes","/Users/andrea/Desktop/Adv. Quant Methods/FlankerTest_Savkovic.osexp","no","mono","no","18","no","white","no","yes","768","legacy","31","79","/Users/andrea/Desktop/Adv. Quant Methods/Lab 2.2/AS-subject-4.csv","legacy","Lentiform Loewenfeld","3.3.12","0","H","S","S","H","431","3298","2373","431","2","legacy","1024","2","48000","-16","experiment","HHHHH","4","even","7011","138724","NA","187450","3707","188498","159983","3699","NA","188500","136350","188604","189036","188604","Flanker Test","107","48484","112","yes","1024"
"95.57522123893806","95.57522123893806","433.27433628318585","433.27433628318585","black","legacy","legacy","legacy","0","incongruent","uniform","1","undefined","1","s","0","0","0","112","0","112","112","0","112","112","0","112","112","112","Sat Sep 24 14:03:45 2022","600","The main experiment item","yes","/Users/andrea/Desktop/Adv. Quant Methods/FlankerTest_Savkovic.osexp","no","mono","no","18","no","white","no","yes","768","legacy","32","79","/Users/andrea/Desktop/Adv. Quant Methods/Lab 2.2/AS-subject-4.csv","legacy","Lentiform Loewenfeld","3.3.12","0","S","S","S","S","476","3298","2373","476","2","legacy","1024","2","48000","-16","experiment","HHSHH","4","even","7011","138724","NA","189039","3707","190086","159983","3699","NA","190088","136350","190195","190672","190194","Flanker Test","108","48960","113","yes","1024"
"95.6140350877193","95.6140350877193","432.6140350877193","432.6140350877193","black","legacy","legacy","legacy","0","congruent","uniform","1","undefined","1","s","0","0","0","113","0","113","113","0","113","113","0","113","113","113","Sat Sep 24 14:03:45 2022","600","The main experiment item","yes","/Users/andrea/Desktop/Adv. Quant Methods/FlankerTest_Savkovic.osexp","no","mono","no","18","no","white","no","yes","768","legacy","33","79","/Users/andrea/Desktop/Adv. Quant Methods/Lab 2.2/AS-subject-4.csv","legacy","Lentiform Loewenfeld","3.3.12","0","S","S","S","S","358","3298","2373","358","2","legacy","1024","2","48000","-16","experiment","SSSSS","4","even","7011","138724","NA","190675","3707","191722","159983","3699","NA","191724","136350","191828","192187","191828","Flanker Test","109","49318","114","yes","1024"
"94.78260869565217","94.78260869565217","432.10434782608695","432.10434782608695","black","legacy","legacy","legacy","0","incongruent","uniform","0","undefined","0","s","0","0","0","114","0","114","114","0","114","114","0","114","114","114","Sat Sep 24 14:03:45 2022","600","The main experiment item","yes","/Users/andrea/Desktop/Adv. Quant Methods/FlankerTest_Savkovic.osexp","no","mono","no","18","no","white","no","yes","768","legacy","34","79","/Users/andrea/Desktop/Adv. Quant Methods/Lab 2.2/AS-subject-4.csv","legacy","Lentiform Loewenfeld","3.3.12","0","H","S","S","H","374","3298","2373","374","2","legacy","1024","2","48000","-16","experiment","HHSHH","4","even","7011","138724","NA","192190","3707","193236","159983","3699","NA","193238","136350","193342","193717","193342","Flanker Test","109","49692","115","yes","1024"
"94.82758620689656","94.82758620689656","432.8189655172414","432.8189655172414","black","legacy","legacy","legacy","0","incongruent","uniform","1","undefined","1","h","0","0","0","115","0","115","115","0","115","115","0","115","115","115","Sat Sep 24 14:03:45 2022","600","The main experiment item","yes","/Users/andrea/Desktop/Adv. Quant Methods/FlankerTest_Savkovic.osexp","no","mono","no","18","no","white","no","yes","768","legacy","35","79","/Users/andrea/Desktop/Adv. Quant Methods/Lab 2.2/AS-subject-4.csv","legacy","Lentiform Loewenfeld","3.3.12","0","H","S","S","H","515","3298","2373","515","2","legacy","1024","2","48000","-16","experiment","SSHSS","4","even","7011","138724","NA","194224","3707","195271","193720","3699","NA","195272","136350","195376","195892","195376","Flanker Test","110","50207","116","yes","1024"
"94.87179487179488","94.87179487179488","432.8205128205128","432.8205128205128","black","legacy","legacy","legacy","0","congruent","uniform","1","undefined","1","h","0","0","0","116","0","116","116","0","116","116","0","116","116","116","Sat Sep 24 14:03:45 2022","600","The main experiment item","yes","/Users/andrea/Desktop/Adv. Quant Methods/FlankerTest_Savkovic.osexp","no","mono","no","18","no","white","no","yes","768","legacy","36","79","/Users/andrea/Desktop/Adv. Quant Methods/Lab 2.2/AS-subject-4.csv","legacy","Lentiform Loewenfeld","3.3.12","0","H","S","S","H","433","3298","2373","433","2","legacy","1024","2","48000","-16","experiment","HHHHH","4","even","7011","138724","NA","195895","3707","196942","193720","3699","NA","196944","136350","197048","197483","197048","Flanker Test","111","50640","117","yes","1024"
"94.91525423728814","94.91525423728814","432.5508474576271","432.5508474576271","black","legacy","legacy","legacy","0","incongruent","uniform","1","undefined","1","h","0","0","0","117","0","117","117","0","117","117","0","117","117","117","Sat Sep 24 14:03:45 2022","600","The main experiment item","yes","/Users/andrea/Desktop/Adv. Quant Methods/FlankerTest_Savkovic.osexp","no","mono","no","18","no","white","no","yes","768","legacy","37","79","/Users/andrea/Desktop/Adv. Quant Methods/Lab 2.2/AS-subject-4.csv","legacy","Lentiform Loewenfeld","3.3.12","0","H","S","S","H","401","3298","2373","401","2","legacy","1024","2","48000","-16","experiment","SSHSS","4","even","7011","138724","NA","197485","3707","198533","193720","3699","NA","198535","136350","198639","199041","198639","Flanker Test","112","51041","118","yes","1024"
"94.95798319327731","94.95798319327731","432.6806722689076","432.6806722689076","black","legacy","legacy","legacy","0","congruent","uniform","1","undefined","1","h","0","0","0","118","0","118","118","0","118","118","0","118","118","118","Sat Sep 24 14:03:45 2022","600","The main experiment item","yes","/Users/andrea/Desktop/Adv. Quant Methods/FlankerTest_Savkovic.osexp","no","mono","no","18","no","white","no","yes","768","legacy","38","79","/Users/andrea/Desktop/Adv. Quant Methods/Lab 2.2/AS-subject-4.csv","legacy","Lentiform Loewenfeld","3.3.12","0","H","S","S","H","448","3298","2373","448","2","legacy","1024","2","48000","-16","experiment","HHHHH","4","even","7011","138724","NA","199045","3707","200092","193720","3699","NA","200093","136350","200198","200647","200198","Flanker Test","113","51489","119","yes","1024"
"95","95","432.80833333333334","432.80833333333334","black","legacy","legacy","legacy","0","incongruent","uniform","1","undefined","1","s","0","0","0","119","0","119","119","0","119","119","0","119","119","119","Sat Sep 24 14:03:45 2022","600","The main experiment item","yes","/Users/andrea/Desktop/Adv. Quant Methods/FlankerTest_Savkovic.osexp","no","mono","no","18","no","white","no","yes","768","legacy","39","79","/Users/andrea/Desktop/Adv. Quant Methods/Lab 2.2/AS-subject-4.csv","legacy","Lentiform Loewenfeld","3.3.12","0","S","S","S","S","448","3298","2373","448","2","legacy","1024","2","48000","-16","experiment","HHSHH","4","even","7011","138724","NA","200650","3707","201697","193720","3699","NA","201699","136350","201803","202252","201803","Flanker Test","114","51937","120","yes","1024"
"95.04132231404958","95.04132231404958","432.801652892562","432.801652892562","black","legacy","legacy","legacy","0","congruent","uniform","1","undefined","1","h","0","0","0","120","0","120","120","0","120","120","0","120","120","120","Sat Sep 24 14:03:45 2022","600","The main experiment item","yes","/Users/andrea/Desktop/Adv. Quant Methods/FlankerTest_Savkovic.osexp","no","mono","no","18","no","white","no","yes","768","legacy","40","79","/Users/andrea/Desktop/Adv. Quant Methods/Lab 2.2/AS-subject-4.csv","legacy","Lentiform Loewenfeld","3.3.12","0","H","S","S","H","432","3298","2373","432","2","legacy","1024","2","48000","-16","experiment","HHHHH","4","even","7011","138724","NA","202256","3707","203303","193720","3699","NA","203305","136350","203409","203842","203409","Flanker Test","115","52369","121","yes","1024"
"95.08196721311475","95.08196721311475","433.54918032786884","433.54918032786884","black","legacy","legacy","legacy","0","incongruent","uniform","1","undefined","1","h","0","0","0","121","0","121","121","0","121","121","0","121","121","121","Sat Sep 24 14:03:45 2022","600","The main experiment item","yes","/Users/andrea/Desktop/Adv. Quant Methods/FlankerTest_Savkovic.osexp","no","mono","no","18","no","white","no","yes","768","legacy","41","79","/Users/andrea/Desktop/Adv. Quant Methods/Lab 2.2/AS-subject-4.csv","legacy","Lentiform Loewenfeld","3.3.12","0","H","S","S","H","524","3298","2373","524","2","legacy","1024","2","48000","-16","experiment","SSHSS","4","even","7011","138724","NA","203845","3707","204892","193720","3699","NA","204894","136350","204998","205522","204998","Flanker Test","116","52893","122","yes","1024"
"95.1219512195122","95.1219512195122","434.260162601626","434.260162601626","black","legacy","legacy","legacy","0","incongruent","uniform","1","undefined","1","h","0","0","0","122","0","122","122","0","122","122","0","122","122","122","Sat Sep 24 14:03:45 2022","600","The main experiment item","yes","/Users/andrea/Desktop/Adv. Quant Methods/FlankerTest_Savkovic.osexp","no","mono","no","18","no","white","no","yes","768","legacy","42","79","/Users/andrea/Desktop/Adv. Quant Methods/Lab 2.2/AS-subject-4.csv","legacy","Lentiform Loewenfeld","3.3.12","0","H","S","S","H","521","3298","2373","521","2","legacy","1024","2","48000","-16","experiment","SSHSS","4","even","7011","138724","NA","205525","3707","206574","193720","3699","NA","206576","136350","206680","207202","206680","Flanker Test","117","53414","123","yes","1024"
