"acc","accuracy","average_response_time","avg_rt","background","canvas_backend","clock_backend","color_backend","compensation","condition","coordinates","correct","correct_Instructions","correct_keyboard_response","correct_response","count_Block1","count_Block2","count_Block3","count_Finish","count_Fixation","count_ISI","count_Instructions","count_Instructions2","count_Instructions3","count_Sequence","count_Stimulus","count_errorFeedback","count_experiment","count_faster","count_keyboard_response","count_logger","datetime","deadline","description","disable_garbage_collection","experiment_file","experiment_path","font_bold","font_family","font_italic","font_size","font_underline","foreground","form_clicks","fullscreen","height","keyboard_backend","live_row","live_row_Block1","logfile","mouse_backend","opensesame_codename","opensesame_version","repeat_cycle","response","response_Finish","response_Instructions","response_Instructions2","response_Instructions3","response_keyboard_response","response_time","response_time_Finish","response_time_Instructions","response_time_Instructions2","response_time_Instructions3","response_time_keyboard_response","round_decimals","sampler_backend","sound_buf_size","sound_channels","sound_freq","sound_sample_size","start","stimulus","subject_nr","subject_parity","time_Block1","time_Block2","time_Block3","time_Finish","time_Fixation","time_ISI","time_Instructions","time_Instructions2","time_Instructions3","time_Sequence","time_Stimulus","time_errorFeedback","time_experiment","time_faster","time_keyboard_response","time_logger","title","total_correct","total_response_time","total_responses","uniform_coordinates","width"
"100","100","508","508","black","legacy","legacy","legacy","0","congruent","uniform","1","undefined","1","h","0","0","0","0","0","0","0","0","0","0","0","0","0","0","0","0","09/25/21 22:41:51","1500","The main experiment item","yes","FlankerTask.osexp","C:\Users\Brian\Desktop\College - Graduate\Graduate Work\Advanced Quant","no","mono","no","18","no","white","no","yes","768","legacy","0","0","C:/Users/Brian/Desktop/College - Graduate/Graduate Work/Advanced Quant/BK-subject-3.csv","legacy","Kafkaesque Koffka","3.2.8","0","h","NA","h","NA","NA","h","508","NA","2806","NA","NA","508","2","legacy","1024","2","48000","-16","experiment","hhhhh","3","odd","4687","NA","NA","NA","4763","NA","1880","NA","NA","4761","4866","NA","1871","NA","4866","5374","Flanker Task","1","508","1","yes","1024"
"100","100","458.5","458.5","black","legacy","legacy","legacy","0","congruent","uniform","1","undefined","1","s","0","0","0","0","1","1","0","0","0","1","1","1","0","1","1","1","09/25/21 22:41:51","1500","The main experiment item","yes","FlankerTask.osexp","C:\Users\Brian\Desktop\College - Graduate\Graduate Work\Advanced Quant","no","mono","no","18","no","white","no","yes","768","legacy","1","1","C:/Users/Brian/Desktop/College - Graduate/Graduate Work/Advanced Quant/BK-subject-3.csv","legacy","Kafkaesque Koffka","3.2.8","0","s","NA","h","NA","NA","s","409","NA","2806","NA","NA","409","2","legacy","1024","2","48000","-16","experiment","sssss","3","odd","4687","NA","NA","NA","6461","5388","1880","NA","NA","6459","6564","NA","1871","NA","6564","6974","Flanker Task","2","917","2","yes","1024"
"100","100","467.333333333","467.333333333","black","legacy","legacy","legacy","0","incongruent","uniform","1","undefined","1","s","0","0","0","0","2","2","0","0","0","2","2","2","0","2","2","2","09/25/21 22:41:51","1500","The main experiment item","yes","FlankerTask.osexp","C:\Users\Brian\Desktop\College - Graduate\Graduate Work\Advanced Quant","no","mono","no","18","no","white","no","yes","768","legacy","2","2","C:/Users/Brian/Desktop/College - Graduate/Graduate Work/Advanced Quant/BK-subject-3.csv","legacy","Kafkaesque Koffka","3.2.8","0","s","NA","h","NA","NA","s","485","NA","2806","NA","NA","485","2","legacy","1024","2","48000","-16","experiment","hhshh","3","odd","4687","NA","NA","NA","8054","6983","1880","NA","NA","8051","8157","NA","1871","NA","8157","8642","Flanker Task","3","1402","3","yes","1024"
"75","75","457.25","457.25","black","legacy","legacy","legacy","0","incongruent","uniform","0","undefined","0","s","0","0","0","0","3","3","0","0","0","3","3","3","0","3","3","3","09/25/21 22:41:51","1500","The main experiment item","yes","FlankerTask.osexp","C:\Users\Brian\Desktop\College - Graduate\Graduate Work\Advanced Quant","no","mono","no","18","no","white","no","yes","768","legacy","3","3","C:/Users/Brian/Desktop/College - Graduate/Graduate Work/Advanced Quant/BK-subject-3.csv","legacy","Kafkaesque Koffka","3.2.8","0","h","NA","h","NA","NA","h","427","NA","2806","NA","NA","427","2","legacy","1024","2","48000","-16","experiment","hhshh","3","odd","4687","NA","NA","NA","9731","8651","1880","NA","NA","9729","9834","NA","1871","NA","9834","10261","Flanker Task","3","1829","4","yes","1024"
"80","80","465.8","465.8","black","legacy","legacy","legacy","0","congruent","uniform","1","undefined","1","h","0","0","0","0","4","4","0","0","0","4","4","4","0","4","4","4","09/25/21 22:41:51","1500","The main experiment item","yes","FlankerTask.osexp","C:\Users\Brian\Desktop\College - Graduate\Graduate Work\Advanced Quant","no","mono","no","18","no","white","no","yes","768","legacy","4","4","C:/Users/Brian/Desktop/College - Graduate/Graduate Work/Advanced Quant/BK-subject-3.csv","legacy","Kafkaesque Koffka","3.2.8","0","h","NA","h","NA","NA","h","500","NA","2806","NA","NA","500","2","legacy","1024","2","48000","-16","experiment","hhhhh","3","odd","4687","NA","NA","NA","11842","10769","1880","NA","NA","11840","11943","10266","1871","NA","11943","12443","Flanker Task","4","2329","5","yes","1024"
"83.3333333333","83.3333333333","457.166666667","457.166666667","black","legacy","legacy","legacy","0","incongruent","uniform","1","undefined","1","h","0","0","0","0","5","5","0","0","0","5","5","5","0","5","5","5","09/25/21 22:41:51","1500","The main experiment item","yes","FlankerTask.osexp","C:\Users\Brian\Desktop\College - Graduate\Graduate Work\Advanced Quant","no","mono","no","18","no","white","no","yes","768","legacy","5","5","C:/Users/Brian/Desktop/College - Graduate/Graduate Work/Advanced Quant/BK-subject-3.csv","legacy","Kafkaesque Koffka","3.2.8","0","h","NA","h","NA","NA","h","414","NA","2806","NA","NA","414","2","legacy","1024","2","48000","-16","experiment","sshss","3","odd","4687","NA","NA","NA","13530","12452","1880","NA","NA","13528","13633","10266","1871","NA","13633","14048","Flanker Task","5","2743","6","yes","1024"
"85.7142857143","85.7142857143","461.571428571","461.571428571","black","legacy","legacy","legacy","0","incongruent","uniform","1","undefined","1","h","0","0","0","0","6","6","0","0","0","6","6","6","0","6","6","6","09/25/21 22:41:51","1500","The main experiment item","yes","FlankerTask.osexp","C:\Users\Brian\Desktop\College - Graduate\Graduate Work\Advanced Quant","no","mono","no","18","no","white","no","yes","768","legacy","6","6","C:/Users/Brian/Desktop/College - Graduate/Graduate Work/Advanced Quant/BK-subject-3.csv","legacy","Kafkaesque Koffka","3.2.8","0","h","NA","h","NA","NA","h","488","NA","2806","NA","NA","488","2","legacy","1024","2","48000","-16","experiment","sshss","3","odd","4687","NA","NA","NA","15135","14057","1880","NA","NA","15133","15238","10266","1871","NA","15238","15727","Flanker Task","6","3231","7","yes","1024"
"75","75","458.625","458.625","black","legacy","legacy","legacy","0","incongruent","uniform","0","undefined","0","s","0","0","0","0","7","7","0","0","0","7","7","7","0","7","7","7","09/25/21 22:41:51","1500","The main experiment item","yes","FlankerTask.osexp","C:\Users\Brian\Desktop\College - Graduate\Graduate Work\Advanced Quant","no","mono","no","18","no","white","no","yes","768","legacy","7","7","C:/Users/Brian/Desktop/College - Graduate/Graduate Work/Advanced Quant/BK-subject-3.csv","legacy","Kafkaesque Koffka","3.2.8","0","h","NA","h","NA","NA","h","438","NA","2806","NA","NA","438","2","legacy","1024","2","48000","-16","experiment","hhshh","3","odd","4687","NA","NA","NA","16809","15736","1880","NA","NA","16807","16912","10266","1871","NA","16912","17351","Flanker Task","6","3669","8","yes","1024"
"77.7777777778","77.7777777778","461.888888889","461.888888889","black","legacy","legacy","legacy","0","incongruent","uniform","1","undefined","1","s","0","0","0","0","8","8","0","0","0","8","8","8","0","8","8","8","09/25/21 22:41:51","1500","The main experiment item","yes","FlankerTask.osexp","C:\Users\Brian\Desktop\College - Graduate\Graduate Work\Advanced Quant","no","mono","no","18","no","white","no","yes","768","legacy","8","8","C:/Users/Brian/Desktop/College - Graduate/Graduate Work/Advanced Quant/BK-subject-3.csv","legacy","Kafkaesque Koffka","3.2.8","0","s","NA","h","NA","NA","s","488","NA","2806","NA","NA","488","2","legacy","1024","2","48000","-16","experiment","hhshh","3","odd","4687","NA","NA","NA","18936","17862","1880","NA","NA","18934","19039","17359","1871","NA","19039","19528","Flanker Task","7","4157","9","yes","1024"
"80","80","461.8","461.8","black","legacy","legacy","legacy","0","incongruent","uniform","1","undefined","1","h","0","0","0","0","9","9","0","0","0","9","9","9","0","9","9","9","09/25/21 22:41:51","1500","The main experiment item","yes","FlankerTask.osexp","C:\Users\Brian\Desktop\College - Graduate\Graduate Work\Advanced Quant","no","mono","no","18","no","white","no","yes","768","legacy","9","9","C:/Users/Brian/Desktop/College - Graduate/Graduate Work/Advanced Quant/BK-subject-3.csv","legacy","Kafkaesque Koffka","3.2.8","0","h","NA","h","NA","NA","h","461","NA","2806","NA","NA","461","2","legacy","1024","2","48000","-16","experiment","sshss","3","odd","4687","NA","NA","NA","20607","19536","1880","NA","NA","20605","20710","17359","1871","NA","20710","21172","Flanker Task","8","4618","10","yes","1024"
"81.8181818182","81.8181818182","465.545454545","465.545454545","black","legacy","legacy","legacy","0","congruent","uniform","1","undefined","1","h","0","0","0","0","10","10","0","0","0","10","10","10","0","10","10","10","09/25/21 22:41:51","1500","The main experiment item","yes","FlankerTask.osexp","C:\Users\Brian\Desktop\College - Graduate\Graduate Work\Advanced Quant","no","mono","no","18","no","white","no","yes","768","legacy","10","10","C:/Users/Brian/Desktop/College - Graduate/Graduate Work/Advanced Quant/BK-subject-3.csv","legacy","Kafkaesque Koffka","3.2.8","0","h","NA","h","NA","NA","h","503","NA","2806","NA","NA","503","2","legacy","1024","2","48000","-16","experiment","hhhhh","3","odd","4687","NA","NA","NA","22259","21181","1880","NA","NA","22256","22362","17359","1871","NA","22362","22866","Flanker Task","9","5121","11","yes","1024"
"83.3333333333","83.3333333333","459.583333333","459.583333333","black","legacy","legacy","legacy","0","incongruent","uniform","1","undefined","1","s","0","0","0","0","11","11","0","0","0","11","11","11","0","11","11","11","09/25/21 22:41:51","1500","The main experiment item","yes","FlankerTask.osexp","C:\Users\Brian\Desktop\College - Graduate\Graduate Work\Advanced Quant","no","mono","no","18","no","white","no","yes","768","legacy","11","11","C:/Users/Brian/Desktop/College - Graduate/Graduate Work/Advanced Quant/BK-subject-3.csv","legacy","Kafkaesque Koffka","3.2.8","0","s","NA","h","NA","NA","s","394","NA","2806","NA","NA","394","2","legacy","1024","2","48000","-16","experiment","hhshh","3","odd","4687","NA","NA","NA","23947","22875","1880","NA","NA","23945","24050","17359","1871","NA","24050","24445","Flanker Task","10","5515","12","yes","1024"
"84.6153846154","84.6153846154","454.538461538","454.538461538","black","legacy","legacy","legacy","0","congruent","uniform","1","undefined","1","h","0","0","0","0","12","12","0","0","0","12","12","12","0","12","12","12","09/25/21 22:41:51","1500","The main experiment item","yes","FlankerTask.osexp","C:\Users\Brian\Desktop\College - Graduate\Graduate Work\Advanced Quant","no","mono","no","18","no","white","no","yes","768","legacy","12","12","C:/Users/Brian/Desktop/College - Graduate/Graduate Work/Advanced Quant/BK-subject-3.csv","legacy","Kafkaesque Koffka","3.2.8","0","h","NA","h","NA","NA","h","394","NA","2806","NA","NA","394","2","legacy","1024","2","48000","-16","experiment","hhhhh","3","odd","4687","NA","NA","NA","25522","24449","1880","NA","NA","25520","25623","17359","1871","NA","25624","26019","Flanker Task","11","5909","13","yes","1024"
"78.5714285714","78.5714285714","450.642857143","450.642857143","black","legacy","legacy","legacy","0","congruent","uniform","0","undefined","0","h","0","0","0","0","13","13","0","0","0","13","13","13","0","13","13","13","09/25/21 22:41:51","1500","The main experiment item","yes","FlankerTask.osexp","C:\Users\Brian\Desktop\College - Graduate\Graduate Work\Advanced Quant","no","mono","no","18","no","white","no","yes","768","legacy","13","13","C:/Users/Brian/Desktop/College - Graduate/Graduate Work/Advanced Quant/BK-subject-3.csv","legacy","Kafkaesque Koffka","3.2.8","0","s","NA","h","NA","NA","s","400","NA","2806","NA","NA","400","2","legacy","1024","2","48000","-16","experiment","hhhhh","3","odd","4687","NA","NA","NA","27101","26028","1880","NA","NA","27099","27204","17359","1871","NA","27204","27604","Flanker Task","11","6309","14","yes","1024"
"80","80","455.733333333","455.733333333","black","legacy","legacy","legacy","0","incongruent","uniform","1","undefined","1","h","0","0","0","0","14","14","0","0","0","14","14","14","0","14","14","14","09/25/21 22:41:51","1500","The main experiment item","yes","FlankerTask.osexp","C:\Users\Brian\Desktop\College - Graduate\Graduate Work\Advanced Quant","no","mono","no","18","no","white","no","yes","768","legacy","14","14","C:/Users/Brian/Desktop/College - Graduate/Graduate Work/Advanced Quant/BK-subject-3.csv","legacy","Kafkaesque Koffka","3.2.8","0","h","NA","h","NA","NA","h","527","NA","2806","NA","NA","527","2","legacy","1024","2","48000","-16","experiment","sshss","3","odd","4687","NA","NA","NA","29185","28114","1880","NA","NA","29183","29288","27612","1871","NA","29288","29816","Flanker Task","12","6836","15","yes","1024"
"81.25","81.25","462.25","462.25","black","legacy","legacy","legacy","0","incongruent","uniform","1","undefined","1","h","0","0","0","0","15","15","0","0","0","15","15","15","0","15","15","15","09/25/21 22:41:51","1500","The main experiment item","yes","FlankerTask.osexp","C:\Users\Brian\Desktop\College - Graduate\Graduate Work\Advanced Quant","no","mono","no","18","no","white","no","yes","768","legacy","15","15","C:/Users/Brian/Desktop/College - Graduate/Graduate Work/Advanced Quant/BK-subject-3.csv","legacy","Kafkaesque Koffka","3.2.8","0","h","NA","h","NA","NA","h","560","NA","2806","NA","NA","560","2","legacy","1024","2","48000","-16","experiment","sshss","3","odd","4687","NA","NA","NA","30901","29825","1880","NA","NA","30899","31004","27612","1871","NA","31004","31564","Flanker Task","13","7396","16","yes","1024"
"82.3529411765","82.3529411765","458.529411765","458.529411765","black","legacy","legacy","legacy","0","incongruent","uniform","1","undefined","1","s","0","0","0","0","16","16","0","0","0","16","16","16","0","16","16","16","09/25/21 22:41:51","1500","The main experiment item","yes","FlankerTask.osexp","C:\Users\Brian\Desktop\College - Graduate\Graduate Work\Advanced Quant","no","mono","no","18","no","white","no","yes","768","legacy","16","16","C:/Users/Brian/Desktop/College - Graduate/Graduate Work/Advanced Quant/BK-subject-3.csv","legacy","Kafkaesque Koffka","3.2.8","0","s","NA","h","NA","NA","s","399","NA","2806","NA","NA","399","2","legacy","1024","2","48000","-16","experiment","hhshh","3","odd","4687","NA","NA","NA","32648","31573","1880","NA","NA","32646","32749","27612","1871","NA","32749","33149","Flanker Task","14","7795","17","yes","1024"
"83.3333333333","83.3333333333","460","460","black","legacy","legacy","legacy","0","congruent","uniform","1","undefined","1","s","0","0","0","0","17","17","0","0","0","17","17","17","0","17","17","17","09/25/21 22:41:51","1500","The main experiment item","yes","FlankerTask.osexp","C:\Users\Brian\Desktop\College - Graduate\Graduate Work\Advanced Quant","no","mono","no","18","no","white","no","yes","768","legacy","17","17","C:/Users/Brian/Desktop/College - Graduate/Graduate Work/Advanced Quant/BK-subject-3.csv","legacy","Kafkaesque Koffka","3.2.8","0","s","NA","h","NA","NA","s","485","NA","2806","NA","NA","485","2","legacy","1024","2","48000","-16","experiment","sssss","3","odd","4687","NA","NA","NA","34228","33158","1880","NA","NA","34226","34331","27612","1871","NA","34331","34817","Flanker Task","15","8280","18","yes","1024"
"84.2105263158","84.2105263158","465.157894737","465.157894737","black","legacy","legacy","legacy","0","congruent","uniform","1","undefined","1","s","0","0","0","0","18","18","0","0","0","18","18","18","0","18","18","18","09/25/21 22:41:51","1500","The main experiment item","yes","FlankerTask.osexp","C:\Users\Brian\Desktop\College - Graduate\Graduate Work\Advanced Quant","no","mono","no","18","no","white","no","yes","768","legacy","18","18","C:/Users/Brian/Desktop/College - Graduate/Graduate Work/Advanced Quant/BK-subject-3.csv","legacy","Kafkaesque Koffka","3.2.8","0","s","NA","h","NA","NA","s","558","NA","2806","NA","NA","558","2","legacy","1024","2","48000","-16","experiment","sssss","3","odd","4687","NA","NA","NA","35900","34825","1880","NA","NA","35898","36003","27612","1871","NA","36003","36562","Flanker Task","16","8838","19","yes","1024"
"85","85","466.7","466.7","black","legacy","legacy","legacy","0","congruent","uniform","1","undefined","1","s","0","0","0","0","19","19","0","0","0","19","19","19","0","19","19","19","09/25/21 22:41:51","1500","The main experiment item","yes","FlankerTask.osexp","C:\Users\Brian\Desktop\College - Graduate\Graduate Work\Advanced Quant","no","mono","no","18","no","white","no","yes","768","legacy","19","19","C:/Users/Brian/Desktop/College - Graduate/Graduate Work/Advanced Quant/BK-subject-3.csv","legacy","Kafkaesque Koffka","3.2.8","0","s","NA","h","NA","NA","s","496","NA","2806","NA","NA","496","2","legacy","1024","2","48000","-16","experiment","sssss","3","odd","4687","NA","NA","NA","37646","36571","1880","NA","NA","37644","37749","27612","1871","NA","37749","38245","Flanker Task","17","9334","20","yes","1024"
"85.7142857143","85.7142857143","466.19047619","466.19047619","black","legacy","legacy","legacy","0","incongruent","uniform","1","undefined","1","h","0","0","0","0","20","20","0","0","0","20","20","20","0","20","20","20","09/25/21 22:41:51","1500","The main experiment item","yes","FlankerTask.osexp","C:\Users\Brian\Desktop\College - Graduate\Graduate Work\Advanced Quant","no","mono","no","18","no","white","no","yes","768","legacy","20","20","C:/Users/Brian/Desktop/College - Graduate/Graduate Work/Advanced Quant/BK-subject-3.csv","legacy","Kafkaesque Koffka","3.2.8","0","h","NA","h","NA","NA","h","456","NA","2806","NA","NA","456","2","legacy","1024","2","48000","-16","experiment","sshss","3","odd","4687","NA","NA","NA","39329","38254","1880","NA","NA","39327","39432","27612","1871","NA","39432","39889","Flanker Task","18","9790","21","yes","1024"
"86.3636363636","86.3636363636","465.863636364","465.863636364","black","legacy","legacy","legacy","0","incongruent","uniform","1","undefined","1","h","0","0","0","0","21","21","0","0","0","21","21","21","0","21","21","21","09/25/21 22:41:51","1500","The main experiment item","yes","FlankerTask.osexp","C:\Users\Brian\Desktop\College - Graduate\Graduate Work\Advanced Quant","no","mono","no","18","no","white","no","yes","768","legacy","21","21","C:/Users/Brian/Desktop/College - Graduate/Graduate Work/Advanced Quant/BK-subject-3.csv","legacy","Kafkaesque Koffka","3.2.8","0","h","NA","h","NA","NA","h","459","NA","2806","NA","NA","459","2","legacy","1024","2","48000","-16","experiment","sshss","3","odd","4687","NA","NA","NA","40973","39898","1880","NA","NA","40971","41075","27612","1871","NA","41075","41535","Flanker Task","19","10249","22","yes","1024"
"82.6086956522","82.6086956522","458.782608696","458.782608696","black","legacy","legacy","legacy","0","incongruent","uniform","0","undefined","0","h","0","0","0","0","22","22","0","0","0","22","22","22","0","22","22","22","09/25/21 22:41:51","1500","The main experiment item","yes","FlankerTask.osexp","C:\Users\Brian\Desktop\College - Graduate\Graduate Work\Advanced Quant","no","mono","no","18","no","white","no","yes","768","legacy","22","22","C:/Users/Brian/Desktop/College - Graduate/Graduate Work/Advanced Quant/BK-subject-3.csv","legacy","Kafkaesque Koffka","3.2.8","0","s","NA","h","NA","NA","s","303","NA","2806","NA","NA","303","2","legacy","1024","2","48000","-16","experiment","sshss","3","odd","4687","NA","NA","NA","42626","41543","1880","NA","NA","42623","42729","27612","1871","NA","42729","43032","Flanker Task","19","10552","23","yes","1024"
"83.3333333333","83.3333333333","453.291666667","453.291666667","black","legacy","legacy","legacy","0","incongruent","uniform","1","undefined","1","s","0","0","0","0","23","23","0","0","0","23","23","23","0","23","23","23","09/25/21 22:41:51","1500","The main experiment item","yes","FlankerTask.osexp","C:\Users\Brian\Desktop\College - Graduate\Graduate Work\Advanced Quant","no","mono","no","18","no","white","no","yes","768","legacy","23","23","C:/Users/Brian/Desktop/College - Graduate/Graduate Work/Advanced Quant/BK-subject-3.csv","legacy","Kafkaesque Koffka","3.2.8","0","s","NA","h","NA","NA","s","327","NA","2806","NA","NA","327","2","legacy","1024","2","48000","-16","experiment","hhshh","3","odd","4687","NA","NA","NA","44615","43544","1880","NA","NA","44613","44718","43041","1871","NA","44718","45045","Flanker Task","20","10879","24","yes","1024"
"84","84","452.8","452.8","black","legacy","legacy","legacy","0","congruent","uniform","1","undefined","1","s","0","0","0","0","24","24","0","0","0","24","24","24","0","24","24","24","09/25/21 22:41:51","1500","The main experiment item","yes","FlankerTask.osexp","C:\Users\Brian\Desktop\College - Graduate\Graduate Work\Advanced Quant","no","mono","no","18","no","white","no","yes","768","legacy","24","24","C:/Users/Brian/Desktop/College - Graduate/Graduate Work/Advanced Quant/BK-subject-3.csv","legacy","Kafkaesque Koffka","3.2.8","0","s","NA","h","NA","NA","s","441","NA","2806","NA","NA","441","2","legacy","1024","2","48000","-16","experiment","sssss","3","odd","4687","NA","NA","NA","46130","45055","1880","NA","NA","46128","46233","43041","1871","NA","46233","46675","Flanker Task","21","11320","25","yes","1024"
"80.7692307692","80.7692307692","450.807692308","450.807692308","black","legacy","legacy","legacy","0","congruent","uniform","0","undefined","0","h","0","0","0","0","25","25","0","0","0","25","25","25","0","25","25","25","09/25/21 22:41:51","1500","The main experiment item","yes","FlankerTask.osexp","C:\Users\Brian\Desktop\College - Graduate\Graduate Work\Advanced Quant","no","mono","no","18","no","white","no","yes","768","legacy","25","25","C:/Users/Brian/Desktop/College - Graduate/Graduate Work/Advanced Quant/BK-subject-3.csv","legacy","Kafkaesque Koffka","3.2.8","0","s","NA","h","NA","NA","s","401","NA","2806","NA","NA","401","2","legacy","1024","2","48000","-16","experiment","hhhhh","3","odd","4687","NA","NA","NA","47759","46684","1880","NA","NA","47756","47862","43041","1871","NA","47862","48264","Flanker Task","21","11721","26","yes","1024"
"81.4814814815","81.4814814815","451.962962963","451.962962963","black","legacy","legacy","legacy","0","incongruent","uniform","1","undefined","1","h","0","0","0","0","26","26","0","0","0","26","26","26","0","26","26","26","09/25/21 22:41:51","1500","The main experiment item","yes","FlankerTask.osexp","C:\Users\Brian\Desktop\College - Graduate\Graduate Work\Advanced Quant","no","mono","no","18","no","white","no","yes","768","legacy","26","26","C:/Users/Brian/Desktop/College - Graduate/Graduate Work/Advanced Quant/BK-subject-3.csv","legacy","Kafkaesque Koffka","3.2.8","0","h","NA","h","NA","NA","h","482","NA","2806","NA","NA","482","2","legacy","1024","2","48000","-16","experiment","sshss","3","odd","4687","NA","NA","NA","49849","48776","1880","NA","NA","49847","49953","48273","1871","NA","49953","50436","Flanker Task","22","12203","27","yes","1024"
"82.1428571429","82.1428571429","450.714285714","450.714285714","black","legacy","legacy","legacy","0","congruent","uniform","1","undefined","1","h","0","0","0","0","27","27","0","0","0","27","27","27","0","27","27","27","09/25/21 22:41:51","1500","The main experiment item","yes","FlankerTask.osexp","C:\Users\Brian\Desktop\College - Graduate\Graduate Work\Advanced Quant","no","mono","no","18","no","white","no","yes","768","legacy","27","27","C:/Users/Brian/Desktop/College - Graduate/Graduate Work/Advanced Quant/BK-subject-3.csv","legacy","Kafkaesque Koffka","3.2.8","0","h","NA","h","NA","NA","h","417","NA","2806","NA","NA","417","2","legacy","1024","2","48000","-16","experiment","hhhhh","3","odd","4687","NA","NA","NA","51524","50445","1880","NA","NA","51522","51627","48273","1871","NA","51627","52045","Flanker Task","23","12620","28","yes","1024"
"82.7586206897","82.7586206897","450.793103448","450.793103448","black","legacy","legacy","legacy","0","congruent","uniform","1","undefined","1","h","0","0","0","0","28","28","0","0","0","28","28","28","0","28","28","28","09/25/21 22:41:51","1500","The main experiment item","yes","FlankerTask.osexp","C:\Users\Brian\Desktop\College - Graduate\Graduate Work\Advanced Quant","no","mono","no","18","no","white","no","yes","768","legacy","28","28","C:/Users/Brian/Desktop/College - Graduate/Graduate Work/Advanced Quant/BK-subject-3.csv","legacy","Kafkaesque Koffka","3.2.8","0","h","NA","h","NA","NA","h","453","NA","2806","NA","NA","453","2","legacy","1024","2","48000","-16","experiment","hhhhh","3","odd","4687","NA","NA","NA","53127","52050","1880","NA","NA","53125","53230","48273","1871","NA","53230","53684","Flanker Task","24","13073","29","yes","1024"
"83.3333333333","83.3333333333","450.9","450.9","black","legacy","legacy","legacy","0","incongruent","uniform","1","undefined","1","s","0","0","0","0","29","29","0","0","0","29","29","29","0","29","29","29","09/25/21 22:41:51","1500","The main experiment item","yes","FlankerTask.osexp","C:\Users\Brian\Desktop\College - Graduate\Graduate Work\Advanced Quant","no","mono","no","18","no","white","no","yes","768","legacy","29","29","C:/Users/Brian/Desktop/College - Graduate/Graduate Work/Advanced Quant/BK-subject-3.csv","legacy","Kafkaesque Koffka","3.2.8","0","s","NA","h","NA","NA","s","454","NA","2806","NA","NA","454","2","legacy","1024","2","48000","-16","experiment","hhshh","3","odd","4687","NA","NA","NA","54773","53693","1880","NA","NA","54770","54874","48273","1871","NA","54874","55329","Flanker Task","25","13527","30","yes","1024"
"80.6451612903","80.6451612903","451.129032258","451.129032258","black","legacy","legacy","legacy","0","congruent","uniform","0","undefined","0","s","0","0","0","0","30","30","0","0","0","30","30","30","0","30","30","30","09/25/21 22:41:51","1500","The main experiment item","yes","FlankerTask.osexp","C:\Users\Brian\Desktop\College - Graduate\Graduate Work\Advanced Quant","no","mono","no","18","no","white","no","yes","768","legacy","30","30","C:/Users/Brian/Desktop/College - Graduate/Graduate Work/Advanced Quant/BK-subject-3.csv","legacy","Kafkaesque Koffka","3.2.8","0","h","NA","h","NA","NA","h","458","NA","2806","NA","NA","458","2","legacy","1024","2","48000","-16","experiment","sssss","3","odd","4687","NA","NA","NA","56412","55337","1880","NA","NA","56409","56513","48273","1871","NA","56514","56972","Flanker Task","25","13985","31","yes","1024"
"81.25","81.25","450.8125","450.8125","black","legacy","legacy","legacy","0","congruent","uniform","1","undefined","1","h","0","0","0","0","31","31","0","0","0","31","31","31","0","31","31","31","09/25/21 22:41:51","1500","The main experiment item","yes","FlankerTask.osexp","C:\Users\Brian\Desktop\College - Graduate\Graduate Work\Advanced Quant","no","mono","no","18","no","white","no","yes","768","legacy","31","31","C:/Users/Brian/Desktop/College - Graduate/Graduate Work/Advanced Quant/BK-subject-3.csv","legacy","Kafkaesque Koffka","3.2.8","0","h","NA","h","NA","NA","h","441","NA","2806","NA","NA","441","2","legacy","1024","2","48000","-16","experiment","hhhhh","3","odd","4687","NA","NA","NA","58555","57483","1880","NA","NA","58552","58658","56980","1871","NA","58658","59100","Flanker Task","26","14426","32","yes","1024"
"81.8181818182","81.8181818182","450.666666667","450.666666667","black","legacy","legacy","legacy","0","incongruent","uniform","1","undefined","1","s","0","0","0","0","32","32","0","0","0","32","32","32","0","32","32","32","09/25/21 22:41:51","1500","The main experiment item","yes","FlankerTask.osexp","C:\Users\Brian\Desktop\College - Graduate\Graduate Work\Advanced Quant","no","mono","no","18","no","white","no","yes","768","legacy","32","32","C:/Users/Brian/Desktop/College - Graduate/Graduate Work/Advanced Quant/BK-subject-3.csv","legacy","Kafkaesque Koffka","3.2.8","0","s","NA","h","NA","NA","s","446","NA","2806","NA","NA","446","2","legacy","1024","2","48000","-16","experiment","hhshh","3","odd","4687","NA","NA","NA","60189","59109","1880","NA","NA","60186","60292","56980","1871","NA","60292","60739","Flanker Task","27","14872","33","yes","1024"
"79.4117647059","79.4117647059","452.088235294","452.088235294","black","legacy","legacy","legacy","0","congruent","uniform","0","undefined","0","s","0","0","0","0","33","33","0","0","0","33","33","33","0","33","33","33","09/25/21 22:41:51","1500","The main experiment item","yes","FlankerTask.osexp","C:\Users\Brian\Desktop\College - Graduate\Graduate Work\Advanced Quant","no","mono","no","18","no","white","no","yes","768","legacy","33","33","C:/Users/Brian/Desktop/College - Graduate/Graduate Work/Advanced Quant/BK-subject-3.csv","legacy","Kafkaesque Koffka","3.2.8","0","h","NA","h","NA","NA","h","499","NA","2806","NA","NA","499","2","legacy","1024","2","48000","-16","experiment","sssss","3","odd","4687","NA","NA","NA","61820","60744","1880","NA","NA","61818","61923","56980","1871","NA","61923","62422","Flanker Task","27","15371","34","yes","1024"
"80","80","449.657142857","449.657142857","black","legacy","legacy","legacy","0","incongruent","uniform","1","undefined","1","s","0","0","0","0","34","34","0","0","0","34","34","34","0","34","34","34","09/25/21 22:41:51","1500","The main experiment item","yes","FlankerTask.osexp","C:\Users\Brian\Desktop\College - Graduate\Graduate Work\Advanced Quant","no","mono","no","18","no","white","no","yes","768","legacy","34","34","C:/Users/Brian/Desktop/College - Graduate/Graduate Work/Advanced Quant/BK-subject-3.csv","legacy","Kafkaesque Koffka","3.2.8","0","s","NA","h","NA","NA","s","367","NA","2806","NA","NA","367","2","legacy","1024","2","48000","-16","experiment","hhshh","3","odd","4687","NA","NA","NA","64005","62932","1880","NA","NA","64002","64108","62430","1871","NA","64108","64476","Flanker Task","28","15738","35","yes","1024"
"80.5555555556","80.5555555556","449.666666667","449.666666667","black","legacy","legacy","legacy","0","incongruent","uniform","1","undefined","1","s","0","0","0","0","35","35","0","0","0","35","35","35","0","35","35","35","09/25/21 22:41:51","1500","The main experiment item","yes","FlankerTask.osexp","C:\Users\Brian\Desktop\College - Graduate\Graduate Work\Advanced Quant","no","mono","no","18","no","white","no","yes","768","legacy","35","35","C:/Users/Brian/Desktop/College - Graduate/Graduate Work/Advanced Quant/BK-subject-3.csv","legacy","Kafkaesque Koffka","3.2.8","0","s","NA","h","NA","NA","s","450","NA","2806","NA","NA","450","2","legacy","1024","2","48000","-16","experiment","hhshh","3","odd","4687","NA","NA","NA","65561","64480","1880","NA","NA","65559","65664","62430","1871","NA","65664","66115","Flanker Task","29","16188","36","yes","1024"
"81.0810810811","81.0810810811","448.972972973","448.972972973","black","legacy","legacy","legacy","0","congruent","uniform","1","undefined","1","s","0","0","0","0","36","36","0","0","0","36","36","36","0","36","36","36","09/25/21 22:41:51","1500","The main experiment item","yes","FlankerTask.osexp","C:\Users\Brian\Desktop\College - Graduate\Graduate Work\Advanced Quant","no","mono","no","18","no","white","no","yes","768","legacy","36","36","C:/Users/Brian/Desktop/College - Graduate/Graduate Work/Advanced Quant/BK-subject-3.csv","legacy","Kafkaesque Koffka","3.2.8","0","s","NA","h","NA","NA","s","424","NA","2806","NA","NA","424","2","legacy","1024","2","48000","-16","experiment","sssss","3","odd","4687","NA","NA","NA","67196","66123","1880","NA","NA","67194","67297","62430","1871","NA","67298","67723","Flanker Task","30","16612","37","yes","1024"
"81.5789473684","81.5789473684","448.605263158","448.605263158","black","legacy","legacy","legacy","0","incongruent","uniform","1","undefined","1","s","0","0","0","0","37","37","0","0","0","37","37","37","0","37","37","37","09/25/21 22:41:51","1500","The main experiment item","yes","FlankerTask.osexp","C:\Users\Brian\Desktop\College - Graduate\Graduate Work\Advanced Quant","no","mono","no","18","no","white","no","yes","768","legacy","37","37","C:/Users/Brian/Desktop/College - Graduate/Graduate Work/Advanced Quant/BK-subject-3.csv","legacy","Kafkaesque Koffka","3.2.8","0","s","NA","h","NA","NA","s","435","NA","2806","NA","NA","435","2","legacy","1024","2","48000","-16","experiment","hhshh","3","odd","4687","NA","NA","NA","68803","67732","1880","NA","NA","68801","68906","62430","1871","NA","68906","69342","Flanker Task","31","17047","38","yes","1024"
"82.0512820513","82.0512820513","446.487179487","446.487179487","black","legacy","legacy","legacy","0","incongruent","uniform","1","undefined","1","s","0","0","0","0","38","38","0","0","0","38","38","38","0","38","38","38","09/25/21 22:41:51","1500","The main experiment item","yes","FlankerTask.osexp","C:\Users\Brian\Desktop\College - Graduate\Graduate Work\Advanced Quant","no","mono","no","18","no","white","no","yes","768","legacy","38","38","C:/Users/Brian/Desktop/College - Graduate/Graduate Work/Advanced Quant/BK-subject-3.csv","legacy","Kafkaesque Koffka","3.2.8","0","s","NA","h","NA","NA","s","366","NA","2806","NA","NA","366","2","legacy","1024","2","48000","-16","experiment","hhshh","3","odd","4687","NA","NA","NA","70419","69347","1880","NA","NA","70418","70520","62430","1871","NA","70520","70887","Flanker Task","32","17413","39","yes","1024"
"82.5","82.5","448.05","448.05","black","legacy","legacy","legacy","0","incongruent","uniform","1","undefined","1","h","0","0","0","0","39","39","0","0","0","39","39","39","0","39","39","39","09/25/21 22:41:51","1500","The main experiment item","yes","FlankerTask.osexp","C:\Users\Brian\Desktop\College - Graduate\Graduate Work\Advanced Quant","no","mono","no","18","no","white","no","yes","768","legacy","39","39","C:/Users/Brian/Desktop/College - Graduate/Graduate Work/Advanced Quant/BK-subject-3.csv","legacy","Kafkaesque Koffka","3.2.8","0","h","NA","h","NA","NA","h","509","NA","2806","NA","NA","509","2","legacy","1024","2","48000","-16","experiment","sshss","3","odd","4687","NA","NA","NA","71967","70896","1880","NA","NA","71964","72070","62430","1871","NA","72070","72580","Flanker Task","33","17922","40","yes","1024"
"82.9268292683","82.9268292683","449.463414634","449.463414634","black","legacy","legacy","legacy","0","congruent","uniform","1","undefined","1","h","0","0","0","0","40","40","0","0","0","40","40","40","0","40","40","40","09/25/21 22:41:51","1500","The main experiment item","yes","FlankerTask.osexp","C:\Users\Brian\Desktop\College - Graduate\Graduate Work\Advanced Quant","no","mono","no","18","no","white","no","yes","768","legacy","40","40","C:/Users/Brian/Desktop/College - Graduate/Graduate Work/Advanced Quant/BK-subject-3.csv","legacy","Kafkaesque Koffka","3.2.8","0","h","NA","h","NA","NA","h","506","NA","2806","NA","NA","506","2","legacy","1024","2","48000","-16","experiment","hhhhh","3","odd","4687","NA","NA","NA","73665","72588","1880","NA","NA","73663","73767","62430","1871","NA","73767","74274","Flanker Task","34","18428","41","yes","1024"
"83.3333333333","83.3333333333","449.333333333","449.333333333","black","legacy","legacy","legacy","0","congruent","uniform","1","undefined","1","h","0","0","0","0","41","41","0","0","0","41","41","41","0","41","41","41","09/25/21 22:41:51","1500","The main experiment item","yes","FlankerTask.osexp","C:\Users\Brian\Desktop\College - Graduate\Graduate Work\Advanced Quant","no","mono","no","18","no","white","no","yes","768","legacy","41","41","C:/Users/Brian/Desktop/College - Graduate/Graduate Work/Advanced Quant/BK-subject-3.csv","legacy","Kafkaesque Koffka","3.2.8","0","h","NA","h","NA","NA","h","444","NA","2806","NA","NA","444","2","legacy","1024","2","48000","-16","experiment","hhhhh","3","odd","4687","NA","NA","NA","75361","74283","1880","NA","NA","75359","75464","62430","1871","NA","75464","75909","Flanker Task","35","18872","42","yes","1024"
"81.3953488372","81.3953488372","447.744186047","447.744186047","black","legacy","legacy","legacy","0","congruent","uniform","0","undefined","0","h","0","0","0","0","42","42","0","0","0","42","42","42","0","42","42","42","09/25/21 22:41:51","1500","The main experiment item","yes","FlankerTask.osexp","C:\Users\Brian\Desktop\College - Graduate\Graduate Work\Advanced Quant","no","mono","no","18","no","white","no","yes","768","legacy","42","42","C:/Users/Brian/Desktop/College - Graduate/Graduate Work/Advanced Quant/BK-subject-3.csv","legacy","Kafkaesque Koffka","3.2.8","0","s","NA","h","NA","NA","s","381","NA","2806","NA","NA","381","2","legacy","1024","2","48000","-16","experiment","hhhhh","3","odd","4687","NA","NA","NA","76994","75918","1880","NA","NA","76992","77097","62430","1871","NA","77097","77479","Flanker Task","35","19253","43","yes","1024"
"81.8181818182","81.8181818182","446.909090909","446.909090909","black","legacy","legacy","legacy","0","congruent","uniform","1","undefined","1","s","0","0","0","0","43","43","0","0","0","43","43","43","0","43","43","43","09/25/21 22:41:51","1500","The main experiment item","yes","FlankerTask.osexp","C:\Users\Brian\Desktop\College - Graduate\Graduate Work\Advanced Quant","no","mono","no","18","no","white","no","yes","768","legacy","43","43","C:/Users/Brian/Desktop/College - Graduate/Graduate Work/Advanced Quant/BK-subject-3.csv","legacy","Kafkaesque Koffka","3.2.8","0","s","NA","h","NA","NA","s","411","NA","2806","NA","NA","411","2","legacy","1024","2","48000","-16","experiment","sssss","3","odd","4687","NA","NA","NA","79060","77990","1880","NA","NA","79058","79163","77488","1871","NA","79163","79574","Flanker Task","36","19664","44","yes","1024"
"82.2222222222","82.2222222222","447.044444444","447.044444444","black","legacy","legacy","legacy","0","congruent","uniform","1","undefined","1","h","0","0","0","0","44","44","0","0","0","44","44","44","0","44","44","44","09/25/21 22:41:51","1500","The main experiment item","yes","FlankerTask.osexp","C:\Users\Brian\Desktop\College - Graduate\Graduate Work\Advanced Quant","no","mono","no","18","no","white","no","yes","768","legacy","44","44","C:/Users/Brian/Desktop/College - Graduate/Graduate Work/Advanced Quant/BK-subject-3.csv","legacy","Kafkaesque Koffka","3.2.8","0","h","NA","h","NA","NA","h","453","NA","2806","NA","NA","453","2","legacy","1024","2","48000","-16","experiment","hhhhh","3","odd","4687","NA","NA","NA","80652","79579","1880","NA","NA","80650","80755","77488","1871","NA","80755","81208","Flanker Task","37","20117","45","yes","1024"
"82.6086956522","82.6086956522","446","446","black","legacy","legacy","legacy","0","congruent","uniform","1","undefined","1","s","0","0","0","0","45","45","0","0","0","45","45","45","0","45","45","45","09/25/21 22:41:51","1500","The main experiment item","yes","FlankerTask.osexp","C:\Users\Brian\Desktop\College - Graduate\Graduate Work\Advanced Quant","no","mono","no","18","no","white","no","yes","768","legacy","45","45","C:/Users/Brian/Desktop/College - Graduate/Graduate Work/Advanced Quant/BK-subject-3.csv","legacy","Kafkaesque Koffka","3.2.8","0","s","NA","h","NA","NA","s","399","NA","2806","NA","NA","399","2","legacy","1024","2","48000","-16","experiment","sssss","3","odd","4687","NA","NA","NA","82295","81217","1880","NA","NA","82292","82398","77488","1871","NA","82398","82799","Flanker Task","38","20516","46","yes","1024"
"82.9787234043","82.9787234043","444.574468085","444.574468085","black","legacy","legacy","legacy","0","congruent","uniform","1","undefined","1","s","0","0","0","0","46","46","0","0","0","46","46","46","0","46","46","46","09/25/21 22:41:51","1500","The main experiment item","yes","FlankerTask.osexp","C:\Users\Brian\Desktop\College - Graduate\Graduate Work\Advanced Quant","no","mono","no","18","no","white","no","yes","768","legacy","46","46","C:/Users/Brian/Desktop/College - Graduate/Graduate Work/Advanced Quant/BK-subject-3.csv","legacy","Kafkaesque Koffka","3.2.8","0","s","NA","h","NA","NA","s","379","NA","2806","NA","NA","379","2","legacy","1024","2","48000","-16","experiment","sssss","3","odd","4687","NA","NA","NA","83879","82808","1880","NA","NA","83877","83982","77488","1871","NA","83982","84362","Flanker Task","39","20895","47","yes","1024"
"83.3333333333","83.3333333333","442.583333333","442.583333333","black","legacy","legacy","legacy","0","incongruent","uniform","1","undefined","1","s","0","0","0","0","47","47","0","0","0","47","47","47","0","47","47","47","09/25/21 22:41:51","1500","The main experiment item","yes","FlankerTask.osexp","C:\Users\Brian\Desktop\College - Graduate\Graduate Work\Advanced Quant","no","mono","no","18","no","white","no","yes","768","legacy","47","47","C:/Users/Brian/Desktop/College - Graduate/Graduate Work/Advanced Quant/BK-subject-3.csv","legacy","Kafkaesque Koffka","3.2.8","0","s","NA","h","NA","NA","s","349","NA","2806","NA","NA","349","2","legacy","1024","2","48000","-16","experiment","hhshh","3","odd","4687","NA","NA","NA","85438","84366","1880","NA","NA","85435","85540","77488","1871","NA","85541","85891","Flanker Task","40","21244","48","yes","1024"
"83.6734693878","83.6734693878","439.306122449","439.306122449","black","legacy","legacy","legacy","0","incongruent","uniform","1","undefined","1","h","0","0","0","0","48","48","0","0","0","48","48","48","0","48","48","48","09/25/21 22:41:51","1500","The main experiment item","yes","FlankerTask.osexp","C:\Users\Brian\Desktop\College - Graduate\Graduate Work\Advanced Quant","no","mono","no","18","no","white","no","yes","768","legacy","48","48","C:/Users/Brian/Desktop/College - Graduate/Graduate Work/Advanced Quant/BK-subject-3.csv","legacy","Kafkaesque Koffka","3.2.8","0","h","NA","h","NA","NA","h","282","NA","2806","NA","NA","282","2","legacy","1024","2","48000","-16","experiment","sshss","3","odd","4687","NA","NA","NA","86976","85900","1880","NA","NA","86974","87078","77488","1871","NA","87078","87361","Flanker Task","41","21526","49","yes","1024"
"84","84","437.72","437.72","black","legacy","legacy","legacy","0","congruent","uniform","1","undefined","1","h","0","0","0","0","49","49","0","0","0","49","49","49","0","49","49","49","09/25/21 22:41:51","1500","The main experiment item","yes","FlankerTask.osexp","C:\Users\Brian\Desktop\College - Graduate\Graduate Work\Advanced Quant","no","mono","no","18","no","white","no","yes","768","legacy","49","49","C:/Users/Brian/Desktop/College - Graduate/Graduate Work/Advanced Quant/BK-subject-3.csv","legacy","Kafkaesque Koffka","3.2.8","0","h","NA","h","NA","NA","h","360","NA","2806","NA","NA","360","2","legacy","1024","2","48000","-16","experiment","hhhhh","3","odd","4687","NA","NA","NA","88446","87370","1880","NA","NA","88444","88549","77488","1871","NA","88549","88910","Flanker Task","42","21886","50","yes","1024"
"82.3529411765","82.3529411765","436.215686275","436.215686275","black","legacy","legacy","legacy","0","incongruent","uniform","0","undefined","0","s","0","0","0","0","50","50","0","0","0","50","50","50","0","50","50","50","09/25/21 22:41:51","1500","The main experiment item","yes","FlankerTask.osexp","C:\Users\Brian\Desktop\College - Graduate\Graduate Work\Advanced Quant","no","mono","no","18","no","white","no","yes","768","legacy","50","50","C:/Users/Brian/Desktop/College - Graduate/Graduate Work/Advanced Quant/BK-subject-3.csv","legacy","Kafkaesque Koffka","3.2.8","0","h","NA","h","NA","NA","h","361","NA","2806","NA","NA","361","2","legacy","1024","2","48000","-16","experiment","hhshh","3","odd","4687","NA","NA","NA","89995","88919","1880","NA","NA","89993","90098","77488","1871","NA","90098","90460","Flanker Task","42","22247","51","yes","1024"
"82.6923076923","82.6923076923","435.788461538","435.788461538","black","legacy","legacy","legacy","0","congruent","uniform","1","undefined","1","s","0","0","0","0","51","51","0","0","0","51","51","51","0","51","51","51","09/25/21 22:41:51","1500","The main experiment item","yes","FlankerTask.osexp","C:\Users\Brian\Desktop\College - Graduate\Graduate Work\Advanced Quant","no","mono","no","18","no","white","no","yes","768","legacy","51","51","C:/Users/Brian/Desktop/College - Graduate/Graduate Work/Advanced Quant/BK-subject-3.csv","legacy","Kafkaesque Koffka","3.2.8","0","s","NA","h","NA","NA","s","414","NA","2806","NA","NA","414","2","legacy","1024","2","48000","-16","experiment","sssss","3","odd","4687","NA","NA","NA","92038","90969","1880","NA","NA","92036","92141","90468","1871","NA","92141","92556","Flanker Task","43","22661","52","yes","1024"
"83.0188679245","83.0188679245","435.20754717","435.20754717","black","legacy","legacy","legacy","0","incongruent","uniform","1","undefined","1","s","0","0","0","0","52","52","0","0","0","52","52","52","0","52","52","52","09/25/21 22:41:51","1500","The main experiment item","yes","FlankerTask.osexp","C:\Users\Brian\Desktop\College - Graduate\Graduate Work\Advanced Quant","no","mono","no","18","no","white","no","yes","768","legacy","52","52","C:/Users/Brian/Desktop/College - Graduate/Graduate Work/Advanced Quant/BK-subject-3.csv","legacy","Kafkaesque Koffka","3.2.8","0","s","NA","h","NA","NA","s","405","NA","2806","NA","NA","405","2","legacy","1024","2","48000","-16","experiment","hhshh","3","odd","4687","NA","NA","NA","93641","92564","1880","NA","NA","93639","93744","90468","1871","NA","93744","94151","Flanker Task","44","23066","53","yes","1024"
"83.3333333333","83.3333333333","435.37037037","435.37037037","black","legacy","legacy","legacy","0","congruent","uniform","1","undefined","1","h","0","0","0","0","53","53","0","0","0","53","53","53","0","53","53","53","09/25/21 22:41:51","1500","The main experiment item","yes","FlankerTask.osexp","C:\Users\Brian\Desktop\College - Graduate\Graduate Work\Advanced Quant","no","mono","no","18","no","white","no","yes","768","legacy","53","53","C:/Users/Brian/Desktop/College - Graduate/Graduate Work/Advanced Quant/BK-subject-3.csv","legacy","Kafkaesque Koffka","3.2.8","0","h","NA","h","NA","NA","h","444","NA","2806","NA","NA","444","2","legacy","1024","2","48000","-16","experiment","hhhhh","3","odd","4687","NA","NA","NA","95231","94160","1880","NA","NA","95229","95334","90468","1871","NA","95334","95780","Flanker Task","45","23510","54","yes","1024"
"81.8181818182","81.8181818182","433.618181818","433.618181818","black","legacy","legacy","legacy","0","incongruent","uniform","0","undefined","0","h","0","0","0","0","54","54","0","0","0","54","54","54","0","54","54","54","09/25/21 22:41:51","1500","The main experiment item","yes","FlankerTask.osexp","C:\Users\Brian\Desktop\College - Graduate\Graduate Work\Advanced Quant","no","mono","no","18","no","white","no","yes","768","legacy","54","54","C:/Users/Brian/Desktop/College - Graduate/Graduate Work/Advanced Quant/BK-subject-3.csv","legacy","Kafkaesque Koffka","3.2.8","0","s","NA","h","NA","NA","s","339","NA","2806","NA","NA","339","2","legacy","1024","2","48000","-16","experiment","sshss","3","odd","4687","NA","NA","NA","96871","95789","1880","NA","NA","96868","96974","90468","1871","NA","96974","97315","Flanker Task","45","23849","55","yes","1024"
"82.1428571429","82.1428571429","432.125","432.125","black","legacy","legacy","legacy","0","incongruent","uniform","1","undefined","1","s","0","0","0","0","55","55","0","0","0","55","55","55","0","55","55","55","09/25/21 22:41:51","1500","The main experiment item","yes","FlankerTask.osexp","C:\Users\Brian\Desktop\College - Graduate\Graduate Work\Advanced Quant","no","mono","no","18","no","white","no","yes","768","legacy","55","55","C:/Users/Brian/Desktop/College - Graduate/Graduate Work/Advanced Quant/BK-subject-3.csv","legacy","Kafkaesque Koffka","3.2.8","0","s","NA","h","NA","NA","s","350","NA","2806","NA","NA","350","2","legacy","1024","2","48000","-16","experiment","hhshh","3","odd","4687","NA","NA","NA","98900","97825","1880","NA","NA","98898","99001","97324","1871","NA","99001","99353","Flanker Task","46","24199","56","yes","1024"
"82.4561403509","82.4561403509","430.947368421","430.947368421","black","legacy","legacy","legacy","0","congruent","uniform","1","undefined","1","s","0","0","0","0","56","56","0","0","0","56","56","56","0","56","56","56","09/25/21 22:41:51","1500","The main experiment item","yes","FlankerTask.osexp","C:\Users\Brian\Desktop\College - Graduate\Graduate Work\Advanced Quant","no","mono","no","18","no","white","no","yes","768","legacy","56","56","C:/Users/Brian/Desktop/College - Graduate/Graduate Work/Advanced Quant/BK-subject-3.csv","legacy","Kafkaesque Koffka","3.2.8","0","s","NA","h","NA","NA","s","365","NA","2806","NA","NA","365","2","legacy","1024","2","48000","-16","experiment","sssss","3","odd","4687","NA","NA","NA","100432","99357","1880","NA","NA","100430","100534","97324","1871","NA","100534","100900","Flanker Task","47","24564","57","yes","1024"
"81.0344827586","81.0344827586","429.775862069","429.775862069","black","legacy","legacy","legacy","0","incongruent","uniform","0","undefined","0","h","0","0","0","0","57","57","0","0","0","57","57","57","0","57","57","57","09/25/21 22:41:51","1500","The main experiment item","yes","FlankerTask.osexp","C:\Users\Brian\Desktop\College - Graduate\Graduate Work\Advanced Quant","no","mono","no","18","no","white","no","yes","768","legacy","57","57","C:/Users/Brian/Desktop/College - Graduate/Graduate Work/Advanced Quant/BK-subject-3.csv","legacy","Kafkaesque Koffka","3.2.8","0","s","NA","h","NA","NA","s","363","NA","2806","NA","NA","363","2","legacy","1024","2","48000","-16","experiment","sshss","3","odd","4687","NA","NA","NA","101981","100910","1880","NA","NA","101979","102085","97324","1871","NA","102085","102450","Flanker Task","47","24927","58","yes","1024"
"81.3559322034","81.3559322034","428.830508475","428.830508475","black","legacy","legacy","legacy","0","congruent","uniform","1","undefined","1","s","0","0","0","0","58","58","0","0","0","58","58","58","0","58","58","58","09/25/21 22:41:51","1500","The main experiment item","yes","FlankerTask.osexp","C:\Users\Brian\Desktop\College - Graduate\Graduate Work\Advanced Quant","no","mono","no","18","no","white","no","yes","768","legacy","58","58","C:/Users/Brian/Desktop/College - Graduate/Graduate Work/Advanced Quant/BK-subject-3.csv","legacy","Kafkaesque Koffka","3.2.8","0","s","NA","h","NA","NA","s","374","NA","2806","NA","NA","374","2","legacy","1024","2","48000","-16","experiment","sssss","3","odd","4687","NA","NA","NA","104033","102962","1880","NA","NA","104031","104137","102459","1871","NA","104137","104512","Flanker Task","48","25301","59","yes","1024"
"81.6666666667","81.6666666667","429.566666667","429.566666667","black","legacy","legacy","legacy","0","congruent","uniform","1","undefined","1","h","0","0","0","0","59","59","0","0","0","59","59","59","0","59","59","59","09/25/21 22:41:51","1500","The main experiment item","yes","FlankerTask.osexp","C:\Users\Brian\Desktop\College - Graduate\Graduate Work\Advanced Quant","no","mono","no","18","no","white","no","yes","768","legacy","59","59","C:/Users/Brian/Desktop/College - Graduate/Graduate Work/Advanced Quant/BK-subject-3.csv","legacy","Kafkaesque Koffka","3.2.8","0","h","NA","h","NA","NA","h","473","NA","2806","NA","NA","473","2","legacy","1024","2","48000","-16","experiment","hhhhh","3","odd","4687","NA","NA","NA","105590","104517","1880","NA","NA","105588","105692","102459","1871","NA","105692","106166","Flanker Task","49","25774","60","yes","1024"
"81.9672131148","81.9672131148","431.06557377","431.06557377","black","legacy","legacy","legacy","0","incongruent","uniform","1","undefined","1","s","0","0","0","0","60","60","0","0","0","60","60","60","0","60","60","60","09/25/21 22:41:51","1500","The main experiment item","yes","FlankerTask.osexp","C:\Users\Brian\Desktop\College - Graduate\Graduate Work\Advanced Quant","no","mono","no","18","no","white","no","yes","768","legacy","60","60","C:/Users/Brian/Desktop/College - Graduate/Graduate Work/Advanced Quant/BK-subject-3.csv","legacy","Kafkaesque Koffka","3.2.8","0","s","NA","h","NA","NA","s","521","NA","2806","NA","NA","521","2","legacy","1024","2","48000","-16","experiment","hhshh","3","odd","4687","NA","NA","NA","107249","106175","1880","NA","NA","107246","107352","102459","1871","NA","107352","107875","Flanker Task","50","26295","61","yes","1024"
"82.2580645161","82.2580645161","430.435483871","430.435483871","black","legacy","legacy","legacy","0","congruent","uniform","1","undefined","1","h","0","0","0","0","61","61","0","0","0","61","61","61","0","61","61","61","09/25/21 22:41:51","1500","The main experiment item","yes","FlankerTask.osexp","C:\Users\Brian\Desktop\College - Graduate\Graduate Work\Advanced Quant","no","mono","no","18","no","white","no","yes","768","legacy","61","61","C:/Users/Brian/Desktop/College - Graduate/Graduate Work/Advanced Quant/BK-subject-3.csv","legacy","Kafkaesque Koffka","3.2.8","0","h","NA","h","NA","NA","h","392","NA","2806","NA","NA","392","2","legacy","1024","2","48000","-16","experiment","hhhhh","3","odd","4687","NA","NA","NA","108957","107884","1880","NA","NA","108955","109060","102459","1871","NA","109060","109454","Flanker Task","51","26687","62","yes","1024"
"82.5396825397","82.5396825397","427.206349206","427.206349206","black","legacy","legacy","legacy","0","congruent","uniform","1","undefined","1","s","0","0","0","0","62","62","0","0","0","62","62","62","0","62","62","62","09/25/21 22:41:51","1500","The main experiment item","yes","FlankerTask.osexp","C:\Users\Brian\Desktop\College - Graduate\Graduate Work\Advanced Quant","no","mono","no","18","no","white","no","yes","768","legacy","62","62","C:/Users/Brian/Desktop/College - Graduate/Graduate Work/Advanced Quant/BK-subject-3.csv","legacy","Kafkaesque Koffka","3.2.8","0","s","NA","h","NA","NA","s","227","NA","2806","NA","NA","227","2","legacy","1024","2","48000","-16","experiment","sssss","3","odd","4687","NA","NA","NA","110533","109458","1880","NA","NA","110531","110635","102459","1871","NA","110635","110863","Flanker Task","52","26914","63","yes","1024"
"82.8125","82.8125","426.625","426.625","black","legacy","legacy","legacy","0","incongruent","uniform","1","undefined","1","h","0","0","0","0","63","63","0","0","0","63","63","63","0","63","63","63","09/25/21 22:41:51","1500","The main experiment item","yes","FlankerTask.osexp","C:\Users\Brian\Desktop\College - Graduate\Graduate Work\Advanced Quant","no","mono","no","18","no","white","no","yes","768","legacy","63","63","C:/Users/Brian/Desktop/College - Graduate/Graduate Work/Advanced Quant/BK-subject-3.csv","legacy","Kafkaesque Koffka","3.2.8","0","h","NA","h","NA","NA","h","390","NA","2806","NA","NA","390","2","legacy","1024","2","48000","-16","experiment","sshss","3","odd","4687","NA","NA","NA","111948","110872","1880","NA","NA","111946","112051","102459","1871","NA","112051","112443","Flanker Task","53","27304","64","yes","1024"
"81.5384615385","81.5384615385","425.492307692","425.492307692","black","legacy","legacy","legacy","0","incongruent","uniform","0","undefined","0","h","0","0","0","0","64","64","0","0","0","64","64","64","0","64","64","64","09/25/21 22:41:51","1500","The main experiment item","yes","FlankerTask.osexp","C:\Users\Brian\Desktop\College - Graduate\Graduate Work\Advanced Quant","no","mono","no","18","no","white","no","yes","768","legacy","64","64","C:/Users/Brian/Desktop/College - Graduate/Graduate Work/Advanced Quant/BK-subject-3.csv","legacy","Kafkaesque Koffka","3.2.8","0","s","NA","h","NA","NA","s","353","NA","2806","NA","NA","353","2","legacy","1024","2","48000","-16","experiment","sshss","3","odd","4687","NA","NA","NA","113526","112452","1880","NA","NA","113524","113627","102459","1871","NA","113627","113982","Flanker Task","53","27657","65","yes","1024"
"80.303030303","80.303030303","424.045454545","424.045454545","black","legacy","legacy","legacy","0","incongruent","uniform","0","undefined","0","h","0","0","0","0","65","65","0","0","0","65","65","65","0","65","65","65","09/25/21 22:41:51","1500","The main experiment item","yes","FlankerTask.osexp","C:\Users\Brian\Desktop\College - Graduate\Graduate Work\Advanced Quant","no","mono","no","18","no","white","no","yes","768","legacy","65","65","C:/Users/Brian/Desktop/College - Graduate/Graduate Work/Advanced Quant/BK-subject-3.csv","legacy","Kafkaesque Koffka","3.2.8","0","s","NA","h","NA","NA","s","330","NA","2806","NA","NA","330","2","legacy","1024","2","48000","-16","experiment","sshss","3","odd","4687","NA","NA","NA","115566","114493","1880","NA","NA","115564","115668","113990","1871","NA","115668","115999","Flanker Task","53","27987","66","yes","1024"
"80.5970149254","80.5970149254","425.343283582","425.343283582","black","legacy","legacy","legacy","0","incongruent","uniform","1","undefined","1","h","0","0","0","0","66","66","0","0","0","66","66","66","0","66","66","66","09/25/21 22:41:51","1500","The main experiment item","yes","FlankerTask.osexp","C:\Users\Brian\Desktop\College - Graduate\Graduate Work\Advanced Quant","no","mono","no","18","no","white","no","yes","768","legacy","66","66","C:/Users/Brian/Desktop/College - Graduate/Graduate Work/Advanced Quant/BK-subject-3.csv","legacy","Kafkaesque Koffka","3.2.8","0","h","NA","h","NA","NA","h","511","NA","2806","NA","NA","511","2","legacy","1024","2","48000","-16","experiment","sshss","3","odd","4687","NA","NA","NA","117577","116506","1880","NA","NA","117575","117678","116003","1871","NA","117678","118191","Flanker Task","54","28498","67","yes","1024"
"80.8823529412","80.8823529412","423.558823529","423.558823529","black","legacy","legacy","legacy","0","congruent","uniform","1","undefined","1","s","0","0","0","0","67","67","0","0","0","67","67","67","0","67","67","67","09/25/21 22:41:51","1500","The main experiment item","yes","FlankerTask.osexp","C:\Users\Brian\Desktop\College - Graduate\Graduate Work\Advanced Quant","no","mono","no","18","no","white","no","yes","768","legacy","67","67","C:/Users/Brian/Desktop/College - Graduate/Graduate Work/Advanced Quant/BK-subject-3.csv","legacy","Kafkaesque Koffka","3.2.8","0","s","NA","h","NA","NA","s","304","NA","2806","NA","NA","304","2","legacy","1024","2","48000","-16","experiment","sssss","3","odd","4687","NA","NA","NA","119274","118200","1880","NA","NA","119272","119375","116003","1871","NA","119375","119680","Flanker Task","55","28802","68","yes","1024"
"81.1594202899","81.1594202899","424.304347826","424.304347826","black","legacy","legacy","legacy","0","congruent","uniform","1","undefined","1","s","0","0","0","0","68","68","0","0","0","68","68","68","0","68","68","68","09/25/21 22:41:51","1500","The main experiment item","yes","FlankerTask.osexp","C:\Users\Brian\Desktop\College - Graduate\Graduate Work\Advanced Quant","no","mono","no","18","no","white","no","yes","768","legacy","68","68","C:/Users/Brian/Desktop/College - Graduate/Graduate Work/Advanced Quant/BK-subject-3.csv","legacy","Kafkaesque Koffka","3.2.8","0","s","NA","h","NA","NA","s","475","NA","2806","NA","NA","475","2","legacy","1024","2","48000","-16","experiment","sssss","3","odd","4687","NA","NA","NA","120756","119685","1880","NA","NA","120754","120858","116003","1871","NA","120859","121335","Flanker Task","56","29277","69","yes","1024"
"81.4285714286","81.4285714286","423.171428571","423.171428571","black","legacy","legacy","legacy","0","congruent","uniform","1","undefined","1","h","0","0","0","0","69","69","0","0","0","69","69","69","0","69","69","69","09/25/21 22:41:51","1500","The main experiment item","yes","FlankerTask.osexp","C:\Users\Brian\Desktop\College - Graduate\Graduate Work\Advanced Quant","no","mono","no","18","no","white","no","yes","768","legacy","69","69","C:/Users/Brian/Desktop/College - Graduate/Graduate Work/Advanced Quant/BK-subject-3.csv","legacy","Kafkaesque Koffka","3.2.8","0","h","NA","h","NA","NA","h","345","NA","2806","NA","NA","345","2","legacy","1024","2","48000","-16","experiment","hhhhh","3","odd","4687","NA","NA","NA","122418","121344","1880","NA","NA","122416","122521","116003","1871","NA","122521","122868","Flanker Task","57","29622","70","yes","1024"
"81.6901408451","81.6901408451","423.816901408","423.816901408","black","legacy","legacy","legacy","0","incongruent","uniform","1","undefined","1","s","0","0","0","0","70","70","0","0","0","70","70","70","0","70","70","70","09/25/21 22:41:51","1500","The main experiment item","yes","FlankerTask.osexp","C:\Users\Brian\Desktop\College - Graduate\Graduate Work\Advanced Quant","no","mono","no","18","no","white","no","yes","768","legacy","70","70","C:/Users/Brian/Desktop/College - Graduate/Graduate Work/Advanced Quant/BK-subject-3.csv","legacy","Kafkaesque Koffka","3.2.8","0","s","NA","h","NA","NA","s","469","NA","2806","NA","NA","469","2","legacy","1024","2","48000","-16","experiment","hhshh","3","odd","4687","NA","NA","NA","123956","122877","1880","NA","NA","123954","124058","116003","1871","NA","124058","124529","Flanker Task","58","30091","71","yes","1024"
"81.9444444444","81.9444444444","423.125","423.125","black","legacy","legacy","legacy","0","incongruent","uniform","1","undefined","1","s","0","0","0","0","71","71","0","0","0","71","71","71","0","71","71","71","09/25/21 22:41:51","1500","The main experiment item","yes","FlankerTask.osexp","C:\Users\Brian\Desktop\College - Graduate\Graduate Work\Advanced Quant","no","mono","no","18","no","white","no","yes","768","legacy","71","71","C:/Users/Brian/Desktop/College - Graduate/Graduate Work/Advanced Quant/BK-subject-3.csv","legacy","Kafkaesque Koffka","3.2.8","0","s","NA","h","NA","NA","s","374","NA","2806","NA","NA","374","2","legacy","1024","2","48000","-16","experiment","hhshh","3","odd","4687","NA","NA","NA","125608","124534","1880","NA","NA","125606","125711","116003","1871","NA","125711","126087","Flanker Task","59","30465","72","yes","1024"
"82.1917808219","82.1917808219","422.904109589","422.904109589","black","legacy","legacy","legacy","0","congruent","uniform","1","undefined","1","h","0","0","0","0","72","72","0","0","0","72","72","72","0","72","72","72","09/25/21 22:41:51","1500","The main experiment item","yes","FlankerTask.osexp","C:\Users\Brian\Desktop\College - Graduate\Graduate Work\Advanced Quant","no","mono","no","18","no","white","no","yes","768","legacy","72","72","C:/Users/Brian/Desktop/College - Graduate/Graduate Work/Advanced Quant/BK-subject-3.csv","legacy","Kafkaesque Koffka","3.2.8","0","h","NA","h","NA","NA","h","407","NA","2806","NA","NA","407","2","legacy","1024","2","48000","-16","experiment","hhhhh","3","odd","4687","NA","NA","NA","127174","126096","1880","NA","NA","127172","127277","116003","1871","NA","127277","127685","Flanker Task","60","30872","73","yes","1024"
"82.4324324324","82.4324324324","423.972972973","423.972972973","black","legacy","legacy","legacy","0","incongruent","uniform","1","undefined","1","h","0","0","0","0","73","73","0","0","0","73","73","73","0","73","73","73","09/25/21 22:41:51","1500","The main experiment item","yes","FlankerTask.osexp","C:\Users\Brian\Desktop\College - Graduate\Graduate Work\Advanced Quant","no","mono","no","18","no","white","no","yes","768","legacy","73","73","C:/Users/Brian/Desktop/College - Graduate/Graduate Work/Advanced Quant/BK-subject-3.csv","legacy","Kafkaesque Koffka","3.2.8","0","h","NA","h","NA","NA","h","502","NA","2806","NA","NA","502","2","legacy","1024","2","48000","-16","experiment","sshss","3","odd","4687","NA","NA","NA","128762","127690","1880","NA","NA","128760","128865","116003","1871","NA","128865","129369","Flanker Task","61","31374","74","yes","1024"
"82.6666666667","82.6666666667","423.146666667","423.146666667","black","legacy","legacy","legacy","0","congruent","uniform","1","undefined","1","s","0","0","0","0","74","74","0","0","0","74","74","74","0","74","74","74","09/25/21 22:41:51","1500","The main experiment item","yes","FlankerTask.osexp","C:\Users\Brian\Desktop\College - Graduate\Graduate Work\Advanced Quant","no","mono","no","18","no","white","no","yes","768","legacy","74","74","C:/Users/Brian/Desktop/College - Graduate/Graduate Work/Advanced Quant/BK-subject-3.csv","legacy","Kafkaesque Koffka","3.2.8","0","s","NA","h","NA","NA","s","362","NA","2806","NA","NA","362","2","legacy","1024","2","48000","-16","experiment","sssss","3","odd","4687","NA","NA","NA","130456","129378","1880","NA","NA","130454","130559","116003","1871","NA","130559","130922","Flanker Task","62","31736","75","yes","1024"
"82.8947368421","82.8947368421","425.263157895","425.263157895","black","legacy","legacy","legacy","0","incongruent","uniform","1","undefined","1","h","0","0","0","0","75","75","0","0","0","75","75","75","0","75","75","75","09/25/21 22:41:51","1500","The main experiment item","yes","FlankerTask.osexp","C:\Users\Brian\Desktop\College - Graduate\Graduate Work\Advanced Quant","no","mono","no","18","no","white","no","yes","768","legacy","75","75","C:/Users/Brian/Desktop/College - Graduate/Graduate Work/Advanced Quant/BK-subject-3.csv","legacy","Kafkaesque Koffka","3.2.8","0","h","NA","h","NA","NA","h","584","NA","2806","NA","NA","584","2","legacy","1024","2","48000","-16","experiment","sshss","3","odd","4687","NA","NA","NA","132009","130931","1880","NA","NA","132007","132112","116003","1871","NA","132112","132697","Flanker Task","63","32320","76","yes","1024"
"83.1168831169","83.1168831169","424.935064935","424.935064935","black","legacy","legacy","legacy","0","congruent","uniform","1","undefined","1","s","0","0","0","0","76","76","0","0","0","76","76","76","0","76","76","76","09/25/21 22:41:51","1500","The main experiment item","yes","FlankerTask.osexp","C:\Users\Brian\Desktop\College - Graduate\Graduate Work\Advanced Quant","no","mono","no","18","no","white","no","yes","768","legacy","76","76","C:/Users/Brian/Desktop/College - Graduate/Graduate Work/Advanced Quant/BK-subject-3.csv","legacy","Kafkaesque Koffka","3.2.8","0","s","NA","h","NA","NA","s","400","NA","2806","NA","NA","400","2","legacy","1024","2","48000","-16","experiment","sssss","3","odd","4687","NA","NA","NA","133778","132705","1880","NA","NA","133776","133879","116003","1871","NA","133879","134281","Flanker Task","64","32720","77","yes","1024"
"83.3333333333","83.3333333333","423.820512821","423.820512821","black","legacy","legacy","legacy","0","congruent","uniform","1","undefined","1","s","0","0","0","0","77","77","0","0","0","77","77","77","0","77","77","77","09/25/21 22:41:51","1500","The main experiment item","yes","FlankerTask.osexp","C:\Users\Brian\Desktop\College - Graduate\Graduate Work\Advanced Quant","no","mono","no","18","no","white","no","yes","768","legacy","77","77","C:/Users/Brian/Desktop/College - Graduate/Graduate Work/Advanced Quant/BK-subject-3.csv","legacy","Kafkaesque Koffka","3.2.8","0","s","NA","h","NA","NA","s","338","NA","2806","NA","NA","338","2","legacy","1024","2","48000","-16","experiment","sssss","3","odd","4687","NA","NA","NA","135368","134289","1880","NA","NA","135366","135469","116003","1871","NA","135469","135809","Flanker Task","65","33058","78","yes","1024"
"82.2784810127","82.2784810127","423.35443038","423.35443038","black","legacy","legacy","legacy","0","incongruent","uniform","0","undefined","0","h","0","0","0","0","78","78","0","0","0","78","78","78","0","78","78","78","09/25/21 22:41:51","1500","The main experiment item","yes","FlankerTask.osexp","C:\Users\Brian\Desktop\College - Graduate\Graduate Work\Advanced Quant","no","mono","no","18","no","white","no","yes","768","legacy","78","78","C:/Users/Brian/Desktop/College - Graduate/Graduate Work/Advanced Quant/BK-subject-3.csv","legacy","Kafkaesque Koffka","3.2.8","0","s","NA","h","NA","NA","s","387","NA","2806","NA","NA","387","2","legacy","1024","2","48000","-16","experiment","sshss","3","odd","4687","NA","NA","NA","136891","135818","1880","NA","NA","136889","136994","116003","1871","NA","136994","137382","Flanker Task","65","33445","79","yes","1024"
"82.5","82.5","423.825","423.825","black","legacy","legacy","legacy","0","congruent","uniform","1","undefined","1","h","0","0","0","0","79","79","0","0","0","79","79","79","0","79","79","79","09/25/21 22:41:51","1500","The main experiment item","yes","FlankerTask.osexp","C:\Users\Brian\Desktop\College - Graduate\Graduate Work\Advanced Quant","no","mono","no","18","no","white","no","yes","768","legacy","79","79","C:/Users/Brian/Desktop/College - Graduate/Graduate Work/Advanced Quant/BK-subject-3.csv","legacy","Kafkaesque Koffka","3.2.8","0","h","NA","h","NA","NA","h","461","NA","2806","NA","NA","461","2","legacy","1024","2","48000","-16","experiment","hhhhh","3","odd","4687","NA","NA","NA","138966","137894","1880","NA","NA","138964","139067","137391","1871","NA","139067","139530","Flanker Task","66","33906","80","yes","1024"
"81.4814814815","81.4814814815","423.444444444","423.444444444","black","legacy","legacy","legacy","0","incongruent","uniform","0","undefined","0","h","0","0","0","0","80","80","0","0","0","80","80","80","0","80","80","80","09/25/21 22:41:51","600","The main experiment item","yes","FlankerTask.osexp","C:\Users\Brian\Desktop\College - Graduate\Graduate Work\Advanced Quant","no","mono","no","18","no","white","no","yes","768","legacy","0","79","C:/Users/Brian/Desktop/College - Graduate/Graduate Work/Advanced Quant/BK-subject-3.csv","legacy","Kafkaesque Koffka","3.2.8","0","s","NA","h","space","NA","s","393","NA","2806","3192","NA","393","2","legacy","1024","2","48000","-16","experiment","sshss","3","odd","4687","143745","NA","NA","143809","139534","1880","140551","NA","143807","143912","137391","1871","NA","143912","144307","Flanker Task","66","34299","81","yes","1024"
"80.487804878","80.487804878","422.43902439","422.43902439","black","legacy","legacy","legacy","0","congruent","uniform","0","undefined","0","h","0","0","0","0","81","81","0","0","0","81","81","81","0","81","81","81","09/25/21 22:41:51","600","The main experiment item","yes","FlankerTask.osexp","C:\Users\Brian\Desktop\College - Graduate\Graduate Work\Advanced Quant","no","mono","no","18","no","white","no","yes","768","legacy","1","79","C:/Users/Brian/Desktop/College - Graduate/Graduate Work/Advanced Quant/BK-subject-3.csv","legacy","Kafkaesque Koffka","3.2.8","0","s","NA","h","space","NA","s","341","NA","2806","3192","NA","341","2","legacy","1024","2","48000","-16","experiment","hhhhh","3","odd","4687","143745","NA","NA","145888","144818","1880","140551","NA","145886","145991","144316","1871","NA","145991","146334","Flanker Task","66","34640","82","yes","1024"
"80.7228915663","80.7228915663","421.144578313","421.144578313","black","legacy","legacy","legacy","0","incongruent","uniform","1","undefined","1","s","0","0","0","0","82","82","0","0","0","82","82","82","0","82","82","82","09/25/21 22:41:51","600","The main experiment item","yes","FlankerTask.osexp","C:\Users\Brian\Desktop\College - Graduate\Graduate Work\Advanced Quant","no","mono","no","18","no","white","no","yes","768","legacy","2","79","C:/Users/Brian/Desktop/College - Graduate/Graduate Work/Advanced Quant/BK-subject-3.csv","legacy","Kafkaesque Koffka","3.2.8","0","s","NA","h","space","NA","s","315","NA","2806","3192","NA","315","2","legacy","1024","2","48000","-16","experiment","hhshh","3","odd","4687","143745","NA","NA","147923","146846","1880","140551","NA","147921","148024","146342","1871","NA","148024","148341","Flanker Task","67","34955","83","yes","1024"
"80.9523809524","80.9523809524","420.738095238","420.738095238","black","legacy","legacy","legacy","0","congruent","uniform","1","undefined","1","h","0","0","0","0","83","83","0","0","0","83","83","83","0","83","83","83","09/25/21 22:41:51","600","The main experiment item","yes","FlankerTask.osexp","C:\Users\Brian\Desktop\College - Graduate\Graduate Work\Advanced Quant","no","mono","no","18","no","white","no","yes","768","legacy","3","79","C:/Users/Brian/Desktop/College - Graduate/Graduate Work/Advanced Quant/BK-subject-3.csv","legacy","Kafkaesque Koffka","3.2.8","0","h","NA","h","space","NA","h","387","NA","2806","3192","NA","387","2","legacy","1024","2","48000","-16","experiment","hhhhh","3","odd","4687","143745","NA","NA","149429","148350","1880","140551","NA","149427","149532","146342","1871","NA","149532","149920","Flanker Task","68","35342","84","yes","1024"
"81.1764705882","81.1764705882","419.623529412","419.623529412","black","legacy","legacy","legacy","0","congruent","uniform","1","undefined","1","s","0","0","0","0","84","84","0","0","0","84","84","84","0","84","84","84","09/25/21 22:41:51","600","The main experiment item","yes","FlankerTask.osexp","C:\Users\Brian\Desktop\College - Graduate\Graduate Work\Advanced Quant","no","mono","no","18","no","white","no","yes","768","legacy","4","79","C:/Users/Brian/Desktop/College - Graduate/Graduate Work/Advanced Quant/BK-subject-3.csv","legacy","Kafkaesque Koffka","3.2.8","0","s","NA","h","space","NA","s","326","NA","2806","3192","NA","326","2","legacy","1024","2","48000","-16","experiment","sssss","3","odd","4687","143745","NA","NA","151005","149929","1880","140551","NA","151003","151107","146342","1871","NA","151107","151435","Flanker Task","69","35668","85","yes","1024"
"81.3953488372","81.3953488372","419.26744186","419.26744186","black","legacy","legacy","legacy","0","congruent","uniform","1","undefined","1","s","0","0","0","0","85","85","0","0","0","85","85","85","0","85","85","85","09/25/21 22:41:51","600","The main experiment item","yes","FlankerTask.osexp","C:\Users\Brian\Desktop\College - Graduate\Graduate Work\Advanced Quant","no","mono","no","18","no","white","no","yes","768","legacy","5","79","C:/Users/Brian/Desktop/College - Graduate/Graduate Work/Advanced Quant/BK-subject-3.csv","legacy","Kafkaesque Koffka","3.2.8","0","s","NA","h","space","NA","s","389","NA","2806","3192","NA","389","2","legacy","1024","2","48000","-16","experiment","sssss","3","odd","4687","143745","NA","NA","152514","151444","1880","140551","NA","152512","152617","146342","1871","NA","152617","153008","Flanker Task","70","36057","86","yes","1024"
"81.6091954023","81.6091954023","417.367816092","417.367816092","black","legacy","legacy","legacy","0","incongruent","uniform","1","undefined","1","h","0","0","0","0","86","86","0","0","0","86","86","86","0","86","86","86","09/25/21 22:41:51","600","The main experiment item","yes","FlankerTask.osexp","C:\Users\Brian\Desktop\College - Graduate\Graduate Work\Advanced Quant","no","mono","no","18","no","white","no","yes","768","legacy","6","79","C:/Users/Brian/Desktop/College - Graduate/Graduate Work/Advanced Quant/BK-subject-3.csv","legacy","Kafkaesque Koffka","3.2.8","0","h","NA","h","space","NA","h","254","NA","2806","3192","NA","254","2","legacy","1024","2","48000","-16","experiment","sshss","3","odd","4687","143745","NA","NA","154094","153017","1880","140551","NA","154091","154197","146342","1871","NA","154197","154452","Flanker Task","71","36311","87","yes","1024"
"81.8181818182","81.8181818182","415.534090909","415.534090909","black","legacy","legacy","legacy","0","congruent","uniform","1","undefined","1","s","0","0","0","0","87","87","0","0","0","87","87","87","0","87","87","87","09/25/21 22:41:51","600","The main experiment item","yes","FlankerTask.osexp","C:\Users\Brian\Desktop\College - Graduate\Graduate Work\Advanced Quant","no","mono","no","18","no","white","no","yes","768","legacy","7","79","C:/Users/Brian/Desktop/College - Graduate/Graduate Work/Advanced Quant/BK-subject-3.csv","legacy","Kafkaesque Koffka","3.2.8","0","s","NA","h","space","NA","s","256","NA","2806","3192","NA","256","2","legacy","1024","2","48000","-16","experiment","sssss","3","odd","4687","143745","NA","NA","155531","154461","1880","140551","NA","155529","155634","146342","1871","NA","155634","155892","Flanker Task","72","36567","88","yes","1024"
"82.0224719101","82.0224719101","414.314606742","414.314606742","black","legacy","legacy","legacy","0","incongruent","uniform","1","undefined","1","h","0","0","0","0","88","88","0","0","0","88","88","88","0","88","88","88","09/25/21 22:41:51","600","The main experiment item","yes","FlankerTask.osexp","C:\Users\Brian\Desktop\College - Graduate\Graduate Work\Advanced Quant","no","mono","no","18","no","white","no","yes","768","legacy","8","79","C:/Users/Brian/Desktop/College - Graduate/Graduate Work/Advanced Quant/BK-subject-3.csv","legacy","Kafkaesque Koffka","3.2.8","0","h","NA","h","space","NA","h","307","NA","2806","3192","NA","307","2","legacy","1024","2","48000","-16","experiment","sshss","3","odd","4687","143745","NA","NA","156984","155901","1880","140551","NA","156982","157087","146342","1871","NA","157087","157396","Flanker Task","73","36874","89","yes","1024"
"81.1111111111","81.1111111111","413.777777778","413.777777778","black","legacy","legacy","legacy","0","incongruent","uniform","0","undefined","0","h","0","0","0","0","89","89","0","0","0","89","89","89","0","89","89","89","09/25/21 22:41:51","600","The main experiment item","yes","FlankerTask.osexp","C:\Users\Brian\Desktop\College - Graduate\Graduate Work\Advanced Quant","no","mono","no","18","no","white","no","yes","768","legacy","9","79","C:/Users/Brian/Desktop/College - Graduate/Graduate Work/Advanced Quant/BK-subject-3.csv","legacy","Kafkaesque Koffka","3.2.8","0","s","NA","h","space","NA","s","366","NA","2806","3192","NA","366","2","legacy","1024","2","48000","-16","experiment","sshss","3","odd","4687","143745","NA","NA","158484","157405","1880","140551","NA","158481","158587","146342","1871","NA","158587","158955","Flanker Task","73","37240","90","yes","1024"
"81.3186813187","81.3186813187","413.21978022","413.21978022","black","legacy","legacy","legacy","0","incongruent","uniform","1","undefined","1","h","0","0","0","0","90","90","0","0","0","90","90","90","0","90","90","90","09/25/21 22:41:51","600","The main experiment item","yes","FlankerTask.osexp","C:\Users\Brian\Desktop\College - Graduate\Graduate Work\Advanced Quant","no","mono","no","18","no","white","no","yes","768","legacy","10","79","C:/Users/Brian/Desktop/College - Graduate/Graduate Work/Advanced Quant/BK-subject-3.csv","legacy","Kafkaesque Koffka","3.2.8","0","h","NA","h","space","NA","h","363","NA","2806","3192","NA","363","2","legacy","1024","2","48000","-16","experiment","sshss","3","odd","4687","143745","NA","NA","160535","159463","1880","140551","NA","160533","160638","158960","1871","NA","160638","161003","Flanker Task","74","37603","91","yes","1024"
"80.4347826087","80.4347826087","412.880434783","412.880434783","black","legacy","legacy","legacy","0","incongruent","uniform","0","undefined","0","s","0","0","0","0","91","91","0","0","0","91","91","91","0","91","91","91","09/25/21 22:41:51","600","The main experiment item","yes","FlankerTask.osexp","C:\Users\Brian\Desktop\College - Graduate\Graduate Work\Advanced Quant","no","mono","no","18","no","white","no","yes","768","legacy","11","79","C:/Users/Brian/Desktop/College - Graduate/Graduate Work/Advanced Quant/BK-subject-3.csv","legacy","Kafkaesque Koffka","3.2.8","0","h","NA","h","space","NA","h","382","NA","2806","3192","NA","382","2","legacy","1024","2","48000","-16","experiment","hhshh","3","odd","4687","143745","NA","NA","162085","161012","1880","140551","NA","162082","162188","158960","1871","NA","162188","162572","Flanker Task","74","37985","92","yes","1024"
"80.6451612903","80.6451612903","411.774193548","411.774193548","black","legacy","legacy","legacy","0","congruent","uniform","1","undefined","1","h","0","0","0","0","92","92","0","0","0","92","92","92","0","92","92","92","09/25/21 22:41:51","600","The main experiment item","yes","FlankerTask.osexp","C:\Users\Brian\Desktop\College - Graduate\Graduate Work\Advanced Quant","no","mono","no","18","no","white","no","yes","768","legacy","12","79","C:/Users/Brian/Desktop/College - Graduate/Graduate Work/Advanced Quant/BK-subject-3.csv","legacy","Kafkaesque Koffka","3.2.8","0","h","NA","h","space","NA","h","310","NA","2806","3192","NA","310","2","legacy","1024","2","48000","-16","experiment","hhhhh","3","odd","4687","143745","NA","NA","164154","163083","1880","140551","NA","164151","164257","162581","1871","NA","164257","164569","Flanker Task","75","38295","93","yes","1024"
"79.7872340426","79.7872340426","411.35106383","411.35106383","black","legacy","legacy","legacy","0","congruent","uniform","0","undefined","0","h","0","0","0","0","93","93","0","0","0","93","93","93","0","93","93","93","09/25/21 22:41:51","600","The main experiment item","yes","FlankerTask.osexp","C:\Users\Brian\Desktop\College - Graduate\Graduate Work\Advanced Quant","no","mono","no","18","no","white","no","yes","768","legacy","13","79","C:/Users/Brian/Desktop/College - Graduate/Graduate Work/Advanced Quant/BK-subject-3.csv","legacy","Kafkaesque Koffka","3.2.8","0","s","NA","h","space","NA","s","372","NA","2806","3192","NA","372","2","legacy","1024","2","48000","-16","experiment","hhhhh","3","odd","4687","143745","NA","NA","165657","164573","1880","140551","NA","165655","165760","162581","1871","NA","165760","166134","Flanker Task","75","38667","94","yes","1024"
"80","80","411.578947368","411.578947368","black","legacy","legacy","legacy","0","incongruent","uniform","1","undefined","1","h","0","0","0","0","94","94","0","0","0","94","94","94","0","94","94","94","09/25/21 22:41:51","600","The main experiment item","yes","FlankerTask.osexp","C:\Users\Brian\Desktop\College - Graduate\Graduate Work\Advanced Quant","no","mono","no","18","no","white","no","yes","768","legacy","14","79","C:/Users/Brian/Desktop/College - Graduate/Graduate Work/Advanced Quant/BK-subject-3.csv","legacy","Kafkaesque Koffka","3.2.8","0","h","NA","h","space","NA","h","433","NA","2806","3192","NA","433","2","legacy","1024","2","48000","-16","experiment","sshss","3","odd","4687","143745","NA","NA","167719","166646","1880","140551","NA","167717","167820","166143","1871","NA","167820","168255","Flanker Task","76","39100","95","yes","1024"
"79.1666666667","79.1666666667","410.864583333","410.864583333","black","legacy","legacy","legacy","0","congruent","uniform","0","undefined","0","h","0","0","0","0","95","95","0","0","0","95","95","95","0","95","95","95","09/25/21 22:41:51","600","The main experiment item","yes","FlankerTask.osexp","C:\Users\Brian\Desktop\College - Graduate\Graduate Work\Advanced Quant","no","mono","no","18","no","white","no","yes","768","legacy","15","79","C:/Users/Brian/Desktop/College - Graduate/Graduate Work/Advanced Quant/BK-subject-3.csv","legacy","Kafkaesque Koffka","3.2.8","0","s","NA","h","space","NA","s","343","NA","2806","3192","NA","343","2","legacy","1024","2","48000","-16","experiment","hhhhh","3","odd","4687","143745","NA","NA","169336","168263","1880","140551","NA","169334","169439","166143","1871","NA","169439","169783","Flanker Task","76","39443","96","yes","1024"
"79.381443299","79.381443299","411.144329897","411.144329897","black","legacy","legacy","legacy","0","congruent","uniform","1","undefined","1","h","0","0","0","0","96","96","0","0","0","96","96","96","0","96","96","96","09/25/21 22:41:51","600","The main experiment item","yes","FlankerTask.osexp","C:\Users\Brian\Desktop\College - Graduate\Graduate Work\Advanced Quant","no","mono","no","18","no","white","no","yes","768","legacy","16","79","C:/Users/Brian/Desktop/College - Graduate/Graduate Work/Advanced Quant/BK-subject-3.csv","legacy","Kafkaesque Koffka","3.2.8","0","h","NA","h","space","NA","h","438","NA","2806","3192","NA","438","2","legacy","1024","2","48000","-16","experiment","hhhhh","3","odd","4687","143745","NA","NA","171358","170289","1880","140551","NA","171356","171461","169787","1871","NA","171461","171900","Flanker Task","77","39881","97","yes","1024"
"78.5714285714","78.5714285714","409.693877551","409.693877551","black","legacy","legacy","legacy","0","congruent","uniform","0","undefined","0","h","0","0","0","0","97","97","0","0","0","97","97","97","0","97","97","97","09/25/21 22:41:51","600","The main experiment item","yes","FlankerTask.osexp","C:\Users\Brian\Desktop\College - Graduate\Graduate Work\Advanced Quant","no","mono","no","18","no","white","no","yes","768","legacy","17","79","C:/Users/Brian/Desktop/College - Graduate/Graduate Work/Advanced Quant/BK-subject-3.csv","legacy","Kafkaesque Koffka","3.2.8","0","s","NA","h","space","NA","s","269","NA","2806","3192","NA","269","2","legacy","1024","2","48000","-16","experiment","hhhhh","3","odd","4687","143745","NA","NA","172986","171909","1880","140551","NA","172984","173089","169787","1871","NA","173089","173360","Flanker Task","77","40150","98","yes","1024"
"78.7878787879","78.7878787879","409.202020202","409.202020202","black","legacy","legacy","legacy","0","incongruent","uniform","1","undefined","1","s","0","0","0","0","98","98","0","0","0","98","98","98","0","98","98","98","09/25/21 22:41:51","600","The main experiment item","yes","FlankerTask.osexp","C:\Users\Brian\Desktop\College - Graduate\Graduate Work\Advanced Quant","no","mono","no","18","no","white","no","yes","768","legacy","18","79","C:/Users/Brian/Desktop/College - Graduate/Graduate Work/Advanced Quant/BK-subject-3.csv","legacy","Kafkaesque Koffka","3.2.8","0","s","NA","h","space","NA","s","361","NA","2806","3192","NA","361","2","legacy","1024","2","48000","-16","experiment","hhshh","3","odd","4687","143745","NA","NA","174941","173871","1880","140551","NA","174938","175044","173368","1871","NA","175044","175407","Flanker Task","78","40511","99","yes","1024"
"79","79","408.07","408.07","black","legacy","legacy","legacy","0","incongruent","uniform","1","undefined","1","h","0","0","0","0","99","99","0","0","0","99","99","99","0","99","99","99","09/25/21 22:41:51","600","The main experiment item","yes","FlankerTask.osexp","C:\Users\Brian\Desktop\College - Graduate\Graduate Work\Advanced Quant","no","mono","no","18","no","white","no","yes","768","legacy","19","79","C:/Users/Brian/Desktop/College - Graduate/Graduate Work/Advanced Quant/BK-subject-3.csv","legacy","Kafkaesque Koffka","3.2.8","0","h","NA","h","space","NA","h","296","NA","2806","3192","NA","296","2","legacy","1024","2","48000","-16","experiment","sshss","3","odd","4687","143745","NA","NA","176485","175412","1880","140551","NA","176482","176588","173368","1871","NA","176588","176886","Flanker Task","79","40807","100","yes","1024"
"79.2079207921","79.2079207921","407.138613861","407.138613861","black","legacy","legacy","legacy","0","incongruent","uniform","1","undefined","1","h","0","0","0","0","100","100","0","0","0","100","100","100","0","100","100","100","09/25/21 22:41:51","600","The main experiment item","yes","FlankerTask.osexp","C:\Users\Brian\Desktop\College - Graduate\Graduate Work\Advanced Quant","no","mono","no","18","no","white","no","yes","768","legacy","20","79","C:/Users/Brian/Desktop/College - Graduate/Graduate Work/Advanced Quant/BK-subject-3.csv","legacy","Kafkaesque Koffka","3.2.8","0","h","NA","h","space","NA","h","314","NA","2806","3192","NA","314","2","legacy","1024","2","48000","-16","experiment","sshss","3","odd","4687","143745","NA","NA","177967","176895","1880","140551","NA","177965","178069","173368","1871","NA","178069","178385","Flanker Task","80","41121","101","yes","1024"
"78.431372549","78.431372549","407.12745098","407.12745098","black","legacy","legacy","legacy","0","incongruent","uniform","0","undefined","0","s","0","0","0","0","101","101","0","0","0","101","101","101","0","101","101","101","09/25/21 22:41:51","600","The main experiment item","yes","FlankerTask.osexp","C:\Users\Brian\Desktop\College - Graduate\Graduate Work\Advanced Quant","no","mono","no","18","no","white","no","yes","768","legacy","21","79","C:/Users/Brian/Desktop/College - Graduate/Graduate Work/Advanced Quant/BK-subject-3.csv","legacy","Kafkaesque Koffka","3.2.8","0","h","NA","h","space","NA","h","406","NA","2806","3192","NA","406","2","legacy","1024","2","48000","-16","experiment","hhshh","3","odd","4687","143745","NA","NA","179465","178394","1880","140551","NA","179462","179567","173368","1871","NA","179567","179975","Flanker Task","80","41527","102","yes","1024"
"77.6699029126","77.6699029126","406.466019417","406.466019417","black","legacy","legacy","legacy","0","incongruent","uniform","0","undefined","0","s","0","0","0","0","102","102","0","0","0","102","102","102","0","102","102","102","09/25/21 22:41:51","600","The main experiment item","yes","FlankerTask.osexp","C:\Users\Brian\Desktop\College - Graduate\Graduate Work\Advanced Quant","no","mono","no","18","no","white","no","yes","768","legacy","22","79","C:/Users/Brian/Desktop/College - Graduate/Graduate Work/Advanced Quant/BK-subject-3.csv","legacy","Kafkaesque Koffka","3.2.8","0","h","NA","h","space","NA","h","339","NA","2806","3192","NA","339","2","legacy","1024","2","48000","-16","experiment","hhshh","3","odd","4687","143745","NA","NA","181558","180485","1880","140551","NA","181556","181661","179983","1871","NA","181661","182002","Flanker Task","80","41866","103","yes","1024"
"76.9230769231","76.9230769231","405.634615385","405.634615385","black","legacy","legacy","legacy","0","incongruent","uniform","0","undefined","0","h","0","0","0","0","103","103","0","0","0","103","103","103","0","103","103","103","09/25/21 22:41:51","600","The main experiment item","yes","FlankerTask.osexp","C:\Users\Brian\Desktop\College - Graduate\Graduate Work\Advanced Quant","no","mono","no","18","no","white","no","yes","768","legacy","23","79","C:/Users/Brian/Desktop/College - Graduate/Graduate Work/Advanced Quant/BK-subject-3.csv","legacy","Kafkaesque Koffka","3.2.8","0","s","NA","h","space","NA","s","320","NA","2806","3192","NA","320","2","legacy","1024","2","48000","-16","experiment","sshss","3","odd","4687","143745","NA","NA","183580","182511","1880","140551","NA","183578","183683","182010","1871","NA","183683","184005","Flanker Task","80","42186","104","yes","1024"
"76.1904761905","76.1904761905","405.19047619","405.19047619","black","legacy","legacy","legacy","0","incongruent","uniform","0","undefined","0","s","0","0","0","0","104","104","0","0","0","104","104","104","0","104","104","104","09/25/21 22:41:51","600","The main experiment item","yes","FlankerTask.osexp","C:\Users\Brian\Desktop\College - Graduate\Graduate Work\Advanced Quant","no","mono","no","18","no","white","no","yes","768","legacy","24","79","C:/Users/Brian/Desktop/College - Graduate/Graduate Work/Advanced Quant/BK-subject-3.csv","legacy","Kafkaesque Koffka","3.2.8","0","h","NA","h","space","NA","h","359","NA","2806","3192","NA","359","2","legacy","1024","2","48000","-16","experiment","hhshh","3","odd","4687","143745","NA","NA","185588","184517","1880","140551","NA","185586","185690","184014","1871","NA","185690","186051","Flanker Task","80","42545","105","yes","1024"
"75.4716981132","75.4716981132","404.688679245","404.688679245","black","legacy","legacy","legacy","0","incongruent","uniform","0","undefined","0","h","0","0","0","0","105","105","0","0","0","105","105","105","0","105","105","105","09/25/21 22:41:51","600","The main experiment item","yes","FlankerTask.osexp","C:\Users\Brian\Desktop\College - Graduate\Graduate Work\Advanced Quant","no","mono","no","18","no","white","no","yes","768","legacy","25","79","C:/Users/Brian/Desktop/College - Graduate/Graduate Work/Advanced Quant/BK-subject-3.csv","legacy","Kafkaesque Koffka","3.2.8","0","s","NA","h","space","NA","s","352","NA","2806","3192","NA","352","2","legacy","1024","2","48000","-16","experiment","sshss","3","odd","4687","143745","NA","NA","187631","186561","1880","140551","NA","187628","187734","186060","1871","NA","187734","188088","Flanker Task","80","42897","106","yes","1024"
"75.7009345794","75.7009345794","404.897196262","404.897196262","black","legacy","legacy","legacy","0","congruent","uniform","1","undefined","1","h","0","0","0","0","106","106","0","0","0","106","106","106","0","106","106","106","09/25/21 22:41:51","600","The main experiment item","yes","FlankerTask.osexp","C:\Users\Brian\Desktop\College - Graduate\Graduate Work\Advanced Quant","no","mono","no","18","no","white","no","yes","768","legacy","26","79","C:/Users/Brian/Desktop/College - Graduate/Graduate Work/Advanced Quant/BK-subject-3.csv","legacy","Kafkaesque Koffka","3.2.8","0","h","NA","h","space","NA","h","427","NA","2806","3192","NA","427","2","legacy","1024","2","48000","-16","experiment","hhhhh","3","odd","4687","143745","NA","NA","189673","188599","1880","140551","NA","189671","189776","188097","1871","NA","189776","190205","Flanker Task","81","43324","107","yes","1024"
"75","75","404.731481481","404.731481481","black","legacy","legacy","legacy","0","incongruent","uniform","0","undefined","0","s","0","0","0","0","107","107","0","0","0","107","107","107","0","107","107","107","09/25/21 22:41:51","600","The main experiment item","yes","FlankerTask.osexp","C:\Users\Brian\Desktop\College - Graduate\Graduate Work\Advanced Quant","no","mono","no","18","no","white","no","yes","768","legacy","27","79","C:/Users/Brian/Desktop/College - Graduate/Graduate Work/Advanced Quant/BK-subject-3.csv","legacy","Kafkaesque Koffka","3.2.8","0","h","NA","h","space","NA","h","387","NA","2806","3192","NA","387","2","legacy","1024","2","48000","-16","experiment","hhshh","3","odd","4687","143745","NA","NA","191287","190214","1880","140551","NA","191285","191389","188097","1871","NA","191389","191778","Flanker Task","81","43711","108","yes","1024"
"75.2293577982","75.2293577982","404.220183486","404.220183486","black","legacy","legacy","legacy","0","incongruent","uniform","1","undefined","1","h","0","0","0","0","108","108","0","0","0","108","108","108","0","108","108","108","09/25/21 22:41:51","600","The main experiment item","yes","FlankerTask.osexp","C:\Users\Brian\Desktop\College - Graduate\Graduate Work\Advanced Quant","no","mono","no","18","no","white","no","yes","768","legacy","28","79","C:/Users/Brian/Desktop/College - Graduate/Graduate Work/Advanced Quant/BK-subject-3.csv","legacy","Kafkaesque Koffka","3.2.8","0","h","NA","h","space","NA","h","349","NA","2806","3192","NA","349","2","legacy","1024","2","48000","-16","experiment","sshss","3","odd","4687","143745","NA","NA","193357","192286","1880","140551","NA","193355","193459","191783","1871","NA","193459","193810","Flanker Task","82","44060","109","yes","1024"
"74.5454545455","74.5454545455","403.236363636","403.236363636","black","legacy","legacy","legacy","0","incongruent","uniform","0","undefined","0","h","0","0","0","0","109","109","0","0","0","109","109","109","0","109","109","109","09/25/21 22:41:51","600","The main experiment item","yes","FlankerTask.osexp","C:\Users\Brian\Desktop\College - Graduate\Graduate Work\Advanced Quant","no","mono","no","18","no","white","no","yes","768","legacy","29","79","C:/Users/Brian/Desktop/College - Graduate/Graduate Work/Advanced Quant/BK-subject-3.csv","legacy","Kafkaesque Koffka","3.2.8","0","s","NA","h","space","NA","s","296","NA","2806","3192","NA","296","2","legacy","1024","2","48000","-16","experiment","sshss","3","odd","4687","143745","NA","NA","194898","193819","1880","140551","NA","194895","195001","191783","1871","NA","195001","195299","Flanker Task","82","44356","110","yes","1024"
"74.7747747748","74.7747747748","402.954954955","402.954954955","black","legacy","legacy","legacy","0","congruent","uniform","1","undefined","1","s","0","0","0","0","110","110","0","0","0","110","110","110","0","110","110","110","09/25/21 22:41:51","600","The main experiment item","yes","FlankerTask.osexp","C:\Users\Brian\Desktop\College - Graduate\Graduate Work\Advanced Quant","no","mono","no","18","no","white","no","yes","768","legacy","30","79","C:/Users/Brian/Desktop/College - Graduate/Graduate Work/Advanced Quant/BK-subject-3.csv","legacy","Kafkaesque Koffka","3.2.8","0","s","NA","h","space","NA","s","372","NA","2806","3192","NA","372","2","legacy","1024","2","48000","-16","experiment","sssss","3","odd","4687","143745","NA","NA","196885","195811","1880","140551","NA","196882","196988","195308","1871","NA","196988","197362","Flanker Task","83","44728","111","yes","1024"
"74.1071428571","74.1071428571","401.901785714","401.901785714","black","legacy","legacy","legacy","0","incongruent","uniform","0","undefined","0","s","0","0","0","0","111","111","0","0","0","111","111","111","0","111","111","111","09/25/21 22:41:51","600","The main experiment item","yes","FlankerTask.osexp","C:\Users\Brian\Desktop\College - Graduate\Graduate Work\Advanced Quant","no","mono","no","18","no","white","no","yes","768","legacy","31","79","C:/Users/Brian/Desktop/College - Graduate/Graduate Work/Advanced Quant/BK-subject-3.csv","legacy","Kafkaesque Koffka","3.2.8","0","h","NA","h","space","NA","h","285","NA","2806","3192","NA","285","2","legacy","1024","2","48000","-16","experiment","hhshh","3","odd","4687","143745","NA","NA","198443","197370","1880","140551","NA","198441","198544","195308","1871","NA","198544","198831","Flanker Task","83","45013","112","yes","1024"
"73.4513274336","73.4513274336","401.539823009","401.539823009","black","legacy","legacy","legacy","0","congruent","uniform","0","undefined","0","s","0","0","0","0","112","112","0","0","0","112","112","112","0","112","112","112","09/25/21 22:41:51","600","The main experiment item","yes","FlankerTask.osexp","C:\Users\Brian\Desktop\College - Graduate\Graduate Work\Advanced Quant","no","mono","no","18","no","white","no","yes","768","legacy","32","79","C:/Users/Brian/Desktop/College - Graduate/Graduate Work/Advanced Quant/BK-subject-3.csv","legacy","Kafkaesque Koffka","3.2.8","0","h","NA","h","space","NA","h","361","NA","2806","3192","NA","361","2","legacy","1024","2","48000","-16","experiment","sssss","3","odd","4687","143745","NA","NA","200416","199341","1880","140551","NA","200414","200519","198840","1871","NA","200519","200882","Flanker Task","83","45374","113","yes","1024"
"73.6842105263","73.6842105263","401.140350877","401.140350877","black","legacy","legacy","legacy","0","congruent","uniform","1","undefined","1","s","0","0","0","0","113","113","0","0","0","113","113","113","0","113","113","113","09/25/21 22:41:51","600","The main experiment item","yes","FlankerTask.osexp","C:\Users\Brian\Desktop\College - Graduate\Graduate Work\Advanced Quant","no","mono","no","18","no","white","no","yes","768","legacy","33","79","C:/Users/Brian/Desktop/College - Graduate/Graduate Work/Advanced Quant/BK-subject-3.csv","legacy","Kafkaesque Koffka","3.2.8","0","s","NA","h","space","NA","s","356","NA","2806","3192","NA","356","2","legacy","1024","2","48000","-16","experiment","sssss","3","odd","4687","143745","NA","NA","202464","201393","1880","140551","NA","202462","202567","200891","1871","NA","202567","202925","Flanker Task","84","45730","114","yes","1024"
