"acc","accuracy","average_response_time","avg_rt","background","canvas_backend","clock_backend","color_backend","condition","correct","correct_instruction1_sketchpad","correct_keyboard_response","correct_response","count_Block1_loop","count_Block3_loop","count_block2_loop","count_errorfeedback_sketchpad","count_experiment","count_faster_sketchpad","count_finish_sketchpad","count_fixation_sketchpad","count_instruction1_sketchpad","count_instructions2_sketchpad","count_instructions3_sketchpad","count_isi_sketchpad","count_keyboard_response","count_logger_logger","count_sequence","count_stimulus_sketchpad","datetime","deadline","description","disable_garbage_collection","experiment_file","experiment_path","font_bold","font_family","font_italic","font_size","font_underline","foreground","form_clicks","fullscreen","height","keyboard_backend","live_row","live_row_Block1_loop","logfile","mouse_backend","opensesame_codename","opensesame_version","repeat_cycle","response","response_finish_sketchpad","response_instruction1_sketchpad","response_instructions2_sketchpad","response_instructions3_sketchpad","response_keyboard_response","response_time","response_time_finish_sketchpad","response_time_instruction1_sketchpad","response_time_instructions2_sketchpad","response_time_instructions3_sketchpad","response_time_keyboard_response","round_decimals","sampler_backend","sound_buf_size","sound_channels","sound_freq","sound_sample_size","start","stimulus","subject_nr","subject_parity","time_Block1_loop","time_Block3_loop","time_block2_loop","time_errorfeedback_sketchpad","time_experiment","time_faster_sketchpad","time_finish_sketchpad","time_fixation_sketchpad","time_instruction1_sketchpad","time_instructions2_sketchpad","time_instructions3_sketchpad","time_isi_sketchpad","time_keyboard_response","time_logger_logger","time_sequence","time_stimulus_sketchpad","title","total_correct","total_response_time","total_responses","width"
"100","100","1018","1018","#3d3846","legacy","legacy","legacy","incongruent","1","undefined","1","s","0","0","0","0","0","0","0","0","0","0","0","0","0","0","0","0","Mon Sep 18 10:00:31 2023","1500","The main experiment item","False","Flankertask.osexp","C:\Users\User","False","mono","False","18","no","white","no","yes","768","legacy","0","0","C:/Users/User/subject-jvb fixed.csv","legacy","Melodramatic Milgram","4.0.5","0","s","NA","s","NA","NA","s","1018.0","NA","638","NA","NA","1018","2","legacy","1024","2","48000","-16","experiment","HHSHH","0","even","2451","NA","NA","NA","1805","NA","NA","2497","1812","NA","NA","NA","2601","3619","2496","2599","Flankertask","1","1018.0","1","1024"
"100","100","791","791","#3d3846","legacy","legacy","legacy","congruent","1","undefined","1","h","0","0","0","1","0","1","0","1","0","0","0","1","1","1","1","1","Mon Sep 18 10:00:31 2023","1500","The main experiment item","False","Flankertask.osexp","C:\Users\User","False","mono","False","18","no","white","no","yes","768","legacy","1","1","C:/Users/User/subject-jvb fixed.csv","legacy","Melodramatic Milgram","4.0.5","0","h","NA","s","NA","NA","h","564.0","NA","638","NA","NA","564","2","legacy","1024","2","48000","-16","experiment","HHHHH","0","even","2451","NA","NA","NA","1805","NA","NA","4655","1812","NA","NA","3629","4756","5320","4653","4756","Flankertask","2","1582.0","2","1024"
"100","100","703","703","#3d3846","legacy","legacy","legacy","congruent","1","undefined","1","s","0","0","0","2","0","2","0","2","0","0","0","2","2","2","2","2","Mon Sep 18 10:00:31 2023","1500","The main experiment item","False","Flankertask.osexp","C:\Users\User","False","mono","False","18","no","white","no","yes","768","legacy","2","2","C:/Users/User/subject-jvb fixed.csv","legacy","Melodramatic Milgram","4.0.5","0","s","NA","s","NA","NA","s","527.0","NA","638","NA","NA","527","2","legacy","1024","2","48000","-16","experiment","SSSSS","0","even","2451","NA","NA","NA","1805","NA","NA","6351","1812","NA","NA","5326","6452","6979","6350","6452","Flankertask","3","2109.0","3","1024"
"100","100","656","656","#3d3846","legacy","legacy","legacy","congruent","1","undefined","1","h","0","0","0","3","0","3","0","3","0","0","0","3","3","3","3","3","Mon Sep 18 10:00:31 2023","1500","The main experiment item","False","Flankertask.osexp","C:\Users\User","False","mono","False","18","no","white","no","yes","768","legacy","3","3","C:/Users/User/subject-jvb fixed.csv","legacy","Melodramatic Milgram","4.0.5","0","h","NA","s","NA","NA","h","516.0","NA","638","NA","NA","516","2","legacy","1024","2","48000","-16","experiment","HHHHH","0","even","2451","NA","NA","NA","1805","NA","NA","8018","1812","NA","NA","6985","8119","8635","8017","8119","Flankertask","4","2625.0","4","1024"
"80","80","683","683","#3d3846","legacy","legacy","legacy","congruent","0","undefined","0","s","0","0","0","4","0","4","0","4","0","0","0","4","4","4","4","4","Mon Sep 18 10:00:31 2023","1500","The main experiment item","False","Flankertask.osexp","C:\Users\User","False","mono","False","18","no","white","no","yes","768","legacy","4","4","C:/Users/User/subject-jvb fixed.csv","legacy","Melodramatic Milgram","4.0.5","0","h","NA","s","NA","NA","h","791.0","NA","638","NA","NA","791","2","legacy","1024","2","48000","-16","experiment","SSSSS","0","even","2451","NA","NA","NA","1805","NA","NA","9669","1812","NA","NA","8641","9770","10561","9668","9770","Flankertask","4","3416.0","5","1024"
"83","83","732","732","#3d3846","legacy","legacy","legacy","incongruent","1","undefined","1","h","0","0","0","5","0","5","0","5","0","0","0","5","5","5","5","5","Mon Sep 18 10:00:31 2023","1500","The main experiment item","False","Flankertask.osexp","C:\Users\User","False","mono","False","18","no","white","no","yes","768","legacy","5","5","C:/Users/User/subject-jvb fixed.csv","legacy","Melodramatic Milgram","4.0.5","0","h","NA","s","NA","NA","h","977.0","NA","638","NA","NA","977","2","legacy","1024","2","48000","-16","experiment","SSHSS","0","even","2451","NA","NA","10564","1805","NA","NA","12090","1812","NA","NA","11065","12191","13168","12089","12191","Flankertask","5","4393.0","6","1024"
"85","85","709","709","#3d3846","legacy","legacy","legacy","incongruent","1","undefined","1","h","0","0","0","6","0","6","0","6","0","0","0","6","6","6","6","6","Mon Sep 18 10:00:31 2023","1500","The main experiment item","False","Flankertask.osexp","C:\Users\User","False","mono","False","18","no","white","no","yes","768","legacy","6","6","C:/Users/User/subject-jvb fixed.csv","legacy","Melodramatic Milgram","4.0.5","0","h","NA","s","NA","NA","h","575.0","NA","638","NA","NA","575","2","legacy","1024","2","48000","-16","experiment","SSHSS","0","even","2451","NA","NA","10564","1805","NA","NA","14199","1812","NA","NA","13174","14300","14875","14198","14300","Flankertask","6","4968.0","7","1024"
"87","87","687","687","#3d3846","legacy","legacy","legacy","congruent","1","undefined","1","s","0","0","0","7","0","7","0","7","0","0","0","7","7","7","7","7","Mon Sep 18 10:00:31 2023","1500","The main experiment item","False","Flankertask.osexp","C:\Users\User","False","mono","False","18","no","white","no","yes","768","legacy","7","7","C:/Users/User/subject-jvb fixed.csv","legacy","Melodramatic Milgram","4.0.5","0","s","NA","s","NA","NA","s","531.0","NA","638","NA","NA","531","2","legacy","1024","2","48000","-16","experiment","SSSSS","0","even","2451","NA","NA","10564","1805","NA","NA","15905","1812","NA","NA","14881","16006","16537","15904","16006","Flankertask","7","5499.0","8","1024"
"88","88","666","666","#3d3846","legacy","legacy","legacy","incongruent","1","undefined","1","h","0","0","0","8","0","8","0","8","0","0","0","8","8","8","8","8","Mon Sep 18 10:00:31 2023","1500","The main experiment item","False","Flankertask.osexp","C:\Users\User","False","mono","False","18","no","white","no","yes","768","legacy","8","8","C:/Users/User/subject-jvb fixed.csv","legacy","Melodramatic Milgram","4.0.5","0","h","NA","s","NA","NA","h","497.0","NA","638","NA","NA","497","2","legacy","1024","2","48000","-16","experiment","SSHSS","0","even","2451","NA","NA","10564","1805","NA","NA","17572","1812","NA","NA","16543","17674","18171","17571","17674","Flankertask","8","5996.0","9","1024"
"90","90","649","649","#3d3846","legacy","legacy","legacy","congruent","1","undefined","1","s","0","0","0","9","0","9","0","9","0","0","0","9","9","9","9","9","Mon Sep 18 10:00:31 2023","1500","The main experiment item","False","Flankertask.osexp","C:\Users\User","False","mono","False","18","no","white","no","yes","768","legacy","9","9","C:/Users/User/subject-jvb fixed.csv","legacy","Melodramatic Milgram","4.0.5","0","s","NA","s","NA","NA","s","500.0","NA","638","NA","NA","500","2","legacy","1024","2","48000","-16","experiment","SSSSS","0","even","2451","NA","NA","10564","1805","NA","NA","19221","1812","NA","NA","18177","19322","19822","19220","19322","Flankertask","9","6496.0","10","1024"
"90","90","651","651","#3d3846","legacy","legacy","legacy","incongruent","1","undefined","1","s","0","0","0","10","0","10","0","10","0","0","0","10","10","10","10","10","Mon Sep 18 10:00:31 2023","1500","The main experiment item","False","Flankertask.osexp","C:\Users\User","False","mono","False","18","no","white","no","yes","768","legacy","10","10","C:/Users/User/subject-jvb fixed.csv","legacy","Melodramatic Milgram","4.0.5","0","s","NA","s","NA","NA","s","666.0","NA","638","NA","NA","666","2","legacy","1024","2","48000","-16","experiment","HHSHH","0","even","2451","NA","NA","10564","1805","NA","NA","20853","1812","NA","NA","19828","20954","21621","20852","20954","Flankertask","10","7162.0","11","1024"
"91","91","647","647","#3d3846","legacy","legacy","legacy","incongruent","1","undefined","1","s","0","0","0","11","0","11","0","11","0","0","0","11","11","11","11","11","Mon Sep 18 10:00:31 2023","1500","The main experiment item","False","Flankertask.osexp","C:\Users\User","False","mono","False","18","no","white","no","yes","768","legacy","11","11","C:/Users/User/subject-jvb fixed.csv","legacy","Melodramatic Milgram","4.0.5","0","s","NA","s","NA","NA","s","607.0","NA","638","NA","NA","607","2","legacy","1024","2","48000","-16","experiment","HHSHH","0","even","2451","NA","NA","10564","1805","NA","NA","22679","1812","NA","NA","21627","22779","23387","22678","22779","Flankertask","11","7769.0","12","1024"
"92","92","636","636","#3d3846","legacy","legacy","legacy","congruent","1","undefined","1","h","0","0","0","12","0","12","0","12","0","0","0","12","12","12","12","12","Mon Sep 18 10:00:31 2023","1500","The main experiment item","False","Flankertask.osexp","C:\Users\User","False","mono","False","18","no","white","no","yes","768","legacy","12","12","C:/Users/User/subject-jvb fixed.csv","legacy","Melodramatic Milgram","4.0.5","0","h","NA","s","NA","NA","h","507.0","NA","638","NA","NA","507","2","legacy","1024","2","48000","-16","experiment","HHHHH","0","even","2451","NA","NA","10564","1805","NA","NA","24418","1812","NA","NA","23393","24519","25026","24416","24519","Flankertask","12","8276.0","13","1024"
"92","92","634","634","#3d3846","legacy","legacy","legacy","incongruent","1","undefined","1","h","0","0","0","13","0","13","0","13","0","0","0","13","13","13","13","13","Mon Sep 18 10:00:31 2023","1500","The main experiment item","False","Flankertask.osexp","C:\Users\User","False","mono","False","18","no","white","no","yes","768","legacy","13","13","C:/Users/User/subject-jvb fixed.csv","legacy","Melodramatic Milgram","4.0.5","0","h","NA","s","NA","NA","h","601.0","NA","638","NA","NA","601","2","legacy","1024","2","48000","-16","experiment","SSHSS","0","even","2451","NA","NA","10564","1805","NA","NA","26057","1812","NA","NA","25033","26158","26759","26056","26158","Flankertask","13","8877.0","14","1024"
"93","93","631","631","#3d3846","legacy","legacy","legacy","incongruent","1","undefined","1","h","0","0","0","14","0","14","0","14","0","0","0","14","14","14","14","14","Mon Sep 18 10:00:31 2023","1500","The main experiment item","False","Flankertask.osexp","C:\Users\User","False","mono","False","18","no","white","no","yes","768","legacy","14","14","C:/Users/User/subject-jvb fixed.csv","legacy","Melodramatic Milgram","4.0.5","0","h","NA","s","NA","NA","h","598.0","NA","638","NA","NA","598","2","legacy","1024","2","48000","-16","experiment","SSHSS","0","even","2451","NA","NA","10564","1805","NA","NA","27791","1812","NA","NA","26766","27892","28490","27790","27892","Flankertask","14","9475.0","15","1024"
"93","93","623","623","#3d3846","legacy","legacy","legacy","congruent","1","undefined","1","s","0","0","0","15","0","15","0","15","0","0","0","15","15","15","15","15","Mon Sep 18 10:00:31 2023","1500","The main experiment item","False","Flankertask.osexp","C:\Users\User","False","mono","False","18","no","white","no","yes","768","legacy","15","15","C:/Users/User/subject-jvb fixed.csv","legacy","Melodramatic Milgram","4.0.5","0","s","NA","s","NA","NA","s","508.0","NA","638","NA","NA","508","2","legacy","1024","2","48000","-16","experiment","SSSSS","0","even","2451","NA","NA","10564","1805","NA","NA","29528","1812","NA","NA","28496","29628","30136","29527","29628","Flankertask","15","9983.0","16","1024"
"94","94","615","615","#3d3846","legacy","legacy","legacy","congruent","1","undefined","1","h","0","0","0","16","0","16","0","16","0","0","0","16","16","16","16","16","Mon Sep 18 10:00:31 2023","1500","The main experiment item","False","Flankertask.osexp","C:\Users\User","False","mono","False","18","no","white","no","yes","768","legacy","16","16","C:/Users/User/subject-jvb fixed.csv","legacy","Melodramatic Milgram","4.0.5","0","h","NA","s","NA","NA","h","475.0","NA","638","NA","NA","475","2","legacy","1024","2","48000","-16","experiment","HHHHH","0","even","2451","NA","NA","10564","1805","NA","NA","31167","1812","NA","NA","30142","31268","31744","31165","31268","Flankertask","16","10458.0","17","1024"
"94","94","609","609","#3d3846","legacy","legacy","legacy","congruent","1","undefined","1","h","0","0","0","17","0","17","0","17","0","0","0","17","17","17","17","17","Mon Sep 18 10:00:31 2023","1500","The main experiment item","False","Flankertask.osexp","C:\Users\User","False","mono","False","18","no","white","no","yes","768","legacy","17","17","C:/Users/User/subject-jvb fixed.csv","legacy","Melodramatic Milgram","4.0.5","0","h","NA","s","NA","NA","h","508.0","NA","638","NA","NA","508","2","legacy","1024","2","48000","-16","experiment","HHHHH","0","even","2451","NA","NA","10564","1805","NA","NA","32780","1812","NA","NA","31750","32881","33389","32778","32881","Flankertask","17","10966.0","18","1024"
"94","94","609","609","#3d3846","legacy","legacy","legacy","incongruent","1","undefined","1","s","0","0","0","18","0","18","0","18","0","0","0","18","18","18","18","18","Mon Sep 18 10:00:31 2023","1500","The main experiment item","False","Flankertask.osexp","C:\Users\User","False","mono","False","18","no","white","no","yes","768","legacy","18","18","C:/Users/User/subject-jvb fixed.csv","legacy","Melodramatic Milgram","4.0.5","0","s","NA","s","NA","NA","s","613.0","NA","638","NA","NA","613","2","legacy","1024","2","48000","-16","experiment","HHSHH","0","even","2451","NA","NA","10564","1805","NA","NA","34420","1812","NA","NA","33395","34521","35135","34419","34521","Flankertask","18","11579.0","19","1024"
"95","95","612","612","#3d3846","legacy","legacy","legacy","incongruent","1","undefined","1","s","0","0","0","19","0","19","0","19","0","0","0","19","19","19","19","19","Mon Sep 18 10:00:31 2023","1500","The main experiment item","False","Flankertask.osexp","C:\Users\User","False","mono","False","18","no","white","no","yes","768","legacy","19","19","C:/Users/User/subject-jvb fixed.csv","legacy","Melodramatic Milgram","4.0.5","0","s","NA","s","NA","NA","s","671.0","NA","638","NA","NA","671","2","legacy","1024","2","48000","-16","experiment","HHSHH","0","even","2451","NA","NA","10564","1805","NA","NA","36185","1812","NA","NA","35140","36286","36957","36184","36286","Flankertask","19","12250.0","20","1024"
"95","95","607","607","#3d3846","legacy","legacy","legacy","congruent","1","undefined","1","h","0","0","0","20","0","20","0","20","0","0","0","20","20","20","20","20","Mon Sep 18 10:00:31 2023","1500","The main experiment item","False","Flankertask.osexp","C:\Users\User","False","mono","False","18","no","white","no","yes","768","legacy","20","20","C:/Users/User/subject-jvb fixed.csv","legacy","Melodramatic Milgram","4.0.5","0","h","NA","s","NA","NA","h","512.0","NA","638","NA","NA","512","2","legacy","1024","2","48000","-16","experiment","HHHHH","0","even","2451","NA","NA","10564","1805","NA","NA","37987","1812","NA","NA","36963","38088","38600","37986","38088","Flankertask","20","12762.0","21","1024"
"95","95","603","603","#3d3846","legacy","legacy","legacy","incongruent","1","undefined","1","s","0","0","0","21","0","21","0","21","0","0","0","21","21","21","21","21","Mon Sep 18 10:00:31 2023","1500","The main experiment item","False","Flankertask.osexp","C:\Users\User","False","mono","False","18","no","white","no","yes","768","legacy","21","21","C:/Users/User/subject-jvb fixed.csv","legacy","Melodramatic Milgram","4.0.5","0","s","NA","s","NA","NA","s","507.0","NA","638","NA","NA","507","2","legacy","1024","2","48000","-16","experiment","HHSHH","0","even","2451","NA","NA","10564","1805","NA","NA","39628","1812","NA","NA","38603","39729","40236","39627","39729","Flankertask","21","13269.0","22","1024"
"95","95","597","597","#3d3846","legacy","legacy","legacy","congruent","1","undefined","1","h","0","0","0","22","0","22","0","22","0","0","0","22","22","22","22","22","Mon Sep 18 10:00:31 2023","1500","The main experiment item","False","Flankertask.osexp","C:\Users\User","False","mono","False","18","no","white","no","yes","768","legacy","22","22","C:/Users/User/subject-jvb fixed.csv","legacy","Melodramatic Milgram","4.0.5","0","h","NA","s","NA","NA","h","477.0","NA","638","NA","NA","477","2","legacy","1024","2","48000","-16","experiment","HHHHH","0","even","2451","NA","NA","10564","1805","NA","NA","41267","1812","NA","NA","40242","41368","41845","41266","41368","Flankertask","22","13746.0","23","1024"
"95","95","593","593","#3d3846","legacy","legacy","legacy","congruent","1","undefined","1","h","0","0","0","23","0","23","0","23","0","0","0","23","23","23","23","23","Mon Sep 18 10:00:31 2023","1500","The main experiment item","False","Flankertask.osexp","C:\Users\User","False","mono","False","18","no","white","no","yes","768","legacy","23","23","C:/Users/User/subject-jvb fixed.csv","legacy","Melodramatic Milgram","4.0.5","0","h","NA","s","NA","NA","h","491.0","NA","638","NA","NA","491","2","legacy","1024","2","48000","-16","experiment","HHHHH","0","even","2451","NA","NA","10564","1805","NA","NA","42877","1812","NA","NA","41851","42978","43469","42875","42978","Flankertask","23","14237.0","24","1024"
"96","96","591","591","#3d3846","legacy","legacy","legacy","incongruent","1","undefined","1","s","0","0","0","24","0","24","0","24","0","0","0","24","24","24","24","24","Mon Sep 18 10:00:31 2023","1500","The main experiment item","False","Flankertask.osexp","C:\Users\User","False","mono","False","18","no","white","no","yes","768","legacy","24","24","C:/Users/User/subject-jvb fixed.csv","legacy","Melodramatic Milgram","4.0.5","0","s","NA","s","NA","NA","s","557.0","NA","638","NA","NA","557","2","legacy","1024","2","48000","-16","experiment","HHSHH","0","even","2451","NA","NA","10564","1805","NA","NA","44500","1812","NA","NA","43475","44601","45159","44498","44601","Flankertask","24","14794.0","25","1024"
"96","96","582","582","#3d3846","legacy","legacy","legacy","incongruent","1","undefined","1","h","0","0","0","25","0","25","0","25","0","0","0","25","25","25","25","25","Mon Sep 18 10:00:31 2023","1500","The main experiment item","False","Flankertask.osexp","C:\Users\User","False","mono","False","18","no","white","no","yes","768","legacy","25","25","C:/Users/User/subject-jvb fixed.csv","legacy","Melodramatic Milgram","4.0.5","0","h","NA","s","NA","NA","h","354.0","NA","638","NA","NA","354","2","legacy","1024","2","48000","-16","experiment","SSHSS","0","even","2451","NA","NA","10564","1805","NA","NA","46190","1812","NA","NA","45165","46291","46646","46188","46291","Flankertask","25","15148.0","26","1024"
"96","96","584","584","#3d3846","legacy","legacy","legacy","congruent","1","undefined","1","s","0","0","0","26","0","26","0","26","0","0","0","26","26","26","26","26","Mon Sep 18 10:00:31 2023","1500","The main experiment item","False","Flankertask.osexp","C:\Users\User","False","mono","False","18","no","white","no","yes","768","legacy","26","26","C:/Users/User/subject-jvb fixed.csv","legacy","Melodramatic Milgram","4.0.5","0","s","NA","s","NA","NA","s","643.0","NA","638","NA","NA","643","2","legacy","1024","2","48000","-16","experiment","SSSSS","0","even","2451","NA","NA","10564","1805","NA","NA","47681","1812","NA","NA","46652","47782","48426","47680","47782","Flankertask","26","15791.0","27","1024"
"96","96","590","590","#3d3846","legacy","legacy","legacy","incongruent","1","undefined","1","h","0","0","0","27","0","27","0","27","0","0","0","27","27","27","27","27","Mon Sep 18 10:00:31 2023","1500","The main experiment item","False","Flankertask.osexp","C:\Users\User","False","mono","False","18","no","white","no","yes","768","legacy","27","27","C:/Users/User/subject-jvb fixed.csv","legacy","Melodramatic Milgram","4.0.5","0","h","NA","s","NA","NA","h","736.0","NA","638","NA","NA","736","2","legacy","1024","2","48000","-16","experiment","SSHSS","0","even","2451","NA","NA","10564","1805","NA","NA","49453","1812","NA","NA","48428","49554","50291","49451","49554","Flankertask","27","16527.0","28","1024"
"96","96","588","588","#3d3846","legacy","legacy","legacy","incongruent","1","undefined","1","h","0","0","0","28","0","28","0","28","0","0","0","28","28","28","28","28","Mon Sep 18 10:00:31 2023","1500","The main experiment item","False","Flankertask.osexp","C:\Users\User","False","mono","False","18","no","white","no","yes","768","legacy","28","28","C:/Users/User/subject-jvb fixed.csv","legacy","Melodramatic Milgram","4.0.5","0","h","NA","s","NA","NA","h","548.0","NA","638","NA","NA","548","2","legacy","1024","2","48000","-16","experiment","SSHSS","0","even","2451","NA","NA","10564","1805","NA","NA","51321","1812","NA","NA","50297","51422","51971","51320","51422","Flankertask","28","17075.0","29","1024"
"96","96","587","587","#3d3846","legacy","legacy","legacy","congruent","1","undefined","1","h","0","0","0","29","0","29","0","29","0","0","0","29","29","29","29","29","Mon Sep 18 10:00:31 2023","1500","The main experiment item","False","Flankertask.osexp","C:\Users\User","False","mono","False","18","no","white","no","yes","768","legacy","29","29","C:/Users/User/subject-jvb fixed.csv","legacy","Melodramatic Milgram","4.0.5","0","h","NA","s","NA","NA","h","547.0","NA","638","NA","NA","547","2","legacy","1024","2","48000","-16","experiment","HHHHH","0","even","2451","NA","NA","10564","1805","NA","NA","53001","1812","NA","NA","51977","53102","53649","53000","53102","Flankertask","29","17622.0","30","1024"
"96","96","584","584","#3d3846","legacy","legacy","legacy","congruent","1","undefined","1","s","0","0","0","30","0","30","0","30","0","0","0","30","30","30","30","30","Mon Sep 18 10:00:31 2023","1500","The main experiment item","False","Flankertask.osexp","C:\Users\User","False","mono","False","18","no","white","no","yes","768","legacy","30","30","C:/Users/User/subject-jvb fixed.csv","legacy","Melodramatic Milgram","4.0.5","0","s","NA","s","NA","NA","s","512.0","NA","638","NA","NA","512","2","legacy","1024","2","48000","-16","experiment","SSSSS","0","even","2451","NA","NA","10564","1805","NA","NA","54681","1812","NA","NA","53655","54782","55295","54680","54782","Flankertask","30","18134.0","31","1024"
"96","96","583","583","#3d3846","legacy","legacy","legacy","congruent","1","undefined","1","s","0","0","0","31","0","31","0","31","0","0","0","31","31","31","31","31","Mon Sep 18 10:00:31 2023","1500","The main experiment item","False","Flankertask.osexp","C:\Users\User","False","mono","False","18","no","white","no","yes","768","legacy","31","31","C:/Users/User/subject-jvb fixed.csv","legacy","Melodramatic Milgram","4.0.5","0","s","NA","s","NA","NA","s","533.0","NA","638","NA","NA","533","2","legacy","1024","2","48000","-16","experiment","SSSSS","0","even","2451","NA","NA","10564","1805","NA","NA","56326","1812","NA","NA","55301","56427","56960","56325","56427","Flankertask","31","18667.0","32","1024"
"93","93","580","580","#3d3846","legacy","legacy","legacy","incongruent","0","undefined","0","s","0","0","0","32","0","32","0","32","0","0","0","32","32","32","32","32","Mon Sep 18 10:00:31 2023","1500","The main experiment item","False","Flankertask.osexp","C:\Users\User","False","mono","False","18","no","white","no","yes","768","legacy","32","32","C:/Users/User/subject-jvb fixed.csv","legacy","Melodramatic Milgram","4.0.5","0","h","NA","s","NA","NA","h","498.0","NA","638","NA","NA","498","2","legacy","1024","2","48000","-16","experiment","HHSHH","0","even","2451","NA","NA","10564","1805","NA","NA","57992","1812","NA","NA","56967","58093","58591","57991","58093","Flankertask","31","19165.0","33","1024"
"94","94","580","580","#3d3846","legacy","legacy","legacy","congruent","1","undefined","1","h","0","0","0","33","0","33","0","33","0","0","0","33","33","33","33","33","Mon Sep 18 10:00:31 2023","1500","The main experiment item","False","Flankertask.osexp","C:\Users\User","False","mono","False","18","no","white","no","yes","768","legacy","33","33","C:/Users/User/subject-jvb fixed.csv","legacy","Melodramatic Milgram","4.0.5","0","h","NA","s","NA","NA","h","577.0","NA","638","NA","NA","577","2","legacy","1024","2","48000","-16","experiment","HHHHH","0","even","2451","NA","NA","58597","1805","NA","NA","60142","1812","NA","NA","59097","60243","60821","60141","60243","Flankertask","32","19742.0","34","1024"
"94","94","579","579","#3d3846","legacy","legacy","legacy","congruent","1","undefined","1","h","0","0","0","34","0","34","0","34","0","0","0","34","34","34","34","34","Mon Sep 18 10:00:31 2023","1500","The main experiment item","False","Flankertask.osexp","C:\Users\User","False","mono","False","18","no","white","no","yes","768","legacy","34","34","C:/Users/User/subject-jvb fixed.csv","legacy","Melodramatic Milgram","4.0.5","0","h","NA","s","NA","NA","h","536.0","NA","638","NA","NA","536","2","legacy","1024","2","48000","-16","experiment","HHHHH","0","even","2451","NA","NA","58597","1805","NA","NA","61851","1812","NA","NA","60827","61952","62489","61850","61952","Flankertask","33","20278.0","35","1024"
"94","94","577","577","#3d3846","legacy","legacy","legacy","congruent","1","undefined","1","h","0","0","0","35","0","35","0","35","0","0","0","35","35","35","35","35","Mon Sep 18 10:00:31 2023","1500","The main experiment item","False","Flankertask.osexp","C:\Users\User","False","mono","False","18","no","white","no","yes","768","legacy","35","35","C:/Users/User/subject-jvb fixed.csv","legacy","Melodramatic Milgram","4.0.5","0","h","NA","s","NA","NA","h","504.0","NA","638","NA","NA","504","2","legacy","1024","2","48000","-16","experiment","HHHHH","0","even","2451","NA","NA","58597","1805","NA","NA","63525","1812","NA","NA","62495","63626","64130","63524","63626","Flankertask","34","20782.0","36","1024"
"94","94","574","574","#3d3846","legacy","legacy","legacy","congruent","1","undefined","1","s","0","0","0","36","0","36","0","36","0","0","0","36","36","36","36","36","Mon Sep 18 10:00:31 2023","1500","The main experiment item","False","Flankertask.osexp","C:\Users\User","False","mono","False","18","no","white","no","yes","768","legacy","36","36","C:/Users/User/subject-jvb fixed.csv","legacy","Melodramatic Milgram","4.0.5","0","s","NA","s","NA","NA","s","475.0","NA","638","NA","NA","475","2","legacy","1024","2","48000","-16","experiment","SSSSS","0","even","2451","NA","NA","58597","1805","NA","NA","65161","1812","NA","NA","64136","65262","65737","65160","65262","Flankertask","35","21257.0","37","1024"
"94","94","575","575","#3d3846","legacy","legacy","legacy","incongruent","1","undefined","1","s","0","0","0","37","0","37","0","37","0","0","0","37","37","37","37","37","Mon Sep 18 10:00:31 2023","1500","The main experiment item","False","Flankertask.osexp","C:\Users\User","False","mono","False","18","no","white","no","yes","768","legacy","37","37","C:/Users/User/subject-jvb fixed.csv","legacy","Melodramatic Milgram","4.0.5","0","s","NA","s","NA","NA","s","628.0","NA","638","NA","NA","628","2","legacy","1024","2","48000","-16","experiment","HHSHH","0","even","2451","NA","NA","58597","1805","NA","NA","66796","1812","NA","NA","65743","66896","67525","66794","66896","Flankertask","36","21885.0","38","1024"
"94","94","573","573","#3d3846","legacy","legacy","legacy","congruent","1","undefined","1","s","0","0","0","38","0","38","0","38","0","0","0","38","38","38","38","38","Mon Sep 18 10:00:31 2023","1500","The main experiment item","False","Flankertask.osexp","C:\Users\User","False","mono","False","18","no","white","no","yes","768","legacy","38","38","C:/Users/User/subject-jvb fixed.csv","legacy","Melodramatic Milgram","4.0.5","0","s","NA","s","NA","NA","s","494.0","NA","638","NA","NA","494","2","legacy","1024","2","48000","-16","experiment","SSSSS","0","even","2451","NA","NA","58597","1805","NA","NA","68555","1812","NA","NA","67531","68656","69150","68554","68656","Flankertask","37","22379.0","39","1024"
"92","92","572","572","#3d3846","legacy","legacy","legacy","incongruent","0","undefined","0","s","0","0","0","39","0","39","0","39","0","0","0","39","39","39","39","39","Mon Sep 18 10:00:31 2023","1500","The main experiment item","False","Flankertask.osexp","C:\Users\User","False","mono","False","18","no","white","no","yes","768","legacy","39","39","C:/Users/User/subject-jvb fixed.csv","legacy","Melodramatic Milgram","4.0.5","0","h","NA","s","NA","NA","h","530.0","NA","638","NA","NA","530","2","legacy","1024","2","48000","-16","experiment","HHSHH","0","even","2451","NA","NA","58597","1805","NA","NA","70181","1812","NA","NA","69156","70281","70811","70179","70281","Flankertask","37","22909.0","40","1024"
"92","92","572","572","#3d3846","legacy","legacy","legacy","congruent","1","undefined","1","s","0","0","0","40","0","40","0","40","0","0","0","40","40","40","40","40","Mon Sep 18 10:00:31 2023","1500","The main experiment item","False","Flankertask.osexp","C:\Users\User","False","mono","False","18","no","white","no","yes","768","legacy","40","40","C:/Users/User/subject-jvb fixed.csv","legacy","Melodramatic Milgram","4.0.5","0","s","NA","s","NA","NA","s","559.0","NA","638","NA","NA","559","2","legacy","1024","2","48000","-16","experiment","SSSSS","0","even","2451","NA","NA","70817","1805","NA","NA","72362","1812","NA","NA","71317","72463","73023","72361","72463","Flankertask","38","23468.0","41","1024"
"92","92","572","572","#3d3846","legacy","legacy","legacy","congruent","1","undefined","1","h","0","0","0","41","0","41","0","41","0","0","0","41","41","41","41","41","Mon Sep 18 10:00:31 2023","1500","The main experiment item","False","Flankertask.osexp","C:\Users\User","False","mono","False","18","no","white","no","yes","768","legacy","41","41","C:/Users/User/subject-jvb fixed.csv","legacy","Melodramatic Milgram","4.0.5","0","h","NA","s","NA","NA","h","564.0","NA","638","NA","NA","564","2","legacy","1024","2","48000","-16","experiment","HHHHH","0","even","2451","NA","NA","70817","1805","NA","NA","74054","1812","NA","NA","73029","74155","74719","74053","74155","Flankertask","39","24032.0","42","1024"
"93","93","573","573","#3d3846","legacy","legacy","legacy","congruent","1","undefined","1","s","0","0","0","42","0","42","0","42","0","0","0","42","42","42","42","42","Mon Sep 18 10:00:31 2023","1500","The main experiment item","False","Flankertask.osexp","C:\Users\User","False","mono","False","18","no","white","no","yes","768","legacy","42","42","C:/Users/User/subject-jvb fixed.csv","legacy","Melodramatic Milgram","4.0.5","0","s","NA","s","NA","NA","s","646.0","NA","638","NA","NA","646","2","legacy","1024","2","48000","-16","experiment","SSSSS","0","even","2451","NA","NA","70817","1805","NA","NA","75767","1812","NA","NA","74725","75868","76514","75765","75868","Flankertask","40","24678.0","43","1024"
"93","93","572","572","#3d3846","legacy","legacy","legacy","congruent","1","undefined","1","h","0","0","0","43","0","43","0","43","0","0","0","43","43","43","43","43","Mon Sep 18 10:00:31 2023","1500","The main experiment item","False","Flankertask.osexp","C:\Users\User","False","mono","False","18","no","white","no","yes","768","legacy","43","43","C:/Users/User/subject-jvb fixed.csv","legacy","Melodramatic Milgram","4.0.5","0","h","NA","s","NA","NA","h","521.0","NA","638","NA","NA","521","2","legacy","1024","2","48000","-16","experiment","HHHHH","0","even","2451","NA","NA","70817","1805","NA","NA","77546","1812","NA","NA","76521","77647","78169","77544","77647","Flankertask","41","25199.0","44","1024"
"93","93","570","570","#3d3846","legacy","legacy","legacy","congruent","1","undefined","1","s","0","0","0","44","0","44","0","44","0","0","0","44","44","44","44","44","Mon Sep 18 10:00:31 2023","1500","The main experiment item","False","Flankertask.osexp","C:\Users\User","False","mono","False","18","no","white","no","yes","768","legacy","44","44","C:/Users/User/subject-jvb fixed.csv","legacy","Melodramatic Milgram","4.0.5","0","s","NA","s","NA","NA","s","465.0","NA","638","NA","NA","465","2","legacy","1024","2","48000","-16","experiment","SSSSS","0","even","2451","NA","NA","70817","1805","NA","NA","79205","1812","NA","NA","78175","79306","79771","79203","79306","Flankertask","42","25664.0","45","1024"
"93","93","571","571","#3d3846","legacy","legacy","legacy","incongruent","1","undefined","1","h","0","0","0","45","0","45","0","45","0","0","0","45","45","45","45","45","Mon Sep 18 10:00:31 2023","1500","The main experiment item","False","Flankertask.osexp","C:\Users\User","False","mono","False","18","no","white","no","yes","768","legacy","45","45","C:/Users/User/subject-jvb fixed.csv","legacy","Melodramatic Milgram","4.0.5","0","h","NA","s","NA","NA","h","619.0","NA","638","NA","NA","619","2","legacy","1024","2","48000","-16","experiment","SSHSS","0","even","2451","NA","NA","70817","1805","NA","NA","80801","1812","NA","NA","79777","80903","81522","80800","80903","Flankertask","43","26283.0","46","1024"
"93","93","571","571","#3d3846","legacy","legacy","legacy","incongruent","1","undefined","1","h","0","0","0","46","0","46","0","46","0","0","0","46","46","46","46","46","Mon Sep 18 10:00:31 2023","1500","The main experiment item","False","Flankertask.osexp","C:\Users\User","False","mono","False","18","no","white","no","yes","768","legacy","46","46","C:/Users/User/subject-jvb fixed.csv","legacy","Melodramatic Milgram","4.0.5","0","h","NA","s","NA","NA","h","569.0","NA","638","NA","NA","569","2","legacy","1024","2","48000","-16","experiment","SSHSS","0","even","2451","NA","NA","70817","1805","NA","NA","82552","1812","NA","NA","81528","82653","83223","82551","82653","Flankertask","44","26852.0","47","1024"
"93","93","571","571","#3d3846","legacy","legacy","legacy","incongruent","1","undefined","1","h","0","0","0","47","0","47","0","47","0","0","0","47","47","47","47","47","Mon Sep 18 10:00:31 2023","1500","The main experiment item","False","Flankertask.osexp","C:\Users\User","False","mono","False","18","no","white","no","yes","768","legacy","47","47","C:/Users/User/subject-jvb fixed.csv","legacy","Melodramatic Milgram","4.0.5","0","h","NA","s","NA","NA","h","565.0","NA","638","NA","NA","565","2","legacy","1024","2","48000","-16","experiment","SSHSS","0","even","2451","NA","NA","70817","1805","NA","NA","84254","1812","NA","NA","83229","84355","84920","84253","84355","Flankertask","45","27417.0","48","1024"
"93","93","571","571","#3d3846","legacy","legacy","legacy","congruent","1","undefined","1","h","0","0","0","48","0","48","0","48","0","0","0","48","48","48","48","48","Mon Sep 18 10:00:31 2023","1500","The main experiment item","False","Flankertask.osexp","C:\Users\User","False","mono","False","18","no","white","no","yes","768","legacy","48","48","C:/Users/User/subject-jvb fixed.csv","legacy","Melodramatic Milgram","4.0.5","0","h","NA","s","NA","NA","h","609.0","NA","638","NA","NA","609","2","legacy","1024","2","48000","-16","experiment","HHHHH","0","even","2451","NA","NA","70817","1805","NA","NA","85951","1812","NA","NA","84926","86052","86662","85949","86052","Flankertask","46","28026.0","49","1024"
"94","94","572","572","#3d3846","legacy","legacy","legacy","incongruent","1","undefined","1","s","0","0","0","49","0","49","0","49","0","0","0","49","49","49","49","49","Mon Sep 18 10:00:31 2023","1500","The main experiment item","False","Flankertask.osexp","C:\Users\User","False","mono","False","18","no","white","no","yes","768","legacy","49","49","C:/Users/User/subject-jvb fixed.csv","legacy","Melodramatic Milgram","4.0.5","0","s","NA","s","NA","NA","s","601.0","NA","638","NA","NA","601","2","legacy","1024","2","48000","-16","experiment","HHSHH","0","even","2451","NA","NA","70817","1805","NA","NA","87693","1812","NA","NA","86668","87794","88396","87691","87794","Flankertask","47","28627.0","50","1024"
"94","94","572","572","#3d3846","legacy","legacy","legacy","incongruent","1","undefined","1","s","0","0","0","50","0","50","0","50","0","0","0","50","50","50","50","50","Mon Sep 18 10:00:31 2023","1500","The main experiment item","False","Flankertask.osexp","C:\Users\User","False","mono","False","18","no","white","no","yes","768","legacy","50","50","C:/Users/User/subject-jvb fixed.csv","legacy","Melodramatic Milgram","4.0.5","0","s","NA","s","NA","NA","s","587.0","NA","638","NA","NA","587","2","legacy","1024","2","48000","-16","experiment","HHSHH","0","even","2451","NA","NA","70817","1805","NA","NA","89437","1812","NA","NA","88402","89537","90125","89436","89537","Flankertask","48","29214.0","51","1024"
"94","94","573","573","#3d3846","legacy","legacy","legacy","incongruent","1","undefined","1","s","0","0","0","51","0","51","0","51","0","0","0","51","51","51","51","51","Mon Sep 18 10:00:31 2023","1500","The main experiment item","False","Flankertask.osexp","C:\Users\User","False","mono","False","18","no","white","no","yes","768","legacy","51","51","C:/Users/User/subject-jvb fixed.csv","legacy","Melodramatic Milgram","4.0.5","0","s","NA","s","NA","NA","s","589.0","NA","638","NA","NA","589","2","legacy","1024","2","48000","-16","experiment","HHSHH","0","even","2451","NA","NA","70817","1805","NA","NA","91156","1812","NA","NA","90131","91257","91847","91155","91257","Flankertask","49","29803.0","52","1024"
"94","94","571","571","#3d3846","legacy","legacy","legacy","congruent","1","undefined","1","h","0","0","0","52","0","52","0","52","0","0","0","52","52","52","52","52","Mon Sep 18 10:00:31 2023","1500","The main experiment item","False","Flankertask.osexp","C:\Users\User","False","mono","False","18","no","white","no","yes","768","legacy","52","52","C:/Users/User/subject-jvb fixed.csv","legacy","Melodramatic Milgram","4.0.5","0","h","NA","s","NA","NA","h","496.0","NA","638","NA","NA","496","2","legacy","1024","2","48000","-16","experiment","HHHHH","0","even","2451","NA","NA","70817","1805","NA","NA","92878","1812","NA","NA","91853","92979","93476","92877","92979","Flankertask","50","30299.0","53","1024"
"94","94","571","571","#3d3846","legacy","legacy","legacy","congruent","1","undefined","1","s","0","0","0","53","0","53","0","53","0","0","0","53","53","53","53","53","Mon Sep 18 10:00:31 2023","1500","The main experiment item","False","Flankertask.osexp","C:\Users\User","False","mono","False","18","no","white","no","yes","768","legacy","53","53","C:/Users/User/subject-jvb fixed.csv","legacy","Melodramatic Milgram","4.0.5","0","s","NA","s","NA","NA","s","561.0","NA","638","NA","NA","561","2","legacy","1024","2","48000","-16","experiment","SSSSS","0","even","2451","NA","NA","70817","1805","NA","NA","94511","1812","NA","NA","93482","94612","95173","94510","94612","Flankertask","51","30860.0","54","1024"
"94","94","572","572","#3d3846","legacy","legacy","legacy","incongruent","1","undefined","1","s","0","0","0","54","0","54","0","54","0","0","0","54","54","54","54","54","Mon Sep 18 10:00:31 2023","1500","The main experiment item","False","Flankertask.osexp","C:\Users\User","False","mono","False","18","no","white","no","yes","768","legacy","54","54","C:/Users/User/subject-jvb fixed.csv","legacy","Melodramatic Milgram","4.0.5","0","s","NA","s","NA","NA","s","637.0","NA","638","NA","NA","637","2","legacy","1024","2","48000","-16","experiment","HHSHH","0","even","2451","NA","NA","70817","1805","NA","NA","96221","1812","NA","NA","95179","96322","96959","96220","96322","Flankertask","52","31497.0","55","1024"
"94","94","571","571","#3d3846","legacy","legacy","legacy","congruent","1","undefined","1","h","0","0","0","55","0","55","0","55","0","0","0","55","55","55","55","55","Mon Sep 18 10:00:31 2023","1500","The main experiment item","False","Flankertask.osexp","C:\Users\User","False","mono","False","18","no","white","no","yes","768","legacy","55","55","C:/Users/User/subject-jvb fixed.csv","legacy","Melodramatic Milgram","4.0.5","0","h","NA","s","NA","NA","h","500.0","NA","638","NA","NA","500","2","legacy","1024","2","48000","-16","experiment","HHHHH","0","even","2451","NA","NA","70817","1805","NA","NA","97990","1812","NA","NA","96965","98091","98592","97989","98091","Flankertask","53","31997.0","56","1024"
"92","92","570","570","#3d3846","legacy","legacy","legacy","incongruent","0","undefined","0","s","0","0","0","56","0","56","0","56","0","0","0","56","56","56","56","56","Mon Sep 18 10:00:31 2023","1500","The main experiment item","False","Flankertask.osexp","C:\Users\User","False","mono","False","18","no","white","no","yes","768","legacy","56","56","C:/Users/User/subject-jvb fixed.csv","legacy","Melodramatic Milgram","4.0.5","0","h","NA","s","NA","NA","h","545.0","NA","638","NA","NA","545","2","legacy","1024","2","48000","-16","experiment","HHSHH","0","even","2451","NA","NA","70817","1805","NA","NA","99646","1812","NA","NA","98598","99747","100293","99644","99747","Flankertask","53","32542.0","57","1024"
"93","93","571","571","#3d3846","legacy","legacy","legacy","incongruent","1","undefined","1","s","0","0","0","57","0","57","0","57","0","0","0","57","57","57","57","57","Mon Sep 18 10:00:31 2023","1500","The main experiment item","False","Flankertask.osexp","C:\Users\User","False","mono","False","18","no","white","no","yes","768","legacy","57","57","C:/Users/User/subject-jvb fixed.csv","legacy","Melodramatic Milgram","4.0.5","0","s","NA","s","NA","NA","s","619.0","NA","638","NA","NA","619","2","legacy","1024","2","48000","-16","experiment","HHSHH","0","even","2451","NA","NA","100299","1805","NA","NA","101843","1812","NA","NA","100799","101944","102564","101841","101944","Flankertask","54","33161.0","58","1024"
"93","93","570","570","#3d3846","legacy","legacy","legacy","congruent","1","undefined","1","s","0","0","0","58","0","58","0","58","0","0","0","58","58","58","58","58","Mon Sep 18 10:00:31 2023","1500","The main experiment item","False","Flankertask.osexp","C:\Users\User","False","mono","False","18","no","white","no","yes","768","legacy","58","58","C:/Users/User/subject-jvb fixed.csv","legacy","Melodramatic Milgram","4.0.5","0","s","NA","s","NA","NA","s","524.0","NA","638","NA","NA","524","2","legacy","1024","2","48000","-16","experiment","SSSSS","0","even","2451","NA","NA","100299","1805","NA","NA","103595","1812","NA","NA","102570","103696","104220","103594","103696","Flankertask","55","33685.0","59","1024"
"93","93","568","568","#3d3846","legacy","legacy","legacy","congruent","1","undefined","1","s","0","0","0","59","0","59","0","59","0","0","0","59","59","59","59","59","Mon Sep 18 10:00:31 2023","1500","The main experiment item","False","Flankertask.osexp","C:\Users\User","False","mono","False","18","no","white","no","yes","768","legacy","59","59","C:/Users/User/subject-jvb fixed.csv","legacy","Melodramatic Milgram","4.0.5","0","s","NA","s","NA","NA","s","452.0","NA","638","NA","NA","452","2","legacy","1024","2","48000","-16","experiment","SSSSS","0","even","2451","NA","NA","100299","1805","NA","NA","105251","1812","NA","NA","104226","105352","105805","105250","105352","Flankertask","56","34137.0","60","1024"
"93","93","568","568","#3d3846","legacy","legacy","legacy","incongruent","1","undefined","1","h","0","0","0","60","0","60","0","60","0","0","0","60","60","60","60","60","Mon Sep 18 10:00:31 2023","1500","The main experiment item","False","Flankertask.osexp","C:\Users\User","False","mono","False","18","no","white","no","yes","768","legacy","60","60","C:/Users/User/subject-jvb fixed.csv","legacy","Melodramatic Milgram","4.0.5","0","h","NA","s","NA","NA","h","570.0","NA","638","NA","NA","570","2","legacy","1024","2","48000","-16","experiment","SSHSS","0","even","2451","NA","NA","100299","1805","NA","NA","106836","1812","NA","NA","105811","106937","107508","106835","106937","Flankertask","57","34707.0","61","1024"
"93","93","567","567","#3d3846","legacy","legacy","legacy","congruent","1","undefined","1","h","0","0","0","61","0","61","0","61","0","0","0","61","61","61","61","61","Mon Sep 18 10:00:31 2023","1500","The main experiment item","False","Flankertask.osexp","C:\Users\User","False","mono","False","18","no","white","no","yes","768","legacy","61","61","C:/Users/User/subject-jvb fixed.csv","legacy","Melodramatic Milgram","4.0.5","0","h","NA","s","NA","NA","h","494.0","NA","638","NA","NA","494","2","legacy","1024","2","48000","-16","experiment","HHHHH","0","even","2451","NA","NA","100299","1805","NA","NA","108537","1812","NA","NA","107513","108638","109133","108536","108638","Flankertask","58","35201.0","62","1024"
"93","93","567","567","#3d3846","legacy","legacy","legacy","incongruent","1","undefined","1","h","0","0","0","62","0","62","0","62","0","0","0","62","62","62","62","62","Mon Sep 18 10:00:31 2023","1500","The main experiment item","False","Flankertask.osexp","C:\Users\User","False","mono","False","18","no","white","no","yes","768","legacy","62","62","C:/Users/User/subject-jvb fixed.csv","legacy","Melodramatic Milgram","4.0.5","0","h","NA","s","NA","NA","h","522.0","NA","638","NA","NA","522","2","legacy","1024","2","48000","-16","experiment","SSHSS","0","even","2451","NA","NA","100299","1805","NA","NA","110169","1812","NA","NA","109139","110270","110792","110168","110270","Flankertask","59","35723.0","63","1024"
"93","93","566","566","#3d3846","legacy","legacy","legacy","congruent","1","undefined","1","s","0","0","0","63","0","63","0","63","0","0","0","63","63","63","63","63","Mon Sep 18 10:00:31 2023","1500","The main experiment item","False","Flankertask.osexp","C:\Users\User","False","mono","False","18","no","white","no","yes","768","legacy","63","63","C:/Users/User/subject-jvb fixed.csv","legacy","Melodramatic Milgram","4.0.5","0","s","NA","s","NA","NA","s","525.0","NA","638","NA","NA","525","2","legacy","1024","2","48000","-16","experiment","SSSSS","0","even","2451","NA","NA","100299","1805","NA","NA","111822","1812","NA","NA","110798","111923","112449","111821","111923","Flankertask","60","36248.0","64","1024"
"93","93","566","566","#3d3846","legacy","legacy","legacy","incongruent","1","undefined","1","h","0","0","0","64","0","64","0","64","0","0","0","64","64","64","64","64","Mon Sep 18 10:00:31 2023","1500","The main experiment item","False","Flankertask.osexp","C:\Users\User","False","mono","False","18","no","white","no","yes","768","legacy","64","64","C:/Users/User/subject-jvb fixed.csv","legacy","Melodramatic Milgram","4.0.5","0","h","NA","s","NA","NA","h","545.0","NA","638","NA","NA","545","2","legacy","1024","2","48000","-16","experiment","SSHSS","0","even","2451","NA","NA","100299","1805","NA","NA","113480","1812","NA","NA","112455","113581","114127","113479","113581","Flankertask","61","36793.0","65","1024"
"93","93","565","565","#3d3846","legacy","legacy","legacy","incongruent","1","undefined","1","h","0","0","0","65","0","65","0","65","0","0","0","65","65","65","65","65","Mon Sep 18 10:00:31 2023","1500","The main experiment item","False","Flankertask.osexp","C:\Users\User","False","mono","False","18","no","white","no","yes","768","legacy","65","65","C:/Users/User/subject-jvb fixed.csv","legacy","Melodramatic Milgram","4.0.5","0","h","NA","s","NA","NA","h","545.0","NA","638","NA","NA","545","2","legacy","1024","2","48000","-16","experiment","SSHSS","0","even","2451","NA","NA","100299","1805","NA","NA","115157","1812","NA","NA","114133","115258","115804","115156","115258","Flankertask","62","37338.0","66","1024"
"94","94","564","564","#3d3846","legacy","legacy","legacy","congruent","1","undefined","1","h","0","0","0","66","0","66","0","66","0","0","0","66","66","66","66","66","Mon Sep 18 10:00:31 2023","1500","The main experiment item","False","Flankertask.osexp","C:\Users\User","False","mono","False","18","no","white","no","yes","768","legacy","66","66","C:/Users/User/subject-jvb fixed.csv","legacy","Melodramatic Milgram","4.0.5","0","h","NA","s","NA","NA","h","510.0","NA","638","NA","NA","510","2","legacy","1024","2","48000","-16","experiment","HHHHH","0","even","2451","NA","NA","100299","1805","NA","NA","116835","1812","NA","NA","115810","116936","117447","116834","116936","Flankertask","63","37848.0","67","1024"
"94","94","564","564","#3d3846","legacy","legacy","legacy","incongruent","1","undefined","1","h","0","0","0","67","0","67","0","67","0","0","0","67","67","67","67","67","Mon Sep 18 10:00:31 2023","1500","The main experiment item","False","Flankertask.osexp","C:\Users\User","False","mono","False","18","no","white","no","yes","768","legacy","67","67","C:/Users/User/subject-jvb fixed.csv","legacy","Melodramatic Milgram","4.0.5","0","h","NA","s","NA","NA","h","571.0","NA","638","NA","NA","571","2","legacy","1024","2","48000","-16","experiment","SSHSS","0","even","2451","NA","NA","100299","1805","NA","NA","118478","1812","NA","NA","117453","118578","119149","118477","118578","Flankertask","64","38419.0","68","1024"
"94","94","564","564","#3d3846","legacy","legacy","legacy","congruent","1","undefined","1","h","0","0","0","68","0","68","0","68","0","0","0","68","68","68","68","68","Mon Sep 18 10:00:31 2023","1500","The main experiment item","False","Flankertask.osexp","C:\Users\User","False","mono","False","18","no","white","no","yes","768","legacy","68","68","C:/Users/User/subject-jvb fixed.csv","legacy","Melodramatic Milgram","4.0.5","0","h","NA","s","NA","NA","h","508.0","NA","638","NA","NA","508","2","legacy","1024","2","48000","-16","experiment","HHHHH","0","even","2451","NA","NA","100299","1805","NA","NA","120180","1812","NA","NA","119155","120281","120790","120179","120281","Flankertask","65","38927.0","69","1024"
"94","94","564","564","#3d3846","legacy","legacy","legacy","incongruent","1","undefined","1","s","0","0","0","69","0","69","0","69","0","0","0","69","69","69","69","69","Mon Sep 18 10:00:31 2023","1500","The main experiment item","False","Flankertask.osexp","C:\Users\User","False","mono","False","18","no","white","no","yes","768","legacy","69","69","C:/Users/User/subject-jvb fixed.csv","legacy","Melodramatic Milgram","4.0.5","0","s","NA","s","NA","NA","s","592.0","NA","638","NA","NA","592","2","legacy","1024","2","48000","-16","experiment","HHSHH","0","even","2451","NA","NA","100299","1805","NA","NA","121821","1812","NA","NA","120796","121922","122515","121820","121922","Flankertask","66","39519.0","70","1024"
"94","94","568","568","#3d3846","legacy","legacy","legacy","incongruent","1","undefined","1","h","0","0","0","70","0","70","0","70","0","0","0","70","70","70","70","70","Mon Sep 18 10:00:31 2023","1500","The main experiment item","False","Flankertask.osexp","C:\Users\User","False","mono","False","18","no","white","no","yes","768","legacy","70","70","C:/Users/User/subject-jvb fixed.csv","legacy","Melodramatic Milgram","4.0.5","0","h","NA","s","NA","NA","h","866.0","NA","638","NA","NA","866","2","legacy","1024","2","48000","-16","experiment","SSHSS","0","even","2451","NA","NA","100299","1805","NA","NA","123547","1812","NA","NA","122521","123648","124515","123546","123648","Flankertask","67","40385.0","71","1024"
"94","94","569","569","#3d3846","legacy","legacy","legacy","congruent","1","undefined","1","s","0","0","0","71","0","71","0","71","0","0","0","71","71","71","71","71","Mon Sep 18 10:00:31 2023","1500","The main experiment item","False","Flankertask.osexp","C:\Users\User","False","mono","False","18","no","white","no","yes","768","legacy","71","71","C:/Users/User/subject-jvb fixed.csv","legacy","Melodramatic Milgram","4.0.5","0","s","NA","s","NA","NA","s","601.0","NA","638","NA","NA","601","2","legacy","1024","2","48000","-16","experiment","SSSSS","0","even","2451","NA","NA","100299","1805","NA","NA","125551","1812","NA","NA","124521","125652","126253","125549","125652","Flankertask","68","40986.0","72","1024"
"94","94","569","569","#3d3846","legacy","legacy","legacy","incongruent","1","undefined","1","h","0","0","0","72","0","72","0","72","0","0","0","72","72","72","72","72","Mon Sep 18 10:00:31 2023","1500","The main experiment item","False","Flankertask.osexp","C:\Users\User","False","mono","False","18","no","white","no","yes","768","legacy","72","72","C:/Users/User/subject-jvb fixed.csv","legacy","Melodramatic Milgram","4.0.5","0","h","NA","s","NA","NA","h","600.0","NA","638","NA","NA","600","2","legacy","1024","2","48000","-16","experiment","SSHSS","0","even","2451","NA","NA","100299","1805","NA","NA","127283","1812","NA","NA","126259","127384","127984","127282","127384","Flankertask","69","41586.0","73","1024"
"94","94","567","567","#3d3846","legacy","legacy","legacy","incongruent","1","undefined","1","h","0","0","0","73","0","73","0","73","0","0","0","73","73","73","73","73","Mon Sep 18 10:00:31 2023","1500","The main experiment item","False","Flankertask.osexp","C:\Users\User","False","mono","False","18","no","white","no","yes","768","legacy","73","73","C:/Users/User/subject-jvb fixed.csv","legacy","Melodramatic Milgram","4.0.5","0","h","NA","s","NA","NA","h","423.0","NA","638","NA","NA","423","2","legacy","1024","2","48000","-16","experiment","SSHSS","0","even","2451","NA","NA","100299","1805","NA","NA","129034","1812","NA","NA","127990","129134","129558","129033","129134","Flankertask","70","42009.0","74","1024"
"94","94","569","569","#3d3846","legacy","legacy","legacy","incongruent","1","undefined","1","s","0","0","0","74","0","74","0","74","0","0","0","74","74","74","74","74","Mon Sep 18 10:00:31 2023","1500","The main experiment item","False","Flankertask.osexp","C:\Users\User","False","mono","False","18","no","white","no","yes","768","legacy","74","74","C:/Users/User/subject-jvb fixed.csv","legacy","Melodramatic Milgram","4.0.5","0","s","NA","s","NA","NA","s","673.0","NA","638","NA","NA","673","2","legacy","1024","2","48000","-16","experiment","HHSHH","0","even","2451","NA","NA","100299","1805","NA","NA","130599","1812","NA","NA","129564","130701","131374","130598","130701","Flankertask","71","42682.0","75","1024"
"94","94","568","568","#3d3846","legacy","legacy","legacy","congruent","1","undefined","1","s","0","0","0","75","0","75","0","75","0","0","0","75","75","75","75","75","Mon Sep 18 10:00:31 2023","1500","The main experiment item","False","Flankertask.osexp","C:\Users\User","False","mono","False","18","no","white","no","yes","768","legacy","75","75","C:/Users/User/subject-jvb fixed.csv","legacy","Melodramatic Milgram","4.0.5","0","s","NA","s","NA","NA","s","552.0","NA","638","NA","NA","552","2","legacy","1024","2","48000","-16","experiment","SSSSS","0","even","2451","NA","NA","100299","1805","NA","NA","132405","1812","NA","NA","131381","132508","133061","132404","132507","Flankertask","72","43234.0","76","1024"
"94","94","568","568","#3d3846","legacy","legacy","legacy","incongruent","1","undefined","1","h","0","0","0","76","0","76","0","76","0","0","0","76","76","76","76","76","Mon Sep 18 10:00:31 2023","1500","The main experiment item","False","Flankertask.osexp","C:\Users\User","False","mono","False","18","no","white","no","yes","768","legacy","76","76","C:/Users/User/subject-jvb fixed.csv","legacy","Melodramatic Milgram","4.0.5","0","h","NA","s","NA","NA","h","565.0","NA","638","NA","NA","565","2","legacy","1024","2","48000","-16","experiment","SSHSS","0","even","2451","NA","NA","100299","1805","NA","NA","134091","1812","NA","NA","133066","134192","134758","134090","134192","Flankertask","73","43799.0","77","1024"
"94","94","569","569","#3d3846","legacy","legacy","legacy","incongruent","1","undefined","1","s","0","0","0","77","0","77","0","77","0","0","0","77","77","77","77","77","Mon Sep 18 10:00:31 2023","1500","The main experiment item","False","Flankertask.osexp","C:\Users\User","False","mono","False","18","no","white","no","yes","768","legacy","77","77","C:/Users/User/subject-jvb fixed.csv","legacy","Melodramatic Milgram","4.0.5","0","s","NA","s","NA","NA","s","585.0","NA","638","NA","NA","585","2","legacy","1024","2","48000","-16","experiment","HHSHH","0","even","2451","NA","NA","100299","1805","NA","NA","135785","1812","NA","NA","134760","135886","136472","135784","135886","Flankertask","74","44384.0","78","1024"
"94","94","569","569","#3d3846","legacy","legacy","legacy","incongruent","1","undefined","1","s","0","0","0","78","0","78","0","78","0","0","0","78","78","78","78","78","Mon Sep 18 10:00:31 2023","1500","The main experiment item","False","Flankertask.osexp","C:\Users\User","False","mono","False","18","no","white","no","yes","768","legacy","78","78","C:/Users/User/subject-jvb fixed.csv","legacy","Melodramatic Milgram","4.0.5","0","s","NA","s","NA","NA","s","621.0","NA","638","NA","NA","621","2","legacy","1024","2","48000","-16","experiment","HHSHH","0","even","2451","NA","NA","100299","1805","NA","NA","137503","1812","NA","NA","136478","137603","138224","137502","137603","Flankertask","75","45005.0","79","1024"
"95","95","569","569","#3d3846","legacy","legacy","legacy","congruent","1","undefined","1","s","0","0","0","79","0","79","0","79","0","0","0","79","79","79","79","79","Mon Sep 18 10:00:31 2023","1500","The main experiment item","False","Flankertask.osexp","C:\Users\User","False","mono","False","18","no","white","no","yes","768","legacy","79","79","C:/Users/User/subject-jvb fixed.csv","legacy","Melodramatic Milgram","4.0.5","0","s","NA","s","NA","NA","s","557.0","NA","638","NA","NA","557","2","legacy","1024","2","48000","-16","experiment","SSSSS","0","even","2451","NA","NA","100299","1805","NA","NA","139256","1812","NA","NA","138231","139357","139914","139255","139357","Flankertask","76","45562.0","80","1024"
"95","95","572","572","#3d3846","legacy","legacy","legacy","incongruent","1","undefined","1","s","0","0","0","80","0","80","0","80","0","0","0","80","80","80","80","80","Mon Sep 18 10:00:31 2023","600","The main experiment item","False","Flankertask.osexp","C:\Users\User","False","mono","False","18","no","white","no","yes","768","legacy","0","79","C:/Users/User/subject-jvb fixed.csv","legacy","Melodramatic Milgram","4.0.5","0","s","NA","s","s","NA","s","831.0","NA","638","1229","NA","831","2","legacy","1024","2","48000","-16","experiment","HHSHH","0","even","2451","NA","142149","100299","1805","NA","NA","142182","1812","140920","NA","139920","142283","143114","142181","142283","Flankertask","77","46393.0","81","1024"
"93","93","572","572","#3d3846","legacy","legacy","legacy","incongruent","0","undefined","0","s","0","0","0","81","0","81","0","81","0","0","0","81","81","81","81","81","Mon Sep 18 10:00:31 2023","600","The main experiment item","False","Flankertask.osexp","C:\Users\User","False","mono","False","18","no","white","no","yes","768","legacy","1","79","C:/Users/User/subject-jvb fixed.csv","legacy","Melodramatic Milgram","4.0.5","0","h","NA","s","s","NA","h","512.0","NA","638","1229","NA","512","2","legacy","1024","2","48000","-16","experiment","HHSHH","0","even","2451","NA","142149","100299","1805","143120","NA","144645","1812","140920","NA","143620","144746","145259","144644","144746","Flankertask","77","46905.0","82","1024"
"92","92","570","570","#3d3846","legacy","legacy","legacy","incongruent","0","undefined","0","h","0","0","0","82","0","82","0","82","0","0","0","82","82","82","82","82","Mon Sep 18 10:00:31 2023","600","The main experiment item","False","Flankertask.osexp","C:\Users\User","False","mono","False","18","no","white","no","yes","768","legacy","2","79","C:/Users/User/subject-jvb fixed.csv","legacy","Melodramatic Milgram","4.0.5","0","s","NA","s","s","NA","s","459.0","NA","638","1229","NA","459","2","legacy","1024","2","48000","-16","experiment","SSHSS","0","even","2451","NA","142149","145265","1805","143120","NA","146790","1812","140920","NA","145765","146891","147350","146789","146891","Flankertask","77","47364.0","83","1024"
"92","92","569","569","#3d3846","legacy","legacy","legacy","congruent","1","undefined","1","h","0","0","0","83","0","83","0","83","0","0","0","83","83","83","83","83","Mon Sep 18 10:00:31 2023","600","The main experiment item","False","Flankertask.osexp","C:\Users\User","False","mono","False","18","no","white","no","yes","768","legacy","3","79","C:/Users/User/subject-jvb fixed.csv","legacy","Melodramatic Milgram","4.0.5","0","h","NA","s","s","NA","h","493.0","NA","638","1229","NA","493","2","legacy","1024","2","48000","-16","experiment","HHHHH","0","even","2451","NA","142149","147356","1805","143120","NA","148900","1812","140920","NA","147856","149001","149494","148899","149001","Flankertask","78","47857.0","84","1024"
"92","92","568","568","#3d3846","legacy","legacy","legacy","congruent","1","undefined","1","s","0","0","0","84","0","84","0","84","0","0","0","84","84","84","84","84","Mon Sep 18 10:00:31 2023","600","The main experiment item","False","Flankertask.osexp","C:\Users\User","False","mono","False","18","no","white","no","yes","768","legacy","4","79","C:/Users/User/subject-jvb fixed.csv","legacy","Melodramatic Milgram","4.0.5","0","s","NA","s","s","NA","s","496.0","NA","638","1229","NA","496","2","legacy","1024","2","48000","-16","experiment","SSSSS","0","even","2451","NA","142149","147356","1805","143120","NA","150525","1812","140920","NA","149500","150625","151121","150523","150625","Flankertask","79","48353.0","85","1024"
"93","93","569","569","#3d3846","legacy","legacy","legacy","congruent","1","undefined","1","h","0","0","0","85","0","85","0","85","0","0","0","85","85","85","85","85","Mon Sep 18 10:00:31 2023","600","The main experiment item","False","Flankertask.osexp","C:\Users\User","False","mono","False","18","no","white","no","yes","768","legacy","5","79","C:/Users/User/subject-jvb fixed.csv","legacy","Melodramatic Milgram","4.0.5","0","h","NA","s","s","NA","h","615.0","NA","638","1229","NA","615","2","legacy","1024","2","48000","-16","experiment","HHHHH","0","even","2451","NA","142149","147356","1805","143120","NA","152153","1812","140920","NA","151127","152254","152870","152152","152254","Flankertask","80","48968.0","86","1024"
"93","93","569","569","#3d3846","legacy","legacy","legacy","incongruent","1","undefined","1","h","0","0","0","86","0","86","0","86","0","0","0","86","86","86","86","86","Mon Sep 18 10:00:31 2023","600","The main experiment item","False","Flankertask.osexp","C:\Users\User","False","mono","False","18","no","white","no","yes","768","legacy","6","79","C:/Users/User/subject-jvb fixed.csv","legacy","Melodramatic Milgram","4.0.5","0","h","NA","s","s","NA","h","549.0","NA","638","1229","NA","549","2","legacy","1024","2","48000","-16","experiment","SSHSS","0","even","2451","NA","142149","147356","1805","152876","NA","154418","1812","140920","NA","153376","154518","155067","154417","154518","Flankertask","81","49517.0","87","1024"
"93","93","568","568","#3d3846","legacy","legacy","legacy","congruent","1","undefined","1","h","0","0","0","87","0","87","0","87","0","0","0","87","87","87","87","87","Mon Sep 18 10:00:31 2023","600","The main experiment item","False","Flankertask.osexp","C:\Users\User","False","mono","False","18","no","white","no","yes","768","legacy","7","79","C:/Users/User/subject-jvb fixed.csv","legacy","Melodramatic Milgram","4.0.5","0","h","NA","s","s","NA","h","496.0","NA","638","1229","NA","496","2","legacy","1024","2","48000","-16","experiment","HHHHH","0","even","2451","NA","142149","147356","1805","152876","NA","156102","1812","140920","NA","155073","156203","156700","156100","156203","Flankertask","82","50013.0","88","1024"
"93","93","567","567","#3d3846","legacy","legacy","legacy","congruent","1","undefined","1","h","0","0","0","88","0","88","0","88","0","0","0","88","88","88","88","88","Mon Sep 18 10:00:31 2023","600","The main experiment item","False","Flankertask.osexp","C:\Users\User","False","mono","False","18","no","white","no","yes","768","legacy","8","79","C:/Users/User/subject-jvb fixed.csv","legacy","Melodramatic Milgram","4.0.5","0","h","NA","s","s","NA","h","472.0","NA","638","1229","NA","472","2","legacy","1024","2","48000","-16","experiment","HHHHH","0","even","2451","NA","142149","147356","1805","152876","NA","157731","1812","140920","NA","156706","157832","158305","157730","157832","Flankertask","83","50485.0","89","1024"
"92","92","566","566","#3d3846","legacy","legacy","legacy","incongruent","0","undefined","0","h","0","0","0","89","0","89","0","89","0","0","0","89","89","89","89","89","Mon Sep 18 10:00:31 2023","600","The main experiment item","False","Flankertask.osexp","C:\Users\User","False","mono","False","18","no","white","no","yes","768","legacy","9","79","C:/Users/User/subject-jvb fixed.csv","legacy","Melodramatic Milgram","4.0.5","0","s","NA","s","s","NA","s","495.0","NA","638","1229","NA","495","2","legacy","1024","2","48000","-16","experiment","SSHSS","0","even","2451","NA","142149","147356","1805","152876","NA","159353","1812","140920","NA","158311","159454","159950","159352","159454","Flankertask","83","50980.0","90","1024"
"92","92","567","567","#3d3846","legacy","legacy","legacy","incongruent","1","undefined","1","s","0","0","0","90","0","90","0","90","0","0","0","90","90","90","90","90","Mon Sep 18 10:00:31 2023","600","The main experiment item","False","Flankertask.osexp","C:\Users\User","False","mono","False","18","no","white","no","yes","768","legacy","10","79","C:/Users/User/subject-jvb fixed.csv","legacy","Melodramatic Milgram","4.0.5","0","s","NA","s","s","NA","s","627.0","NA","638","1229","NA","627","2","legacy","1024","2","48000","-16","experiment","HHSHH","0","even","2451","NA","142149","159956","1805","152876","NA","161482","1812","140920","NA","160457","161583","162210","161481","161583","Flankertask","84","51607.0","91","1024"
"92","92","567","567","#3d3846","legacy","legacy","legacy","incongruent","1","undefined","1","h","0","0","0","91","0","91","0","91","0","0","0","91","91","91","91","91","Mon Sep 18 10:00:31 2023","600","The main experiment item","False","Flankertask.osexp","C:\Users\User","False","mono","False","18","no","white","no","yes","768","legacy","11","79","C:/Users/User/subject-jvb fixed.csv","legacy","Melodramatic Milgram","4.0.5","0","h","NA","s","s","NA","h","567.0","NA","638","1229","NA","567","2","legacy","1024","2","48000","-16","experiment","SSHSS","0","even","2451","NA","142149","159956","1805","162217","NA","163742","1812","140920","NA","162717","163843","164410","163740","163843","Flankertask","85","52174.0","92","1024"
"92","92","566","566","#3d3846","legacy","legacy","legacy","congruent","1","undefined","1","h","0","0","0","92","0","92","0","92","0","0","0","92","92","92","92","92","Mon Sep 18 10:00:31 2023","600","The main experiment item","False","Flankertask.osexp","C:\Users\User","False","mono","False","18","no","white","no","yes","768","legacy","12","79","C:/Users/User/subject-jvb fixed.csv","legacy","Melodramatic Milgram","4.0.5","0","h","NA","s","s","NA","h","468.0","NA","638","1229","NA","468","2","legacy","1024","2","48000","-16","experiment","HHHHH","0","even","2451","NA","142149","159956","1805","162217","NA","165441","1812","140920","NA","164416","165542","166011","165440","165542","Flankertask","86","52642.0","93","1024"
"92","92","564","564","#3d3846","legacy","legacy","legacy","congruent","1","undefined","1","h","0","0","0","93","0","93","0","93","0","0","0","93","93","93","93","93","Mon Sep 18 10:00:31 2023","600","The main experiment item","False","Flankertask.osexp","C:\Users\User","False","mono","False","18","no","white","no","yes","768","legacy","13","79","C:/Users/User/subject-jvb fixed.csv","legacy","Melodramatic Milgram","4.0.5","0","h","NA","s","s","NA","h","429.0","NA","638","1229","NA","429","2","legacy","1024","2","48000","-16","experiment","HHHHH","0","even","2451","NA","142149","159956","1805","162217","NA","167041","1812","140920","NA","166017","167142","167572","167040","167142","Flankertask","87","53071.0","94","1024"
"92","92","563","563","#3d3846","legacy","legacy","legacy","congruent","1","undefined","1","h","0","0","0","94","0","94","0","94","0","0","0","94","94","94","94","94","Mon Sep 18 10:00:31 2023","600","The main experiment item","False","Flankertask.osexp","C:\Users\User","False","mono","False","18","no","white","no","yes","768","legacy","14","79","C:/Users/User/subject-jvb fixed.csv","legacy","Melodramatic Milgram","4.0.5","0","h","NA","s","s","NA","h","479.0","NA","638","1229","NA","479","2","legacy","1024","2","48000","-16","experiment","HHHHH","0","even","2451","NA","142149","159956","1805","162217","NA","168603","1812","140920","NA","167578","168704","169184","168602","168704","Flankertask","88","53550.0","95","1024"
"92","92","562","562","#3d3846","legacy","legacy","legacy","incongruent","1","undefined","1","h","0","0","0","95","0","95","0","95","0","0","0","95","95","95","95","95","Mon Sep 18 10:00:31 2023","600","The main experiment item","False","Flankertask.osexp","C:\Users\User","False","mono","False","18","no","white","no","yes","768","legacy","15","79","C:/Users/User/subject-jvb fixed.csv","legacy","Melodramatic Milgram","4.0.5","0","h","NA","s","s","NA","h","474.0","NA","638","1229","NA","474","2","legacy","1024","2","48000","-16","experiment","SSHSS","0","even","2451","NA","142149","159956","1805","162217","NA","170214","1812","140920","NA","169190","170315","170790","170213","170315","Flankertask","89","54024.0","96","1024"
"92","92","561","561","#3d3846","legacy","legacy","legacy","congruent","1","undefined","1","s","0","0","0","96","0","96","0","96","0","0","0","96","96","96","96","96","Mon Sep 18 10:00:31 2023","600","The main experiment item","False","Flankertask.osexp","C:\Users\User","False","mono","False","18","no","white","no","yes","768","legacy","16","79","C:/Users/User/subject-jvb fixed.csv","legacy","Melodramatic Milgram","4.0.5","0","s","NA","s","s","NA","s","455.0","NA","638","1229","NA","455","2","legacy","1024","2","48000","-16","experiment","SSSSS","0","even","2451","NA","142149","159956","1805","162217","NA","171825","1812","140920","NA","170796","171926","172382","171824","171926","Flankertask","90","54479.0","97","1024"
"91","91","560","560","#3d3846","legacy","legacy","legacy","incongruent","0","undefined","0","h","0","0","0","97","0","97","0","97","0","0","0","97","97","97","97","97","Mon Sep 18 10:00:31 2023","600","The main experiment item","False","Flankertask.osexp","C:\Users\User","False","mono","False","18","no","white","no","yes","768","legacy","17","79","C:/Users/User/subject-jvb fixed.csv","legacy","Melodramatic Milgram","4.0.5","0","s","NA","s","s","NA","s","431.0","NA","638","1229","NA","431","2","legacy","1024","2","48000","-16","experiment","SSHSS","0","even","2451","NA","142149","159956","1805","162217","NA","173413","1812","140920","NA","172388","173514","173946","173412","173514","Flankertask","90","54910.0","98","1024"
"91","91","563","563","#3d3846","legacy","legacy","legacy","incongruent","1","undefined","1","s","0","0","0","98","0","98","0","98","0","0","0","98","98","98","98","98","Mon Sep 18 10:00:31 2023","600","The main experiment item","False","Flankertask.osexp","C:\Users\User","False","mono","False","18","no","white","no","yes","768","legacy","18","79","C:/Users/User/subject-jvb fixed.csv","legacy","Melodramatic Milgram","4.0.5","0","s","NA","s","s","NA","s","855.0","NA","638","1229","NA","855","2","legacy","1024","2","48000","-16","experiment","HHSHH","0","even","2451","NA","142149","173952","1805","162217","NA","175497","1812","140920","NA","174452","175598","176454","175496","175598","Flankertask","91","55765.0","99","1024"
"92","92","562","562","#3d3846","legacy","legacy","legacy","congruent","1","undefined","1","h","0","0","0","99","0","99","0","99","0","0","0","99","99","99","99","99","Mon Sep 18 10:00:31 2023","600","The main experiment item","False","Flankertask.osexp","C:\Users\User","False","mono","False","18","no","white","no","yes","768","legacy","19","79","C:/Users/User/subject-jvb fixed.csv","legacy","Melodramatic Milgram","4.0.5","0","h","NA","s","s","NA","h","465.0","NA","638","1229","NA","465","2","legacy","1024","2","48000","-16","experiment","HHHHH","0","even","2451","NA","142149","173952","1805","176460","NA","177985","1812","140920","NA","176960","178086","178552","177984","178086","Flankertask","92","56230.0","100","1024"
"92","92","561","561","#3d3846","legacy","legacy","legacy","congruent","1","undefined","1","s","0","0","0","100","0","100","0","100","0","0","0","100","100","100","100","100","Mon Sep 18 10:00:31 2023","600","The main experiment item","False","Flankertask.osexp","C:\Users\User","False","mono","False","18","no","white","no","yes","768","legacy","20","79","C:/Users/User/subject-jvb fixed.csv","legacy","Melodramatic Milgram","4.0.5","0","s","NA","s","s","NA","s","478.0","NA","638","1229","NA","478","2","legacy","1024","2","48000","-16","experiment","SSSSS","0","even","2451","NA","142149","173952","1805","176460","NA","179583","1812","140920","NA","178558","179684","180163","179582","179684","Flankertask","93","56708.0","101","1024"
"92","92","561","561","#3d3846","legacy","legacy","legacy","incongruent","1","undefined","1","s","0","0","0","101","0","101","0","101","0","0","0","101","101","101","101","101","Mon Sep 18 10:00:31 2023","600","The main experiment item","False","Flankertask.osexp","C:\Users\User","False","mono","False","18","no","white","no","yes","768","legacy","21","79","C:/Users/User/subject-jvb fixed.csv","legacy","Melodramatic Milgram","4.0.5","0","s","NA","s","s","NA","s","568.0","NA","638","1229","NA","568","2","legacy","1024","2","48000","-16","experiment","HHSHH","0","even","2451","NA","142149","173952","1805","176460","NA","181194","1812","140920","NA","180169","181295","181864","181193","181295","Flankertask","94","57276.0","102","1024"
"92","92","561","561","#3d3846","legacy","legacy","legacy","incongruent","1","undefined","1","h","0","0","0","102","0","102","0","102","0","0","0","102","102","102","102","102","Mon Sep 18 10:00:31 2023","600","The main experiment item","False","Flankertask.osexp","C:\Users\User","False","mono","False","18","no","white","no","yes","768","legacy","22","79","C:/Users/User/subject-jvb fixed.csv","legacy","Melodramatic Milgram","4.0.5","0","h","NA","s","s","NA","h","584.0","NA","638","1229","NA","584","2","legacy","1024","2","48000","-16","experiment","SSHSS","0","even","2451","NA","142149","173952","1805","176460","NA","182894","1812","140920","NA","181870","182995","183579","182893","182995","Flankertask","95","57860.0","103","1024"
"91","91","560","560","#3d3846","legacy","legacy","legacy","congruent","0","undefined","0","s","0","0","0","103","0","103","0","103","0","0","0","103","103","103","103","103","Mon Sep 18 10:00:31 2023","600","The main experiment item","False","Flankertask.osexp","C:\Users\User","False","mono","False","18","no","white","no","yes","768","legacy","23","79","C:/Users/User/subject-jvb fixed.csv","legacy","Melodramatic Milgram","4.0.5","0","h","NA","s","s","NA","h","483.0","NA","638","1229","NA","483","2","legacy","1024","2","48000","-16","experiment","SSSSS","0","even","2451","NA","142149","173952","1805","176460","NA","184610","1812","140920","NA","183586","184711","185194","184609","184711","Flankertask","95","58343.0","104","1024"
"91","91","560","560","#3d3846","legacy","legacy","legacy","congruent","1","undefined","1","s","0","0","0","104","0","104","0","104","0","0","0","104","104","104","104","104","Mon Sep 18 10:00:31 2023","600","The main experiment item","False","Flankertask.osexp","C:\Users\User","False","mono","False","18","no","white","no","yes","768","legacy","24","79","C:/Users/User/subject-jvb fixed.csv","legacy","Melodramatic Milgram","4.0.5","0","s","NA","s","s","NA","s","538.0","NA","638","1229","NA","538","2","legacy","1024","2","48000","-16","experiment","SSSSS","0","even","2451","NA","142149","185200","1805","176460","NA","186725","1812","140920","NA","185700","186826","187365","186723","186826","Flankertask","96","58881.0","105","1024"
"90","90","560","560","#3d3846","legacy","legacy","legacy","incongruent","0","undefined","0","s","0","0","0","105","0","105","0","105","0","0","0","105","105","105","105","105","Mon Sep 18 10:00:31 2023","600","The main experiment item","False","Flankertask.osexp","C:\Users\User","False","mono","False","18","no","white","no","yes","768","legacy","25","79","C:/Users/User/subject-jvb fixed.csv","legacy","Melodramatic Milgram","4.0.5","0","h","NA","s","s","NA","h","512.0","NA","638","1229","NA","512","2","legacy","1024","2","48000","-16","experiment","HHSHH","0","even","2451","NA","142149","185200","1805","176460","NA","188414","1812","140920","NA","187371","188515","189028","188412","188515","Flankertask","96","59393.0","106","1024"
"90","90","559","559","#3d3846","legacy","legacy","legacy","congruent","1","undefined","1","s","0","0","0","106","0","106","0","106","0","0","0","106","106","106","106","106","Mon Sep 18 10:00:31 2023","600","The main experiment item","False","Flankertask.osexp","C:\Users\User","False","mono","False","18","no","white","no","yes","768","legacy","26","79","C:/Users/User/subject-jvb fixed.csv","legacy","Melodramatic Milgram","4.0.5","0","s","NA","s","s","NA","s","494.0","NA","638","1229","NA","494","2","legacy","1024","2","48000","-16","experiment","SSSSS","0","even","2451","NA","142149","189034","1805","176460","NA","190559","1812","140920","NA","189534","190660","191154","190558","190660","Flankertask","97","59887.0","107","1024"
"90","90","558","558","#3d3846","legacy","legacy","legacy","congruent","1","undefined","1","h","0","0","0","107","0","107","0","107","0","0","0","107","107","107","107","107","Mon Sep 18 10:00:31 2023","600","The main experiment item","False","Flankertask.osexp","C:\Users\User","False","mono","False","18","no","white","no","yes","768","legacy","27","79","C:/Users/User/subject-jvb fixed.csv","legacy","Melodramatic Milgram","4.0.5","0","h","NA","s","s","NA","h","477.0","NA","638","1229","NA","477","2","legacy","1024","2","48000","-16","experiment","HHHHH","0","even","2451","NA","142149","189034","1805","176460","NA","192205","1812","140920","NA","191161","192306","192784","192204","192306","Flankertask","98","60364.0","108","1024"
"90","90","558","558","#3d3846","legacy","legacy","legacy","congruent","1","undefined","1","s","0","0","0","108","0","108","0","108","0","0","0","108","108","108","108","108","Mon Sep 18 10:00:31 2023","600","The main experiment item","False","Flankertask.osexp","C:\Users\User","False","mono","False","18","no","white","no","yes","768","legacy","28","79","C:/Users/User/subject-jvb fixed.csv","legacy","Melodramatic Milgram","4.0.5","0","s","NA","s","s","NA","s","460.0","NA","638","1229","NA","460","2","legacy","1024","2","48000","-16","experiment","SSSSS","0","even","2451","NA","142149","189034","1805","176460","NA","193821","1812","140920","NA","192790","193922","194383","193820","193922","Flankertask","99","60824.0","109","1024"
"90","90","557","557","#3d3846","legacy","legacy","legacy","congruent","1","undefined","1","h","0","0","0","109","0","109","0","109","0","0","0","109","109","109","109","109","Mon Sep 18 10:00:31 2023","600","The main experiment item","False","Flankertask.osexp","C:\Users\User","False","mono","False","18","no","white","no","yes","768","legacy","29","79","C:/Users/User/subject-jvb fixed.csv","legacy","Melodramatic Milgram","4.0.5","0","h","NA","s","s","NA","h","480.0","NA","638","1229","NA","480","2","legacy","1024","2","48000","-16","experiment","HHHHH","0","even","2451","NA","142149","189034","1805","176460","NA","195420","1812","140920","NA","194389","195520","196001","195418","195520","Flankertask","100","61304.0","110","1024"
"90","90","555","555","#3d3846","legacy","legacy","legacy","incongruent","0","undefined","0","h","0","0","0","110","0","110","0","110","0","0","0","110","110","110","110","110","Mon Sep 18 10:00:31 2023","600","The main experiment item","False","Flankertask.osexp","C:\Users\User","False","mono","False","18","no","white","no","yes","768","legacy","30","79","C:/Users/User/subject-jvb fixed.csv","legacy","Melodramatic Milgram","4.0.5","0","s","NA","s","s","NA","s","403.0","NA","638","1229","NA","403","2","legacy","1024","2","48000","-16","experiment","SSHSS","0","even","2451","NA","142149","189034","1805","176460","NA","197050","1812","140920","NA","196007","197151","197555","197049","197151","Flankertask","100","61707.0","111","1024"
"90","90","555","555","#3d3846","legacy","legacy","legacy","congruent","1","undefined","1","h","0","0","0","111","0","111","0","111","0","0","0","111","111","111","111","111","Mon Sep 18 10:00:31 2023","600","The main experiment item","False","Flankertask.osexp","C:\Users\User","False","mono","False","18","no","white","no","yes","768","legacy","31","79","C:/Users/User/subject-jvb fixed.csv","legacy","Melodramatic Milgram","4.0.5","0","h","NA","s","s","NA","h","458.0","NA","638","1229","NA","458","2","legacy","1024","2","48000","-16","experiment","HHHHH","0","even","2451","NA","142149","197561","1805","176460","NA","199104","1812","140920","NA","198062","199205","199663","199103","199205","Flankertask","101","62165.0","112","1024"
"90","90","554","554","#3d3846","legacy","legacy","legacy","incongruent","1","undefined","1","h","0","0","0","112","0","112","0","112","0","0","0","112","112","112","112","112","Mon Sep 18 10:00:31 2023","600","The main experiment item","False","Flankertask.osexp","C:\Users\User","False","mono","False","18","no","white","no","yes","768","legacy","32","79","C:/Users/User/subject-jvb fixed.csv","legacy","Melodramatic Milgram","4.0.5","0","h","NA","s","s","NA","h","496.0","NA","638","1229","NA","496","2","legacy","1024","2","48000","-16","experiment","SSHSS","0","even","2451","NA","142149","197561","1805","176460","NA","200695","1812","140920","NA","199670","200796","201292","200693","200796","Flankertask","102","62661.0","113","1024"
"90","90","555","555","#3d3846","legacy","legacy","legacy","incongruent","1","undefined","1","h","0","0","0","113","0","113","0","113","0","0","0","113","113","113","113","113","Mon Sep 18 10:00:31 2023","600","The main experiment item","False","Flankertask.osexp","C:\Users\User","False","mono","False","18","no","white","no","yes","768","legacy","33","79","C:/Users/User/subject-jvb fixed.csv","legacy","Melodramatic Milgram","4.0.5","0","h","NA","s","s","NA","h","620.0","NA","638","1229","NA","620","2","legacy","1024","2","48000","-16","experiment","SSHSS","0","even","2451","NA","142149","197561","1805","176460","NA","202324","1812","140920","NA","201298","202425","203045","202323","202425","Flankertask","103","63281.0","114","1024"
"90","90","556","556","#3d3846","legacy","legacy","legacy","congruent","1","undefined","1","s","0","0","0","114","0","114","0","114","0","0","0","114","114","114","114","114","Mon Sep 18 10:00:31 2023","600","The main experiment item","False","Flankertask.osexp","C:\Users\User","False","mono","False","18","no","white","no","yes","768","legacy","34","79","C:/Users/User/subject-jvb fixed.csv","legacy","Melodramatic Milgram","4.0.5","0","s","NA","s","s","NA","s","687.0","NA","638","1229","NA","687","2","legacy","1024","2","48000","-16","experiment","SSSSS","0","even","2451","NA","142149","197561","1805","203052","NA","204602","1812","140920","NA","203552","204703","205391","204601","204703","Flankertask","104","63968.0","115","1024"
"89","89","555","555","#3d3846","legacy","legacy","legacy","incongruent","0","undefined","0","s","0","0","0","115","0","115","0","115","0","0","0","115","115","115","115","115","Mon Sep 18 10:00:31 2023","600","The main experiment item","False","Flankertask.osexp","C:\Users\User","False","mono","False","18","no","white","no","yes","768","legacy","35","79","C:/Users/User/subject-jvb fixed.csv","legacy","Melodramatic Milgram","4.0.5","0","h","NA","s","s","NA","h","424.0","NA","638","1229","NA","424","2","legacy","1024","2","48000","-16","experiment","HHSHH","0","even","2451","NA","142149","197561","1805","205397","NA","206921","1812","140920","NA","205897","207022","207447","206920","207022","Flankertask","104","64392.0","116","1024"
"89","89","554","554","#3d3846","legacy","legacy","legacy","incongruent","1","undefined","1","s","0","0","0","116","0","116","0","116","0","0","0","116","116","116","116","116","Mon Sep 18 10:00:31 2023","600","The main experiment item","False","Flankertask.osexp","C:\Users\User","False","mono","False","18","no","white","no","yes","768","legacy","36","79","C:/Users/User/subject-jvb fixed.csv","legacy","Melodramatic Milgram","4.0.5","0","s","NA","s","s","NA","s","484.0","NA","638","1229","NA","484","2","legacy","1024","2","48000","-16","experiment","HHSHH","0","even","2451","NA","142149","207453","1805","205397","NA","208978","1812","140920","NA","207953","209079","209563","208976","209079","Flankertask","105","64876.0","117","1024"
"88","88","554","554","#3d3846","legacy","legacy","legacy","congruent","0","undefined","0","h","0","0","0","117","0","117","0","117","0","0","0","117","117","117","117","117","Mon Sep 18 10:00:31 2023","600","The main experiment item","False","Flankertask.osexp","C:\Users\User","False","mono","False","18","no","white","no","yes","768","legacy","37","79","C:/Users/User/subject-jvb fixed.csv","legacy","Melodramatic Milgram","4.0.5","0","s","NA","s","s","NA","s","500.0","NA","638","1229","NA","500","2","legacy","1024","2","48000","-16","experiment","HHHHH","0","even","2451","NA","142149","207453","1805","205397","NA","210594","1812","140920","NA","209569","210695","211195","210593","210695","Flankertask","105","65376.0","118","1024"
"89","89","554","554","#3d3846","legacy","legacy","legacy","incongruent","1","undefined","1","h","0","0","0","118","0","118","0","118","0","0","0","118","118","118","118","118","Mon Sep 18 10:00:31 2023","600","The main experiment item","False","Flankertask.osexp","C:\Users\User","False","mono","False","18","no","white","no","yes","768","legacy","38","79","C:/Users/User/subject-jvb fixed.csv","legacy","Melodramatic Milgram","4.0.5","0","h","NA","s","s","NA","h","554.0","NA","638","1229","NA","554","2","legacy","1024","2","48000","-16","experiment","SSHSS","0","even","2451","NA","142149","211201","1805","205397","NA","212727","1812","140920","NA","211701","212828","213383","212725","212828","Flankertask","106","65930.0","119","1024"
"89","89","554","554","#3d3846","legacy","legacy","legacy","incongruent","1","undefined","1","s","0","0","0","119","0","119","0","119","0","0","0","119","119","119","119","119","Mon Sep 18 10:00:31 2023","600","The main experiment item","False","Flankertask.osexp","C:\Users\User","False","mono","False","18","no","white","no","yes","768","legacy","39","79","C:/Users/User/subject-jvb fixed.csv","legacy","Melodramatic Milgram","4.0.5","0","s","NA","s","s","NA","s","626.0","NA","638","1229","NA","626","2","legacy","1024","2","48000","-16","experiment","HHSHH","0","even","2451","NA","142149","211201","1805","205397","NA","214414","1812","140920","NA","213388","214515","215142","214413","214515","Flankertask","107","66556.0","120","1024"
"89","89","554","554","#3d3846","legacy","legacy","legacy","congruent","1","undefined","1","h","0","0","0","120","0","120","0","120","0","0","0","120","120","120","120","120","Mon Sep 18 10:00:31 2023","600","The main experiment item","False","Flankertask.osexp","C:\Users\User","False","mono","False","18","no","white","no","yes","768","legacy","40","79","C:/Users/User/subject-jvb fixed.csv","legacy","Melodramatic Milgram","4.0.5","0","h","NA","s","s","NA","h","528.0","NA","638","1229","NA","528","2","legacy","1024","2","48000","-16","experiment","HHHHH","0","even","2451","NA","142149","211201","1805","215148","NA","216673","1812","140920","NA","215648","216774","217303","216672","216774","Flankertask","108","67084.0","121","1024"
"89","89","553","553","#3d3846","legacy","legacy","legacy","congruent","1","undefined","1","s","0","0","0","121","0","121","0","121","0","0","0","121","121","121","121","121","Mon Sep 18 10:00:31 2023","600","The main experiment item","False","Flankertask.osexp","C:\Users\User","False","mono","False","18","no","white","no","yes","768","legacy","41","79","C:/Users/User/subject-jvb fixed.csv","legacy","Melodramatic Milgram","4.0.5","0","s","NA","s","s","NA","s","486.0","NA","638","1229","NA","486","2","legacy","1024","2","48000","-16","experiment","SSSSS","0","even","2451","NA","142149","211201","1805","215148","NA","218351","1812","140920","NA","217309","218452","218939","218350","218452","Flankertask","109","67570.0","122","1024"
"89","89","553","553","#3d3846","legacy","legacy","legacy","incongruent","1","undefined","1","s","0","0","0","122","0","122","0","122","0","0","0","122","122","122","122","122","Mon Sep 18 10:00:31 2023","600","The main experiment item","False","Flankertask.osexp","C:\Users\User","False","mono","False","18","no","white","no","yes","768","legacy","42","79","C:/Users/User/subject-jvb fixed.csv","legacy","Melodramatic Milgram","4.0.5","0","s","NA","s","s","NA","s","563.0","NA","638","1229","NA","563","2","legacy","1024","2","48000","-16","experiment","HHSHH","0","even","2451","NA","142149","211201","1805","215148","NA","219991","1812","140920","NA","218945","220092","220657","219990","220092","Flankertask","110","68133.0","123","1024"
"89","89","553","553","#3d3846","legacy","legacy","legacy","congruent","1","undefined","1","h","0","0","0","123","0","123","0","123","0","0","0","123","123","123","123","123","Mon Sep 18 10:00:31 2023","600","The main experiment item","False","Flankertask.osexp","C:\Users\User","False","mono","False","18","no","white","no","yes","768","legacy","43","79","C:/Users/User/subject-jvb fixed.csv","legacy","Melodramatic Milgram","4.0.5","0","h","NA","s","s","NA","h","449.0","NA","638","1229","NA","449","2","legacy","1024","2","48000","-16","experiment","HHHHH","0","even","2451","NA","142149","211201","1805","215148","NA","221693","1812","140920","NA","220663","221795","222245","221692","221795","Flankertask","111","68582.0","124","1024"
"89","89","552","552","#3d3846","legacy","legacy","legacy","congruent","1","undefined","1","s","0","0","0","124","0","124","0","124","0","0","0","124","124","124","124","124","Mon Sep 18 10:00:31 2023","600","The main experiment item","False","Flankertask.osexp","C:\Users\User","False","mono","False","18","no","white","no","yes","768","legacy","44","79","C:/Users/User/subject-jvb fixed.csv","legacy","Melodramatic Milgram","4.0.5","0","s","NA","s","s","NA","s","487.0","NA","638","1229","NA","487","2","legacy","1024","2","48000","-16","experiment","SSSSS","0","even","2451","NA","142149","211201","1805","215148","NA","223276","1812","140920","NA","222251","223376","223863","223275","223376","Flankertask","112","69069.0","125","1024"
"89","89","551","551","#3d3846","legacy","legacy","legacy","incongruent","1","undefined","1","h","0","0","0","125","0","125","0","125","0","0","0","125","125","125","125","125","Mon Sep 18 10:00:31 2023","600","The main experiment item","False","Flankertask.osexp","C:\Users\User","False","mono","False","18","no","white","no","yes","768","legacy","45","79","C:/Users/User/subject-jvb fixed.csv","legacy","Melodramatic Milgram","4.0.5","0","h","NA","s","s","NA","h","453.0","NA","638","1229","NA","453","2","legacy","1024","2","48000","-16","experiment","SSHSS","0","even","2451","NA","142149","211201","1805","215148","NA","224895","1812","140920","NA","223869","224996","225450","224893","224996","Flankertask","113","69522.0","126","1024"
"89","89","551","551","#3d3846","legacy","legacy","legacy","incongruent","1","undefined","1","h","0","0","0","126","0","126","0","126","0","0","0","126","126","126","126","126","Mon Sep 18 10:00:31 2023","600","The main experiment item","False","Flankertask.osexp","C:\Users\User","False","mono","False","18","no","white","no","yes","768","legacy","46","79","C:/Users/User/subject-jvb fixed.csv","legacy","Melodramatic Milgram","4.0.5","0","h","NA","s","s","NA","h","491.0","NA","638","1229","NA","491","2","legacy","1024","2","48000","-16","experiment","SSHSS","0","even","2451","NA","142149","211201","1805","215148","NA","226481","1812","140920","NA","225456","226582","227074","226480","226582","Flankertask","114","70013.0","127","1024"
"89","89","550","550","#3d3846","legacy","legacy","legacy","incongruent","1","undefined","1","h","0","0","0","127","0","127","0","127","0","0","0","127","127","127","127","127","Mon Sep 18 10:00:31 2023","600","The main experiment item","False","Flankertask.osexp","C:\Users\User","False","mono","False","18","no","white","no","yes","768","legacy","47","79","C:/Users/User/subject-jvb fixed.csv","legacy","Melodramatic Milgram","4.0.5","0","h","NA","s","s","NA","h","508.0","NA","638","1229","NA","508","2","legacy","1024","2","48000","-16","experiment","SSHSS","0","even","2451","NA","142149","211201","1805","215148","NA","228104","1812","140920","NA","227080","228205","228714","228103","228205","Flankertask","115","70521.0","128","1024"
"89","89","551","551","#3d3846","legacy","legacy","legacy","incongruent","1","undefined","1","s","0","0","0","128","0","128","0","128","0","0","0","128","128","128","128","128","Mon Sep 18 10:00:31 2023","600","The main experiment item","False","Flankertask.osexp","C:\Users\User","False","mono","False","18","no","white","no","yes","768","legacy","48","79","C:/Users/User/subject-jvb fixed.csv","legacy","Melodramatic Milgram","4.0.5","0","s","NA","s","s","NA","s","558.0","NA","638","1229","NA","558","2","legacy","1024","2","48000","-16","experiment","HHSHH","0","even","2451","NA","142149","211201","1805","215148","NA","229745","1812","140920","NA","228720","229846","230405","229743","229846","Flankertask","116","71079.0","129","1024"
"90","90","550","550","#3d3846","legacy","legacy","legacy","congruent","1","undefined","1","h","0","0","0","129","0","129","0","129","0","0","0","129","129","129","129","129","Mon Sep 18 10:00:31 2023","600","The main experiment item","False","Flankertask.osexp","C:\Users\User","False","mono","False","18","no","white","no","yes","768","legacy","49","79","C:/Users/User/subject-jvb fixed.csv","legacy","Melodramatic Milgram","4.0.5","0","h","NA","s","s","NA","h","463.0","NA","638","1229","NA","463","2","legacy","1024","2","48000","-16","experiment","HHHHH","0","even","2451","NA","142149","211201","1805","215148","NA","231456","1812","140920","NA","230412","231557","232021","231454","231557","Flankertask","117","71542.0","130","1024"
"90","90","549","549","#3d3846","legacy","legacy","legacy","incongruent","1","undefined","1","s","0","0","0","130","0","130","0","130","0","0","0","130","130","130","130","130","Mon Sep 18 10:00:31 2023","600","The main experiment item","False","Flankertask.osexp","C:\Users\User","False","mono","False","18","no","white","no","yes","768","legacy","50","79","C:/Users/User/subject-jvb fixed.csv","legacy","Melodramatic Milgram","4.0.5","0","s","NA","s","s","NA","s","504.0","NA","638","1229","NA","504","2","legacy","1024","2","48000","-16","experiment","HHSHH","0","even","2451","NA","142149","211201","1805","215148","NA","233052","1812","140920","NA","232027","233153","233658","233051","233153","Flankertask","118","72046.0","131","1024"
"90","90","549","549","#3d3846","legacy","legacy","legacy","congruent","1","undefined","1","s","0","0","0","131","0","131","0","131","0","0","0","131","131","131","131","131","Mon Sep 18 10:00:31 2023","600","The main experiment item","False","Flankertask.osexp","C:\Users\User","False","mono","False","18","no","white","no","yes","768","legacy","51","79","C:/Users/User/subject-jvb fixed.csv","legacy","Melodramatic Milgram","4.0.5","0","s","NA","s","s","NA","s","482.0","NA","638","1229","NA","482","2","legacy","1024","2","48000","-16","experiment","SSSSS","0","even","2451","NA","142149","211201","1805","215148","NA","234688","1812","140920","NA","233664","234789","235272","234687","234789","Flankertask","119","72528.0","132","1024"
"90","90","548","548","#3d3846","legacy","legacy","legacy","congruent","1","undefined","1","h","0","0","0","132","0","132","0","132","0","0","0","132","132","132","132","132","Mon Sep 18 10:00:31 2023","600","The main experiment item","False","Flankertask.osexp","C:\Users\User","False","mono","False","18","no","white","no","yes","768","legacy","52","79","C:/Users/User/subject-jvb fixed.csv","legacy","Melodramatic Milgram","4.0.5","0","h","NA","s","s","NA","h","475.0","NA","638","1229","NA","475","2","legacy","1024","2","48000","-16","experiment","HHHHH","0","even","2451","NA","142149","211201","1805","215148","NA","236308","1812","140920","NA","235278","236409","236885","236307","236409","Flankertask","120","73003.0","133","1024"
"90","90","548","548","#3d3846","legacy","legacy","legacy","congruent","1","undefined","1","h","0","0","0","133","0","133","0","133","0","0","0","133","133","133","133","133","Mon Sep 18 10:00:31 2023","600","The main experiment item","False","Flankertask.osexp","C:\Users\User","False","mono","False","18","no","white","no","yes","768","legacy","53","79","C:/Users/User/subject-jvb fixed.csv","legacy","Melodramatic Milgram","4.0.5","0","h","NA","s","s","NA","h","440.0","NA","638","1229","NA","440","2","legacy","1024","2","48000","-16","experiment","HHHHH","0","even","2451","NA","142149","211201","1805","215148","NA","237916","1812","140920","NA","236891","238017","238458","237915","238017","Flankertask","121","73443.0","134","1024"
"89","89","547","547","#3d3846","legacy","legacy","legacy","incongruent","0","undefined","0","s","0","0","0","134","0","134","0","134","0","0","0","134","134","134","134","134","Mon Sep 18 10:00:31 2023","600","The main experiment item","False","Flankertask.osexp","C:\Users\User","False","mono","False","18","no","white","no","yes","768","legacy","54","79","C:/Users/User/subject-jvb fixed.csv","legacy","Melodramatic Milgram","4.0.5","0","h","NA","s","s","NA","h","526.0","NA","638","1229","NA","526","2","legacy","1024","2","48000","-16","experiment","HHSHH","0","even","2451","NA","142149","211201","1805","215148","NA","239489","1812","140920","NA","238464","239590","240116","239488","239590","Flankertask","121","73969.0","135","1024"
