"acc","accuracy","average_response_time","avg_rt","background","canvas_backend","clock_backend","color_backend","condition","correct","correct_instructions1","correct_keyboard_response","correct_response","count_Block1","count_Block2","count_Block3","count_ISI","count_errorFeedback","count_experiment","count_faster","count_finish","count_fixation","count_instructions1","count_instructions2","count_instructions3","count_keyboard_response","count_logger","count_sequence","count_stimulus","datetime","deadline","description","disable_garbage_collection","experiment_file","experiment_path","font_bold","font_family","font_italic","font_size","font_underline","foreground","form_clicks","fullscreen","height","keyboard_backend","live_row","live_row_Block1","logfile","mouse_backend","opensesame_codename","opensesame_version","repeat_cycle","response","response_finish","response_instructions1","response_instructions2","response_instructions3","response_keyboard_response","response_time","response_time_finish","response_time_instructions1","response_time_instructions2","response_time_instructions3","response_time_keyboard_response","round_decimals","sampler_backend","sound_buf_size","sound_channels","sound_freq","sound_sample_size","start","stimulus","subject_nr","subject_parity","time_Block1","time_Block2","time_Block3","time_ISI","time_errorFeedback","time_experiment","time_faster","time_finish","time_fixation","time_instructions1","time_instructions2","time_instructions3","time_keyboard_response","time_logger","time_sequence","time_stimulus","title","total_correct","total_response_time","total_responses","width"
"100","100","984","984","black","legacy","legacy","legacy","incongruent","1","undefined","1","h","0","0","0","0","0","0","0","0","0","0","0","0","0","0","0","0","Wed Sep 20 10:45:35 2023","1500","The main experiment item","True","Lab2.1.osexp","/Users/test/Desktop","False","mono","False","18","no","white","no","yes","768","legacy","0","0","/Users/test/Downloads/at-subject-1.csv","legacy","Melodramatic Milgram","4.0.5","0","h","NA","space","NA","NA","h","984.0","NA","100180","NA","NA","984","2","legacy","1024","2","48000","-16","experiment","SSHSS","1","odd","103450","NA","NA","NA","NA","3124","NA","NA","103510","3252","NA","NA","103614","104598","103503","103614","Lab 2-1","1","984.0","1","1024"
"100","100","852","852","black","legacy","legacy","legacy","congruent","1","undefined","1","s","0","0","0","1","1","0","1","0","1","0","0","0","1","1","1","1","Wed Sep 20 10:45:35 2023","1500","The main experiment item","True","Lab2.1.osexp","/Users/test/Desktop","False","mono","False","18","no","white","no","yes","768","legacy","1","1","/Users/test/Downloads/at-subject-1.csv","legacy","Melodramatic Milgram","4.0.5","0","s","NA","space","NA","NA","s","721.0","NA","100180","NA","NA","721","2","legacy","1024","2","48000","-16","experiment","SSSSS","1","odd","103450","NA","NA","104605","NA","3124","NA","NA","105649","3252","NA","NA","105752","106473","105646","105752","Lab 2-1","2","1705.0","2","1024"
"100","100","777","777","black","legacy","legacy","legacy","incongruent","1","undefined","1","h","0","0","0","2","2","0","2","0","2","0","0","0","2","2","2","2","Wed Sep 20 10:45:35 2023","1500","The main experiment item","True","Lab2.1.osexp","/Users/test/Desktop","False","mono","False","18","no","white","no","yes","768","legacy","2","2","/Users/test/Downloads/at-subject-1.csv","legacy","Melodramatic Milgram","4.0.5","0","h","NA","space","NA","NA","h","628.0","NA","100180","NA","NA","628","2","legacy","1024","2","48000","-16","experiment","SSHSS","1","odd","103450","NA","NA","106477","NA","3124","NA","NA","107516","3252","NA","NA","107619","108247","107513","107619","Lab 2-1","3","2333.0","3","1024"
"100","100","701","701","black","legacy","legacy","legacy","congruent","1","undefined","1","s","0","0","0","3","3","0","3","0","3","0","0","0","3","3","3","3","Wed Sep 20 10:45:35 2023","1500","The main experiment item","True","Lab2.1.osexp","/Users/test/Desktop","False","mono","False","18","no","white","no","yes","768","legacy","3","3","/Users/test/Downloads/at-subject-1.csv","legacy","Melodramatic Milgram","4.0.5","0","s","NA","space","NA","NA","s","472.0","NA","100180","NA","NA","472","2","legacy","1024","2","48000","-16","experiment","SSSSS","1","odd","103450","NA","NA","108251","NA","3124","NA","NA","109294","3252","NA","NA","109397","109870","109291","109397","Lab 2-1","4","2805.0","4","1024"
"100","100","650","650","black","legacy","legacy","legacy","congruent","1","undefined","1","h","0","0","0","4","4","0","4","0","4","0","0","0","4","4","4","4","Wed Sep 20 10:45:35 2023","1500","The main experiment item","True","Lab2.1.osexp","/Users/test/Desktop","False","mono","False","18","no","white","no","yes","768","legacy","4","4","/Users/test/Downloads/at-subject-1.csv","legacy","Melodramatic Milgram","4.0.5","0","h","NA","space","NA","NA","h","445.0","NA","100180","NA","NA","445","2","legacy","1024","2","48000","-16","experiment","HHHHH","1","odd","103450","NA","NA","109874","NA","3124","NA","NA","110920","3252","NA","NA","111023","111469","110917","111022","Lab 2-1","5","3250.0","5","1024"
"83","83","628","628","black","legacy","legacy","legacy","incongruent","0","undefined","0","s","0","0","0","5","5","0","5","0","5","0","0","0","5","5","5","5","Wed Sep 20 10:45:35 2023","1500","The main experiment item","True","Lab2.1.osexp","/Users/test/Desktop","False","mono","False","18","no","white","no","yes","768","legacy","5","5","/Users/test/Downloads/at-subject-1.csv","legacy","Melodramatic Milgram","4.0.5","0","h","NA","space","NA","NA","h","521.0","NA","100180","NA","NA","521","2","legacy","1024","2","48000","-16","experiment","HHSHH","1","odd","103450","NA","NA","111472","NA","3124","NA","NA","112517","3252","NA","NA","112620","113156","112514","112620","Lab 2-1","5","3771.0","6","1024"
"85","85","630","630","black","legacy","legacy","legacy","incongruent","1","undefined","1","h","0","0","0","6","6","0","6","0","6","0","0","0","6","6","6","6","Wed Sep 20 10:45:35 2023","1500","The main experiment item","True","Lab2.1.osexp","/Users/test/Desktop","False","mono","False","18","no","white","no","yes","768","legacy","6","6","/Users/test/Downloads/at-subject-1.csv","legacy","Melodramatic Milgram","4.0.5","0","h","NA","space","NA","NA","h","640.0","NA","100180","NA","NA","640","2","legacy","1024","2","48000","-16","experiment","SSHSS","1","odd","103450","NA","NA","113663","113159","3124","NA","NA","114707","3252","NA","NA","114811","115452","114704","114811","Lab 2-1","6","4411.0","7","1024"
"87","87","616","616","black","legacy","legacy","legacy","congruent","1","undefined","1","h","0","0","0","7","7","0","7","0","7","0","0","0","7","7","7","7","Wed Sep 20 10:45:35 2023","1500","The main experiment item","True","Lab2.1.osexp","/Users/test/Desktop","False","mono","False","18","no","white","no","yes","768","legacy","7","7","/Users/test/Downloads/at-subject-1.csv","legacy","Melodramatic Milgram","4.0.5","0","h","NA","space","NA","NA","h","522.0","NA","100180","NA","NA","522","2","legacy","1024","2","48000","-16","experiment","HHHHH","1","odd","103450","NA","NA","115455","113159","3124","NA","NA","116500","3252","NA","NA","116602","117125","116497","116602","Lab 2-1","7","4933.0","8","1024"
"88","88","613","613","black","legacy","legacy","legacy","incongruent","1","undefined","1","s","0","0","0","8","8","0","8","0","8","0","0","0","8","8","8","8","Wed Sep 20 10:45:35 2023","1500","The main experiment item","True","Lab2.1.osexp","/Users/test/Desktop","False","mono","False","18","no","white","no","yes","768","legacy","8","8","/Users/test/Downloads/at-subject-1.csv","legacy","Melodramatic Milgram","4.0.5","0","s","NA","space","NA","NA","s","586.0","NA","100180","NA","NA","586","2","legacy","1024","2","48000","-16","experiment","HHSHH","1","odd","103450","NA","NA","117129","113159","3124","NA","NA","118175","3252","NA","NA","118278","118865","118171","118278","Lab 2-1","8","5519.0","9","1024"
"90","90","651","651","black","legacy","legacy","legacy","congruent","1","undefined","1","h","0","0","0","9","9","0","9","0","9","0","0","0","9","9","9","9","Wed Sep 20 10:45:35 2023","1500","The main experiment item","True","Lab2.1.osexp","/Users/test/Desktop","False","mono","False","18","no","white","no","yes","768","legacy","9","9","/Users/test/Downloads/at-subject-1.csv","legacy","Melodramatic Milgram","4.0.5","0","h","NA","space","NA","NA","h","991.0","NA","100180","NA","NA","991","2","legacy","1024","2","48000","-16","experiment","HHHHH","1","odd","103450","NA","NA","118868","113159","3124","NA","NA","119916","3252","NA","NA","120020","121012","119913","120019","Lab 2-1","9","6510.0","10","1024"
"90","90","635","635","black","legacy","legacy","legacy","congruent","1","undefined","1","s","0","0","0","10","10","0","10","0","10","0","0","0","10","10","10","10","Wed Sep 20 10:45:35 2023","1500","The main experiment item","True","Lab2.1.osexp","/Users/test/Desktop","False","mono","False","18","no","white","no","yes","768","legacy","10","10","/Users/test/Downloads/at-subject-1.csv","legacy","Melodramatic Milgram","4.0.5","0","s","NA","space","NA","NA","s","478.0","NA","100180","NA","NA","478","2","legacy","1024","2","48000","-16","experiment","SSSSS","1","odd","103450","NA","NA","121015","113159","3124","NA","NA","122057","3252","NA","NA","122161","122639","122054","122161","Lab 2-1","10","6988.0","11","1024"
"91","91","636","636","black","legacy","legacy","legacy","incongruent","1","undefined","1","s","0","0","0","11","11","0","11","0","11","0","0","0","11","11","11","11","Wed Sep 20 10:45:35 2023","1500","The main experiment item","True","Lab2.1.osexp","/Users/test/Desktop","False","mono","False","18","no","white","no","yes","768","legacy","11","11","/Users/test/Downloads/at-subject-1.csv","legacy","Melodramatic Milgram","4.0.5","0","s","NA","space","NA","NA","s","645.0","NA","100180","NA","NA","645","2","legacy","1024","2","48000","-16","experiment","HHSHH","1","odd","103450","NA","NA","122643","113159","3124","NA","NA","123683","3252","NA","NA","123786","124431","123680","123786","Lab 2-1","11","7633.0","12","1024"
"92","92","631","631","black","legacy","legacy","legacy","congruent","1","undefined","1","s","0","0","0","12","12","0","12","0","12","0","0","0","12","12","12","12","Wed Sep 20 10:45:35 2023","1500","The main experiment item","True","Lab2.1.osexp","/Users/test/Desktop","False","mono","False","18","no","white","no","yes","768","legacy","12","12","/Users/test/Downloads/at-subject-1.csv","legacy","Melodramatic Milgram","4.0.5","0","s","NA","space","NA","NA","s","575.0","NA","100180","NA","NA","575","2","legacy","1024","2","48000","-16","experiment","SSSSS","1","odd","103450","NA","NA","124435","113159","3124","NA","NA","125478","3252","NA","NA","125582","126157","125476","125581","Lab 2-1","12","8208.0","13","1024"
"92","92","631","631","black","legacy","legacy","legacy","incongruent","1","undefined","1","s","0","0","0","13","13","0","13","0","13","0","0","0","13","13","13","13","Wed Sep 20 10:45:35 2023","1500","The main experiment item","True","Lab2.1.osexp","/Users/test/Desktop","False","mono","False","18","no","white","no","yes","768","legacy","13","13","/Users/test/Downloads/at-subject-1.csv","legacy","Melodramatic Milgram","4.0.5","0","s","NA","space","NA","NA","s","637.0","NA","100180","NA","NA","637","2","legacy","1024","2","48000","-16","experiment","HHSHH","1","odd","103450","NA","NA","126161","113159","3124","NA","NA","127204","3252","NA","NA","127308","127946","127202","127308","Lab 2-1","13","8845.0","14","1024"
"93","93","617","617","black","legacy","legacy","legacy","congruent","1","undefined","1","s","0","0","0","14","14","0","14","0","14","0","0","0","14","14","14","14","Wed Sep 20 10:45:35 2023","1500","The main experiment item","True","Lab2.1.osexp","/Users/test/Desktop","False","mono","False","18","no","white","no","yes","768","legacy","14","14","/Users/test/Downloads/at-subject-1.csv","legacy","Melodramatic Milgram","4.0.5","0","s","NA","space","NA","NA","s","411.0","NA","100180","NA","NA","411","2","legacy","1024","2","48000","-16","experiment","SSSSS","1","odd","103450","NA","NA","127949","113159","3124","NA","NA","129000","3252","NA","NA","129103","129515","128997","129102","Lab 2-1","14","9256.0","15","1024"
"93","93","616","616","black","legacy","legacy","legacy","incongruent","1","undefined","1","h","0","0","0","15","15","0","15","0","15","0","0","0","15","15","15","15","Wed Sep 20 10:45:35 2023","1500","The main experiment item","True","Lab2.1.osexp","/Users/test/Desktop","False","mono","False","18","no","white","no","yes","768","legacy","15","15","/Users/test/Downloads/at-subject-1.csv","legacy","Melodramatic Milgram","4.0.5","0","h","NA","space","NA","NA","h","600.0","NA","100180","NA","NA","600","2","legacy","1024","2","48000","-16","experiment","SSHSS","1","odd","103450","NA","NA","129519","113159","3124","NA","NA","130565","3252","NA","NA","130668","131269","130562","130668","Lab 2-1","15","9856.0","16","1024"
"94","94","611","611","black","legacy","legacy","legacy","congruent","1","undefined","1","h","0","0","0","16","16","0","16","0","16","0","0","0","16","16","16","16","Wed Sep 20 10:45:35 2023","1500","The main experiment item","True","Lab2.1.osexp","/Users/test/Desktop","False","mono","False","18","no","white","no","yes","768","legacy","16","16","/Users/test/Downloads/at-subject-1.csv","legacy","Melodramatic Milgram","4.0.5","0","h","NA","space","NA","NA","h","537.0","NA","100180","NA","NA","537","2","legacy","1024","2","48000","-16","experiment","HHHHH","1","odd","103450","NA","NA","131273","113159","3124","NA","NA","132326","3252","NA","NA","132429","132967","132323","132429","Lab 2-1","16","10393.0","17","1024"
"94","94","603","603","black","legacy","legacy","legacy","congruent","1","undefined","1","h","0","0","0","17","17","0","17","0","17","0","0","0","17","17","17","17","Wed Sep 20 10:45:35 2023","1500","The main experiment item","True","Lab2.1.osexp","/Users/test/Desktop","False","mono","False","18","no","white","no","yes","768","legacy","17","17","/Users/test/Downloads/at-subject-1.csv","legacy","Melodramatic Milgram","4.0.5","0","h","NA","space","NA","NA","h","465.0","NA","100180","NA","NA","465","2","legacy","1024","2","48000","-16","experiment","HHHHH","1","odd","103450","NA","NA","132971","113159","3124","NA","NA","134012","3252","NA","NA","134114","134580","134008","134114","Lab 2-1","17","10858.0","18","1024"
"94","94","596","596","black","legacy","legacy","legacy","congruent","1","undefined","1","h","0","0","0","18","18","0","18","0","18","0","0","0","18","18","18","18","Wed Sep 20 10:45:35 2023","1500","The main experiment item","True","Lab2.1.osexp","/Users/test/Desktop","False","mono","False","18","no","white","no","yes","768","legacy","18","18","/Users/test/Downloads/at-subject-1.csv","legacy","Melodramatic Milgram","4.0.5","0","h","NA","space","NA","NA","h","467.0","NA","100180","NA","NA","467","2","legacy","1024","2","48000","-16","experiment","HHHHH","1","odd","103450","NA","NA","134583","113159","3124","NA","NA","135621","3252","NA","NA","135724","136192","135619","135724","Lab 2-1","18","11325.0","19","1024"
"95","95","586","586","black","legacy","legacy","legacy","congruent","1","undefined","1","h","0","0","0","19","19","0","19","0","19","0","0","0","19","19","19","19","Wed Sep 20 10:45:35 2023","1500","The main experiment item","True","Lab2.1.osexp","/Users/test/Desktop","False","mono","False","18","no","white","no","yes","768","legacy","19","19","/Users/test/Downloads/at-subject-1.csv","legacy","Melodramatic Milgram","4.0.5","0","h","NA","space","NA","NA","h","395.0","NA","100180","NA","NA","395","2","legacy","1024","2","48000","-16","experiment","HHHHH","1","odd","103450","NA","NA","136195","113159","3124","NA","NA","137237","3252","NA","NA","137341","137736","137235","137341","Lab 2-1","19","11720.0","20","1024"
"95","95","585","585","black","legacy","legacy","legacy","incongruent","1","undefined","1","h","0","0","0","20","20","0","20","0","20","0","0","0","20","20","20","20","Wed Sep 20 10:45:35 2023","1500","The main experiment item","True","Lab2.1.osexp","/Users/test/Desktop","False","mono","False","18","no","white","no","yes","768","legacy","20","20","/Users/test/Downloads/at-subject-1.csv","legacy","Melodramatic Milgram","4.0.5","0","h","NA","space","NA","NA","h","571.0","NA","100180","NA","NA","571","2","legacy","1024","2","48000","-16","experiment","SSHSS","1","odd","103450","NA","NA","137740","113159","3124","NA","NA","138782","3252","NA","NA","138886","139458","138780","138886","Lab 2-1","20","12291.0","21","1024"
"95","95","594","594","black","legacy","legacy","legacy","incongruent","1","undefined","1","h","0","0","0","21","21","0","21","0","21","0","0","0","21","21","21","21","Wed Sep 20 10:45:35 2023","1500","The main experiment item","True","Lab2.1.osexp","/Users/test/Desktop","False","mono","False","18","no","white","no","yes","768","legacy","21","21","/Users/test/Downloads/at-subject-1.csv","legacy","Melodramatic Milgram","4.0.5","0","h","NA","space","NA","NA","h","794.0","NA","100180","NA","NA","794","2","legacy","1024","2","48000","-16","experiment","SSHSS","1","odd","103450","NA","NA","139461","113159","3124","NA","NA","140504","3252","NA","NA","140606","141401","140501","140606","Lab 2-1","21","13085.0","22","1024"
"95","95","589","589","black","legacy","legacy","legacy","incongruent","1","undefined","1","s","0","0","0","22","22","0","22","0","22","0","0","0","22","22","22","22","Wed Sep 20 10:45:35 2023","1500","The main experiment item","True","Lab2.1.osexp","/Users/test/Desktop","False","mono","False","18","no","white","no","yes","768","legacy","22","22","/Users/test/Downloads/at-subject-1.csv","legacy","Melodramatic Milgram","4.0.5","0","s","NA","space","NA","NA","s","484.0","NA","100180","NA","NA","484","2","legacy","1024","2","48000","-16","experiment","HHSHH","1","odd","103450","NA","NA","141404","113159","3124","NA","NA","142447","3252","NA","NA","142551","143036","142444","142550","Lab 2-1","22","13569.0","23","1024"
"95","95","585","585","black","legacy","legacy","legacy","congruent","1","undefined","1","h","0","0","0","23","23","0","23","0","23","0","0","0","23","23","23","23","Wed Sep 20 10:45:35 2023","1500","The main experiment item","True","Lab2.1.osexp","/Users/test/Desktop","False","mono","False","18","no","white","no","yes","768","legacy","23","23","/Users/test/Downloads/at-subject-1.csv","legacy","Melodramatic Milgram","4.0.5","0","h","NA","space","NA","NA","h","481.0","NA","100180","NA","NA","481","2","legacy","1024","2","48000","-16","experiment","HHHHH","1","odd","103450","NA","NA","143040","113159","3124","NA","NA","144088","3252","NA","NA","144191","144673","144085","144191","Lab 2-1","23","14050.0","24","1024"
"96","96","582","582","black","legacy","legacy","legacy","congruent","1","undefined","1","h","0","0","0","24","24","0","24","0","24","0","0","0","24","24","24","24","Wed Sep 20 10:45:35 2023","1500","The main experiment item","True","Lab2.1.osexp","/Users/test/Desktop","False","mono","False","18","no","white","no","yes","768","legacy","24","24","/Users/test/Downloads/at-subject-1.csv","legacy","Melodramatic Milgram","4.0.5","0","h","NA","space","NA","NA","h","501.0","NA","100180","NA","NA","501","2","legacy","1024","2","48000","-16","experiment","HHHHH","1","odd","103450","NA","NA","144677","113159","3124","NA","NA","145726","3252","NA","NA","145829","146331","145723","145829","Lab 2-1","24","14551.0","25","1024"
"96","96","577","577","black","legacy","legacy","legacy","congruent","1","undefined","1","s","0","0","0","25","25","0","25","0","25","0","0","0","25","25","25","25","Wed Sep 20 10:45:35 2023","1500","The main experiment item","True","Lab2.1.osexp","/Users/test/Desktop","False","mono","False","18","no","white","no","yes","768","legacy","25","25","/Users/test/Downloads/at-subject-1.csv","legacy","Melodramatic Milgram","4.0.5","0","s","NA","space","NA","NA","s","474.0","NA","100180","NA","NA","474","2","legacy","1024","2","48000","-16","experiment","SSSSS","1","odd","103450","NA","NA","146334","113159","3124","NA","NA","147370","3252","NA","NA","147473","147948","147367","147473","Lab 2-1","25","15025.0","26","1024"
"96","96","572","572","black","legacy","legacy","legacy","congruent","1","undefined","1","h","0","0","0","26","26","0","26","0","26","0","0","0","26","26","26","26","Wed Sep 20 10:45:35 2023","1500","The main experiment item","True","Lab2.1.osexp","/Users/test/Desktop","False","mono","False","18","no","white","no","yes","768","legacy","26","26","/Users/test/Downloads/at-subject-1.csv","legacy","Melodramatic Milgram","4.0.5","0","h","NA","space","NA","NA","h","441.0","NA","100180","NA","NA","441","2","legacy","1024","2","48000","-16","experiment","HHHHH","1","odd","103450","NA","NA","147952","113159","3124","NA","NA","149001","3252","NA","NA","149103","149545","148998","149103","Lab 2-1","26","15466.0","27","1024"
"96","96","567","567","black","legacy","legacy","legacy","congruent","1","undefined","1","h","0","0","0","27","27","0","27","0","27","0","0","0","27","27","27","27","Wed Sep 20 10:45:35 2023","1500","The main experiment item","True","Lab2.1.osexp","/Users/test/Desktop","False","mono","False","18","no","white","no","yes","768","legacy","27","27","/Users/test/Downloads/at-subject-1.csv","legacy","Melodramatic Milgram","4.0.5","0","h","NA","space","NA","NA","h","434.0","NA","100180","NA","NA","434","2","legacy","1024","2","48000","-16","experiment","HHHHH","1","odd","103450","NA","NA","149548","113159","3124","NA","NA","150592","3252","NA","NA","150695","151130","150589","150695","Lab 2-1","27","15900.0","28","1024"
"96","96","568","568","black","legacy","legacy","legacy","incongruent","1","undefined","1","s","0","0","0","28","28","0","28","0","28","0","0","0","28","28","28","28","Wed Sep 20 10:45:35 2023","1500","The main experiment item","True","Lab2.1.osexp","/Users/test/Desktop","False","mono","False","18","no","white","no","yes","768","legacy","28","28","/Users/test/Downloads/at-subject-1.csv","legacy","Melodramatic Milgram","4.0.5","0","s","NA","space","NA","NA","s","598.0","NA","100180","NA","NA","598","2","legacy","1024","2","48000","-16","experiment","HHSHH","1","odd","103450","NA","NA","151133","113159","3124","NA","NA","152177","3252","NA","NA","152280","152879","152174","152280","Lab 2-1","28","16498.0","29","1024"
"96","96","571","571","black","legacy","legacy","legacy","incongruent","1","undefined","1","h","0","0","0","29","29","0","29","0","29","0","0","0","29","29","29","29","Wed Sep 20 10:45:35 2023","1500","The main experiment item","True","Lab2.1.osexp","/Users/test/Desktop","False","mono","False","18","no","white","no","yes","768","legacy","29","29","/Users/test/Downloads/at-subject-1.csv","legacy","Melodramatic Milgram","4.0.5","0","h","NA","space","NA","NA","h","642.0","NA","100180","NA","NA","642","2","legacy","1024","2","48000","-16","experiment","SSHSS","1","odd","103450","NA","NA","152882","113159","3124","NA","NA","153925","3252","NA","NA","154028","154671","153922","154027","Lab 2-1","29","17140.0","30","1024"
"96","96","569","569","black","legacy","legacy","legacy","incongruent","1","undefined","1","h","0","0","0","30","30","0","30","0","30","0","0","0","30","30","30","30","Wed Sep 20 10:45:35 2023","1500","The main experiment item","True","Lab2.1.osexp","/Users/test/Desktop","False","mono","False","18","no","white","no","yes","768","legacy","30","30","/Users/test/Downloads/at-subject-1.csv","legacy","Melodramatic Milgram","4.0.5","0","h","NA","space","NA","NA","h","528.0","NA","100180","NA","NA","528","2","legacy","1024","2","48000","-16","experiment","SSHSS","1","odd","103450","NA","NA","154674","113159","3124","NA","NA","155717","3252","NA","NA","155821","156350","155715","155821","Lab 2-1","30","17668.0","31","1024"
"96","96","571","571","black","legacy","legacy","legacy","incongruent","1","undefined","1","h","0","0","0","31","31","0","31","0","31","0","0","0","31","31","31","31","Wed Sep 20 10:45:35 2023","1500","The main experiment item","True","Lab2.1.osexp","/Users/test/Desktop","False","mono","False","18","no","white","no","yes","768","legacy","31","31","/Users/test/Downloads/at-subject-1.csv","legacy","Melodramatic Milgram","4.0.5","0","h","NA","space","NA","NA","h","628.0","NA","100180","NA","NA","628","2","legacy","1024","2","48000","-16","experiment","SSHSS","1","odd","103450","NA","NA","156353","113159","3124","NA","NA","157406","3252","NA","NA","157510","158139","157402","157509","Lab 2-1","31","18296.0","32","1024"
"96","96","570","570","black","legacy","legacy","legacy","congruent","1","undefined","1","s","0","0","0","32","32","0","32","0","32","0","0","0","32","32","32","32","Wed Sep 20 10:45:35 2023","1500","The main experiment item","True","Lab2.1.osexp","/Users/test/Desktop","False","mono","False","18","no","white","no","yes","768","legacy","32","32","/Users/test/Downloads/at-subject-1.csv","legacy","Melodramatic Milgram","4.0.5","0","s","NA","space","NA","NA","s","533.0","NA","100180","NA","NA","533","2","legacy","1024","2","48000","-16","experiment","SSSSS","1","odd","103450","NA","NA","158144","113159","3124","NA","NA","159180","3252","NA","NA","159283","159817","159177","159283","Lab 2-1","32","18829.0","33","1024"
"97","97","573","573","black","legacy","legacy","legacy","incongruent","1","undefined","1","h","0","0","0","33","33","0","33","0","33","0","0","0","33","33","33","33","Wed Sep 20 10:45:35 2023","1500","The main experiment item","True","Lab2.1.osexp","/Users/test/Desktop","False","mono","False","18","no","white","no","yes","768","legacy","33","33","/Users/test/Downloads/at-subject-1.csv","legacy","Melodramatic Milgram","4.0.5","0","h","NA","space","NA","NA","h","668.0","NA","100180","NA","NA","668","2","legacy","1024","2","48000","-16","experiment","SSHSS","1","odd","103450","NA","NA","159821","113159","3124","NA","NA","160859","3252","NA","NA","160962","161630","160856","160961","Lab 2-1","33","19497.0","34","1024"
"97","97","573","573","black","legacy","legacy","legacy","incongruent","1","undefined","1","h","0","0","0","34","34","0","34","0","34","0","0","0","34","34","34","34","Wed Sep 20 10:45:35 2023","1500","The main experiment item","True","Lab2.1.osexp","/Users/test/Desktop","False","mono","False","18","no","white","no","yes","768","legacy","34","34","/Users/test/Downloads/at-subject-1.csv","legacy","Melodramatic Milgram","4.0.5","0","h","NA","space","NA","NA","h","565.0","NA","100180","NA","NA","565","2","legacy","1024","2","48000","-16","experiment","SSHSS","1","odd","103450","NA","NA","161634","113159","3124","NA","NA","162677","3252","NA","NA","162780","163346","162674","162780","Lab 2-1","34","20062.0","35","1024"
"97","97","571","571","black","legacy","legacy","legacy","incongruent","1","undefined","1","s","0","0","0","35","35","0","35","0","35","0","0","0","35","35","35","35","Wed Sep 20 10:45:35 2023","1500","The main experiment item","True","Lab2.1.osexp","/Users/test/Desktop","False","mono","False","18","no","white","no","yes","768","legacy","35","35","/Users/test/Downloads/at-subject-1.csv","legacy","Melodramatic Milgram","4.0.5","0","s","NA","space","NA","NA","s","512.0","NA","100180","NA","NA","512","2","legacy","1024","2","48000","-16","experiment","HHSHH","1","odd","103450","NA","NA","163349","113159","3124","NA","NA","164393","3252","NA","NA","164496","165009","164390","164496","Lab 2-1","35","20574.0","36","1024"
"97","97","568","568","black","legacy","legacy","legacy","congruent","1","undefined","1","h","0","0","0","36","36","0","36","0","36","0","0","0","36","36","36","36","Wed Sep 20 10:45:35 2023","1500","The main experiment item","True","Lab2.1.osexp","/Users/test/Desktop","False","mono","False","18","no","white","no","yes","768","legacy","36","36","/Users/test/Downloads/at-subject-1.csv","legacy","Melodramatic Milgram","4.0.5","0","h","NA","space","NA","NA","h","452.0","NA","100180","NA","NA","452","2","legacy","1024","2","48000","-16","experiment","HHHHH","1","odd","103450","NA","NA","165013","113159","3124","NA","NA","166063","3252","NA","NA","166166","166619","166060","166166","Lab 2-1","36","21026.0","37","1024"
"97","97","564","564","black","legacy","legacy","legacy","congruent","1","undefined","1","h","0","0","0","37","37","0","37","0","37","0","0","0","37","37","37","37","Wed Sep 20 10:45:35 2023","1500","The main experiment item","True","Lab2.1.osexp","/Users/test/Desktop","False","mono","False","18","no","white","no","yes","768","legacy","37","37","/Users/test/Downloads/at-subject-1.csv","legacy","Melodramatic Milgram","4.0.5","0","h","NA","space","NA","NA","h","419.0","NA","100180","NA","NA","419","2","legacy","1024","2","48000","-16","experiment","HHHHH","1","odd","103450","NA","NA","166623","113159","3124","NA","NA","167668","3252","NA","NA","167771","168192","167665","167771","Lab 2-1","37","21445.0","38","1024"
"97","97","563","563","black","legacy","legacy","legacy","incongruent","1","undefined","1","h","0","0","0","38","38","0","38","0","38","0","0","0","38","38","38","38","Wed Sep 20 10:45:35 2023","1500","The main experiment item","True","Lab2.1.osexp","/Users/test/Desktop","False","mono","False","18","no","white","no","yes","768","legacy","38","38","/Users/test/Downloads/at-subject-1.csv","legacy","Melodramatic Milgram","4.0.5","0","h","NA","space","NA","NA","h","523.0","NA","100180","NA","NA","523","2","legacy","1024","2","48000","-16","experiment","SSHSS","1","odd","103450","NA","NA","168196","113159","3124","NA","NA","169241","3252","NA","NA","169345","169869","169238","169345","Lab 2-1","38","21968.0","39","1024"
"97","97","561","561","black","legacy","legacy","legacy","incongruent","1","undefined","1","s","0","0","0","39","39","0","39","0","39","0","0","0","39","39","39","39","Wed Sep 20 10:45:35 2023","1500","The main experiment item","True","Lab2.1.osexp","/Users/test/Desktop","False","mono","False","18","no","white","no","yes","768","legacy","39","39","/Users/test/Downloads/at-subject-1.csv","legacy","Melodramatic Milgram","4.0.5","0","s","NA","space","NA","NA","s","485.0","NA","100180","NA","NA","485","2","legacy","1024","2","48000","-16","experiment","HHSHH","1","odd","103450","NA","NA","169872","113159","3124","NA","NA","170922","3252","NA","NA","171025","171511","170919","171025","Lab 2-1","39","22453.0","40","1024"
"97","97","560","560","black","legacy","legacy","legacy","congruent","1","undefined","1","s","0","0","0","40","40","0","40","0","40","0","0","0","40","40","40","40","Wed Sep 20 10:45:35 2023","1500","The main experiment item","True","Lab2.1.osexp","/Users/test/Desktop","False","mono","False","18","no","white","no","yes","768","legacy","40","40","/Users/test/Downloads/at-subject-1.csv","legacy","Melodramatic Milgram","4.0.5","0","s","NA","space","NA","NA","s","526.0","NA","100180","NA","NA","526","2","legacy","1024","2","48000","-16","experiment","SSSSS","1","odd","103450","NA","NA","171515","113159","3124","NA","NA","172551","3252","NA","NA","172655","173182","172549","172655","Lab 2-1","40","22979.0","41","1024"
"97","97","567","567","black","legacy","legacy","legacy","congruent","1","undefined","1","s","0","0","0","41","41","0","41","0","41","0","0","0","41","41","41","41","Wed Sep 20 10:45:35 2023","1500","The main experiment item","True","Lab2.1.osexp","/Users/test/Desktop","False","mono","False","18","no","white","no","yes","768","legacy","41","41","/Users/test/Downloads/at-subject-1.csv","legacy","Melodramatic Milgram","4.0.5","0","s","NA","space","NA","NA","s","844.0","NA","100180","NA","NA","844","2","legacy","1024","2","48000","-16","experiment","SSSSS","1","odd","103450","NA","NA","173185","113159","3124","NA","NA","174224","3252","NA","NA","174328","175173","174221","174328","Lab 2-1","41","23823.0","42","1024"
"97","97","563","563","black","legacy","legacy","legacy","congruent","1","undefined","1","s","0","0","0","42","42","0","42","0","42","0","0","0","42","42","42","42","Wed Sep 20 10:45:35 2023","1500","The main experiment item","True","Lab2.1.osexp","/Users/test/Desktop","False","mono","False","18","no","white","no","yes","768","legacy","42","42","/Users/test/Downloads/at-subject-1.csv","legacy","Melodramatic Milgram","4.0.5","0","s","NA","space","NA","NA","s","394.0","NA","100180","NA","NA","394","2","legacy","1024","2","48000","-16","experiment","SSSSS","1","odd","103450","NA","NA","175176","113159","3124","NA","NA","176219","3252","NA","NA","176322","176717","176216","176322","Lab 2-1","42","24217.0","43","1024"
"97","97","567","567","black","legacy","legacy","legacy","incongruent","1","undefined","1","s","0","0","0","43","43","0","43","0","43","0","0","0","43","43","43","43","Wed Sep 20 10:45:35 2023","1500","The main experiment item","True","Lab2.1.osexp","/Users/test/Desktop","False","mono","False","18","no","white","no","yes","768","legacy","43","43","/Users/test/Downloads/at-subject-1.csv","legacy","Melodramatic Milgram","4.0.5","0","s","NA","space","NA","NA","s","732.0","NA","100180","NA","NA","732","2","legacy","1024","2","48000","-16","experiment","HHSHH","1","odd","103450","NA","NA","176720","113159","3124","NA","NA","177763","3252","NA","NA","177866","178598","177760","177866","Lab 2-1","43","24949.0","44","1024"
"97","97","564","564","black","legacy","legacy","legacy","congruent","1","undefined","1","s","0","0","0","44","44","0","44","0","44","0","0","0","44","44","44","44","Wed Sep 20 10:45:35 2023","1500","The main experiment item","True","Lab2.1.osexp","/Users/test/Desktop","False","mono","False","18","no","white","no","yes","768","legacy","44","44","/Users/test/Downloads/at-subject-1.csv","legacy","Melodramatic Milgram","4.0.5","0","s","NA","space","NA","NA","s","437.0","NA","100180","NA","NA","437","2","legacy","1024","2","48000","-16","experiment","SSSSS","1","odd","103450","NA","NA","178602","113159","3124","NA","NA","179641","3252","NA","NA","179745","180183","179638","179745","Lab 2-1","44","25386.0","45","1024"
"97","97","563","563","black","legacy","legacy","legacy","incongruent","1","undefined","1","s","0","0","0","45","45","0","45","0","45","0","0","0","45","45","45","45","Wed Sep 20 10:45:35 2023","1500","The main experiment item","True","Lab2.1.osexp","/Users/test/Desktop","False","mono","False","18","no","white","no","yes","768","legacy","45","45","/Users/test/Downloads/at-subject-1.csv","legacy","Melodramatic Milgram","4.0.5","0","s","NA","space","NA","NA","s","521.0","NA","100180","NA","NA","521","2","legacy","1024","2","48000","-16","experiment","HHSHH","1","odd","103450","NA","NA","180187","113159","3124","NA","NA","181232","3252","NA","NA","181336","181857","181228","181335","Lab 2-1","45","25907.0","46","1024"
"97","97","559","559","black","legacy","legacy","legacy","congruent","1","undefined","1","s","0","0","0","46","46","0","46","0","46","0","0","0","46","46","46","46","Wed Sep 20 10:45:35 2023","1500","The main experiment item","True","Lab2.1.osexp","/Users/test/Desktop","False","mono","False","18","no","white","no","yes","768","legacy","46","46","/Users/test/Downloads/at-subject-1.csv","legacy","Melodramatic Milgram","4.0.5","0","s","NA","space","NA","NA","s","398.0","NA","100180","NA","NA","398","2","legacy","1024","2","48000","-16","experiment","SSSSS","1","odd","103450","NA","NA","181861","113159","3124","NA","NA","182934","3252","NA","NA","183037","183436","182931","183036","Lab 2-1","46","26305.0","47","1024"
"97","97","557","557","black","legacy","legacy","legacy","incongruent","1","undefined","1","s","0","0","0","47","47","0","47","0","47","0","0","0","47","47","47","47","Wed Sep 20 10:45:35 2023","1500","The main experiment item","True","Lab2.1.osexp","/Users/test/Desktop","False","mono","False","18","no","white","no","yes","768","legacy","47","47","/Users/test/Downloads/at-subject-1.csv","legacy","Melodramatic Milgram","4.0.5","0","s","NA","space","NA","NA","s","467.0","NA","100180","NA","NA","467","2","legacy","1024","2","48000","-16","experiment","HHSHH","1","odd","103450","NA","NA","183439","113159","3124","NA","NA","184476","3252","NA","NA","184579","185047","184473","184579","Lab 2-1","47","26772.0","48","1024"
"97","97","554","554","black","legacy","legacy","legacy","congruent","1","undefined","1","s","0","0","0","48","48","0","48","0","48","0","0","0","48","48","48","48","Wed Sep 20 10:45:35 2023","1500","The main experiment item","True","Lab2.1.osexp","/Users/test/Desktop","False","mono","False","18","no","white","no","yes","768","legacy","48","48","/Users/test/Downloads/at-subject-1.csv","legacy","Melodramatic Milgram","4.0.5","0","s","NA","space","NA","NA","s","374.0","NA","100180","NA","NA","374","2","legacy","1024","2","48000","-16","experiment","SSSSS","1","odd","103450","NA","NA","185051","113159","3124","NA","NA","186091","3252","NA","NA","186194","186569","186088","186194","Lab 2-1","48","27146.0","49","1024"
"98","98","553","553","black","legacy","legacy","legacy","incongruent","1","undefined","1","s","0","0","0","49","49","0","49","0","49","0","0","0","49","49","49","49","Wed Sep 20 10:45:35 2023","1500","The main experiment item","True","Lab2.1.osexp","/Users/test/Desktop","False","mono","False","18","no","white","no","yes","768","legacy","49","49","/Users/test/Downloads/at-subject-1.csv","legacy","Melodramatic Milgram","4.0.5","0","s","NA","space","NA","NA","s","506.0","NA","100180","NA","NA","506","2","legacy","1024","2","48000","-16","experiment","HHSHH","1","odd","103450","NA","NA","186573","113159","3124","NA","NA","187620","3252","NA","NA","187723","188230","187617","187723","Lab 2-1","49","27652.0","50","1024"
"98","98","550","550","black","legacy","legacy","legacy","incongruent","1","undefined","1","s","0","0","0","50","50","0","50","0","50","0","0","0","50","50","50","50","Wed Sep 20 10:45:35 2023","1500","The main experiment item","True","Lab2.1.osexp","/Users/test/Desktop","False","mono","False","18","no","white","no","yes","768","legacy","50","50","/Users/test/Downloads/at-subject-1.csv","legacy","Melodramatic Milgram","4.0.5","0","s","NA","space","NA","NA","s","442.0","NA","100180","NA","NA","442","2","legacy","1024","2","48000","-16","experiment","HHSHH","1","odd","103450","NA","NA","188234","113159","3124","NA","NA","189277","3252","NA","NA","189380","189823","189274","189380","Lab 2-1","50","28094.0","51","1024"
"98","98","549","549","black","legacy","legacy","legacy","congruent","1","undefined","1","h","0","0","0","51","51","0","51","0","51","0","0","0","51","51","51","51","Wed Sep 20 10:45:35 2023","1500","The main experiment item","True","Lab2.1.osexp","/Users/test/Desktop","False","mono","False","18","no","white","no","yes","768","legacy","51","51","/Users/test/Downloads/at-subject-1.csv","legacy","Melodramatic Milgram","4.0.5","0","h","NA","space","NA","NA","h","480.0","NA","100180","NA","NA","480","2","legacy","1024","2","48000","-16","experiment","HHHHH","1","odd","103450","NA","NA","189826","113159","3124","NA","NA","190870","3252","NA","NA","190973","191454","190867","190972","Lab 2-1","51","28574.0","52","1024"
"98","98","546","546","black","legacy","legacy","legacy","congruent","1","undefined","1","h","0","0","0","52","52","0","52","0","52","0","0","0","52","52","52","52","Wed Sep 20 10:45:35 2023","1500","The main experiment item","True","Lab2.1.osexp","/Users/test/Desktop","False","mono","False","18","no","white","no","yes","768","legacy","52","52","/Users/test/Downloads/at-subject-1.csv","legacy","Melodramatic Milgram","4.0.5","0","h","NA","space","NA","NA","h","405.0","NA","100180","NA","NA","405","2","legacy","1024","2","48000","-16","experiment","HHHHH","1","odd","103450","NA","NA","191457","113159","3124","NA","NA","192501","3252","NA","NA","192605","193012","192498","192605","Lab 2-1","52","28979.0","53","1024"
"98","98","546","546","black","legacy","legacy","legacy","congruent","1","undefined","1","s","0","0","0","53","53","0","53","0","53","0","0","0","53","53","53","53","Wed Sep 20 10:45:35 2023","1500","The main experiment item","True","Lab2.1.osexp","/Users/test/Desktop","False","mono","False","18","no","white","no","yes","768","legacy","53","53","/Users/test/Downloads/at-subject-1.csv","legacy","Melodramatic Milgram","4.0.5","0","s","NA","space","NA","NA","s","523.0","NA","100180","NA","NA","523","2","legacy","1024","2","48000","-16","experiment","SSSSS","1","odd","103450","NA","NA","193015","113159","3124","NA","NA","194065","3252","NA","NA","194168","194692","194062","194168","Lab 2-1","53","29502.0","54","1024"
"98","98","544","544","black","legacy","legacy","legacy","congruent","1","undefined","1","s","0","0","0","54","54","0","54","0","54","0","0","0","54","54","54","54","Wed Sep 20 10:45:35 2023","1500","The main experiment item","True","Lab2.1.osexp","/Users/test/Desktop","False","mono","False","18","no","white","no","yes","768","legacy","54","54","/Users/test/Downloads/at-subject-1.csv","legacy","Melodramatic Milgram","4.0.5","0","s","NA","space","NA","NA","s","421.0","NA","100180","NA","NA","421","2","legacy","1024","2","48000","-16","experiment","SSSSS","1","odd","103450","NA","NA","194695","113159","3124","NA","NA","195744","3252","NA","NA","195847","196269","195741","195847","Lab 2-1","54","29923.0","55","1024"
"98","98","542","542","black","legacy","legacy","legacy","incongruent","1","undefined","1","s","0","0","0","55","55","0","55","0","55","0","0","0","55","55","55","55","Wed Sep 20 10:45:35 2023","1500","The main experiment item","True","Lab2.1.osexp","/Users/test/Desktop","False","mono","False","18","no","white","no","yes","768","legacy","55","55","/Users/test/Downloads/at-subject-1.csv","legacy","Melodramatic Milgram","4.0.5","0","s","NA","space","NA","NA","s","461.0","NA","100180","NA","NA","461","2","legacy","1024","2","48000","-16","experiment","HHSHH","1","odd","103450","NA","NA","196272","113159","3124","NA","NA","197309","3252","NA","NA","197412","197874","197306","197412","Lab 2-1","55","30384.0","56","1024"
"98","98","538","538","black","legacy","legacy","legacy","congruent","1","undefined","1","h","0","0","0","56","56","0","56","0","56","0","0","0","56","56","56","56","Wed Sep 20 10:45:35 2023","1500","The main experiment item","True","Lab2.1.osexp","/Users/test/Desktop","False","mono","False","18","no","white","no","yes","768","legacy","56","56","/Users/test/Downloads/at-subject-1.csv","legacy","Melodramatic Milgram","4.0.5","0","h","NA","space","NA","NA","h","327.0","NA","100180","NA","NA","327","2","legacy","1024","2","48000","-16","experiment","HHHHH","1","odd","103450","NA","NA","197877","113159","3124","NA","NA","198917","3252","NA","NA","199021","199349","198914","199020","Lab 2-1","56","30711.0","57","1024"
"98","98","537","537","black","legacy","legacy","legacy","incongruent","1","undefined","1","h","0","0","0","57","57","0","57","0","57","0","0","0","57","57","57","57","Wed Sep 20 10:45:35 2023","1500","The main experiment item","True","Lab2.1.osexp","/Users/test/Desktop","False","mono","False","18","no","white","no","yes","768","legacy","57","57","/Users/test/Downloads/at-subject-1.csv","legacy","Melodramatic Milgram","4.0.5","0","h","NA","space","NA","NA","h","438.0","NA","100180","NA","NA","438","2","legacy","1024","2","48000","-16","experiment","SSHSS","1","odd","103450","NA","NA","199353","113159","3124","NA","NA","200396","3252","NA","NA","200499","200938","200393","200499","Lab 2-1","57","31149.0","58","1024"
"98","98","535","535","black","legacy","legacy","legacy","congruent","1","undefined","1","s","0","0","0","58","58","0","58","0","58","0","0","0","58","58","58","58","Wed Sep 20 10:45:35 2023","1500","The main experiment item","True","Lab2.1.osexp","/Users/test/Desktop","False","mono","False","18","no","white","no","yes","768","legacy","58","58","/Users/test/Downloads/at-subject-1.csv","legacy","Melodramatic Milgram","4.0.5","0","s","NA","space","NA","NA","s","468.0","NA","100180","NA","NA","468","2","legacy","1024","2","48000","-16","experiment","SSSSS","1","odd","103450","NA","NA","200942","113159","3124","NA","NA","201991","3252","NA","NA","202094","202563","201987","202093","Lab 2-1","58","31617.0","59","1024"
"98","98","536","536","black","legacy","legacy","legacy","incongruent","1","undefined","1","h","0","0","0","59","59","0","59","0","59","0","0","0","59","59","59","59","Wed Sep 20 10:45:35 2023","1500","The main experiment item","True","Lab2.1.osexp","/Users/test/Desktop","False","mono","False","18","no","white","no","yes","768","legacy","59","59","/Users/test/Downloads/at-subject-1.csv","legacy","Melodramatic Milgram","4.0.5","0","h","NA","space","NA","NA","h","556.0","NA","100180","NA","NA","556","2","legacy","1024","2","48000","-16","experiment","SSHSS","1","odd","103450","NA","NA","202567","113159","3124","NA","NA","203611","3252","NA","NA","203714","204271","203608","203714","Lab 2-1","59","32173.0","60","1024"
"98","98","535","535","black","legacy","legacy","legacy","congruent","1","undefined","1","s","0","0","0","60","60","0","60","0","60","0","0","0","60","60","60","60","Wed Sep 20 10:45:35 2023","1500","The main experiment item","True","Lab2.1.osexp","/Users/test/Desktop","False","mono","False","18","no","white","no","yes","768","legacy","60","60","/Users/test/Downloads/at-subject-1.csv","legacy","Melodramatic Milgram","4.0.5","0","s","NA","space","NA","NA","s","481.0","NA","100180","NA","NA","481","2","legacy","1024","2","48000","-16","experiment","SSSSS","1","odd","103450","NA","NA","204275","113159","3124","NA","NA","205318","3252","NA","NA","205422","205904","205316","205422","Lab 2-1","60","32654.0","61","1024"
"98","98","536","536","black","legacy","legacy","legacy","congruent","1","undefined","1","h","0","0","0","61","61","0","61","0","61","0","0","0","61","61","61","61","Wed Sep 20 10:45:35 2023","1500","The main experiment item","True","Lab2.1.osexp","/Users/test/Desktop","False","mono","False","18","no","white","no","yes","768","legacy","61","61","/Users/test/Downloads/at-subject-1.csv","legacy","Melodramatic Milgram","4.0.5","0","h","NA","space","NA","NA","h","579.0","NA","100180","NA","NA","579","2","legacy","1024","2","48000","-16","experiment","HHHHH","1","odd","103450","NA","NA","205908","113159","3124","NA","NA","206960","3252","NA","NA","207063","207643","206957","207062","Lab 2-1","61","33233.0","62","1024"
"98","98","536","536","black","legacy","legacy","legacy","incongruent","1","undefined","1","h","0","0","0","62","62","0","62","0","62","0","0","0","62","62","62","62","Wed Sep 20 10:45:35 2023","1500","The main experiment item","True","Lab2.1.osexp","/Users/test/Desktop","False","mono","False","18","no","white","no","yes","768","legacy","62","62","/Users/test/Downloads/at-subject-1.csv","legacy","Melodramatic Milgram","4.0.5","0","h","NA","space","NA","NA","h","572.0","NA","100180","NA","NA","572","2","legacy","1024","2","48000","-16","experiment","SSHSS","1","odd","103450","NA","NA","207646","113159","3124","NA","NA","208681","3252","NA","NA","208784","209357","208679","208784","Lab 2-1","62","33805.0","63","1024"
"98","98","534","534","black","legacy","legacy","legacy","congruent","1","undefined","1","h","0","0","0","63","63","0","63","0","63","0","0","0","63","63","63","63","Wed Sep 20 10:45:35 2023","1500","The main experiment item","True","Lab2.1.osexp","/Users/test/Desktop","False","mono","False","18","no","white","no","yes","768","legacy","63","63","/Users/test/Downloads/at-subject-1.csv","legacy","Melodramatic Milgram","4.0.5","0","h","NA","space","NA","NA","h","407.0","NA","100180","NA","NA","407","2","legacy","1024","2","48000","-16","experiment","HHHHH","1","odd","103450","NA","NA","209382","113159","3124","NA","NA","210421","3252","NA","NA","210525","210933","210418","210525","Lab 2-1","63","34212.0","64","1024"
"98","98","533","533","black","legacy","legacy","legacy","incongruent","1","undefined","1","h","0","0","0","64","64","0","64","0","64","0","0","0","64","64","64","64","Wed Sep 20 10:45:35 2023","1500","The main experiment item","True","Lab2.1.osexp","/Users/test/Desktop","False","mono","False","18","no","white","no","yes","768","legacy","64","64","/Users/test/Downloads/at-subject-1.csv","legacy","Melodramatic Milgram","4.0.5","0","h","NA","space","NA","NA","h","484.0","NA","100180","NA","NA","484","2","legacy","1024","2","48000","-16","experiment","SSHSS","1","odd","103450","NA","NA","210936","113159","3124","NA","NA","211990","3252","NA","NA","212093","212578","211986","212092","Lab 2-1","64","34696.0","65","1024"
"98","98","532","532","black","legacy","legacy","legacy","congruent","1","undefined","1","h","0","0","0","65","65","0","65","0","65","0","0","0","65","65","65","65","Wed Sep 20 10:45:35 2023","1500","The main experiment item","True","Lab2.1.osexp","/Users/test/Desktop","False","mono","False","18","no","white","no","yes","768","legacy","65","65","/Users/test/Downloads/at-subject-1.csv","legacy","Melodramatic Milgram","4.0.5","0","h","NA","space","NA","NA","h","422.0","NA","100180","NA","NA","422","2","legacy","1024","2","48000","-16","experiment","HHHHH","1","odd","103450","NA","NA","212581","113159","3124","NA","NA","213625","3252","NA","NA","213729","214152","213622","213729","Lab 2-1","65","35118.0","66","1024"
"98","98","529","529","black","legacy","legacy","legacy","congruent","1","undefined","1","h","0","0","0","66","66","0","66","0","66","0","0","0","66","66","66","66","Wed Sep 20 10:45:35 2023","1500","The main experiment item","True","Lab2.1.osexp","/Users/test/Desktop","False","mono","False","18","no","white","no","yes","768","legacy","66","66","/Users/test/Downloads/at-subject-1.csv","legacy","Melodramatic Milgram","4.0.5","0","h","NA","space","NA","NA","h","353.0","NA","100180","NA","NA","353","2","legacy","1024","2","48000","-16","experiment","HHHHH","1","odd","103450","NA","NA","214156","113159","3124","NA","NA","215199","3252","NA","NA","215303","215657","215196","215303","Lab 2-1","66","35471.0","67","1024"
"98","98","528","528","black","legacy","legacy","legacy","incongruent","1","undefined","1","s","0","0","0","67","67","0","67","0","67","0","0","0","67","67","67","67","Wed Sep 20 10:45:35 2023","1500","The main experiment item","True","Lab2.1.osexp","/Users/test/Desktop","False","mono","False","18","no","white","no","yes","768","legacy","67","67","/Users/test/Downloads/at-subject-1.csv","legacy","Melodramatic Milgram","4.0.5","0","s","NA","space","NA","NA","s","496.0","NA","100180","NA","NA","496","2","legacy","1024","2","48000","-16","experiment","HHSHH","1","odd","103450","NA","NA","215661","113159","3124","NA","NA","216704","3252","NA","NA","216808","217305","216702","216808","Lab 2-1","67","35967.0","68","1024"
"98","98","528","528","black","legacy","legacy","legacy","incongruent","1","undefined","1","h","0","0","0","68","68","0","68","0","68","0","0","0","68","68","68","68","Wed Sep 20 10:45:35 2023","1500","The main experiment item","True","Lab2.1.osexp","/Users/test/Desktop","False","mono","False","18","no","white","no","yes","768","legacy","68","68","/Users/test/Downloads/at-subject-1.csv","legacy","Melodramatic Milgram","4.0.5","0","h","NA","space","NA","NA","h","506.0","NA","100180","NA","NA","506","2","legacy","1024","2","48000","-16","experiment","SSHSS","1","odd","103450","NA","NA","217308","113159","3124","NA","NA","218351","3252","NA","NA","218454","218962","218348","218454","Lab 2-1","68","36473.0","69","1024"
"98","98","530","530","black","legacy","legacy","legacy","incongruent","1","undefined","1","h","0","0","0","69","69","0","69","0","69","0","0","0","69","69","69","69","Wed Sep 20 10:45:35 2023","1500","The main experiment item","True","Lab2.1.osexp","/Users/test/Desktop","False","mono","False","18","no","white","no","yes","768","legacy","69","69","/Users/test/Downloads/at-subject-1.csv","legacy","Melodramatic Milgram","4.0.5","0","h","NA","space","NA","NA","h","634.0","NA","100180","NA","NA","634","2","legacy","1024","2","48000","-16","experiment","SSHSS","1","odd","103450","NA","NA","218965","113159","3124","NA","NA","220027","3252","NA","NA","220130","220764","220024","220130","Lab 2-1","69","37107.0","70","1024"
"98","98","529","529","black","legacy","legacy","legacy","congruent","1","undefined","1","s","0","0","0","70","70","0","70","0","70","0","0","0","70","70","70","70","Wed Sep 20 10:45:35 2023","1500","The main experiment item","True","Lab2.1.osexp","/Users/test/Desktop","False","mono","False","18","no","white","no","yes","768","legacy","70","70","/Users/test/Downloads/at-subject-1.csv","legacy","Melodramatic Milgram","4.0.5","0","s","NA","space","NA","NA","s","479.0","NA","100180","NA","NA","479","2","legacy","1024","2","48000","-16","experiment","SSSSS","1","odd","103450","NA","NA","220768","113159","3124","NA","NA","221804","3252","NA","NA","221907","222387","221801","221907","Lab 2-1","70","37586.0","71","1024"
"98","98","530","530","black","legacy","legacy","legacy","incongruent","1","undefined","1","h","0","0","0","71","71","0","71","0","71","0","0","0","71","71","71","71","Wed Sep 20 10:45:35 2023","1500","The main experiment item","True","Lab2.1.osexp","/Users/test/Desktop","False","mono","False","18","no","white","no","yes","768","legacy","71","71","/Users/test/Downloads/at-subject-1.csv","legacy","Melodramatic Milgram","4.0.5","0","h","NA","space","NA","NA","h","578.0","NA","100180","NA","NA","578","2","legacy","1024","2","48000","-16","experiment","SSHSS","1","odd","103450","NA","NA","222391","113159","3124","NA","NA","223430","3252","NA","NA","223533","224112","223427","223533","Lab 2-1","71","38164.0","72","1024"
"98","98","530","530","black","legacy","legacy","legacy","incongruent","1","undefined","1","h","0","0","0","72","72","0","72","0","72","0","0","0","72","72","72","72","Wed Sep 20 10:45:35 2023","1500","The main experiment item","True","Lab2.1.osexp","/Users/test/Desktop","False","mono","False","18","no","white","no","yes","768","legacy","72","72","/Users/test/Downloads/at-subject-1.csv","legacy","Melodramatic Milgram","4.0.5","0","h","NA","space","NA","NA","h","592.0","NA","100180","NA","NA","592","2","legacy","1024","2","48000","-16","experiment","SSHSS","1","odd","103450","NA","NA","224116","113159","3124","NA","NA","225157","3252","NA","NA","225260","225853","225154","225260","Lab 2-1","72","38756.0","73","1024"
"98","98","530","530","black","legacy","legacy","legacy","incongruent","1","undefined","1","s","0","0","0","73","73","0","73","0","73","0","0","0","73","73","73","73","Wed Sep 20 10:45:35 2023","1500","The main experiment item","True","Lab2.1.osexp","/Users/test/Desktop","False","mono","False","18","no","white","no","yes","768","legacy","73","73","/Users/test/Downloads/at-subject-1.csv","legacy","Melodramatic Milgram","4.0.5","0","s","NA","space","NA","NA","s","532.0","NA","100180","NA","NA","532","2","legacy","1024","2","48000","-16","experiment","HHSHH","1","odd","103450","NA","NA","225857","113159","3124","NA","NA","226900","3252","NA","NA","227004","227537","226897","227003","Lab 2-1","73","39288.0","74","1024"
"98","98","531","531","black","legacy","legacy","legacy","incongruent","1","undefined","1","s","0","0","0","74","74","0","74","0","74","0","0","0","74","74","74","74","Wed Sep 20 10:45:35 2023","1500","The main experiment item","True","Lab2.1.osexp","/Users/test/Desktop","False","mono","False","18","no","white","no","yes","768","legacy","74","74","/Users/test/Downloads/at-subject-1.csv","legacy","Melodramatic Milgram","4.0.5","0","s","NA","space","NA","NA","s","590.0","NA","100180","NA","NA","590","2","legacy","1024","2","48000","-16","experiment","HHSHH","1","odd","103450","NA","NA","227541","113159","3124","NA","NA","228584","3252","NA","NA","228687","229279","228581","228686","Lab 2-1","74","39878.0","75","1024"
"98","98","529","529","black","legacy","legacy","legacy","congruent","1","undefined","1","s","0","0","0","75","75","0","75","0","75","0","0","0","75","75","75","75","Wed Sep 20 10:45:35 2023","1500","The main experiment item","True","Lab2.1.osexp","/Users/test/Desktop","False","mono","False","18","no","white","no","yes","768","legacy","75","75","/Users/test/Downloads/at-subject-1.csv","legacy","Melodramatic Milgram","4.0.5","0","s","NA","space","NA","NA","s","398.0","NA","100180","NA","NA","398","2","legacy","1024","2","48000","-16","experiment","SSSSS","1","odd","103450","NA","NA","229282","113159","3124","NA","NA","230325","3252","NA","NA","230429","230828","230322","230429","Lab 2-1","75","40276.0","76","1024"
"98","98","529","529","black","legacy","legacy","legacy","incongruent","1","undefined","1","s","0","0","0","76","76","0","76","0","76","0","0","0","76","76","76","76","Wed Sep 20 10:45:35 2023","1500","The main experiment item","True","Lab2.1.osexp","/Users/test/Desktop","False","mono","False","18","no","white","no","yes","768","legacy","76","76","/Users/test/Downloads/at-subject-1.csv","legacy","Melodramatic Milgram","4.0.5","0","s","NA","space","NA","NA","s","467.0","NA","100180","NA","NA","467","2","legacy","1024","2","48000","-16","experiment","HHSHH","1","odd","103450","NA","NA","230831","113159","3124","NA","NA","231882","3252","NA","NA","231985","232453","231879","231984","Lab 2-1","76","40743.0","77","1024"
"98","98","527","527","black","legacy","legacy","legacy","incongruent","1","undefined","1","s","0","0","0","77","77","0","77","0","77","0","0","0","77","77","77","77","Wed Sep 20 10:45:35 2023","1500","The main experiment item","True","Lab2.1.osexp","/Users/test/Desktop","False","mono","False","18","no","white","no","yes","768","legacy","77","77","/Users/test/Downloads/at-subject-1.csv","legacy","Melodramatic Milgram","4.0.5","0","s","NA","space","NA","NA","s","398.0","NA","100180","NA","NA","398","2","legacy","1024","2","48000","-16","experiment","HHSHH","1","odd","103450","NA","NA","232457","113159","3124","NA","NA","233493","3252","NA","NA","233596","233996","233490","233595","Lab 2-1","77","41141.0","78","1024"
"98","98","526","526","black","legacy","legacy","legacy","incongruent","1","undefined","1","s","0","0","0","78","78","0","78","0","78","0","0","0","78","78","78","78","Wed Sep 20 10:45:35 2023","1500","The main experiment item","True","Lab2.1.osexp","/Users/test/Desktop","False","mono","False","18","no","white","no","yes","768","legacy","78","78","/Users/test/Downloads/at-subject-1.csv","legacy","Melodramatic Milgram","4.0.5","0","s","NA","space","NA","NA","s","471.0","NA","100180","NA","NA","471","2","legacy","1024","2","48000","-16","experiment","HHSHH","1","odd","103450","NA","NA","233999","113159","3124","NA","NA","235046","3252","NA","NA","235149","235621","235043","235149","Lab 2-1","78","41612.0","79","1024"
"98","98","525","525","black","legacy","legacy","legacy","congruent","1","undefined","1","s","0","0","0","79","79","0","79","0","79","0","0","0","79","79","79","79","Wed Sep 20 10:45:35 2023","1500","The main experiment item","True","Lab2.1.osexp","/Users/test/Desktop","False","mono","False","18","no","white","no","yes","768","legacy","79","79","/Users/test/Downloads/at-subject-1.csv","legacy","Melodramatic Milgram","4.0.5","0","s","NA","space","NA","NA","s","404.0","NA","100180","NA","NA","404","2","legacy","1024","2","48000","-16","experiment","SSSSS","1","odd","103450","NA","NA","235624","113159","3124","NA","NA","236667","3252","NA","NA","236770","237175","236664","236770","Lab 2-1","79","42016.0","80","1024"
"97","97","525","525","black","legacy","legacy","legacy","incongruent","0","undefined","0","s","0","0","0","80","80","0","80","0","80","0","0","0","80","80","80","80","Wed Sep 20 10:45:35 2023","600","The main experiment item","True","Lab2.1.osexp","/Users/test/Desktop","False","mono","False","18","no","white","no","yes","768","legacy","0","79","/Users/test/Downloads/at-subject-1.csv","legacy","Melodramatic Milgram","4.0.5","0","h","NA","space","s","NA","h","583.0","NA","100180","24710","NA","583","2","legacy","1024","2","48000","-16","experiment","HHSHH","1","odd","103450","262894","NA","237179","113159","3124","NA","NA","262951","3252","238183","NA","263054","263638","262947","263054","Lab 2-1","79","42599.0","81","1024"
"97","97","524","524","black","legacy","legacy","legacy","congruent","1","undefined","1","h","0","0","0","81","81","0","81","0","81","0","0","0","81","81","81","81","Wed Sep 20 10:45:35 2023","600","The main experiment item","True","Lab2.1.osexp","/Users/test/Desktop","False","mono","False","18","no","white","no","yes","768","legacy","1","79","/Users/test/Downloads/at-subject-1.csv","legacy","Melodramatic Milgram","4.0.5","0","h","NA","space","s","NA","h","431.0","NA","100180","24710","NA","431","2","legacy","1024","2","48000","-16","experiment","HHHHH","1","odd","103450","262894","NA","264145","263642","3124","NA","NA","265181","3252","238183","NA","265284","265716","265178","265284","Lab 2-1","80","43030.0","82","1024"
"97","97","522","522","black","legacy","legacy","legacy","incongruent","1","undefined","1","s","0","0","0","82","82","0","82","0","82","0","0","0","82","82","82","82","Wed Sep 20 10:45:35 2023","600","The main experiment item","True","Lab2.1.osexp","/Users/test/Desktop","False","mono","False","18","no","white","no","yes","768","legacy","2","79","/Users/test/Downloads/at-subject-1.csv","legacy","Melodramatic Milgram","4.0.5","0","s","NA","space","s","NA","s","330.0","NA","100180","24710","NA","330","2","legacy","1024","2","48000","-16","experiment","HHSHH","1","odd","103450","262894","NA","265720","263642","3124","NA","NA","266764","3252","238183","NA","266868","267199","266756","266867","Lab 2-1","81","43360.0","83","1024"
"97","97","519","519","black","legacy","legacy","legacy","congruent","1","undefined","1","h","0","0","0","83","83","0","83","0","83","0","0","0","83","83","83","83","Wed Sep 20 10:45:35 2023","600","The main experiment item","True","Lab2.1.osexp","/Users/test/Desktop","False","mono","False","18","no","white","no","yes","768","legacy","3","79","/Users/test/Downloads/at-subject-1.csv","legacy","Melodramatic Milgram","4.0.5","0","h","NA","space","s","NA","h","290.0","NA","100180","24710","NA","290","2","legacy","1024","2","48000","-16","experiment","HHHHH","1","odd","103450","262894","NA","267204","263642","3124","NA","NA","268247","3252","238183","NA","268351","268642","268244","268351","Lab 2-1","82","43650.0","84","1024"
"97","97","517","517","black","legacy","legacy","legacy","congruent","1","undefined","1","s","0","0","0","84","84","0","84","0","84","0","0","0","84","84","84","84","Wed Sep 20 10:45:35 2023","600","The main experiment item","True","Lab2.1.osexp","/Users/test/Desktop","False","mono","False","18","no","white","no","yes","768","legacy","4","79","/Users/test/Downloads/at-subject-1.csv","legacy","Melodramatic Milgram","4.0.5","0","s","NA","space","s","NA","s","309.0","NA","100180","24710","NA","309","2","legacy","1024","2","48000","-16","experiment","SSSSS","1","odd","103450","262894","NA","268646","263642","3124","NA","NA","269689","3252","238183","NA","269793","270104","269686","269792","Lab 2-1","83","43959.0","85","1024"
"97","97","514","514","black","legacy","legacy","legacy","incongruent","1","undefined","1","h","0","0","0","85","85","0","85","0","85","0","0","0","85","85","85","85","Wed Sep 20 10:45:35 2023","600","The main experiment item","True","Lab2.1.osexp","/Users/test/Desktop","False","mono","False","18","no","white","no","yes","768","legacy","5","79","/Users/test/Downloads/at-subject-1.csv","legacy","Melodramatic Milgram","4.0.5","0","h","NA","space","s","NA","h","322.0","NA","100180","24710","NA","322","2","legacy","1024","2","48000","-16","experiment","SSHSS","1","odd","103450","262894","NA","270107","263642","3124","NA","NA","271147","3252","238183","NA","271250","271573","271144","271250","Lab 2-1","84","44281.0","86","1024"
"97","97","512","512","black","legacy","legacy","legacy","congruent","1","undefined","1","h","0","0","0","86","86","0","86","0","86","0","0","0","86","86","86","86","Wed Sep 20 10:45:35 2023","600","The main experiment item","True","Lab2.1.osexp","/Users/test/Desktop","False","mono","False","18","no","white","no","yes","768","legacy","6","79","/Users/test/Downloads/at-subject-1.csv","legacy","Melodramatic Milgram","4.0.5","0","h","NA","space","s","NA","h","334.0","NA","100180","24710","NA","334","2","legacy","1024","2","48000","-16","experiment","HHHHH","1","odd","103450","262894","NA","271577","263642","3124","NA","NA","272622","3252","238183","NA","272725","273061","272619","272725","Lab 2-1","85","44615.0","87","1024"
"96","96","510","510","black","legacy","legacy","legacy","incongruent","0","undefined","0","s","0","0","0","87","87","0","87","0","87","0","0","0","87","87","87","87","Wed Sep 20 10:45:35 2023","600","The main experiment item","True","Lab2.1.osexp","/Users/test/Desktop","False","mono","False","18","no","white","no","yes","768","legacy","7","79","/Users/test/Downloads/at-subject-1.csv","legacy","Melodramatic Milgram","4.0.5","0","h","NA","space","s","NA","h","307.0","NA","100180","24710","NA","307","2","legacy","1024","2","48000","-16","experiment","HHSHH","1","odd","103450","262894","NA","273065","263642","3124","NA","NA","274119","3252","238183","NA","274223","274532","274115","274222","Lab 2-1","85","44922.0","88","1024"
"96","96","509","509","black","legacy","legacy","legacy","congruent","1","undefined","1","s","0","0","0","88","88","0","88","0","88","0","0","0","88","88","88","88","Wed Sep 20 10:45:35 2023","600","The main experiment item","True","Lab2.1.osexp","/Users/test/Desktop","False","mono","False","18","no","white","no","yes","768","legacy","8","79","/Users/test/Downloads/at-subject-1.csv","legacy","Melodramatic Milgram","4.0.5","0","s","NA","space","s","NA","s","442.0","NA","100180","24710","NA","442","2","legacy","1024","2","48000","-16","experiment","SSSSS","1","odd","103450","262894","NA","275039","274535","3124","NA","NA","276089","3252","238183","NA","276192","276635","276086","276192","Lab 2-1","86","45364.0","89","1024"
"96","96","511","511","black","legacy","legacy","legacy","incongruent","1","undefined","1","h","0","0","0","89","89","0","89","0","89","0","0","0","89","89","89","89","Wed Sep 20 10:45:35 2023","600","The main experiment item","True","Lab2.1.osexp","/Users/test/Desktop","False","mono","False","18","no","white","no","yes","768","legacy","9","79","/Users/test/Downloads/at-subject-1.csv","legacy","Melodramatic Milgram","4.0.5","0","h","NA","space","s","NA","h","629.0","NA","100180","24710","NA","629","2","legacy","1024","2","48000","-16","experiment","SSHSS","1","odd","103450","262894","NA","276638","274535","3124","NA","NA","277675","3252","238183","NA","277779","278409","277672","277779","Lab 2-1","87","45993.0","90","1024"
"95","95","509","509","black","legacy","legacy","legacy","incongruent","0","undefined","0","h","0","0","0","90","90","0","90","0","90","0","0","0","90","90","90","90","Wed Sep 20 10:45:35 2023","600","The main experiment item","True","Lab2.1.osexp","/Users/test/Desktop","False","mono","False","18","no","white","no","yes","768","legacy","10","79","/Users/test/Downloads/at-subject-1.csv","legacy","Melodramatic Milgram","4.0.5","0","s","NA","space","s","NA","s","394.0","NA","100180","24710","NA","394","2","legacy","1024","2","48000","-16","experiment","SSHSS","1","odd","103450","262894","NA","278914","274535","3124","278412","NA","279955","3252","238183","NA","280058","280453","279952","280057","Lab 2-1","87","46387.0","91","1024"
"95","95","509","509","black","legacy","legacy","legacy","congruent","1","undefined","1","h","0","0","0","91","91","0","91","0","91","0","0","0","91","91","91","91","Wed Sep 20 10:45:35 2023","600","The main experiment item","True","Lab2.1.osexp","/Users/test/Desktop","False","mono","False","18","no","white","no","yes","768","legacy","11","79","/Users/test/Downloads/at-subject-1.csv","legacy","Melodramatic Milgram","4.0.5","0","h","NA","space","s","NA","h","446.0","NA","100180","24710","NA","446","2","legacy","1024","2","48000","-16","experiment","HHHHH","1","odd","103450","262894","NA","280960","280456","3124","278412","NA","282009","3252","238183","NA","282112","282559","282006","282111","Lab 2-1","88","46833.0","92","1024"
"95","95","507","507","black","legacy","legacy","legacy","congruent","1","undefined","1","s","0","0","0","92","92","0","92","0","92","0","0","0","92","92","92","92","Wed Sep 20 10:45:35 2023","600","The main experiment item","True","Lab2.1.osexp","/Users/test/Desktop","False","mono","False","18","no","white","no","yes","768","legacy","12","79","/Users/test/Downloads/at-subject-1.csv","legacy","Melodramatic Milgram","4.0.5","0","s","NA","space","s","NA","s","406.0","NA","100180","24710","NA","406","2","legacy","1024","2","48000","-16","experiment","SSSSS","1","odd","103450","262894","NA","282563","280456","3124","278412","NA","283605","3252","238183","NA","283709","284116","283602","283709","Lab 2-1","89","47239.0","93","1024"
"94","94","506","506","black","legacy","legacy","legacy","incongruent","0","undefined","0","h","0","0","0","93","93","0","93","0","93","0","0","0","93","93","93","93","Wed Sep 20 10:45:35 2023","600","The main experiment item","True","Lab2.1.osexp","/Users/test/Desktop","False","mono","False","18","no","white","no","yes","768","legacy","13","79","/Users/test/Downloads/at-subject-1.csv","legacy","Melodramatic Milgram","4.0.5","0","s","NA","space","s","NA","s","403.0","NA","100180","24710","NA","403","2","legacy","1024","2","48000","-16","experiment","SSHSS","1","odd","103450","262894","NA","284119","280456","3124","278412","NA","285159","3252","238183","NA","285262","285666","285156","285262","Lab 2-1","89","47642.0","94","1024"
"94","94","506","506","black","legacy","legacy","legacy","congruent","1","undefined","1","h","0","0","0","94","94","0","94","0","94","0","0","0","94","94","94","94","Wed Sep 20 10:45:35 2023","600","The main experiment item","True","Lab2.1.osexp","/Users/test/Desktop","False","mono","False","18","no","white","no","yes","768","legacy","14","79","/Users/test/Downloads/at-subject-1.csv","legacy","Melodramatic Milgram","4.0.5","0","h","NA","space","s","NA","h","506.0","NA","100180","24710","NA","506","2","legacy","1024","2","48000","-16","experiment","HHHHH","1","odd","103450","262894","NA","286173","285670","3124","278412","NA","287219","3252","238183","NA","287324","287832","287217","287323","Lab 2-1","90","48148.0","95","1024"
"94","94","506","506","black","legacy","legacy","legacy","incongruent","1","undefined","1","h","0","0","0","95","95","0","95","0","95","0","0","0","95","95","95","95","Wed Sep 20 10:45:35 2023","600","The main experiment item","True","Lab2.1.osexp","/Users/test/Desktop","False","mono","False","18","no","white","no","yes","768","legacy","15","79","/Users/test/Downloads/at-subject-1.csv","legacy","Melodramatic Milgram","4.0.5","0","h","NA","space","s","NA","h","509.0","NA","100180","24710","NA","509","2","legacy","1024","2","48000","-16","experiment","SSHSS","1","odd","103450","262894","NA","287835","285670","3124","278412","NA","288890","3252","238183","NA","288993","289503","288887","288992","Lab 2-1","91","48657.0","96","1024"
"94","94","506","506","black","legacy","legacy","legacy","incongruent","1","undefined","1","s","0","0","0","96","96","0","96","0","96","0","0","0","96","96","96","96","Wed Sep 20 10:45:35 2023","600","The main experiment item","True","Lab2.1.osexp","/Users/test/Desktop","False","mono","False","18","no","white","no","yes","768","legacy","16","79","/Users/test/Downloads/at-subject-1.csv","legacy","Melodramatic Milgram","4.0.5","0","s","NA","space","s","NA","s","496.0","NA","100180","24710","NA","496","2","legacy","1024","2","48000","-16","experiment","HHSHH","1","odd","103450","262894","NA","289507","285670","3124","278412","NA","290544","3252","238183","NA","290648","291145","290541","290648","Lab 2-1","92","49153.0","97","1024"
"94","94","508","508","black","legacy","legacy","legacy","incongruent","1","undefined","1","h","0","0","0","97","97","0","97","0","97","0","0","0","97","97","97","97","Wed Sep 20 10:45:35 2023","600","The main experiment item","True","Lab2.1.osexp","/Users/test/Desktop","False","mono","False","18","no","white","no","yes","768","legacy","17","79","/Users/test/Downloads/at-subject-1.csv","legacy","Melodramatic Milgram","4.0.5","0","h","NA","space","s","NA","h","654.0","NA","100180","24710","NA","654","2","legacy","1024","2","48000","-16","experiment","SSHSS","1","odd","103450","262894","NA","291149","285670","3124","278412","NA","292188","3252","238183","NA","292291","292947","292184","292291","Lab 2-1","93","49807.0","98","1024"
"94","94","507","507","black","legacy","legacy","legacy","congruent","1","undefined","1","s","0","0","0","98","98","0","98","0","98","0","0","0","98","98","98","98","Wed Sep 20 10:45:35 2023","600","The main experiment item","True","Lab2.1.osexp","/Users/test/Desktop","False","mono","False","18","no","white","no","yes","768","legacy","18","79","/Users/test/Downloads/at-subject-1.csv","legacy","Melodramatic Milgram","4.0.5","0","s","NA","space","s","NA","s","460.0","NA","100180","24710","NA","460","2","legacy","1024","2","48000","-16","experiment","SSSSS","1","odd","103450","262894","NA","293453","285670","3124","292950","NA","294495","3252","238183","NA","294599","295060","294493","294599","Lab 2-1","94","50267.0","99","1024"
"95","95","506","506","black","legacy","legacy","legacy","congruent","1","undefined","1","h","0","0","0","99","99","0","99","0","99","0","0","0","99","99","99","99","Wed Sep 20 10:45:35 2023","600","The main experiment item","True","Lab2.1.osexp","/Users/test/Desktop","False","mono","False","18","no","white","no","yes","768","legacy","19","79","/Users/test/Downloads/at-subject-1.csv","legacy","Melodramatic Milgram","4.0.5","0","h","NA","space","s","NA","h","416.0","NA","100180","24710","NA","416","2","legacy","1024","2","48000","-16","experiment","HHHHH","1","odd","103450","262894","NA","295064","285670","3124","292950","NA","296110","3252","238183","NA","296213","296631","296107","296213","Lab 2-1","95","50683.0","100","1024"
"94","94","505","505","black","legacy","legacy","legacy","incongruent","0","undefined","0","h","0","0","0","100","100","0","100","0","100","0","0","0","100","100","100","100","Wed Sep 20 10:45:35 2023","600","The main experiment item","True","Lab2.1.osexp","/Users/test/Desktop","False","mono","False","18","no","white","no","yes","768","legacy","20","79","/Users/test/Downloads/at-subject-1.csv","legacy","Melodramatic Milgram","4.0.5","0","s","NA","space","s","NA","s","340.0","NA","100180","24710","NA","340","2","legacy","1024","2","48000","-16","experiment","SSHSS","1","odd","103450","262894","NA","296634","285670","3124","292950","NA","297678","3252","238183","NA","297781","298122","297675","297781","Lab 2-1","95","51023.0","101","1024"
"94","94","506","506","black","legacy","legacy","legacy","incongruent","1","undefined","1","s","0","0","0","101","101","0","101","0","101","0","0","0","101","101","101","101","Wed Sep 20 10:45:35 2023","600","The main experiment item","True","Lab2.1.osexp","/Users/test/Desktop","False","mono","False","18","no","white","no","yes","768","legacy","21","79","/Users/test/Downloads/at-subject-1.csv","legacy","Melodramatic Milgram","4.0.5","0","s","NA","space","s","NA","s","664.0","NA","100180","24710","NA","664","2","legacy","1024","2","48000","-16","experiment","HHSHH","1","odd","103450","262894","NA","298628","298125","3124","292950","NA","299672","3252","238183","NA","299775","300441","299669","299775","Lab 2-1","96","51687.0","102","1024"
"94","94","506","506","black","legacy","legacy","legacy","congruent","1","undefined","1","s","0","0","0","102","102","0","102","0","102","0","0","0","102","102","102","102","Wed Sep 20 10:45:35 2023","600","The main experiment item","True","Lab2.1.osexp","/Users/test/Desktop","False","mono","False","18","no","white","no","yes","768","legacy","22","79","/Users/test/Downloads/at-subject-1.csv","legacy","Melodramatic Milgram","4.0.5","0","s","NA","space","s","NA","s","483.0","NA","100180","24710","NA","483","2","legacy","1024","2","48000","-16","experiment","SSSSS","1","odd","103450","262894","NA","300947","298125","3124","300444","NA","302005","3252","238183","NA","302108","302592","302002","302108","Lab 2-1","97","52170.0","103","1024"
"94","94","506","506","black","legacy","legacy","legacy","congruent","1","undefined","1","s","0","0","0","103","103","0","103","0","103","0","0","0","103","103","103","103","Wed Sep 20 10:45:35 2023","600","The main experiment item","True","Lab2.1.osexp","/Users/test/Desktop","False","mono","False","18","no","white","no","yes","768","legacy","23","79","/Users/test/Downloads/at-subject-1.csv","legacy","Melodramatic Milgram","4.0.5","0","s","NA","space","s","NA","s","470.0","NA","100180","24710","NA","470","2","legacy","1024","2","48000","-16","experiment","SSSSS","1","odd","103450","262894","NA","302596","298125","3124","300444","NA","303644","3252","238183","NA","303748","304219","303642","303748","Lab 2-1","98","52640.0","104","1024"
"94","94","505","505","black","legacy","legacy","legacy","incongruent","1","undefined","1","h","0","0","0","104","104","0","104","0","104","0","0","0","104","104","104","104","Wed Sep 20 10:45:35 2023","600","The main experiment item","True","Lab2.1.osexp","/Users/test/Desktop","False","mono","False","18","no","white","no","yes","768","legacy","24","79","/Users/test/Downloads/at-subject-1.csv","legacy","Melodramatic Milgram","4.0.5","0","h","NA","space","s","NA","h","434.0","NA","100180","24710","NA","434","2","legacy","1024","2","48000","-16","experiment","SSHSS","1","odd","103450","262894","NA","304223","298125","3124","300444","NA","305260","3252","238183","NA","305363","305798","305257","305363","Lab 2-1","99","53074.0","105","1024"
"94","94","504","504","black","legacy","legacy","legacy","incongruent","1","undefined","1","h","0","0","0","105","105","0","105","0","105","0","0","0","105","105","105","105","Wed Sep 20 10:45:35 2023","600","The main experiment item","True","Lab2.1.osexp","/Users/test/Desktop","False","mono","False","18","no","white","no","yes","768","legacy","25","79","/Users/test/Downloads/at-subject-1.csv","legacy","Melodramatic Milgram","4.0.5","0","h","NA","space","s","NA","h","399.0","NA","100180","24710","NA","399","2","legacy","1024","2","48000","-16","experiment","SSHSS","1","odd","103450","262894","NA","305801","298125","3124","300444","NA","306840","3252","238183","NA","306943","307343","306837","306943","Lab 2-1","100","53473.0","106","1024"
"94","94","504","504","black","legacy","legacy","legacy","congruent","1","undefined","1","h","0","0","0","106","106","0","106","0","106","0","0","0","106","106","106","106","Wed Sep 20 10:45:35 2023","600","The main experiment item","True","Lab2.1.osexp","/Users/test/Desktop","False","mono","False","18","no","white","no","yes","768","legacy","26","79","/Users/test/Downloads/at-subject-1.csv","legacy","Melodramatic Milgram","4.0.5","0","h","NA","space","s","NA","h","529.0","NA","100180","24710","NA","529","2","legacy","1024","2","48000","-16","experiment","HHHHH","1","odd","103450","262894","NA","307347","298125","3124","300444","NA","308391","3252","238183","NA","308494","309025","308388","308494","Lab 2-1","101","54002.0","107","1024"
"94","94","504","504","black","legacy","legacy","legacy","incongruent","1","undefined","1","s","0","0","0","107","107","0","107","0","107","0","0","0","107","107","107","107","Wed Sep 20 10:45:35 2023","600","The main experiment item","True","Lab2.1.osexp","/Users/test/Desktop","False","mono","False","18","no","white","no","yes","768","legacy","27","79","/Users/test/Downloads/at-subject-1.csv","legacy","Melodramatic Milgram","4.0.5","0","s","NA","space","s","NA","s","488.0","NA","100180","24710","NA","488","2","legacy","1024","2","48000","-16","experiment","HHSHH","1","odd","103450","262894","NA","309028","298125","3124","300444","NA","310075","3252","238183","NA","310178","310667","310072","310178","Lab 2-1","102","54490.0","108","1024"
"94","94","503","503","black","legacy","legacy","legacy","incongruent","1","undefined","1","s","0","0","0","108","108","0","108","0","108","0","0","0","108","108","108","108","Wed Sep 20 10:45:35 2023","600","The main experiment item","True","Lab2.1.osexp","/Users/test/Desktop","False","mono","False","18","no","white","no","yes","768","legacy","28","79","/Users/test/Downloads/at-subject-1.csv","legacy","Melodramatic Milgram","4.0.5","0","s","NA","space","s","NA","s","417.0","NA","100180","24710","NA","417","2","legacy","1024","2","48000","-16","experiment","HHSHH","1","odd","103450","262894","NA","310671","298125","3124","300444","NA","311714","3252","238183","NA","311817","312235","311711","311817","Lab 2-1","103","54907.0","109","1024"
"94","94","502","502","black","legacy","legacy","legacy","incongruent","1","undefined","1","s","0","0","0","109","109","0","109","0","109","0","0","0","109","109","109","109","Wed Sep 20 10:45:35 2023","600","The main experiment item","True","Lab2.1.osexp","/Users/test/Desktop","False","mono","False","18","no","white","no","yes","768","legacy","29","79","/Users/test/Downloads/at-subject-1.csv","legacy","Melodramatic Milgram","4.0.5","0","s","NA","space","s","NA","s","387.0","NA","100180","24710","NA","387","2","legacy","1024","2","48000","-16","experiment","HHSHH","1","odd","103450","262894","NA","312239","298125","3124","300444","NA","313285","3252","238183","NA","313388","313776","313282","313388","Lab 2-1","104","55294.0","110","1024"
"94","94","502","502","black","legacy","legacy","legacy","incongruent","1","undefined","1","h","0","0","0","110","110","0","110","0","110","0","0","0","110","110","110","110","Wed Sep 20 10:45:35 2023","600","The main experiment item","True","Lab2.1.osexp","/Users/test/Desktop","False","mono","False","18","no","white","no","yes","768","legacy","30","79","/Users/test/Downloads/at-subject-1.csv","legacy","Melodramatic Milgram","4.0.5","0","h","NA","space","s","NA","h","477.0","NA","100180","24710","NA","477","2","legacy","1024","2","48000","-16","experiment","SSHSS","1","odd","103450","262894","NA","313779","298125","3124","300444","NA","314833","3252","238183","NA","314936","315415","314830","314936","Lab 2-1","105","55771.0","111","1024"
"94","94","501","501","black","legacy","legacy","legacy","congruent","1","undefined","1","h","0","0","0","111","111","0","111","0","111","0","0","0","111","111","111","111","Wed Sep 20 10:45:35 2023","600","The main experiment item","True","Lab2.1.osexp","/Users/test/Desktop","False","mono","False","18","no","white","no","yes","768","legacy","31","79","/Users/test/Downloads/at-subject-1.csv","legacy","Melodramatic Milgram","4.0.5","0","h","NA","space","s","NA","h","401.0","NA","100180","24710","NA","401","2","legacy","1024","2","48000","-16","experiment","HHHHH","1","odd","103450","262894","NA","315421","298125","3124","300444","NA","316457","3252","238183","NA","316559","316962","316454","316559","Lab 2-1","106","56172.0","112","1024"
"94","94","501","501","black","legacy","legacy","legacy","incongruent","1","undefined","1","s","0","0","0","112","112","0","112","0","112","0","0","0","112","112","112","112","Wed Sep 20 10:45:35 2023","600","The main experiment item","True","Lab2.1.osexp","/Users/test/Desktop","False","mono","False","18","no","white","no","yes","768","legacy","32","79","/Users/test/Downloads/at-subject-1.csv","legacy","Melodramatic Milgram","4.0.5","0","s","NA","space","s","NA","s","496.0","NA","100180","24710","NA","496","2","legacy","1024","2","48000","-16","experiment","HHSHH","1","odd","103450","262894","NA","316965","298125","3124","300444","NA","318012","3252","238183","NA","318115","318613","318009","318114","Lab 2-1","107","56668.0","113","1024"
"94","94","501","501","black","legacy","legacy","legacy","congruent","1","undefined","1","h","0","0","0","113","113","0","113","0","113","0","0","0","113","113","113","113","Wed Sep 20 10:45:35 2023","600","The main experiment item","True","Lab2.1.osexp","/Users/test/Desktop","False","mono","False","18","no","white","no","yes","768","legacy","33","79","/Users/test/Downloads/at-subject-1.csv","legacy","Melodramatic Milgram","4.0.5","0","h","NA","space","s","NA","h","539.0","NA","100180","24710","NA","539","2","legacy","1024","2","48000","-16","experiment","HHHHH","1","odd","103450","262894","NA","318616","298125","3124","300444","NA","319658","3252","238183","NA","319761","320301","319655","319761","Lab 2-1","108","57207.0","114","1024"
"94","94","502","502","black","legacy","legacy","legacy","incongruent","1","undefined","1","h","0","0","0","114","114","0","114","0","114","0","0","0","114","114","114","114","Wed Sep 20 10:45:35 2023","600","The main experiment item","True","Lab2.1.osexp","/Users/test/Desktop","False","mono","False","18","no","white","no","yes","768","legacy","34","79","/Users/test/Downloads/at-subject-1.csv","legacy","Melodramatic Milgram","4.0.5","0","h","NA","space","s","NA","h","592.0","NA","100180","24710","NA","592","2","legacy","1024","2","48000","-16","experiment","SSHSS","1","odd","103450","262894","NA","320305","298125","3124","300444","NA","321348","3252","238183","NA","321451","322045","321345","321451","Lab 2-1","109","57799.0","115","1024"
"94","94","501","501","black","legacy","legacy","legacy","congruent","1","undefined","1","h","0","0","0","115","115","0","115","0","115","0","0","0","115","115","115","115","Wed Sep 20 10:45:35 2023","600","The main experiment item","True","Lab2.1.osexp","/Users/test/Desktop","False","mono","False","18","no","white","no","yes","768","legacy","35","79","/Users/test/Downloads/at-subject-1.csv","legacy","Melodramatic Milgram","4.0.5","0","h","NA","space","s","NA","h","411.0","NA","100180","24710","NA","411","2","legacy","1024","2","48000","-16","experiment","HHHHH","1","odd","103450","262894","NA","322049","298125","3124","300444","NA","323094","3252","238183","NA","323198","323610","323091","323198","Lab 2-1","110","58210.0","116","1024"
"94","94","501","501","black","legacy","legacy","legacy","congruent","1","undefined","1","s","0","0","0","116","116","0","116","0","116","0","0","0","116","116","116","116","Wed Sep 20 10:45:35 2023","600","The main experiment item","True","Lab2.1.osexp","/Users/test/Desktop","False","mono","False","18","no","white","no","yes","768","legacy","36","79","/Users/test/Downloads/at-subject-1.csv","legacy","Melodramatic Milgram","4.0.5","0","s","NA","space","s","NA","s","475.0","NA","100180","24710","NA","475","2","legacy","1024","2","48000","-16","experiment","SSSSS","1","odd","103450","262894","NA","323613","298125","3124","300444","NA","324659","3252","238183","NA","324763","325239","324656","324762","Lab 2-1","111","58685.0","117","1024"
"94","94","500","500","black","legacy","legacy","legacy","congruent","1","undefined","1","s","0","0","0","117","117","0","117","0","117","0","0","0","117","117","117","117","Wed Sep 20 10:45:35 2023","600","The main experiment item","True","Lab2.1.osexp","/Users/test/Desktop","False","mono","False","18","no","white","no","yes","768","legacy","37","79","/Users/test/Downloads/at-subject-1.csv","legacy","Melodramatic Milgram","4.0.5","0","s","NA","space","s","NA","s","432.0","NA","100180","24710","NA","432","2","legacy","1024","2","48000","-16","experiment","SSSSS","1","odd","103450","262894","NA","325243","298125","3124","300444","NA","326291","3252","238183","NA","326394","326827","326288","326394","Lab 2-1","112","59117.0","118","1024"
"94","94","500","500","black","legacy","legacy","legacy","congruent","1","undefined","1","h","0","0","0","118","118","0","118","0","118","0","0","0","118","118","118","118","Wed Sep 20 10:45:35 2023","600","The main experiment item","True","Lab2.1.osexp","/Users/test/Desktop","False","mono","False","18","no","white","no","yes","768","legacy","38","79","/Users/test/Downloads/at-subject-1.csv","legacy","Melodramatic Milgram","4.0.5","0","h","NA","space","s","NA","h","468.0","NA","100180","24710","NA","468","2","legacy","1024","2","48000","-16","experiment","HHHHH","1","odd","103450","262894","NA","326830","298125","3124","300444","NA","327880","3252","238183","NA","327983","328452","327877","327982","Lab 2-1","113","59585.0","119","1024"
"95","95","499","499","black","legacy","legacy","legacy","congruent","1","undefined","1","s","0","0","0","119","119","0","119","0","119","0","0","0","119","119","119","119","Wed Sep 20 10:45:35 2023","600","The main experiment item","True","Lab2.1.osexp","/Users/test/Desktop","False","mono","False","18","no","white","no","yes","768","legacy","39","79","/Users/test/Downloads/at-subject-1.csv","legacy","Melodramatic Milgram","4.0.5","0","s","NA","space","s","NA","s","381.0","NA","100180","24710","NA","381","2","legacy","1024","2","48000","-16","experiment","SSSSS","1","odd","103450","262894","NA","328455","298125","3124","300444","NA","329492","3252","238183","NA","329595","329978","329488","329595","Lab 2-1","114","59966.0","120","1024"
"95","95","500","500","black","legacy","legacy","legacy","incongruent","1","undefined","1","s","0","0","0","120","120","0","120","0","120","0","0","0","120","120","120","120","Wed Sep 20 10:45:35 2023","600","The main experiment item","True","Lab2.1.osexp","/Users/test/Desktop","False","mono","False","18","no","white","no","yes","768","legacy","40","79","/Users/test/Downloads/at-subject-1.csv","legacy","Melodramatic Milgram","4.0.5","0","s","NA","space","s","NA","s","636.0","NA","100180","24710","NA","636","2","legacy","1024","2","48000","-16","experiment","HHSHH","1","odd","103450","262894","NA","329981","298125","3124","300444","NA","331026","3252","238183","NA","331128","331766","331023","331128","Lab 2-1","115","60602.0","121","1024"
"95","95","501","501","black","legacy","legacy","legacy","incongruent","1","undefined","1","h","0","0","0","121","121","0","121","0","121","0","0","0","121","121","121","121","Wed Sep 20 10:45:35 2023","600","The main experiment item","True","Lab2.1.osexp","/Users/test/Desktop","False","mono","False","18","no","white","no","yes","768","legacy","41","79","/Users/test/Downloads/at-subject-1.csv","legacy","Melodramatic Milgram","4.0.5","0","h","NA","space","s","NA","h","524.0","NA","100180","24710","NA","524","2","legacy","1024","2","48000","-16","experiment","SSHSS","1","odd","103450","262894","NA","332272","298125","3124","331769","NA","333315","3252","238183","NA","333419","333945","333312","333419","Lab 2-1","116","61126.0","122","1024"
"95","95","500","500","black","legacy","legacy","legacy","congruent","1","undefined","1","s","0","0","0","122","122","0","122","0","122","0","0","0","122","122","122","122","Wed Sep 20 10:45:35 2023","600","The main experiment item","True","Lab2.1.osexp","/Users/test/Desktop","False","mono","False","18","no","white","no","yes","768","legacy","42","79","/Users/test/Downloads/at-subject-1.csv","legacy","Melodramatic Milgram","4.0.5","0","s","NA","space","s","NA","s","435.0","NA","100180","24710","NA","435","2","legacy","1024","2","48000","-16","experiment","SSSSS","1","odd","103450","262894","NA","333949","298125","3124","331769","NA","335002","3252","238183","NA","335104","335540","334999","335104","Lab 2-1","117","61561.0","123","1024"
"95","95","499","499","black","legacy","legacy","legacy","incongruent","1","undefined","1","s","0","0","0","123","123","0","123","0","123","0","0","0","123","123","123","123","Wed Sep 20 10:45:35 2023","600","The main experiment item","True","Lab2.1.osexp","/Users/test/Desktop","False","mono","False","18","no","white","no","yes","768","legacy","43","79","/Users/test/Downloads/at-subject-1.csv","legacy","Melodramatic Milgram","4.0.5","0","s","NA","space","s","NA","s","435.0","NA","100180","24710","NA","435","2","legacy","1024","2","48000","-16","experiment","HHSHH","1","odd","103450","262894","NA","335543","298125","3124","331769","NA","336587","3252","238183","NA","336690","337126","336584","336690","Lab 2-1","118","61996.0","124","1024"
"95","95","498","498","black","legacy","legacy","legacy","congruent","1","undefined","1","s","0","0","0","124","124","0","124","0","124","0","0","0","124","124","124","124","Wed Sep 20 10:45:35 2023","600","The main experiment item","True","Lab2.1.osexp","/Users/test/Desktop","False","mono","False","18","no","white","no","yes","768","legacy","44","79","/Users/test/Downloads/at-subject-1.csv","legacy","Melodramatic Milgram","4.0.5","0","s","NA","space","s","NA","s","344.0","NA","100180","24710","NA","344","2","legacy","1024","2","48000","-16","experiment","SSSSS","1","odd","103450","262894","NA","337130","298125","3124","331769","NA","338175","3252","238183","NA","338277","338622","338172","338277","Lab 2-1","119","62340.0","125","1024"
"95","95","497","497","black","legacy","legacy","legacy","incongruent","1","undefined","1","s","0","0","0","125","125","0","125","0","125","0","0","0","125","125","125","125","Wed Sep 20 10:45:35 2023","600","The main experiment item","True","Lab2.1.osexp","/Users/test/Desktop","False","mono","False","18","no","white","no","yes","768","legacy","45","79","/Users/test/Downloads/at-subject-1.csv","legacy","Melodramatic Milgram","4.0.5","0","s","NA","space","s","NA","s","405.0","NA","100180","24710","NA","405","2","legacy","1024","2","48000","-16","experiment","HHSHH","1","odd","103450","262894","NA","338626","298125","3124","331769","NA","339713","3252","238183","NA","339817","340223","339710","339817","Lab 2-1","120","62745.0","126","1024"
"95","95","498","498","black","legacy","legacy","legacy","incongruent","1","undefined","1","h","0","0","0","126","126","0","126","0","126","0","0","0","126","126","126","126","Wed Sep 20 10:45:35 2023","600","The main experiment item","True","Lab2.1.osexp","/Users/test/Desktop","False","mono","False","18","no","white","no","yes","768","legacy","46","79","/Users/test/Downloads/at-subject-1.csv","legacy","Melodramatic Milgram","4.0.5","0","h","NA","space","s","NA","h","517.0","NA","100180","24710","NA","517","2","legacy","1024","2","48000","-16","experiment","SSHSS","1","odd","103450","262894","NA","340227","298125","3124","331769","NA","341263","3252","238183","NA","341366","341884","341260","341366","Lab 2-1","121","63262.0","127","1024"
"95","95","498","498","black","legacy","legacy","legacy","congruent","1","undefined","1","h","0","0","0","127","127","0","127","0","127","0","0","0","127","127","127","127","Wed Sep 20 10:45:35 2023","600","The main experiment item","True","Lab2.1.osexp","/Users/test/Desktop","False","mono","False","18","no","white","no","yes","768","legacy","47","79","/Users/test/Downloads/at-subject-1.csv","legacy","Melodramatic Milgram","4.0.5","0","h","NA","space","s","NA","h","483.0","NA","100180","24710","NA","483","2","legacy","1024","2","48000","-16","experiment","HHHHH","1","odd","103450","262894","NA","341888","298125","3124","331769","NA","342926","3252","238183","NA","343029","343513","342923","343028","Lab 2-1","122","63745.0","128","1024"
"95","95","498","498","black","legacy","legacy","legacy","incongruent","1","undefined","1","s","0","0","0","128","128","0","128","0","128","0","0","0","128","128","128","128","Wed Sep 20 10:45:35 2023","600","The main experiment item","True","Lab2.1.osexp","/Users/test/Desktop","False","mono","False","18","no","white","no","yes","768","legacy","48","79","/Users/test/Downloads/at-subject-1.csv","legacy","Melodramatic Milgram","4.0.5","0","s","NA","space","s","NA","s","511.0","NA","100180","24710","NA","511","2","legacy","1024","2","48000","-16","experiment","HHSHH","1","odd","103450","262894","NA","343517","298125","3124","331769","NA","344561","3252","238183","NA","344665","345177","344558","344664","Lab 2-1","123","64256.0","129","1024"
"95","95","497","497","black","legacy","legacy","legacy","congruent","1","undefined","1","h","0","0","0","129","129","0","129","0","129","0","0","0","129","129","129","129","Wed Sep 20 10:45:35 2023","600","The main experiment item","True","Lab2.1.osexp","/Users/test/Desktop","False","mono","False","18","no","white","no","yes","768","legacy","49","79","/Users/test/Downloads/at-subject-1.csv","legacy","Melodramatic Milgram","4.0.5","0","h","NA","space","s","NA","h","414.0","NA","100180","24710","NA","414","2","legacy","1024","2","48000","-16","experiment","HHHHH","1","odd","103450","262894","NA","345181","298125","3124","331769","NA","346224","3252","238183","NA","346327","346742","346221","346326","Lab 2-1","124","64670.0","130","1024"
"95","95","496","496","black","legacy","legacy","legacy","incongruent","1","undefined","1","h","0","0","0","130","130","0","130","0","130","0","0","0","130","130","130","130","Wed Sep 20 10:45:35 2023","600","The main experiment item","True","Lab2.1.osexp","/Users/test/Desktop","False","mono","False","18","no","white","no","yes","768","legacy","50","79","/Users/test/Downloads/at-subject-1.csv","legacy","Melodramatic Milgram","4.0.5","0","h","NA","space","s","NA","h","422.0","NA","100180","24710","NA","422","2","legacy","1024","2","48000","-16","experiment","SSHSS","1","odd","103450","262894","NA","346746","298125","3124","331769","NA","347790","3252","238183","NA","347893","348316","347787","347893","Lab 2-1","125","65092.0","131","1024"
"95","95","495","495","black","legacy","legacy","legacy","congruent","1","undefined","1","h","0","0","0","131","131","0","131","0","131","0","0","0","131","131","131","131","Wed Sep 20 10:45:35 2023","600","The main experiment item","True","Lab2.1.osexp","/Users/test/Desktop","False","mono","False","18","no","white","no","yes","768","legacy","51","79","/Users/test/Downloads/at-subject-1.csv","legacy","Melodramatic Milgram","4.0.5","0","h","NA","space","s","NA","h","372.0","NA","100180","24710","NA","372","2","legacy","1024","2","48000","-16","experiment","HHHHH","1","odd","103450","262894","NA","348319","298125","3124","331769","NA","349364","3252","238183","NA","349467","349841","349361","349467","Lab 2-1","126","65464.0","132","1024"
"95","95","495","495","black","legacy","legacy","legacy","congruent","1","undefined","1","s","0","0","0","132","132","0","132","0","132","0","0","0","132","132","132","132","Wed Sep 20 10:45:35 2023","600","The main experiment item","True","Lab2.1.osexp","/Users/test/Desktop","False","mono","False","18","no","white","no","yes","768","legacy","52","79","/Users/test/Downloads/at-subject-1.csv","legacy","Melodramatic Milgram","4.0.5","0","s","NA","space","s","NA","s","382.0","NA","100180","24710","NA","382","2","legacy","1024","2","48000","-16","experiment","SSSSS","1","odd","103450","262894","NA","349844","298125","3124","331769","NA","350888","3252","238183","NA","350991","351374","350885","350991","Lab 2-1","127","65846.0","133","1024"
"95","95","494","494","black","legacy","legacy","legacy","incongruent","1","undefined","1","h","0","0","0","133","133","0","133","0","133","0","0","0","133","133","133","133","Wed Sep 20 10:45:35 2023","600","The main experiment item","True","Lab2.1.osexp","/Users/test/Desktop","False","mono","False","18","no","white","no","yes","768","legacy","53","79","/Users/test/Downloads/at-subject-1.csv","legacy","Melodramatic Milgram","4.0.5","0","h","NA","space","s","NA","h","415.0","NA","100180","24710","NA","415","2","legacy","1024","2","48000","-16","experiment","SSHSS","1","odd","103450","262894","NA","351377","298125","3124","331769","NA","352426","3252","238183","NA","352529","352946","352423","352529","Lab 2-1","128","66261.0","134","1024"
