acc,accuracy,average_response_time,avg_rt,background,canvas_backend,clock_backend,color_backend,condition,correct,correct_instructions1,correct_keyboard_response,correct_response,count_ISI,count_block1,count_block2,count_block3,count_errorFeedback,count_experiment,count_faster,count_fixation,count_getting_started,count_instructions1,count_instructions2,count_instructions3,count_keyboard_response,count_logger,count_new_sketchpad,count_sequence,count_stimulus,count_welcome,datetime,deadline,description,disable_garbage_collection,experiment_file,experiment_path,font_bold,font_family,font_italic,font_size,font_underline,foreground,form_clicks,fullscreen,height,keyboard_backend,live_row,live_row_block1,logfile,mouse_backend,opensesame_codename,opensesame_version,repeat_cycle,response,response_instructions1,response_instructions2,response_instructions3,response_keyboard_response,response_new_sketchpad,response_time,response_time_instructions1,response_time_instructions2,response_time_instructions3,response_time_keyboard_response,response_time_new_sketchpad,response_time_welcome,response_welcome,round_decimals,sampler_backend,sound_buf_size,sound_channels,sound_freq,sound_sample_size,start,stimulus,subject_nr,subject_parity,time_ISI,time_block1,time_block2,time_block3,time_errorFeedback,time_experiment,time_faster,time_fixation,time_getting_started,time_instructions1,time_instructions2,time_instructions3,time_keyboard_response,time_logger,time_new_sketchpad,time_sequence,time_stimulus,time_welcome,title,total_correct,total_response_time,total_responses,width
100,100,627,627,#3d3846,legacy,legacy,legacy,congruent,1,undefined,1,h,0,0,0,0,0,0,0,0,NA,0,0,0,0,0,0,0,0,NA,Sun Sep 24 20:27:29 2023,1500,The main experiment item,FALSE,FlankerTask.osexp,C:\Users\backs\OneDrive\Documents,FALSE,mono,FALSE,18,no,white,no,yes,768,legacy,0,0,C:/Users/backs/OneDrive/Documents/BZ-subject-3.csv,legacy,Melodramatic Milgram,4.0.5,0,h,s,NA,NA,h,NA,627,2200,NA,NA,627,NA,NA,NA,2,legacy,1024,2,48000,-16,experiment,HHHHH,3,odd,NA,5274,NA,NA,NA,3068,NA,5348,NA,3072,NA,NA,5449,6077,NA,5347,5449,NA,Flanker Task ,1,627,1,1024
100,100,548,548,#3d3846,legacy,legacy,legacy,congruent,1,undefined,1,s,1,0,0,0,1,0,1,1,NA,0,0,0,1,1,0,1,1,NA,Sun Sep 24 20:27:29 2023,1500,The main experiment item,FALSE,FlankerTask.osexp,C:\Users\backs\OneDrive\Documents,FALSE,mono,FALSE,18,no,white,no,yes,768,legacy,1,1,C:/Users/backs/OneDrive/Documents/BZ-subject-3.csv,legacy,Melodramatic Milgram,4.0.5,0,s,s,NA,NA,s,NA,469,2200,NA,NA,469,NA,NA,NA,2,legacy,1024,2,48000,-16,experiment,SSSSS,3,odd,6085,5274,NA,NA,NA,3068,NA,7132,NA,3072,NA,NA,7233,7703,NA,7131,7233,NA,Flanker Task ,2,1096,2,1024
100,100,514,514,#3d3846,legacy,legacy,legacy,congruent,1,undefined,1,s,2,0,0,0,2,0,2,2,NA,0,0,0,2,2,0,2,2,NA,Sun Sep 24 20:27:29 2023,1500,The main experiment item,FALSE,FlankerTask.osexp,C:\Users\backs\OneDrive\Documents,FALSE,mono,FALSE,18,no,white,no,yes,768,legacy,2,2,C:/Users/backs/OneDrive/Documents/BZ-subject-3.csv,legacy,Melodramatic Milgram,4.0.5,0,s,s,NA,NA,s,NA,448,2200,NA,NA,448,NA,NA,NA,2,legacy,1024,2,48000,-16,experiment,SSSSS,3,odd,7708,5274,NA,NA,NA,3068,NA,8751,NA,3072,NA,NA,8852,9301,NA,8750,8852,NA,Flanker Task ,3,1544,3,1024
100,100,504,504,#3d3846,legacy,legacy,legacy,congruent,1,undefined,1,h,3,0,0,0,3,0,3,3,NA,0,0,0,3,3,0,3,3,NA,Sun Sep 24 20:27:29 2023,1500,The main experiment item,FALSE,FlankerTask.osexp,C:\Users\backs\OneDrive\Documents,FALSE,mono,FALSE,18,no,white,no,yes,768,legacy,3,3,C:/Users/backs/OneDrive/Documents/BZ-subject-3.csv,legacy,Melodramatic Milgram,4.0.5,0,h,s,NA,NA,h,NA,473,2200,NA,NA,473,NA,NA,NA,2,legacy,1024,2,48000,-16,experiment,HHHHH,3,odd,9304,5274,NA,NA,NA,3068,NA,10358,NA,3072,NA,NA,10459,10932,NA,10356,10459,NA,Flanker Task ,4,2017,4,1024
100,100,518,518,#3d3846,legacy,legacy,legacy,incongruent,1,undefined,1,s,4,0,0,0,4,0,4,4,NA,0,0,0,4,4,0,4,4,NA,Sun Sep 24 20:27:29 2023,1500,The main experiment item,FALSE,FlankerTask.osexp,C:\Users\backs\OneDrive\Documents,FALSE,mono,FALSE,18,no,white,no,yes,768,legacy,4,4,C:/Users/backs/OneDrive/Documents/BZ-subject-3.csv,legacy,Melodramatic Milgram,4.0.5,0,s,s,NA,NA,s,NA,576,2200,NA,NA,576,NA,NA,NA,2,legacy,1024,2,48000,-16,experiment,HHSHH,3,odd,10936,5274,NA,NA,NA,3068,NA,12015,NA,3072,NA,NA,12116,12693,NA,12013,12116,NA,Flanker Task ,5,2593,5,1024
100,100,515,515,#3d3846,legacy,legacy,legacy,congruent,1,undefined,1,s,5,0,0,0,5,0,5,5,NA,0,0,0,5,5,0,5,5,NA,Sun Sep 24 20:27:29 2023,1500,The main experiment item,FALSE,FlankerTask.osexp,C:\Users\backs\OneDrive\Documents,FALSE,mono,FALSE,18,no,white,no,yes,768,legacy,5,5,C:/Users/backs/OneDrive/Documents/BZ-subject-3.csv,legacy,Melodramatic Milgram,4.0.5,0,s,s,NA,NA,s,NA,498,2200,NA,NA,498,NA,NA,NA,2,legacy,1024,2,48000,-16,experiment,SSSSS,3,odd,12698,5274,NA,NA,NA,3068,NA,13757,NA,3072,NA,NA,13859,14358,NA,13755,13859,NA,Flanker Task ,6,3091,6,1024
100,100,553,553,#3d3846,legacy,legacy,legacy,congruent,1,undefined,1,s,6,0,0,0,6,0,6,6,NA,0,0,0,6,6,0,6,6,NA,Sun Sep 24 20:27:29 2023,1500,The main experiment item,FALSE,FlankerTask.osexp,C:\Users\backs\OneDrive\Documents,FALSE,mono,FALSE,18,no,white,no,yes,768,legacy,6,6,C:/Users/backs/OneDrive/Documents/BZ-subject-3.csv,legacy,Melodramatic Milgram,4.0.5,0,s,s,NA,NA,s,NA,782,2200,NA,NA,782,NA,NA,NA,2,legacy,1024,2,48000,-16,experiment,SSSSS,3,odd,14361,5274,NA,NA,NA,3068,NA,15415,NA,3072,NA,NA,15517,16299,NA,15414,15517,NA,Flanker Task ,7,3873,7,1024
100,100,561,561,#3d3846,legacy,legacy,legacy,incongruent,1,undefined,1,h,7,0,0,0,7,0,7,7,NA,0,0,0,7,7,0,7,7,NA,Sun Sep 24 20:27:29 2023,1500,The main experiment item,FALSE,FlankerTask.osexp,C:\Users\backs\OneDrive\Documents,FALSE,mono,FALSE,18,no,white,no,yes,768,legacy,7,7,C:/Users/backs/OneDrive/Documents/BZ-subject-3.csv,legacy,Melodramatic Milgram,4.0.5,0,h,s,NA,NA,h,NA,618,2200,NA,NA,618,NA,NA,NA,2,legacy,1024,2,48000,-16,experiment,SSHSS,3,odd,16302,5274,NA,NA,NA,3068,NA,17350,NA,3072,NA,NA,17451,18069,NA,17349,17451,NA,Flanker Task ,8,4491,8,1024
100,100,578,578,#3d3846,legacy,legacy,legacy,incongruent,1,undefined,1,h,8,0,0,0,8,0,8,8,NA,0,0,0,8,8,0,8,8,NA,Sun Sep 24 20:27:29 2023,1500,The main experiment item,FALSE,FlankerTask.osexp,C:\Users\backs\OneDrive\Documents,FALSE,mono,FALSE,18,no,white,no,yes,768,legacy,8,8,C:/Users/backs/OneDrive/Documents/BZ-subject-3.csv,legacy,Melodramatic Milgram,4.0.5,0,h,s,NA,NA,h,NA,717,2200,NA,NA,717,NA,NA,NA,2,legacy,1024,2,48000,-16,experiment,SSHSS,3,odd,18074,5274,NA,NA,NA,3068,NA,19133,NA,3072,NA,NA,19234,19951,NA,19132,19234,NA,Flanker Task ,9,5208,9,1024
100,100,561,561,#3d3846,legacy,legacy,legacy,incongruent,1,undefined,1,s,9,0,0,0,9,0,9,9,NA,0,0,0,9,9,0,9,9,NA,Sun Sep 24 20:27:29 2023,1500,The main experiment item,FALSE,FlankerTask.osexp,C:\Users\backs\OneDrive\Documents,FALSE,mono,FALSE,18,no,white,no,yes,768,legacy,9,9,C:/Users/backs/OneDrive/Documents/BZ-subject-3.csv,legacy,Melodramatic Milgram,4.0.5,0,s,s,NA,NA,s,NA,406,2200,NA,NA,406,NA,NA,NA,2,legacy,1024,2,48000,-16,experiment,HHSHH,3,odd,19957,5274,NA,NA,NA,3068,NA,21009,NA,3072,NA,NA,21110,21517,NA,21007,21110,NA,Flanker Task ,10,5614,10,1024
100,100,552,552,#3d3846,legacy,legacy,legacy,incongruent,1,undefined,1,h,10,0,0,0,10,0,10,10,NA,0,0,0,10,10,0,10,10,NA,Sun Sep 24 20:27:29 2023,1500,The main experiment item,FALSE,FlankerTask.osexp,C:\Users\backs\OneDrive\Documents,FALSE,mono,FALSE,18,no,white,no,yes,768,legacy,10,10,C:/Users/backs/OneDrive/Documents/BZ-subject-3.csv,legacy,Melodramatic Milgram,4.0.5,0,h,s,NA,NA,h,NA,459,2200,NA,NA,459,NA,NA,NA,2,legacy,1024,2,48000,-16,experiment,SSHSS,3,odd,21521,5274,NA,NA,NA,3068,NA,22571,NA,3072,NA,NA,22672,23132,NA,22570,22672,NA,Flanker Task ,11,6073,11,1024
100,100,549,549,#3d3846,legacy,legacy,legacy,congruent,1,undefined,1,h,11,0,0,0,11,0,11,11,NA,0,0,0,11,11,0,11,11,NA,Sun Sep 24 20:27:29 2023,1500,The main experiment item,FALSE,FlankerTask.osexp,C:\Users\backs\OneDrive\Documents,FALSE,mono,FALSE,18,no,white,no,yes,768,legacy,11,11,C:/Users/backs/OneDrive/Documents/BZ-subject-3.csv,legacy,Melodramatic Milgram,4.0.5,0,h,s,NA,NA,h,NA,525,2200,NA,NA,525,NA,NA,NA,2,legacy,1024,2,48000,-16,experiment,HHHHH,3,odd,23135,5274,NA,NA,NA,3068,NA,24203,NA,3072,NA,NA,24305,24831,NA,24201,24305,NA,Flanker Task ,12,6598,12,1024
100,100,565,565,#3d3846,legacy,legacy,legacy,congruent,1,undefined,1,h,12,0,0,0,12,0,12,12,NA,0,0,0,12,12,0,12,12,NA,Sun Sep 24 20:27:29 2023,1500,The main experiment item,FALSE,FlankerTask.osexp,C:\Users\backs\OneDrive\Documents,FALSE,mono,FALSE,18,no,white,no,yes,768,legacy,12,12,C:/Users/backs/OneDrive/Documents/BZ-subject-3.csv,legacy,Melodramatic Milgram,4.0.5,0,h,s,NA,NA,h,NA,751,2200,NA,NA,751,NA,NA,NA,2,legacy,1024,2,48000,-16,experiment,HHHHH,3,odd,24834,5274,NA,NA,NA,3068,NA,25888,NA,3072,NA,NA,25990,26741,NA,25887,25990,NA,Flanker Task ,13,7349,13,1024
100,100,565,565,#3d3846,legacy,legacy,legacy,congruent,1,undefined,1,s,13,0,0,0,13,0,13,13,NA,0,0,0,13,13,0,13,13,NA,Sun Sep 24 20:27:29 2023,1500,The main experiment item,FALSE,FlankerTask.osexp,C:\Users\backs\OneDrive\Documents,FALSE,mono,FALSE,18,no,white,no,yes,768,legacy,13,13,C:/Users/backs/OneDrive/Documents/BZ-subject-3.csv,legacy,Melodramatic Milgram,4.0.5,0,s,s,NA,NA,s,NA,572,2200,NA,NA,572,NA,NA,NA,2,legacy,1024,2,48000,-16,experiment,SSSSS,3,odd,26747,5274,NA,NA,NA,3068,NA,27805,NA,3072,NA,NA,27906,28479,NA,27803,27906,NA,Flanker Task ,14,7921,14,1024
100,100,565,565,#3d3846,legacy,legacy,legacy,incongruent,1,undefined,1,h,14,0,0,0,14,0,14,14,NA,0,0,0,14,14,0,14,14,NA,Sun Sep 24 20:27:29 2023,1500,The main experiment item,FALSE,FlankerTask.osexp,C:\Users\backs\OneDrive\Documents,FALSE,mono,FALSE,18,no,white,no,yes,768,legacy,14,14,C:/Users/backs/OneDrive/Documents/BZ-subject-3.csv,legacy,Melodramatic Milgram,4.0.5,0,h,s,NA,NA,h,NA,568,2200,NA,NA,568,NA,NA,NA,2,legacy,1024,2,48000,-16,experiment,SSHSS,3,odd,28483,5274,NA,NA,NA,3068,NA,29533,NA,3072,NA,NA,29634,30203,NA,29532,29634,NA,Flanker Task ,15,8489,15,1024
100,100,567,567,#3d3846,legacy,legacy,legacy,incongruent,1,undefined,1,h,15,0,0,0,15,0,15,15,NA,0,0,0,15,15,0,15,15,NA,Sun Sep 24 20:27:29 2023,1500,The main experiment item,FALSE,FlankerTask.osexp,C:\Users\backs\OneDrive\Documents,FALSE,mono,FALSE,18,no,white,no,yes,768,legacy,15,15,C:/Users/backs/OneDrive/Documents/BZ-subject-3.csv,legacy,Melodramatic Milgram,4.0.5,0,h,s,NA,NA,h,NA,586,2200,NA,NA,586,NA,NA,NA,2,legacy,1024,2,48000,-16,experiment,SSHSS,3,odd,30207,5274,NA,NA,NA,3068,NA,31261,NA,3072,NA,NA,31362,31949,NA,31260,31362,NA,Flanker Task ,16,9075,16,1024
100,100,560,560,#3d3846,legacy,legacy,legacy,congruent,1,undefined,1,s,16,0,0,0,16,0,16,16,NA,0,0,0,16,16,0,16,16,NA,Sun Sep 24 20:27:29 2023,1500,The main experiment item,FALSE,FlankerTask.osexp,C:\Users\backs\OneDrive\Documents,FALSE,mono,FALSE,18,no,white,no,yes,768,legacy,16,16,C:/Users/backs/OneDrive/Documents/BZ-subject-3.csv,legacy,Melodramatic Milgram,4.0.5,0,s,s,NA,NA,s,NA,453,2200,NA,NA,453,NA,NA,NA,2,legacy,1024,2,48000,-16,experiment,SSSSS,3,odd,31951,5274,NA,NA,NA,3068,NA,32998,NA,3072,NA,NA,33099,33553,NA,32996,33099,NA,Flanker Task ,17,9528,17,1024
100,100,558,558,#3d3846,legacy,legacy,legacy,congruent,1,undefined,1,s,17,0,0,0,17,0,17,17,NA,0,0,0,17,17,0,17,17,NA,Sun Sep 24 20:27:29 2023,1500,The main experiment item,FALSE,FlankerTask.osexp,C:\Users\backs\OneDrive\Documents,FALSE,mono,FALSE,18,no,white,no,yes,768,legacy,17,17,C:/Users/backs/OneDrive/Documents/BZ-subject-3.csv,legacy,Melodramatic Milgram,4.0.5,0,s,s,NA,NA,s,NA,533,2200,NA,NA,533,NA,NA,NA,2,legacy,1024,2,48000,-16,experiment,SSSSS,3,odd,33558,5274,NA,NA,NA,3068,NA,34588,NA,3072,NA,NA,34689,35222,NA,34587,34689,NA,Flanker Task ,18,10061,18,1024
100,100,564,564,#3d3846,legacy,legacy,legacy,incongruent,1,undefined,1,h,18,0,0,0,18,0,18,18,NA,0,0,0,18,18,0,18,18,NA,Sun Sep 24 20:27:29 2023,1500,The main experiment item,FALSE,FlankerTask.osexp,C:\Users\backs\OneDrive\Documents,FALSE,mono,FALSE,18,no,white,no,yes,768,legacy,18,18,C:/Users/backs/OneDrive/Documents/BZ-subject-3.csv,legacy,Melodramatic Milgram,4.0.5,0,h,s,NA,NA,h,NA,673,2200,NA,NA,673,NA,NA,NA,2,legacy,1024,2,48000,-16,experiment,SSHSS,3,odd,35226,5274,NA,NA,NA,3068,NA,36262,NA,3072,NA,NA,36363,37037,NA,36261,36363,NA,Flanker Task ,19,10734,19,1024
100,100,564,564,#3d3846,legacy,legacy,legacy,incongruent,1,undefined,1,s,19,0,0,0,19,0,19,19,NA,0,0,0,19,19,0,19,19,NA,Sun Sep 24 20:27:29 2023,1500,The main experiment item,FALSE,FlankerTask.osexp,C:\Users\backs\OneDrive\Documents,FALSE,mono,FALSE,18,no,white,no,yes,768,legacy,19,19,C:/Users/backs/OneDrive/Documents/BZ-subject-3.csv,legacy,Melodramatic Milgram,4.0.5,0,s,s,NA,NA,s,NA,550,2200,NA,NA,550,NA,NA,NA,2,legacy,1024,2,48000,-16,experiment,HHSHH,3,odd,37040,5274,NA,NA,NA,3068,NA,38087,NA,3072,NA,NA,38188,38739,NA,38085,38188,NA,Flanker Task ,20,11284,20,1024
100,100,565,565,#3d3846,legacy,legacy,legacy,incongruent,1,undefined,1,s,20,0,0,0,20,0,20,20,NA,0,0,0,20,20,0,20,20,NA,Sun Sep 24 20:27:29 2023,1500,The main experiment item,FALSE,FlankerTask.osexp,C:\Users\backs\OneDrive\Documents,FALSE,mono,FALSE,18,no,white,no,yes,768,legacy,20,20,C:/Users/backs/OneDrive/Documents/BZ-subject-3.csv,legacy,Melodramatic Milgram,4.0.5,0,s,s,NA,NA,s,NA,594,2200,NA,NA,594,NA,NA,NA,2,legacy,1024,2,48000,-16,experiment,HHSHH,3,odd,38744,5274,NA,NA,NA,3068,NA,39782,NA,3072,NA,NA,39883,40478,NA,39781,39883,NA,Flanker Task ,21,11878,21,1024
100,100,570,570,#3d3846,legacy,legacy,legacy,incongruent,1,undefined,1,s,21,0,0,0,21,0,21,21,NA,0,0,0,21,21,0,21,21,NA,Sun Sep 24 20:27:29 2023,1500,The main experiment item,FALSE,FlankerTask.osexp,C:\Users\backs\OneDrive\Documents,FALSE,mono,FALSE,18,no,white,no,yes,768,legacy,21,21,C:/Users/backs/OneDrive/Documents/BZ-subject-3.csv,legacy,Melodramatic Milgram,4.0.5,0,s,s,NA,NA,s,NA,665,2200,NA,NA,665,NA,NA,NA,2,legacy,1024,2,48000,-16,experiment,HHSHH,3,odd,40482,5274,NA,NA,NA,3068,NA,41520,NA,3072,NA,NA,41621,42287,NA,41519,41621,NA,Flanker Task ,22,12543,22,1024
100,100,567,567,#3d3846,legacy,legacy,legacy,congruent,1,undefined,1,s,22,0,0,0,22,0,22,22,NA,0,0,0,22,22,0,22,22,NA,Sun Sep 24 20:27:29 2023,1500,The main experiment item,FALSE,FlankerTask.osexp,C:\Users\backs\OneDrive\Documents,FALSE,mono,FALSE,18,no,white,no,yes,768,legacy,22,22,C:/Users/backs/OneDrive/Documents/BZ-subject-3.csv,legacy,Melodramatic Milgram,4.0.5,0,s,s,NA,NA,s,NA,510,2200,NA,NA,510,NA,NA,NA,2,legacy,1024,2,48000,-16,experiment,SSSSS,3,odd,42292,5274,NA,NA,NA,3068,NA,43338,NA,3072,NA,NA,43440,43951,NA,43337,43440,NA,Flanker Task ,23,13053,23,1024
100,100,571,571,#3d3846,legacy,legacy,legacy,incongruent,1,undefined,1,s,23,0,0,0,23,0,23,23,NA,0,0,0,23,23,0,23,23,NA,Sun Sep 24 20:27:29 2023,1500,The main experiment item,FALSE,FlankerTask.osexp,C:\Users\backs\OneDrive\Documents,FALSE,mono,FALSE,18,no,white,no,yes,768,legacy,23,23,C:/Users/backs/OneDrive/Documents/BZ-subject-3.csv,legacy,Melodramatic Milgram,4.0.5,0,s,s,NA,NA,s,NA,656,2200,NA,NA,656,NA,NA,NA,2,legacy,1024,2,48000,-16,experiment,HHSHH,3,odd,43954,5274,NA,NA,NA,3068,NA,45003,NA,3072,NA,NA,45104,45761,NA,45002,45104,NA,Flanker Task ,24,13709,24,1024
100,100,574,574,#3d3846,legacy,legacy,legacy,congruent,1,undefined,1,h,24,0,0,0,24,0,24,24,NA,0,0,0,24,24,0,24,24,NA,Sun Sep 24 20:27:29 2023,1500,The main experiment item,FALSE,FlankerTask.osexp,C:\Users\backs\OneDrive\Documents,FALSE,mono,FALSE,18,no,white,no,yes,768,legacy,24,24,C:/Users/backs/OneDrive/Documents/BZ-subject-3.csv,legacy,Melodramatic Milgram,4.0.5,0,h,s,NA,NA,h,NA,646,2200,NA,NA,646,NA,NA,NA,2,legacy,1024,2,48000,-16,experiment,HHHHH,3,odd,45764,5274,NA,NA,NA,3068,NA,46814,NA,3072,NA,NA,46914,47561,NA,46812,46914,NA,Flanker Task ,25,14355,25,1024
100,100,575,575,#3d3846,legacy,legacy,legacy,congruent,1,undefined,1,h,25,0,0,0,25,0,25,25,NA,0,0,0,25,25,0,25,25,NA,Sun Sep 24 20:27:29 2023,1500,The main experiment item,FALSE,FlankerTask.osexp,C:\Users\backs\OneDrive\Documents,FALSE,mono,FALSE,18,no,white,no,yes,768,legacy,25,25,C:/Users/backs/OneDrive/Documents/BZ-subject-3.csv,legacy,Melodramatic Milgram,4.0.5,0,h,s,NA,NA,h,NA,602,2200,NA,NA,602,NA,NA,NA,2,legacy,1024,2,48000,-16,experiment,HHHHH,3,odd,47566,5274,NA,NA,NA,3068,NA,48611,NA,3072,NA,NA,48712,49315,NA,48609,48712,NA,Flanker Task ,26,14957,26,1024
100,100,571,571,#3d3846,legacy,legacy,legacy,congruent,1,undefined,1,s,26,0,0,0,26,0,26,26,NA,0,0,0,26,26,0,26,26,NA,Sun Sep 24 20:27:29 2023,1500,The main experiment item,FALSE,FlankerTask.osexp,C:\Users\backs\OneDrive\Documents,FALSE,mono,FALSE,18,no,white,no,yes,768,legacy,26,26,C:/Users/backs/OneDrive/Documents/BZ-subject-3.csv,legacy,Melodramatic Milgram,4.0.5,0,s,s,NA,NA,s,NA,485,2200,NA,NA,485,NA,NA,NA,2,legacy,1024,2,48000,-16,experiment,SSSSS,3,odd,49319,5274,NA,NA,NA,3068,NA,50361,NA,3072,NA,NA,50462,50948,NA,50359,50462,NA,Flanker Task ,27,15442,27,1024
100,100,570,570,#3d3846,legacy,legacy,legacy,incongruent,1,undefined,1,h,27,0,0,0,27,0,27,27,NA,0,0,0,27,27,0,27,27,NA,Sun Sep 24 20:27:29 2023,1500,The main experiment item,FALSE,FlankerTask.osexp,C:\Users\backs\OneDrive\Documents,FALSE,mono,FALSE,18,no,white,no,yes,768,legacy,27,27,C:/Users/backs/OneDrive/Documents/BZ-subject-3.csv,legacy,Melodramatic Milgram,4.0.5,0,h,s,NA,NA,h,NA,528,2200,NA,NA,528,NA,NA,NA,2,legacy,1024,2,48000,-16,experiment,SSHSS,3,odd,50952,5274,NA,NA,NA,3068,NA,51997,NA,3072,NA,NA,52098,52627,NA,51996,52098,NA,Flanker Task ,28,15970,28,1024
100,100,568,568,#3d3846,legacy,legacy,legacy,congruent,1,undefined,1,h,28,0,0,0,28,0,28,28,NA,0,0,0,28,28,0,28,28,NA,Sun Sep 24 20:27:29 2023,1500,The main experiment item,FALSE,FlankerTask.osexp,C:\Users\backs\OneDrive\Documents,FALSE,mono,FALSE,18,no,white,no,yes,768,legacy,28,28,C:/Users/backs/OneDrive/Documents/BZ-subject-3.csv,legacy,Melodramatic Milgram,4.0.5,0,h,s,NA,NA,h,NA,509,2200,NA,NA,509,NA,NA,NA,2,legacy,1024,2,48000,-16,experiment,HHHHH,3,odd,52632,5274,NA,NA,NA,3068,NA,53679,NA,3072,NA,NA,53780,54290,NA,53678,53780,NA,Flanker Task ,29,16479,29,1024
100,100,566,566,#3d3846,legacy,legacy,legacy,congruent,1,undefined,1,s,29,0,0,0,29,0,29,29,NA,0,0,0,29,29,0,29,29,NA,Sun Sep 24 20:27:29 2023,1500,The main experiment item,FALSE,FlankerTask.osexp,C:\Users\backs\OneDrive\Documents,FALSE,mono,FALSE,18,no,white,no,yes,768,legacy,29,29,C:/Users/backs/OneDrive/Documents/BZ-subject-3.csv,legacy,Melodramatic Milgram,4.0.5,0,s,s,NA,NA,s,NA,511,2200,NA,NA,511,NA,NA,NA,2,legacy,1024,2,48000,-16,experiment,SSSSS,3,odd,54294,5274,NA,NA,NA,3068,NA,55349,NA,3072,NA,NA,55450,55962,NA,55347,55450,NA,Flanker Task ,30,16990,30,1024
100,100,563,563,#3d3846,legacy,legacy,legacy,congruent,1,undefined,1,h,30,0,0,0,30,0,30,30,NA,0,0,0,30,30,0,30,30,NA,Sun Sep 24 20:27:29 2023,1500,The main experiment item,FALSE,FlankerTask.osexp,C:\Users\backs\OneDrive\Documents,FALSE,mono,FALSE,18,no,white,no,yes,768,legacy,30,30,C:/Users/backs/OneDrive/Documents/BZ-subject-3.csv,legacy,Melodramatic Milgram,4.0.5,0,h,s,NA,NA,h,NA,466,2200,NA,NA,466,NA,NA,NA,2,legacy,1024,2,48000,-16,experiment,HHHHH,3,odd,55966,5274,NA,NA,NA,3068,NA,57020,NA,3072,NA,NA,57122,57589,NA,57018,57122,NA,Flanker Task ,31,17456,31,1024
100,100,560,560,#3d3846,legacy,legacy,legacy,incongruent,1,undefined,1,s,31,0,0,0,31,0,31,31,NA,0,0,0,31,31,0,31,31,NA,Sun Sep 24 20:27:29 2023,1500,The main experiment item,FALSE,FlankerTask.osexp,C:\Users\backs\OneDrive\Documents,FALSE,mono,FALSE,18,no,white,no,yes,768,legacy,31,31,C:/Users/backs/OneDrive/Documents/BZ-subject-3.csv,legacy,Melodramatic Milgram,4.0.5,0,s,s,NA,NA,s,NA,485,2200,NA,NA,485,NA,NA,NA,2,legacy,1024,2,48000,-16,experiment,HHSHH,3,odd,57595,5274,NA,NA,NA,3068,NA,58649,NA,3072,NA,NA,58750,59236,NA,58648,58750,NA,Flanker Task ,32,17941,32,1024
100,100,562,562,#3d3846,legacy,legacy,legacy,incongruent,1,undefined,1,s,32,0,0,0,32,0,32,32,NA,0,0,0,32,32,0,32,32,NA,Sun Sep 24 20:27:29 2023,1500,The main experiment item,FALSE,FlankerTask.osexp,C:\Users\backs\OneDrive\Documents,FALSE,mono,FALSE,18,no,white,no,yes,768,legacy,32,32,C:/Users/backs/OneDrive/Documents/BZ-subject-3.csv,legacy,Melodramatic Milgram,4.0.5,0,s,s,NA,NA,s,NA,636,2200,NA,NA,636,NA,NA,NA,2,legacy,1024,2,48000,-16,experiment,HHSHH,3,odd,59239,5274,NA,NA,NA,3068,NA,60293,NA,3072,NA,NA,60394,61031,NA,60291,60394,NA,Flanker Task ,33,18577,33,1024
100,100,565,565,#3d3846,legacy,legacy,legacy,congruent,1,undefined,1,s,33,0,0,0,33,0,33,33,NA,0,0,0,33,33,0,33,33,NA,Sun Sep 24 20:27:29 2023,1500,The main experiment item,FALSE,FlankerTask.osexp,C:\Users\backs\OneDrive\Documents,FALSE,mono,FALSE,18,no,white,no,yes,768,legacy,33,33,C:/Users/backs/OneDrive/Documents/BZ-subject-3.csv,legacy,Melodramatic Milgram,4.0.5,0,s,s,NA,NA,s,NA,652,2200,NA,NA,652,NA,NA,NA,2,legacy,1024,2,48000,-16,experiment,SSSSS,3,odd,61036,5274,NA,NA,NA,3068,NA,62091,NA,3072,NA,NA,62192,62845,NA,62089,62192,NA,Flanker Task ,34,19229,34,1024
100,100,563,563,#3d3846,legacy,legacy,legacy,congruent,1,undefined,1,s,34,0,0,0,34,0,34,34,NA,0,0,0,34,34,0,34,34,NA,Sun Sep 24 20:27:29 2023,1500,The main experiment item,FALSE,FlankerTask.osexp,C:\Users\backs\OneDrive\Documents,FALSE,mono,FALSE,18,no,white,no,yes,768,legacy,34,34,C:/Users/backs/OneDrive/Documents/BZ-subject-3.csv,legacy,Melodramatic Milgram,4.0.5,0,s,s,NA,NA,s,NA,505,2200,NA,NA,505,NA,NA,NA,2,legacy,1024,2,48000,-16,experiment,SSSSS,3,odd,62851,5274,NA,NA,NA,3068,NA,63901,NA,3072,NA,NA,64002,64508,NA,63899,64002,NA,Flanker Task ,35,19734,35,1024
100,100,562,562,#3d3846,legacy,legacy,legacy,congruent,1,undefined,1,h,35,0,0,0,35,0,35,35,NA,0,0,0,35,35,0,35,35,NA,Sun Sep 24 20:27:29 2023,1500,The main experiment item,FALSE,FlankerTask.osexp,C:\Users\backs\OneDrive\Documents,FALSE,mono,FALSE,18,no,white,no,yes,768,legacy,35,35,C:/Users/backs/OneDrive/Documents/BZ-subject-3.csv,legacy,Melodramatic Milgram,4.0.5,0,h,s,NA,NA,h,NA,502,2200,NA,NA,502,NA,NA,NA,2,legacy,1024,2,48000,-16,experiment,HHHHH,3,odd,64512,5274,NA,NA,NA,3068,NA,65542,NA,3072,NA,NA,65643,66145,NA,65541,65643,NA,Flanker Task ,36,20236,36,1024
100,100,560,560,#3d3846,legacy,legacy,legacy,incongruent,1,undefined,1,h,36,0,0,0,36,0,36,36,NA,0,0,0,36,36,0,36,36,NA,Sun Sep 24 20:27:29 2023,1500,The main experiment item,FALSE,FlankerTask.osexp,C:\Users\backs\OneDrive\Documents,FALSE,mono,FALSE,18,no,white,no,yes,768,legacy,36,36,C:/Users/backs/OneDrive/Documents/BZ-subject-3.csv,legacy,Melodramatic Milgram,4.0.5,0,h,s,NA,NA,h,NA,496,2200,NA,NA,496,NA,NA,NA,2,legacy,1024,2,48000,-16,experiment,SSHSS,3,odd,66148,5274,NA,NA,NA,3068,NA,67179,NA,3072,NA,NA,67280,67777,NA,67178,67280,NA,Flanker Task ,37,20732,37,1024
100,100,554,554,#3d3846,legacy,legacy,legacy,incongruent,1,undefined,1,s,37,0,0,0,37,0,37,37,NA,0,0,0,37,37,0,37,37,NA,Sun Sep 24 20:27:29 2023,1500,The main experiment item,FALSE,FlankerTask.osexp,C:\Users\backs\OneDrive\Documents,FALSE,mono,FALSE,18,no,white,no,yes,768,legacy,37,37,C:/Users/backs/OneDrive/Documents/BZ-subject-3.csv,legacy,Melodramatic Milgram,4.0.5,0,s,s,NA,NA,s,NA,353,2200,NA,NA,353,NA,NA,NA,2,legacy,1024,2,48000,-16,experiment,HHSHH,3,odd,67781,5274,NA,NA,NA,3068,NA,68819,NA,3072,NA,NA,68920,69274,NA,68817,68920,NA,Flanker Task ,38,21085,38,1024
100,100,551,551,#3d3846,legacy,legacy,legacy,congruent,1,undefined,1,s,38,0,0,0,38,0,38,38,NA,0,0,0,38,38,0,38,38,NA,Sun Sep 24 20:27:29 2023,1500,The main experiment item,FALSE,FlankerTask.osexp,C:\Users\backs\OneDrive\Documents,FALSE,mono,FALSE,18,no,white,no,yes,768,legacy,38,38,C:/Users/backs/OneDrive/Documents/BZ-subject-3.csv,legacy,Melodramatic Milgram,4.0.5,0,s,s,NA,NA,s,NA,439,2200,NA,NA,439,NA,NA,NA,2,legacy,1024,2,48000,-16,experiment,SSSSS,3,odd,69278,5274,NA,NA,NA,3068,NA,70327,NA,3072,NA,NA,70428,70868,NA,70326,70427,NA,Flanker Task ,39,21524,39,1024
100,100,547,547,#3d3846,legacy,legacy,legacy,congruent,1,undefined,1,h,39,0,0,0,39,0,39,39,NA,0,0,0,39,39,0,39,39,NA,Sun Sep 24 20:27:29 2023,1500,The main experiment item,FALSE,FlankerTask.osexp,C:\Users\backs\OneDrive\Documents,FALSE,mono,FALSE,18,no,white,no,yes,768,legacy,39,39,C:/Users/backs/OneDrive/Documents/BZ-subject-3.csv,legacy,Melodramatic Milgram,4.0.5,0,h,s,NA,NA,h,NA,393,2200,NA,NA,393,NA,NA,NA,2,legacy,1024,2,48000,-16,experiment,HHHHH,3,odd,70872,5274,NA,NA,NA,3068,NA,71933,NA,3072,NA,NA,72033,72427,NA,71932,72033,NA,Flanker Task ,40,21917,40,1024
100,100,547,547,#3d3846,legacy,legacy,legacy,congruent,1,undefined,1,h,40,0,0,0,40,0,40,40,NA,0,0,0,40,40,0,40,40,NA,Sun Sep 24 20:27:29 2023,1500,The main experiment item,FALSE,FlankerTask.osexp,C:\Users\backs\OneDrive\Documents,FALSE,mono,FALSE,18,no,white,no,yes,768,legacy,40,40,C:/Users/backs/OneDrive/Documents/BZ-subject-3.csv,legacy,Melodramatic Milgram,4.0.5,0,h,s,NA,NA,h,NA,516,2200,NA,NA,516,NA,NA,NA,2,legacy,1024,2,48000,-16,experiment,HHHHH,3,odd,72432,5274,NA,NA,NA,3068,NA,73486,NA,3072,NA,NA,73587,74104,NA,73484,73587,NA,Flanker Task ,41,22433,41,1024
100,100,545,545,#3d3846,legacy,legacy,legacy,congruent,1,undefined,1,s,41,0,0,0,41,0,41,41,NA,0,0,0,41,41,0,41,41,NA,Sun Sep 24 20:27:29 2023,1500,The main experiment item,FALSE,FlankerTask.osexp,C:\Users\backs\OneDrive\Documents,FALSE,mono,FALSE,18,no,white,no,yes,768,legacy,41,41,C:/Users/backs/OneDrive/Documents/BZ-subject-3.csv,legacy,Melodramatic Milgram,4.0.5,0,s,s,NA,NA,s,NA,459,2200,NA,NA,459,NA,NA,NA,2,legacy,1024,2,48000,-16,experiment,SSSSS,3,odd,74108,5274,NA,NA,NA,3068,NA,75152,NA,3072,NA,NA,75252,75712,NA,75151,75252,NA,Flanker Task ,42,22892,42,1024
97,97,542,542,#3d3846,legacy,legacy,legacy,congruent,0,undefined,0,h,42,0,0,0,42,0,42,42,NA,0,0,0,42,42,0,42,42,NA,Sun Sep 24 20:27:29 2023,1500,The main experiment item,FALSE,FlankerTask.osexp,C:\Users\backs\OneDrive\Documents,FALSE,mono,FALSE,18,no,white,no,yes,768,legacy,42,42,C:/Users/backs/OneDrive/Documents/BZ-subject-3.csv,legacy,Melodramatic Milgram,4.0.5,0,s,s,NA,NA,s,NA,415,2200,NA,NA,415,NA,NA,NA,2,legacy,1024,2,48000,-16,experiment,HHHHH,3,odd,75716,5274,NA,NA,NA,3068,NA,76762,NA,3072,NA,NA,76863,77279,NA,76761,76863,NA,Flanker Task ,42,23307,43,1024
97,97,540,540,#3d3846,legacy,legacy,legacy,congruent,1,undefined,1,h,43,0,0,0,43,0,43,43,NA,0,0,0,43,43,0,43,43,NA,Sun Sep 24 20:27:29 2023,1500,The main experiment item,FALSE,FlankerTask.osexp,C:\Users\backs\OneDrive\Documents,FALSE,mono,FALSE,18,no,white,no,yes,768,legacy,43,43,C:/Users/backs/OneDrive/Documents/BZ-subject-3.csv,legacy,Melodramatic Milgram,4.0.5,0,h,s,NA,NA,h,NA,479,2200,NA,NA,479,NA,NA,NA,2,legacy,1024,2,48000,-16,experiment,HHHHH,3,odd,77784,5274,NA,NA,77283,3068,NA,78843,NA,3072,NA,NA,78944,79424,NA,78841,78944,NA,Flanker Task ,43,23786,44,1024
97,97,543,543,#3d3846,legacy,legacy,legacy,incongruent,1,undefined,1,s,44,0,0,0,44,0,44,44,NA,0,0,0,44,44,0,44,44,NA,Sun Sep 24 20:27:29 2023,1500,The main experiment item,FALSE,FlankerTask.osexp,C:\Users\backs\OneDrive\Documents,FALSE,mono,FALSE,18,no,white,no,yes,768,legacy,44,44,C:/Users/backs/OneDrive/Documents/BZ-subject-3.csv,legacy,Melodramatic Milgram,4.0.5,0,s,s,NA,NA,s,NA,670,2200,NA,NA,670,NA,NA,NA,2,legacy,1024,2,48000,-16,experiment,HHSHH,3,odd,79429,5274,NA,NA,77283,3068,NA,80483,NA,3072,NA,NA,80584,81254,NA,80482,80584,NA,Flanker Task ,44,24456,45,1024
97,97,542,542,#3d3846,legacy,legacy,legacy,incongruent,1,undefined,1,h,45,0,0,0,45,0,45,45,NA,0,0,0,45,45,0,45,45,NA,Sun Sep 24 20:27:29 2023,1500,The main experiment item,FALSE,FlankerTask.osexp,C:\Users\backs\OneDrive\Documents,FALSE,mono,FALSE,18,no,white,no,yes,768,legacy,45,45,C:/Users/backs/OneDrive/Documents/BZ-subject-3.csv,legacy,Melodramatic Milgram,4.0.5,0,h,s,NA,NA,h,NA,504,2200,NA,NA,504,NA,NA,NA,2,legacy,1024,2,48000,-16,experiment,SSHSS,3,odd,81259,5274,NA,NA,77283,3068,NA,82314,NA,3072,NA,NA,82415,82921,NA,82312,82415,NA,Flanker Task ,45,24960,46,1024
97,97,542,542,#3d3846,legacy,legacy,legacy,incongruent,1,undefined,1,h,46,0,0,0,46,0,46,46,NA,0,0,0,46,46,0,46,46,NA,Sun Sep 24 20:27:29 2023,1500,The main experiment item,FALSE,FlankerTask.osexp,C:\Users\backs\OneDrive\Documents,FALSE,mono,FALSE,18,no,white,no,yes,768,legacy,46,46,C:/Users/backs/OneDrive/Documents/BZ-subject-3.csv,legacy,Melodramatic Milgram,4.0.5,0,h,s,NA,NA,h,NA,527,2200,NA,NA,527,NA,NA,NA,2,legacy,1024,2,48000,-16,experiment,SSHSS,3,odd,82925,5274,NA,NA,77283,3068,NA,83982,NA,3072,NA,NA,84083,84612,NA,83980,84083,NA,Flanker Task ,46,25487,47,1024
97,97,542,542,#3d3846,legacy,legacy,legacy,incongruent,1,undefined,1,h,47,0,0,0,47,0,47,47,NA,0,0,0,47,47,0,47,47,NA,Sun Sep 24 20:27:29 2023,1500,The main experiment item,FALSE,FlankerTask.osexp,C:\Users\backs\OneDrive\Documents,FALSE,mono,FALSE,18,no,white,no,yes,768,legacy,47,47,C:/Users/backs/OneDrive/Documents/BZ-subject-3.csv,legacy,Melodramatic Milgram,4.0.5,0,h,s,NA,NA,h,NA,570,2200,NA,NA,570,NA,NA,NA,2,legacy,1024,2,48000,-16,experiment,SSHSS,3,odd,84616,5274,NA,NA,77283,3068,NA,85694,NA,3072,NA,NA,85796,86367,NA,85692,85796,NA,Flanker Task ,47,26057,48,1024
97,97,543,543,#3d3846,legacy,legacy,legacy,incongruent,1,undefined,1,s,48,0,0,0,48,0,48,48,NA,0,0,0,48,48,0,48,48,NA,Sun Sep 24 20:27:29 2023,1500,The main experiment item,FALSE,FlankerTask.osexp,C:\Users\backs\OneDrive\Documents,FALSE,mono,FALSE,18,no,white,no,yes,768,legacy,48,48,C:/Users/backs/OneDrive/Documents/BZ-subject-3.csv,legacy,Melodramatic Milgram,4.0.5,0,s,s,NA,NA,s,NA,556,2200,NA,NA,556,NA,NA,NA,2,legacy,1024,2,48000,-16,experiment,HHSHH,3,odd,86371,5274,NA,NA,77283,3068,NA,87426,NA,3072,NA,NA,87527,88084,NA,87423,87527,NA,Flanker Task ,48,26613,49,1024
98,98,542,542,#3d3846,legacy,legacy,legacy,congruent,1,undefined,1,h,49,0,0,0,49,0,49,49,NA,0,0,0,49,49,0,49,49,NA,Sun Sep 24 20:27:29 2023,1500,The main experiment item,FALSE,FlankerTask.osexp,C:\Users\backs\OneDrive\Documents,FALSE,mono,FALSE,18,no,white,no,yes,768,legacy,49,49,C:/Users/backs/OneDrive/Documents/BZ-subject-3.csv,legacy,Melodramatic Milgram,4.0.5,0,h,s,NA,NA,h,NA,527,2200,NA,NA,527,NA,NA,NA,2,legacy,1024,2,48000,-16,experiment,HHHHH,3,odd,88087,5274,NA,NA,77283,3068,NA,89132,NA,3072,NA,NA,89233,89761,NA,89130,89233,NA,Flanker Task ,49,27140,50,1024
98,98,540,540,#3d3846,legacy,legacy,legacy,congruent,1,undefined,1,s,50,0,0,0,50,0,50,50,NA,0,0,0,50,50,0,50,50,NA,Sun Sep 24 20:27:29 2023,1500,The main experiment item,FALSE,FlankerTask.osexp,C:\Users\backs\OneDrive\Documents,FALSE,mono,FALSE,18,no,white,no,yes,768,legacy,50,50,C:/Users/backs/OneDrive/Documents/BZ-subject-3.csv,legacy,Melodramatic Milgram,4.0.5,0,s,s,NA,NA,s,NA,431,2200,NA,NA,431,NA,NA,NA,2,legacy,1024,2,48000,-16,experiment,SSSSS,3,odd,89765,5274,NA,NA,77283,3068,NA,90811,NA,3072,NA,NA,90912,91344,NA,90809,90912,NA,Flanker Task ,50,27571,51,1024
98,98,550,550,#3d3846,legacy,legacy,legacy,incongruent,1,undefined,1,h,51,0,0,0,51,0,51,51,NA,0,0,0,51,51,0,51,51,NA,Sun Sep 24 20:27:29 2023,1500,The main experiment item,FALSE,FlankerTask.osexp,C:\Users\backs\OneDrive\Documents,FALSE,mono,FALSE,18,no,white,no,yes,768,legacy,51,51,C:/Users/backs/OneDrive/Documents/BZ-subject-3.csv,legacy,Melodramatic Milgram,4.0.5,0,h,s,NA,NA,h,NA,1061,2200,NA,NA,1061,NA,NA,NA,2,legacy,1024,2,48000,-16,experiment,SSHSS,3,odd,91349,5274,NA,NA,77283,3068,NA,92381,NA,3072,NA,NA,92482,93544,NA,92380,92482,NA,Flanker Task ,51,28632,52,1024
98,98,549,549,#3d3846,legacy,legacy,legacy,incongruent,1,undefined,1,s,52,0,0,0,52,0,52,52,NA,0,0,0,52,52,0,52,52,NA,Sun Sep 24 20:27:29 2023,1500,The main experiment item,FALSE,FlankerTask.osexp,C:\Users\backs\OneDrive\Documents,FALSE,mono,FALSE,18,no,white,no,yes,768,legacy,52,52,C:/Users/backs/OneDrive/Documents/BZ-subject-3.csv,legacy,Melodramatic Milgram,4.0.5,0,s,s,NA,NA,s,NA,505,2200,NA,NA,505,NA,NA,NA,2,legacy,1024,2,48000,-16,experiment,HHSHH,3,odd,93547,5274,NA,NA,77283,3068,NA,94593,NA,3072,NA,NA,94694,95200,NA,94591,94693,NA,Flanker Task ,52,29137,53,1024
98,98,552,552,#3d3846,legacy,legacy,legacy,incongruent,1,undefined,1,s,53,0,0,0,53,0,53,53,NA,0,0,0,53,53,0,53,53,NA,Sun Sep 24 20:27:29 2023,1500,The main experiment item,FALSE,FlankerTask.osexp,C:\Users\backs\OneDrive\Documents,FALSE,mono,FALSE,18,no,white,no,yes,768,legacy,53,53,C:/Users/backs/OneDrive/Documents/BZ-subject-3.csv,legacy,Melodramatic Milgram,4.0.5,0,s,s,NA,NA,s,NA,679,2200,NA,NA,679,NA,NA,NA,2,legacy,1024,2,48000,-16,experiment,HHSHH,3,odd,95207,5274,NA,NA,77283,3068,NA,96239,NA,3072,NA,NA,96340,97020,NA,96237,96340,NA,Flanker Task ,53,29816,54,1024
98,98,551,551,#3d3846,legacy,legacy,legacy,congruent,1,undefined,1,h,54,0,0,0,54,0,54,54,NA,0,0,0,54,54,0,54,54,NA,Sun Sep 24 20:27:29 2023,1500,The main experiment item,FALSE,FlankerTask.osexp,C:\Users\backs\OneDrive\Documents,FALSE,mono,FALSE,18,no,white,no,yes,768,legacy,54,54,C:/Users/backs/OneDrive/Documents/BZ-subject-3.csv,legacy,Melodramatic Milgram,4.0.5,0,h,s,NA,NA,h,NA,519,2200,NA,NA,519,NA,NA,NA,2,legacy,1024,2,48000,-16,experiment,HHHHH,3,odd,97024,5274,NA,NA,77283,3068,NA,98057,NA,3072,NA,NA,98158,98679,NA,98056,98158,NA,Flanker Task ,54,30335,55,1024
98,98,558,558,#3d3846,legacy,legacy,legacy,incongruent,1,undefined,1,h,55,0,0,0,55,0,55,55,NA,0,0,0,55,55,0,55,55,NA,Sun Sep 24 20:27:29 2023,1500,The main experiment item,FALSE,FlankerTask.osexp,C:\Users\backs\OneDrive\Documents,FALSE,mono,FALSE,18,no,white,no,yes,768,legacy,55,55,C:/Users/backs/OneDrive/Documents/BZ-subject-3.csv,legacy,Melodramatic Milgram,4.0.5,0,h,s,NA,NA,h,NA,958,2200,NA,NA,958,NA,NA,NA,2,legacy,1024,2,48000,-16,experiment,SSHSS,3,odd,98683,5274,NA,NA,77283,3068,NA,99728,NA,3072,NA,NA,99830,100789,NA,99727,99830,NA,Flanker Task ,55,31293,56,1024
98,98,558,558,#3d3846,legacy,legacy,legacy,congruent,1,undefined,1,h,56,0,0,0,56,0,56,56,NA,0,0,0,56,56,0,56,56,NA,Sun Sep 24 20:27:29 2023,1500,The main experiment item,FALSE,FlankerTask.osexp,C:\Users\backs\OneDrive\Documents,FALSE,mono,FALSE,18,no,white,no,yes,768,legacy,56,56,C:/Users/backs/OneDrive/Documents/BZ-subject-3.csv,legacy,Melodramatic Milgram,4.0.5,0,h,s,NA,NA,h,NA,522,2200,NA,NA,522,NA,NA,NA,2,legacy,1024,2,48000,-16,experiment,HHHHH,3,odd,100794,5274,NA,NA,77283,3068,NA,101840,NA,3072,NA,NA,101941,102464,NA,101838,101941,NA,Flanker Task ,56,31815,57,1024
98,98,563,563,#3d3846,legacy,legacy,legacy,congruent,1,undefined,1,h,57,0,0,0,57,0,57,57,NA,0,0,0,57,57,0,57,57,NA,Sun Sep 24 20:27:29 2023,1500,The main experiment item,FALSE,FlankerTask.osexp,C:\Users\backs\OneDrive\Documents,FALSE,mono,FALSE,18,no,white,no,yes,768,legacy,57,57,C:/Users/backs/OneDrive/Documents/BZ-subject-3.csv,legacy,Melodramatic Milgram,4.0.5,0,h,s,NA,NA,h,NA,895,2200,NA,NA,895,NA,NA,NA,2,legacy,1024,2,48000,-16,experiment,HHHHH,3,odd,102468,5274,NA,NA,77283,3068,NA,103514,NA,3072,NA,NA,103615,104512,NA,103513,103614,NA,Flanker Task ,57,32710,58,1024
98,98,566,566,#3d3846,legacy,legacy,legacy,congruent,1,undefined,1,s,58,0,0,0,58,0,58,58,NA,0,0,0,58,58,0,58,58,NA,Sun Sep 24 20:27:29 2023,1500,The main experiment item,FALSE,FlankerTask.osexp,C:\Users\backs\OneDrive\Documents,FALSE,mono,FALSE,18,no,white,no,yes,768,legacy,58,58,C:/Users/backs/OneDrive/Documents/BZ-subject-3.csv,legacy,Melodramatic Milgram,4.0.5,0,s,s,NA,NA,s,NA,717,2200,NA,NA,717,NA,NA,NA,2,legacy,1024,2,48000,-16,experiment,SSSSS,3,odd,104516,5274,NA,NA,77283,3068,NA,105564,NA,3072,NA,NA,105665,106383,NA,105563,105665,NA,Flanker Task ,58,33427,59,1024
98,98,565,565,#3d3846,legacy,legacy,legacy,congruent,1,undefined,1,s,59,0,0,0,59,0,59,59,NA,0,0,0,59,59,0,59,59,NA,Sun Sep 24 20:27:29 2023,1500,The main experiment item,FALSE,FlankerTask.osexp,C:\Users\backs\OneDrive\Documents,FALSE,mono,FALSE,18,no,white,no,yes,768,legacy,59,59,C:/Users/backs/OneDrive/Documents/BZ-subject-3.csv,legacy,Melodramatic Milgram,4.0.5,0,s,s,NA,NA,s,NA,512,2200,NA,NA,512,NA,NA,NA,2,legacy,1024,2,48000,-16,experiment,SSSSS,3,odd,106387,5274,NA,NA,77283,3068,NA,107446,NA,3072,NA,NA,107547,108060,NA,107444,107547,NA,Flanker Task ,59,33939,60,1024
98,98,570,570,#3d3846,legacy,legacy,legacy,incongruent,1,undefined,1,h,60,0,0,0,60,0,60,60,NA,0,0,0,60,60,0,60,60,NA,Sun Sep 24 20:27:29 2023,1500,The main experiment item,FALSE,FlankerTask.osexp,C:\Users\backs\OneDrive\Documents,FALSE,mono,FALSE,18,no,white,no,yes,768,legacy,60,60,C:/Users/backs/OneDrive/Documents/BZ-subject-3.csv,legacy,Melodramatic Milgram,4.0.5,0,h,s,NA,NA,h,NA,840,2200,NA,NA,840,NA,NA,NA,2,legacy,1024,2,48000,-16,experiment,SSHSS,3,odd,108065,5274,NA,NA,77283,3068,NA,109120,NA,3072,NA,NA,109221,110063,NA,109118,109221,NA,Flanker Task ,60,34779,61,1024
98,98,570,570,#3d3846,legacy,legacy,legacy,incongruent,1,undefined,1,h,61,0,0,0,61,0,61,61,NA,0,0,0,61,61,0,61,61,NA,Sun Sep 24 20:27:29 2023,1500,The main experiment item,FALSE,FlankerTask.osexp,C:\Users\backs\OneDrive\Documents,FALSE,mono,FALSE,18,no,white,no,yes,768,legacy,61,61,C:/Users/backs/OneDrive/Documents/BZ-subject-3.csv,legacy,Melodramatic Milgram,4.0.5,0,h,s,NA,NA,h,NA,575,2200,NA,NA,575,NA,NA,NA,2,legacy,1024,2,48000,-16,experiment,SSHSS,3,odd,110067,5274,NA,NA,77283,3068,NA,111119,NA,3072,NA,NA,111220,111796,NA,111117,111220,NA,Flanker Task ,61,35354,62,1024
98,98,571,571,#3d3846,legacy,legacy,legacy,congruent,1,undefined,1,h,62,0,0,0,62,0,62,62,NA,0,0,0,62,62,0,62,62,NA,Sun Sep 24 20:27:29 2023,1500,The main experiment item,FALSE,FlankerTask.osexp,C:\Users\backs\OneDrive\Documents,FALSE,mono,FALSE,18,no,white,no,yes,768,legacy,62,62,C:/Users/backs/OneDrive/Documents/BZ-subject-3.csv,legacy,Melodramatic Milgram,4.0.5,0,h,s,NA,NA,h,NA,670,2200,NA,NA,670,NA,NA,NA,2,legacy,1024,2,48000,-16,experiment,HHHHH,3,odd,111802,5274,NA,NA,77283,3068,NA,112855,NA,3072,NA,NA,112956,113627,NA,112853,112956,NA,Flanker Task ,62,36024,63,1024
98,98,571,571,#3d3846,legacy,legacy,legacy,congruent,1,undefined,1,s,63,0,0,0,63,0,63,63,NA,0,0,0,63,63,0,63,63,NA,Sun Sep 24 20:27:29 2023,1500,The main experiment item,FALSE,FlankerTask.osexp,C:\Users\backs\OneDrive\Documents,FALSE,mono,FALSE,18,no,white,no,yes,768,legacy,63,63,C:/Users/backs/OneDrive/Documents/BZ-subject-3.csv,legacy,Melodramatic Milgram,4.0.5,0,s,s,NA,NA,s,NA,562,2200,NA,NA,562,NA,NA,NA,2,legacy,1024,2,48000,-16,experiment,SSSSS,3,odd,113632,5274,NA,NA,77283,3068,NA,114686,NA,3072,NA,NA,114787,115351,NA,114684,114787,NA,Flanker Task ,63,36586,64,1024
98,98,571,571,#3d3846,legacy,legacy,legacy,incongruent,1,undefined,1,h,64,0,0,0,64,0,64,64,NA,0,0,0,64,64,0,64,64,NA,Sun Sep 24 20:27:29 2023,1500,The main experiment item,FALSE,FlankerTask.osexp,C:\Users\backs\OneDrive\Documents,FALSE,mono,FALSE,18,no,white,no,yes,768,legacy,64,64,C:/Users/backs/OneDrive/Documents/BZ-subject-3.csv,legacy,Melodramatic Milgram,4.0.5,0,h,s,NA,NA,h,NA,541,2200,NA,NA,541,NA,NA,NA,2,legacy,1024,2,48000,-16,experiment,SSHSS,3,odd,115355,5274,NA,NA,77283,3068,NA,116423,NA,3072,NA,NA,116524,117066,NA,116421,116524,NA,Flanker Task ,64,37127,65,1024
98,98,572,572,#3d3846,legacy,legacy,legacy,congruent,1,undefined,1,s,65,0,0,0,65,0,65,65,NA,0,0,0,65,65,0,65,65,NA,Sun Sep 24 20:27:29 2023,1500,The main experiment item,FALSE,FlankerTask.osexp,C:\Users\backs\OneDrive\Documents,FALSE,mono,FALSE,18,no,white,no,yes,768,legacy,65,65,C:/Users/backs/OneDrive/Documents/BZ-subject-3.csv,legacy,Melodramatic Milgram,4.0.5,0,s,s,NA,NA,s,NA,637,2200,NA,NA,637,NA,NA,NA,2,legacy,1024,2,48000,-16,experiment,SSSSS,3,odd,117071,5274,NA,NA,77283,3068,NA,118165,NA,3072,NA,NA,118266,118904,NA,118163,118266,NA,Flanker Task ,65,37764,66,1024
98,98,572,572,#3d3846,legacy,legacy,legacy,incongruent,1,undefined,1,h,66,0,0,0,66,0,66,66,NA,0,0,0,66,66,0,66,66,NA,Sun Sep 24 20:27:29 2023,1500,The main experiment item,FALSE,FlankerTask.osexp,C:\Users\backs\OneDrive\Documents,FALSE,mono,FALSE,18,no,white,no,yes,768,legacy,66,66,C:/Users/backs/OneDrive/Documents/BZ-subject-3.csv,legacy,Melodramatic Milgram,4.0.5,0,h,s,NA,NA,h,NA,601,2200,NA,NA,601,NA,NA,NA,2,legacy,1024,2,48000,-16,experiment,SSHSS,3,odd,118907,5274,NA,NA,77283,3068,NA,119952,NA,3072,NA,NA,120054,120656,NA,119951,120054,NA,Flanker Task ,66,38365,67,1024
98,98,572,572,#3d3846,legacy,legacy,legacy,incongruent,1,undefined,1,h,67,0,0,0,67,0,67,67,NA,0,0,0,67,67,0,67,67,NA,Sun Sep 24 20:27:29 2023,1500,The main experiment item,FALSE,FlankerTask.osexp,C:\Users\backs\OneDrive\Documents,FALSE,mono,FALSE,18,no,white,no,yes,768,legacy,67,67,C:/Users/backs/OneDrive/Documents/BZ-subject-3.csv,legacy,Melodramatic Milgram,4.0.5,0,h,s,NA,NA,h,NA,558,2200,NA,NA,558,NA,NA,NA,2,legacy,1024,2,48000,-16,experiment,SSHSS,3,odd,120660,5274,NA,NA,77283,3068,NA,121691,NA,3072,NA,NA,121792,122351,NA,121690,121792,NA,Flanker Task ,67,38923,68,1024
98,98,571,571,#3d3846,legacy,legacy,legacy,congruent,1,undefined,1,h,68,0,0,0,68,0,68,68,NA,0,0,0,68,68,0,68,68,NA,Sun Sep 24 20:27:29 2023,1500,The main experiment item,FALSE,FlankerTask.osexp,C:\Users\backs\OneDrive\Documents,FALSE,mono,FALSE,18,no,white,no,yes,768,legacy,68,68,C:/Users/backs/OneDrive/Documents/BZ-subject-3.csv,legacy,Melodramatic Milgram,4.0.5,0,h,s,NA,NA,h,NA,501,2200,NA,NA,501,NA,NA,NA,2,legacy,1024,2,48000,-16,experiment,HHHHH,3,odd,122354,5274,NA,NA,77283,3068,NA,123398,NA,3072,NA,NA,123500,124002,NA,123392,123500,NA,Flanker Task ,68,39424,69,1024
98,98,570,570,#3d3846,legacy,legacy,legacy,incongruent,1,undefined,1,s,69,0,0,0,69,0,69,69,NA,0,0,0,69,69,0,69,69,NA,Sun Sep 24 20:27:29 2023,1500,The main experiment item,FALSE,FlankerTask.osexp,C:\Users\backs\OneDrive\Documents,FALSE,mono,FALSE,18,no,white,no,yes,768,legacy,69,69,C:/Users/backs/OneDrive/Documents/BZ-subject-3.csv,legacy,Melodramatic Milgram,4.0.5,0,s,s,NA,NA,s,NA,499,2200,NA,NA,499,NA,NA,NA,2,legacy,1024,2,48000,-16,experiment,HHSHH,3,odd,124005,5274,NA,NA,77283,3068,NA,125051,NA,3072,NA,NA,125152,125652,NA,125049,125152,NA,Flanker Task ,69,39923,70,1024
98,98,570,570,#3d3846,legacy,legacy,legacy,incongruent,1,undefined,1,h,70,0,0,0,70,0,70,70,NA,0,0,0,70,70,0,70,70,NA,Sun Sep 24 20:27:29 2023,1500,The main experiment item,FALSE,FlankerTask.osexp,C:\Users\backs\OneDrive\Documents,FALSE,mono,FALSE,18,no,white,no,yes,768,legacy,70,70,C:/Users/backs/OneDrive/Documents/BZ-subject-3.csv,legacy,Melodramatic Milgram,4.0.5,0,h,s,NA,NA,h,NA,613,2200,NA,NA,613,NA,NA,NA,2,legacy,1024,2,48000,-16,experiment,SSHSS,3,odd,125656,5274,NA,NA,77283,3068,NA,126688,NA,3072,NA,NA,126789,127404,NA,126687,126789,NA,Flanker Task ,70,40536,71,1024
98,98,568,568,#3d3846,legacy,legacy,legacy,incongruent,1,undefined,1,s,71,0,0,0,71,0,71,71,NA,0,0,0,71,71,0,71,71,NA,Sun Sep 24 20:27:29 2023,1500,The main experiment item,FALSE,FlankerTask.osexp,C:\Users\backs\OneDrive\Documents,FALSE,mono,FALSE,18,no,white,no,yes,768,legacy,71,71,C:/Users/backs/OneDrive/Documents/BZ-subject-3.csv,legacy,Melodramatic Milgram,4.0.5,0,s,s,NA,NA,s,NA,424,2200,NA,NA,424,NA,NA,NA,2,legacy,1024,2,48000,-16,experiment,HHSHH,3,odd,127407,5274,NA,NA,77283,3068,NA,128438,NA,3072,NA,NA,128539,128964,NA,128437,128539,NA,Flanker Task ,71,40960,72,1024
98,98,575,575,#3d3846,legacy,legacy,legacy,incongruent,1,undefined,1,s,72,0,0,0,72,0,72,72,NA,0,0,0,72,72,0,72,72,NA,Sun Sep 24 20:27:29 2023,1500,The main experiment item,FALSE,FlankerTask.osexp,C:\Users\backs\OneDrive\Documents,FALSE,mono,FALSE,18,no,white,no,yes,768,legacy,72,72,C:/Users/backs/OneDrive/Documents/BZ-subject-3.csv,legacy,Melodramatic Milgram,4.0.5,0,s,s,NA,NA,s,NA,1026,2200,NA,NA,1026,NA,NA,NA,2,legacy,1024,2,48000,-16,experiment,HHSHH,3,odd,128967,5274,NA,NA,77283,3068,NA,130012,NA,3072,NA,NA,130114,131141,NA,130011,130114,NA,Flanker Task ,72,41986,73,1024
98,98,579,579,#3d3846,legacy,legacy,legacy,incongruent,1,undefined,1,s,73,0,0,0,73,0,73,73,NA,0,0,0,73,73,0,73,73,NA,Sun Sep 24 20:27:29 2023,1500,The main experiment item,FALSE,FlankerTask.osexp,C:\Users\backs\OneDrive\Documents,FALSE,mono,FALSE,18,no,white,no,yes,768,legacy,73,73,C:/Users/backs/OneDrive/Documents/BZ-subject-3.csv,legacy,Melodramatic Milgram,4.0.5,0,s,s,NA,NA,s,NA,873,2200,NA,NA,873,NA,NA,NA,2,legacy,1024,2,48000,-16,experiment,HHSHH,3,odd,131144,5274,NA,NA,77283,3068,NA,132193,NA,3072,NA,NA,132294,133168,NA,132191,132294,NA,Flanker Task ,73,42859,74,1024
98,98,580,580,#3d3846,legacy,legacy,legacy,incongruent,1,undefined,1,s,74,0,0,0,74,0,74,74,NA,0,0,0,74,74,0,74,74,NA,Sun Sep 24 20:27:29 2023,1500,The main experiment item,FALSE,FlankerTask.osexp,C:\Users\backs\OneDrive\Documents,FALSE,mono,FALSE,18,no,white,no,yes,768,legacy,74,74,C:/Users/backs/OneDrive/Documents/BZ-subject-3.csv,legacy,Melodramatic Milgram,4.0.5,0,s,s,NA,NA,s,NA,642,2200,NA,NA,642,NA,NA,NA,2,legacy,1024,2,48000,-16,experiment,HHSHH,3,odd,133173,5274,NA,NA,77283,3068,NA,134243,NA,3072,NA,NA,134344,134987,NA,134242,134344,NA,Flanker Task ,74,43501,75,1024
98,98,579,579,#3d3846,legacy,legacy,legacy,congruent,1,undefined,1,h,75,0,0,0,75,0,75,75,NA,0,0,0,75,75,0,75,75,NA,Sun Sep 24 20:27:29 2023,1500,The main experiment item,FALSE,FlankerTask.osexp,C:\Users\backs\OneDrive\Documents,FALSE,mono,FALSE,18,no,white,no,yes,768,legacy,75,75,C:/Users/backs/OneDrive/Documents/BZ-subject-3.csv,legacy,Melodramatic Milgram,4.0.5,0,h,s,NA,NA,h,NA,535,2200,NA,NA,535,NA,NA,NA,2,legacy,1024,2,48000,-16,experiment,HHHHH,3,odd,134991,5274,NA,NA,77283,3068,NA,136026,NA,3072,NA,NA,136127,136663,NA,136025,136127,NA,Flanker Task ,75,44036,76,1024
98,98,579,579,#3d3846,legacy,legacy,legacy,incongruent,1,undefined,1,s,76,0,0,0,76,0,76,76,NA,0,0,0,76,76,0,76,76,NA,Sun Sep 24 20:27:29 2023,1500,The main experiment item,FALSE,FlankerTask.osexp,C:\Users\backs\OneDrive\Documents,FALSE,mono,FALSE,18,no,white,no,yes,768,legacy,76,76,C:/Users/backs/OneDrive/Documents/BZ-subject-3.csv,legacy,Melodramatic Milgram,4.0.5,0,s,s,NA,NA,s,NA,605,2200,NA,NA,605,NA,NA,NA,2,legacy,1024,2,48000,-16,experiment,HHSHH,3,odd,136666,5274,NA,NA,77283,3068,NA,137713,NA,3072,NA,NA,137814,138420,NA,137711,137814,NA,Flanker Task ,76,44641,77,1024
98,98,578,578,#3d3846,legacy,legacy,legacy,congruent,1,undefined,1,s,77,0,0,0,77,0,77,77,NA,0,0,0,77,77,0,77,77,NA,Sun Sep 24 20:27:29 2023,1500,The main experiment item,FALSE,FlankerTask.osexp,C:\Users\backs\OneDrive\Documents,FALSE,mono,FALSE,18,no,white,no,yes,768,legacy,77,77,C:/Users/backs/OneDrive/Documents/BZ-subject-3.csv,legacy,Melodramatic Milgram,4.0.5,0,s,s,NA,NA,s,NA,476,2200,NA,NA,476,NA,NA,NA,2,legacy,1024,2,48000,-16,experiment,SSSSS,3,odd,138424,5274,NA,NA,77283,3068,NA,139476,NA,3072,NA,NA,139577,140054,NA,139475,139577,NA,Flanker Task ,77,45117,78,1024
98,98,577,577,#3d3846,legacy,legacy,legacy,incongruent,1,undefined,1,h,78,0,0,0,78,0,78,78,NA,0,0,0,78,78,0,78,78,NA,Sun Sep 24 20:27:29 2023,1500,The main experiment item,FALSE,FlankerTask.osexp,C:\Users\backs\OneDrive\Documents,FALSE,mono,FALSE,18,no,white,no,yes,768,legacy,78,78,C:/Users/backs/OneDrive/Documents/BZ-subject-3.csv,legacy,Melodramatic Milgram,4.0.5,0,h,s,NA,NA,h,NA,523,2200,NA,NA,523,NA,NA,NA,2,legacy,1024,2,48000,-16,experiment,SSHSS,3,odd,140059,5274,NA,NA,77283,3068,NA,141114,NA,3072,NA,NA,141215,141739,NA,141112,141215,NA,Flanker Task ,78,45640,79,1024
98,98,577,577,#3d3846,legacy,legacy,legacy,incongruent,1,undefined,1,s,79,0,0,0,79,0,79,79,NA,0,0,0,79,79,0,79,79,NA,Sun Sep 24 20:27:29 2023,1500,The main experiment item,FALSE,FlankerTask.osexp,C:\Users\backs\OneDrive\Documents,FALSE,mono,FALSE,18,no,white,no,yes,768,legacy,79,79,C:/Users/backs/OneDrive/Documents/BZ-subject-3.csv,legacy,Melodramatic Milgram,4.0.5,0,s,s,NA,NA,s,NA,549,2200,NA,NA,549,NA,NA,NA,2,legacy,1024,2,48000,-16,experiment,HHSHH,3,odd,141743,5274,NA,NA,77283,3068,NA,142798,NA,3072,NA,NA,142899,143449,NA,142796,142899,NA,Flanker Task ,79,46189,80,1024
98,98,577,577,#3d3846,legacy,legacy,legacy,incongruent,1,undefined,1,s,80,0,0,0,80,0,80,80,NA,0,0,0,80,80,0,80,80,NA,Sun Sep 24 20:27:29 2023,600,The main experiment item,FALSE,FlankerTask.osexp,C:\Users\backs\OneDrive\Documents,FALSE,mono,FALSE,18,no,white,no,yes,768,legacy,0,79,C:/Users/backs/OneDrive/Documents/BZ-subject-3.csv,legacy,Melodramatic Milgram,4.0.5,0,s,s,h,NA,s,NA,586,2200,22470,NA,586,NA,NA,NA,2,legacy,1024,2,48000,-16,experiment,HHSHH,3,odd,143453,5274,166925,NA,77283,3068,NA,166981,NA,3072,144454,NA,167082,167670,NA,166980,167081,NA,Flanker Task ,80,46775,81,1024
98,98,582,582,#3d3846,legacy,legacy,legacy,congruent,1,undefined,1,h,81,0,0,0,81,0,81,81,NA,0,0,0,81,81,0,81,81,NA,Sun Sep 24 20:27:29 2023,600,The main experiment item,FALSE,FlankerTask.osexp,C:\Users\backs\OneDrive\Documents,FALSE,mono,FALSE,18,no,white,no,yes,768,legacy,1,79,C:/Users/backs/OneDrive/Documents/BZ-subject-3.csv,legacy,Melodramatic Milgram,4.0.5,0,h,s,h,NA,h,NA,973,2200,22470,NA,973,NA,NA,NA,2,legacy,1024,2,48000,-16,experiment,HHHHH,3,odd,167674,5274,166925,NA,77283,3068,NA,168720,NA,3072,144454,NA,168821,169795,NA,168718,168821,NA,Flanker Task ,81,47748,82,1024
98,98,582,582,#3d3846,legacy,legacy,legacy,incongruent,1,undefined,1,h,82,0,0,0,82,0,82,82,NA,0,0,0,82,82,0,82,82,NA,Sun Sep 24 20:27:29 2023,600,The main experiment item,FALSE,FlankerTask.osexp,C:\Users\backs\OneDrive\Documents,FALSE,mono,FALSE,18,no,white,no,yes,768,legacy,2,79,C:/Users/backs/OneDrive/Documents/BZ-subject-3.csv,legacy,Melodramatic Milgram,4.0.5,0,h,s,h,NA,h,NA,560,2200,22470,NA,560,NA,NA,NA,2,legacy,1024,2,48000,-16,experiment,SSHSS,3,odd,170302,5274,166925,NA,77283,3068,169801,171349,NA,3072,144454,NA,171450,172011,NA,171347,171450,NA,Flanker Task ,82,48308,83,1024
98,98,581,581,#3d3846,legacy,legacy,legacy,incongruent,1,undefined,1,h,83,0,0,0,83,0,83,83,NA,0,0,0,83,83,0,83,83,NA,Sun Sep 24 20:27:29 2023,600,The main experiment item,FALSE,FlankerTask.osexp,C:\Users\backs\OneDrive\Documents,FALSE,mono,FALSE,18,no,white,no,yes,768,legacy,3,79,C:/Users/backs/OneDrive/Documents/BZ-subject-3.csv,legacy,Melodramatic Milgram,4.0.5,0,h,s,h,NA,h,NA,528,2200,22470,NA,528,NA,NA,NA,2,legacy,1024,2,48000,-16,experiment,SSHSS,3,odd,172016,5274,166925,NA,77283,3068,169801,173070,NA,3072,144454,NA,173172,173701,NA,173069,173172,NA,Flanker Task ,83,48836,84,1024
98,98,581,581,#3d3846,legacy,legacy,legacy,incongruent,1,undefined,1,h,84,0,0,0,84,0,84,84,NA,0,0,0,84,84,0,84,84,NA,Sun Sep 24 20:27:29 2023,600,The main experiment item,FALSE,FlankerTask.osexp,C:\Users\backs\OneDrive\Documents,FALSE,mono,FALSE,18,no,white,no,yes,768,legacy,4,79,C:/Users/backs/OneDrive/Documents/BZ-subject-3.csv,legacy,Melodramatic Milgram,4.0.5,0,h,s,h,NA,h,NA,549,2200,22470,NA,549,NA,NA,NA,2,legacy,1024,2,48000,-16,experiment,SSHSS,3,odd,173706,5274,166925,NA,77283,3068,169801,174761,NA,3072,144454,NA,174862,175412,NA,174759,174862,NA,Flanker Task ,84,49385,85,1024
98,98,580,580,#3d3846,legacy,legacy,legacy,congruent,1,undefined,1,s,85,0,0,0,85,0,85,85,NA,0,0,0,85,85,0,85,85,NA,Sun Sep 24 20:27:29 2023,600,The main experiment item,FALSE,FlankerTask.osexp,C:\Users\backs\OneDrive\Documents,FALSE,mono,FALSE,18,no,white,no,yes,768,legacy,5,79,C:/Users/backs/OneDrive/Documents/BZ-subject-3.csv,legacy,Melodramatic Milgram,4.0.5,0,s,s,h,NA,s,NA,562,2200,22470,NA,562,NA,NA,NA,2,legacy,1024,2,48000,-16,experiment,SSSSS,3,odd,175416,5274,166925,NA,77283,3068,169801,176473,NA,3072,144454,NA,176574,177138,NA,176471,176574,NA,Flanker Task ,85,49947,86,1024
98,98,579,579,#3d3846,legacy,legacy,legacy,congruent,1,undefined,1,s,86,0,0,0,86,0,86,86,NA,0,0,0,86,86,0,86,86,NA,Sun Sep 24 20:27:29 2023,600,The main experiment item,FALSE,FlankerTask.osexp,C:\Users\backs\OneDrive\Documents,FALSE,mono,FALSE,18,no,white,no,yes,768,legacy,6,79,C:/Users/backs/OneDrive/Documents/BZ-subject-3.csv,legacy,Melodramatic Milgram,4.0.5,0,s,s,h,NA,s,NA,506,2200,22470,NA,506,NA,NA,NA,2,legacy,1024,2,48000,-16,experiment,SSSSS,3,odd,177142,5274,166925,NA,77283,3068,169801,178183,NA,3072,144454,NA,178284,178791,NA,178182,178284,NA,Flanker Task ,86,50453,87,1024
98,98,584,584,#3d3846,legacy,legacy,legacy,congruent,1,undefined,1,s,87,0,0,0,87,0,87,87,NA,0,0,0,87,87,0,87,87,NA,Sun Sep 24 20:27:29 2023,600,The main experiment item,FALSE,FlankerTask.osexp,C:\Users\backs\OneDrive\Documents,FALSE,mono,FALSE,18,no,white,no,yes,768,legacy,7,79,C:/Users/backs/OneDrive/Documents/BZ-subject-3.csv,legacy,Melodramatic Milgram,4.0.5,0,s,s,h,NA,s,NA,1022,2200,22470,NA,1022,NA,NA,NA,2,legacy,1024,2,48000,-16,experiment,SSSSS,3,odd,178795,5274,166925,NA,77283,3068,169801,179825,NA,3072,144454,NA,179926,180950,NA,179824,179926,NA,Flanker Task ,87,51475,88,1024
98,98,588,588,#3d3846,legacy,legacy,legacy,congruent,1,undefined,1,s,88,0,0,0,88,0,88,88,NA,0,0,0,88,88,0,88,88,NA,Sun Sep 24 20:27:29 2023,600,The main experiment item,FALSE,FlankerTask.osexp,C:\Users\backs\OneDrive\Documents,FALSE,mono,FALSE,18,no,white,no,yes,768,legacy,8,79,C:/Users/backs/OneDrive/Documents/BZ-subject-3.csv,legacy,Melodramatic Milgram,4.0.5,0,s,s,h,NA,s,NA,866,2200,22470,NA,866,NA,NA,NA,2,legacy,1024,2,48000,-16,experiment,SSSSS,3,odd,181455,5274,166925,NA,77283,3068,180954,182505,NA,3072,144454,NA,182606,183474,NA,182504,182606,NA,Flanker Task ,88,52341,89,1024
98,98,586,586,#3d3846,legacy,legacy,legacy,incongruent,1,undefined,1,h,89,0,0,0,89,0,89,89,NA,0,0,0,89,89,0,89,89,NA,Sun Sep 24 20:27:29 2023,600,The main experiment item,FALSE,FlankerTask.osexp,C:\Users\backs\OneDrive\Documents,FALSE,mono,FALSE,18,no,white,no,yes,768,legacy,9,79,C:/Users/backs/OneDrive/Documents/BZ-subject-3.csv,legacy,Melodramatic Milgram,4.0.5,0,h,s,h,NA,h,NA,483,2200,22470,NA,483,NA,NA,NA,2,legacy,1024,2,48000,-16,experiment,SSHSS,3,odd,183980,5274,166925,NA,77283,3068,183479,185027,NA,3072,144454,NA,185128,185613,NA,185026,185128,NA,Flanker Task ,89,52824,90,1024
98,98,585,585,#3d3846,legacy,legacy,legacy,incongruent,1,undefined,1,h,90,0,0,0,90,0,90,90,NA,0,0,0,90,90,0,90,90,NA,Sun Sep 24 20:27:29 2023,600,The main experiment item,FALSE,FlankerTask.osexp,C:\Users\backs\OneDrive\Documents,FALSE,mono,FALSE,18,no,white,no,yes,768,legacy,10,79,C:/Users/backs/OneDrive/Documents/BZ-subject-3.csv,legacy,Melodramatic Milgram,4.0.5,0,h,s,h,NA,h,NA,480,2200,22470,NA,480,NA,NA,NA,2,legacy,1024,2,48000,-16,experiment,SSHSS,3,odd,185618,5274,166925,NA,77283,3068,183479,186658,NA,3072,144454,NA,186759,187241,NA,186657,186759,NA,Flanker Task ,90,53304,91,1024
97,97,584,584,#3d3846,legacy,legacy,legacy,incongruent,0,undefined,0,s,91,0,0,0,91,0,91,91,NA,0,0,0,91,91,0,91,91,NA,Sun Sep 24 20:27:29 2023,600,The main experiment item,FALSE,FlankerTask.osexp,C:\Users\backs\OneDrive\Documents,FALSE,mono,FALSE,18,no,white,no,yes,768,legacy,11,79,C:/Users/backs/OneDrive/Documents/BZ-subject-3.csv,legacy,Melodramatic Milgram,4.0.5,0,h,s,h,NA,h,NA,454,2200,22470,NA,454,NA,NA,NA,2,legacy,1024,2,48000,-16,experiment,HHSHH,3,odd,187245,5274,166925,NA,77283,3068,183479,188279,NA,3072,144454,NA,188380,188835,NA,188278,188380,NA,Flanker Task ,90,53758,92,1024
97,97,584,584,#3d3846,legacy,legacy,legacy,congruent,1,undefined,1,h,92,0,0,0,92,0,92,92,NA,0,0,0,92,92,0,92,92,NA,Sun Sep 24 20:27:29 2023,600,The main experiment item,FALSE,FlankerTask.osexp,C:\Users\backs\OneDrive\Documents,FALSE,mono,FALSE,18,no,white,no,yes,768,legacy,12,79,C:/Users/backs/OneDrive/Documents/BZ-subject-3.csv,legacy,Melodramatic Milgram,4.0.5,0,h,s,h,NA,h,NA,573,2200,22470,NA,573,NA,NA,NA,2,legacy,1024,2,48000,-16,experiment,HHHHH,3,odd,189340,5274,166925,NA,188839,3068,183479,190391,NA,3072,144454,NA,190492,191067,NA,190389,190492,NA,Flanker Task ,91,54331,93,1024
97,97,584,584,#3d3846,legacy,legacy,legacy,incongruent,1,undefined,1,h,93,0,0,0,93,0,93,93,NA,0,0,0,93,93,0,93,93,NA,Sun Sep 24 20:27:29 2023,600,The main experiment item,FALSE,FlankerTask.osexp,C:\Users\backs\OneDrive\Documents,FALSE,mono,FALSE,18,no,white,no,yes,768,legacy,13,79,C:/Users/backs/OneDrive/Documents/BZ-subject-3.csv,legacy,Melodramatic Milgram,4.0.5,0,h,s,h,NA,h,NA,587,2200,22470,NA,587,NA,NA,NA,2,legacy,1024,2,48000,-16,experiment,SSHSS,3,odd,191073,5274,166925,NA,188839,3068,183479,192114,NA,3072,144454,NA,192215,192803,NA,192113,192215,NA,Flanker Task ,92,54918,94,1024
97,97,583,583,#3d3846,legacy,legacy,legacy,congruent,1,undefined,1,h,94,0,0,0,94,0,94,94,NA,0,0,0,94,94,0,94,94,NA,Sun Sep 24 20:27:29 2023,600,The main experiment item,FALSE,FlankerTask.osexp,C:\Users\backs\OneDrive\Documents,FALSE,mono,FALSE,18,no,white,no,yes,768,legacy,14,79,C:/Users/backs/OneDrive/Documents/BZ-subject-3.csv,legacy,Melodramatic Milgram,4.0.5,0,h,s,h,NA,h,NA,523,2200,22470,NA,523,NA,NA,NA,2,legacy,1024,2,48000,-16,experiment,HHHHH,3,odd,192807,5274,166925,NA,188839,3068,183479,193862,NA,3072,144454,NA,193963,194487,NA,193860,193963,NA,Flanker Task ,93,55441,95,1024
97,97,582,582,#3d3846,legacy,legacy,legacy,congruent,1,undefined,1,h,95,0,0,0,95,0,95,95,NA,0,0,0,95,95,0,95,95,NA,Sun Sep 24 20:27:29 2023,600,The main experiment item,FALSE,FlankerTask.osexp,C:\Users\backs\OneDrive\Documents,FALSE,mono,FALSE,18,no,white,no,yes,768,legacy,15,79,C:/Users/backs/OneDrive/Documents/BZ-subject-3.csv,legacy,Melodramatic Milgram,4.0.5,0,h,s,h,NA,h,NA,463,2200,22470,NA,463,NA,NA,NA,2,legacy,1024,2,48000,-16,experiment,HHHHH,3,odd,194491,5274,166925,NA,188839,3068,183479,195544,NA,3072,144454,NA,195645,196110,NA,195542,195645,NA,Flanker Task ,94,55904,96,1024
97,97,580,580,#3d3846,legacy,legacy,legacy,congruent,1,undefined,1,s,96,0,0,0,96,0,96,96,NA,0,0,0,96,96,0,96,96,NA,Sun Sep 24 20:27:29 2023,600,The main experiment item,FALSE,FlankerTask.osexp,C:\Users\backs\OneDrive\Documents,FALSE,mono,FALSE,18,no,white,no,yes,768,legacy,16,79,C:/Users/backs/OneDrive/Documents/BZ-subject-3.csv,legacy,Melodramatic Milgram,4.0.5,0,s,s,h,NA,s,NA,452,2200,22470,NA,452,NA,NA,NA,2,legacy,1024,2,48000,-16,experiment,SSSSS,3,odd,196114,5274,166925,NA,188839,3068,183479,197163,NA,3072,144454,NA,197264,197718,NA,197162,197264,NA,Flanker Task ,95,56356,97,1024
97,97,580,580,#3d3846,legacy,legacy,legacy,incongruent,1,undefined,1,h,97,0,0,0,97,0,97,97,NA,0,0,0,97,97,0,97,97,NA,Sun Sep 24 20:27:29 2023,600,The main experiment item,FALSE,FlankerTask.osexp,C:\Users\backs\OneDrive\Documents,FALSE,mono,FALSE,18,no,white,no,yes,768,legacy,17,79,C:/Users/backs/OneDrive/Documents/BZ-subject-3.csv,legacy,Melodramatic Milgram,4.0.5,0,h,s,h,NA,h,NA,533,2200,22470,NA,533,NA,NA,NA,2,legacy,1024,2,48000,-16,experiment,SSHSS,3,odd,197722,5274,166925,NA,188839,3068,183479,198770,NA,3072,144454,NA,198871,199406,NA,198769,198871,NA,Flanker Task ,96,56889,98,1024
97,97,580,580,#3d3846,legacy,legacy,legacy,congruent,1,undefined,1,h,98,0,0,0,98,0,98,98,NA,0,0,0,98,98,0,98,98,NA,Sun Sep 24 20:27:29 2023,600,The main experiment item,FALSE,FlankerTask.osexp,C:\Users\backs\OneDrive\Documents,FALSE,mono,FALSE,18,no,white,no,yes,768,legacy,18,79,C:/Users/backs/OneDrive/Documents/BZ-subject-3.csv,legacy,Melodramatic Milgram,4.0.5,0,h,s,h,NA,h,NA,546,2200,22470,NA,546,NA,NA,NA,2,legacy,1024,2,48000,-16,experiment,HHHHH,3,odd,199410,5274,166925,NA,188839,3068,183479,200479,NA,3072,144454,NA,200581,201128,NA,200478,200581,NA,Flanker Task ,97,57435,99,1024
98,98,579,579,#3d3846,legacy,legacy,legacy,incongruent,1,undefined,1,h,99,0,0,0,99,0,99,99,NA,0,0,0,99,99,0,99,99,NA,Sun Sep 24 20:27:29 2023,600,The main experiment item,FALSE,FlankerTask.osexp,C:\Users\backs\OneDrive\Documents,FALSE,mono,FALSE,18,no,white,no,yes,768,legacy,19,79,C:/Users/backs/OneDrive/Documents/BZ-subject-3.csv,legacy,Melodramatic Milgram,4.0.5,0,h,s,h,NA,h,NA,481,2200,22470,NA,481,NA,NA,NA,2,legacy,1024,2,48000,-16,experiment,SSHSS,3,odd,201133,5274,166925,NA,188839,3068,183479,202182,NA,3072,144454,NA,202283,202766,NA,202180,202283,NA,Flanker Task ,98,57916,100,1024
98,98,578,578,#3d3846,legacy,legacy,legacy,congruent,1,undefined,1,h,100,0,0,0,100,0,100,100,NA,0,0,0,100,100,0,100,100,NA,Sun Sep 24 20:27:29 2023,600,The main experiment item,FALSE,FlankerTask.osexp,C:\Users\backs\OneDrive\Documents,FALSE,mono,FALSE,18,no,white,no,yes,768,legacy,20,79,C:/Users/backs/OneDrive/Documents/BZ-subject-3.csv,legacy,Melodramatic Milgram,4.0.5,0,h,s,h,NA,h,NA,469,2200,22470,NA,469,NA,NA,NA,2,legacy,1024,2,48000,-16,experiment,HHHHH,3,odd,202770,5274,166925,NA,188839,3068,183479,203805,NA,3072,144454,NA,203906,204376,NA,203804,203906,NA,Flanker Task ,99,58385,101,1024
98,98,578,578,#3d3846,legacy,legacy,legacy,incongruent,1,undefined,1,s,101,0,0,0,101,0,101,101,NA,0,0,0,101,101,0,101,101,NA,Sun Sep 24 20:27:29 2023,600,The main experiment item,FALSE,FlankerTask.osexp,C:\Users\backs\OneDrive\Documents,FALSE,mono,FALSE,18,no,white,no,yes,768,legacy,21,79,C:/Users/backs/OneDrive/Documents/BZ-subject-3.csv,legacy,Melodramatic Milgram,4.0.5,0,s,s,h,NA,s,NA,572,2200,22470,NA,572,NA,NA,NA,2,legacy,1024,2,48000,-16,experiment,HHSHH,3,odd,204380,5274,166925,NA,188839,3068,183479,205411,NA,3072,144454,NA,205512,206085,NA,205410,205512,NA,Flanker Task ,100,58957,102,1024
98,98,577,577,#3d3846,legacy,legacy,legacy,incongruent,1,undefined,1,s,102,0,0,0,102,0,102,102,NA,0,0,0,102,102,0,102,102,NA,Sun Sep 24 20:27:29 2023,600,The main experiment item,FALSE,FlankerTask.osexp,C:\Users\backs\OneDrive\Documents,FALSE,mono,FALSE,18,no,white,no,yes,768,legacy,22,79,C:/Users/backs/OneDrive/Documents/BZ-subject-3.csv,legacy,Melodramatic Milgram,4.0.5,0,s,s,h,NA,s,NA,519,2200,22470,NA,519,NA,NA,NA,2,legacy,1024,2,48000,-16,experiment,HHSHH,3,odd,206089,5274,166925,NA,188839,3068,183479,207136,NA,3072,144454,NA,207237,207757,NA,207134,207237,NA,Flanker Task ,101,59476,103,1024
97,97,576,576,#3d3846,legacy,legacy,legacy,incongruent,0,undefined,0,h,103,0,0,0,103,0,103,103,NA,0,0,0,103,103,0,103,103,NA,Sun Sep 24 20:27:29 2023,600,The main experiment item,FALSE,FlankerTask.osexp,C:\Users\backs\OneDrive\Documents,FALSE,mono,FALSE,18,no,white,no,yes,768,legacy,23,79,C:/Users/backs/OneDrive/Documents/BZ-subject-3.csv,legacy,Melodramatic Milgram,4.0.5,0,s,s,h,NA,s,NA,504,2200,22470,NA,504,NA,NA,NA,2,legacy,1024,2,48000,-16,experiment,SSHSS,3,odd,207762,5274,166925,NA,188839,3068,183479,208811,NA,3072,144454,NA,208912,209418,NA,208810,208912,NA,Flanker Task ,101,59980,104,1024
97,97,575,575,#3d3846,legacy,legacy,legacy,congruent,1,undefined,1,h,104,0,0,0,104,0,104,104,NA,0,0,0,104,104,0,104,104,NA,Sun Sep 24 20:27:29 2023,600,The main experiment item,FALSE,FlankerTask.osexp,C:\Users\backs\OneDrive\Documents,FALSE,mono,FALSE,18,no,white,no,yes,768,legacy,24,79,C:/Users/backs/OneDrive/Documents/BZ-subject-3.csv,legacy,Melodramatic Milgram,4.0.5,0,h,s,h,NA,h,NA,480,2200,22470,NA,480,NA,NA,NA,2,legacy,1024,2,48000,-16,experiment,HHHHH,3,odd,209923,5274,166925,NA,209421,3068,183479,210975,NA,3072,144454,NA,211076,211557,NA,210973,211075,NA,Flanker Task ,102,60460,105,1024
97,97,575,575,#3d3846,legacy,legacy,legacy,incongruent,1,undefined,1,s,105,0,0,0,105,0,105,105,NA,0,0,0,105,105,0,105,105,NA,Sun Sep 24 20:27:29 2023,600,The main experiment item,FALSE,FlankerTask.osexp,C:\Users\backs\OneDrive\Documents,FALSE,mono,FALSE,18,no,white,no,yes,768,legacy,25,79,C:/Users/backs/OneDrive/Documents/BZ-subject-3.csv,legacy,Melodramatic Milgram,4.0.5,0,s,s,h,NA,s,NA,514,2200,22470,NA,514,NA,NA,NA,2,legacy,1024,2,48000,-16,experiment,HHSHH,3,odd,211561,5274,166925,NA,209421,3068,183479,212596,NA,3072,144454,NA,212697,213212,NA,212594,212697,NA,Flanker Task ,103,60974,106,1024
97,97,574,574,#3d3846,legacy,legacy,legacy,congruent,1,undefined,1,s,106,0,0,0,106,0,106,106,NA,0,0,0,106,106,0,106,106,NA,Sun Sep 24 20:27:29 2023,600,The main experiment item,FALSE,FlankerTask.osexp,C:\Users\backs\OneDrive\Documents,FALSE,mono,FALSE,18,no,white,no,yes,768,legacy,26,79,C:/Users/backs/OneDrive/Documents/BZ-subject-3.csv,legacy,Melodramatic Milgram,4.0.5,0,s,s,h,NA,s,NA,478,2200,22470,NA,478,NA,NA,NA,2,legacy,1024,2,48000,-16,experiment,SSSSS,3,odd,213217,5274,166925,NA,209421,3068,183479,214257,NA,3072,144454,NA,214357,214836,NA,214256,214357,NA,Flanker Task ,104,61452,107,1024
97,97,574,574,#3d3846,legacy,legacy,legacy,incongruent,1,undefined,1,s,107,0,0,0,107,0,107,107,NA,0,0,0,107,107,0,107,107,NA,Sun Sep 24 20:27:29 2023,600,The main experiment item,FALSE,FlankerTask.osexp,C:\Users\backs\OneDrive\Documents,FALSE,mono,FALSE,18,no,white,no,yes,768,legacy,27,79,C:/Users/backs/OneDrive/Documents/BZ-subject-3.csv,legacy,Melodramatic Milgram,4.0.5,0,s,s,h,NA,s,NA,641,2200,22470,NA,641,NA,NA,NA,2,legacy,1024,2,48000,-16,experiment,HHSHH,3,odd,214840,5274,166925,NA,209421,3068,183479,215914,NA,3072,144454,NA,216015,216658,NA,215913,216015,NA,Flanker Task ,105,62093,108,1024
97,97,577,577,#3d3846,legacy,legacy,legacy,incongruent,1,undefined,1,h,108,0,0,0,108,0,108,108,NA,0,0,0,108,108,0,108,108,NA,Sun Sep 24 20:27:29 2023,600,The main experiment item,FALSE,FlankerTask.osexp,C:\Users\backs\OneDrive\Documents,FALSE,mono,FALSE,18,no,white,no,yes,768,legacy,28,79,C:/Users/backs/OneDrive/Documents/BZ-subject-3.csv,legacy,Melodramatic Milgram,4.0.5,0,h,s,h,NA,h,NA,893,2200,22470,NA,893,NA,NA,NA,2,legacy,1024,2,48000,-16,experiment,SSHSS,3,odd,217164,5274,166925,NA,209421,3068,216662,218215,NA,3072,144454,NA,218316,219210,NA,218213,218316,NA,Flanker Task ,106,62986,109,1024
97,97,576,576,#3d3846,legacy,legacy,legacy,congruent,1,undefined,1,s,109,0,0,0,109,0,109,109,NA,0,0,0,109,109,0,109,109,NA,Sun Sep 24 20:27:29 2023,600,The main experiment item,FALSE,FlankerTask.osexp,C:\Users\backs\OneDrive\Documents,FALSE,mono,FALSE,18,no,white,no,yes,768,legacy,29,79,C:/Users/backs/OneDrive/Documents/BZ-subject-3.csv,legacy,Melodramatic Milgram,4.0.5,0,s,s,h,NA,s,NA,459,2200,22470,NA,459,NA,NA,NA,2,legacy,1024,2,48000,-16,experiment,SSSSS,3,odd,219715,5274,166925,NA,209421,3068,219214,220768,NA,3072,144454,NA,220869,221329,NA,220766,220869,NA,Flanker Task ,107,63445,110,1024
97,97,575,575,#3d3846,legacy,legacy,legacy,congruent,1,undefined,1,h,110,0,0,0,110,0,110,110,NA,0,0,0,110,110,0,110,110,NA,Sun Sep 24 20:27:29 2023,600,The main experiment item,FALSE,FlankerTask.osexp,C:\Users\backs\OneDrive\Documents,FALSE,mono,FALSE,18,no,white,no,yes,768,legacy,30,79,C:/Users/backs/OneDrive/Documents/BZ-subject-3.csv,legacy,Melodramatic Milgram,4.0.5,0,h,s,h,NA,h,NA,448,2200,22470,NA,448,NA,NA,NA,2,legacy,1024,2,48000,-16,experiment,HHHHH,3,odd,221334,5274,166925,NA,209421,3068,219214,222384,NA,3072,144454,NA,222485,222935,NA,222382,222485,NA,Flanker Task ,108,63893,111,1024
97,97,574,574,#3d3846,legacy,legacy,legacy,congruent,1,undefined,1,s,111,0,0,0,111,0,111,111,NA,0,0,0,111,111,0,111,111,NA,Sun Sep 24 20:27:29 2023,600,The main experiment item,FALSE,FlankerTask.osexp,C:\Users\backs\OneDrive\Documents,FALSE,mono,FALSE,18,no,white,no,yes,768,legacy,31,79,C:/Users/backs/OneDrive/Documents/BZ-subject-3.csv,legacy,Melodramatic Milgram,4.0.5,0,s,s,h,NA,s,NA,479,2200,22470,NA,479,NA,NA,NA,2,legacy,1024,2,48000,-16,experiment,SSSSS,3,odd,222939,5274,166925,NA,209421,3068,219214,223993,NA,3072,144454,NA,224094,224575,NA,223991,224094,NA,Flanker Task ,109,64372,112,1024
97,97,573,573,#3d3846,legacy,legacy,legacy,congruent,1,undefined,1,h,112,0,0,0,112,0,112,112,NA,0,0,0,112,112,0,112,112,NA,Sun Sep 24 20:27:29 2023,600,The main experiment item,FALSE,FlankerTask.osexp,C:\Users\backs\OneDrive\Documents,FALSE,mono,FALSE,18,no,white,no,yes,768,legacy,32,79,C:/Users/backs/OneDrive/Documents/BZ-subject-3.csv,legacy,Melodramatic Milgram,4.0.5,0,h,s,h,NA,h,NA,393,2200,22470,NA,393,NA,NA,NA,2,legacy,1024,2,48000,-16,experiment,HHHHH,3,odd,224579,5274,166925,NA,209421,3068,219214,225629,NA,3072,144454,NA,225730,226124,NA,225628,225730,NA,Flanker Task ,110,64765,113,1024
97,97,572,572,#3d3846,legacy,legacy,legacy,congruent,1,undefined,1,h,113,0,0,0,113,0,113,113,NA,0,0,0,113,113,0,113,113,NA,Sun Sep 24 20:27:29 2023,600,The main experiment item,FALSE,FlankerTask.osexp,C:\Users\backs\OneDrive\Documents,FALSE,mono,FALSE,18,no,white,no,yes,768,legacy,33,79,C:/Users/backs/OneDrive/Documents/BZ-subject-3.csv,legacy,Melodramatic Milgram,4.0.5,0,h,s,h,NA,h,NA,458,2200,22470,NA,458,NA,NA,NA,2,legacy,1024,2,48000,-16,experiment,HHHHH,3,odd,226127,5274,166925,NA,209421,3068,219214,227175,NA,3072,144454,NA,227276,227736,NA,227173,227276,NA,Flanker Task ,111,65223,114,1024
97,97,571,571,#3d3846,legacy,legacy,legacy,congruent,1,undefined,1,h,114,0,0,0,114,0,114,114,NA,0,0,0,114,114,0,114,114,NA,Sun Sep 24 20:27:29 2023,600,The main experiment item,FALSE,FlankerTask.osexp,C:\Users\backs\OneDrive\Documents,FALSE,mono,FALSE,18,no,white,no,yes,768,legacy,34,79,C:/Users/backs/OneDrive/Documents/BZ-subject-3.csv,legacy,Melodramatic Milgram,4.0.5,0,h,s,h,NA,h,NA,489,2200,22470,NA,489,NA,NA,NA,2,legacy,1024,2,48000,-16,experiment,HHHHH,3,odd,227739,5274,166925,NA,209421,3068,219214,228770,NA,3072,144454,NA,228871,229361,NA,228769,228871,NA,Flanker Task ,112,65712,115,1024
97,97,571,571,#3d3846,legacy,legacy,legacy,incongruent,1,undefined,1,s,115,0,0,0,115,0,115,115,NA,0,0,0,115,115,0,115,115,NA,Sun Sep 24 20:27:29 2023,600,The main experiment item,FALSE,FlankerTask.osexp,C:\Users\backs\OneDrive\Documents,FALSE,mono,FALSE,18,no,white,no,yes,768,legacy,35,79,C:/Users/backs/OneDrive/Documents/BZ-subject-3.csv,legacy,Melodramatic Milgram,4.0.5,0,s,s,h,NA,s,NA,551,2200,22470,NA,551,NA,NA,NA,2,legacy,1024,2,48000,-16,experiment,HHSHH,3,odd,229365,5274,166925,NA,209421,3068,219214,230395,NA,3072,144454,NA,230496,231048,NA,230394,230496,NA,Flanker Task ,113,66263,116,1024
97,97,571,571,#3d3846,legacy,legacy,legacy,incongruent,1,undefined,1,s,116,0,0,0,116,0,116,116,NA,0,0,0,116,116,0,116,116,NA,Sun Sep 24 20:27:29 2023,600,The main experiment item,FALSE,FlankerTask.osexp,C:\Users\backs\OneDrive\Documents,FALSE,mono,FALSE,18,no,white,no,yes,768,legacy,36,79,C:/Users/backs/OneDrive/Documents/BZ-subject-3.csv,legacy,Melodramatic Milgram,4.0.5,0,s,s,h,NA,s,NA,549,2200,22470,NA,549,NA,NA,NA,2,legacy,1024,2,48000,-16,experiment,HHSHH,3,odd,231051,5274,166925,NA,209421,3068,219214,232100,NA,3072,144454,NA,232201,232752,NA,232099,232201,NA,Flanker Task ,114,66812,117,1024
97,97,571,571,#3d3846,legacy,legacy,legacy,incongruent,1,undefined,1,h,117,0,0,0,117,0,117,117,NA,0,0,0,117,117,0,117,117,NA,Sun Sep 24 20:27:29 2023,600,The main experiment item,FALSE,FlankerTask.osexp,C:\Users\backs\OneDrive\Documents,FALSE,mono,FALSE,18,no,white,no,yes,768,legacy,37,79,C:/Users/backs/OneDrive/Documents/BZ-subject-3.csv,legacy,Melodramatic Milgram,4.0.5,0,h,s,h,NA,h,NA,568,2200,22470,NA,568,NA,NA,NA,2,legacy,1024,2,48000,-16,experiment,SSHSS,3,odd,232757,5274,166925,NA,209421,3068,219214,233788,NA,3072,144454,NA,233889,234458,NA,233787,233889,NA,Flanker Task ,115,67380,118,1024
97,97,569,569,#3d3846,legacy,legacy,legacy,incongruent,1,undefined,1,s,118,0,0,0,118,0,118,118,NA,0,0,0,118,118,0,118,118,NA,Sun Sep 24 20:27:29 2023,600,The main experiment item,FALSE,FlankerTask.osexp,C:\Users\backs\OneDrive\Documents,FALSE,mono,FALSE,18,no,white,no,yes,768,legacy,38,79,C:/Users/backs/OneDrive/Documents/BZ-subject-3.csv,legacy,Melodramatic Milgram,4.0.5,0,s,s,h,NA,s,NA,435,2200,22470,NA,435,NA,NA,NA,2,legacy,1024,2,48000,-16,experiment,HHSHH,3,odd,234462,5274,166925,NA,209421,3068,219214,235493,NA,3072,144454,NA,235593,236030,NA,235492,235593,NA,Flanker Task ,116,67815,119,1024
97,97,568,568,#3d3846,legacy,legacy,legacy,incongruent,1,undefined,1,s,119,0,0,0,119,0,119,119,NA,0,0,0,119,119,0,119,119,NA,Sun Sep 24 20:27:29 2023,600,The main experiment item,FALSE,FlankerTask.osexp,C:\Users\backs\OneDrive\Documents,FALSE,mono,FALSE,18,no,white,no,yes,768,legacy,39,79,C:/Users/backs/OneDrive/Documents/BZ-subject-3.csv,legacy,Melodramatic Milgram,4.0.5,0,s,s,h,NA,s,NA,459,2200,22470,NA,459,NA,NA,NA,2,legacy,1024,2,48000,-16,experiment,HHSHH,3,odd,236035,5274,166925,NA,209421,3068,219214,237082,NA,3072,144454,NA,237183,237644,NA,237080,237183,NA,Flanker Task ,117,68274,120,1024
97,97,568,568,#3d3846,legacy,legacy,legacy,incongruent,1,undefined,1,s,120,0,0,0,120,0,120,120,NA,0,0,0,120,120,0,120,120,NA,Sun Sep 24 20:27:29 2023,600,The main experiment item,FALSE,FlankerTask.osexp,C:\Users\backs\OneDrive\Documents,FALSE,mono,FALSE,18,no,white,no,yes,768,legacy,40,79,C:/Users/backs/OneDrive/Documents/BZ-subject-3.csv,legacy,Melodramatic Milgram,4.0.5,0,s,s,h,NA,s,NA,515,2200,22470,NA,515,NA,NA,NA,2,legacy,1024,2,48000,-16,experiment,HHSHH,3,odd,237648,5274,166925,NA,209421,3068,219214,238683,NA,3072,144454,NA,238784,239301,NA,238682,238784,NA,Flanker Task ,118,68789,121,1024
97,97,568,568,#3d3846,legacy,legacy,legacy,incongruent,1,undefined,1,h,121,0,0,0,121,0,121,121,NA,0,0,0,121,121,0,121,121,NA,Sun Sep 24 20:27:29 2023,600,The main experiment item,FALSE,FlankerTask.osexp,C:\Users\backs\OneDrive\Documents,FALSE,mono,FALSE,18,no,white,no,yes,768,legacy,41,79,C:/Users/backs/OneDrive/Documents/BZ-subject-3.csv,legacy,Melodramatic Milgram,4.0.5,0,h,s,h,NA,h,NA,609,2200,22470,NA,609,NA,NA,NA,2,legacy,1024,2,48000,-16,experiment,SSHSS,3,odd,239305,5274,166925,NA,209421,3068,219214,240336,NA,3072,144454,NA,240437,241047,NA,240335,240437,NA,Flanker Task ,119,69398,122,1024
97,97,569,569,#3d3846,legacy,legacy,legacy,congruent,1,undefined,1,h,122,0,0,0,122,0,122,122,NA,0,0,0,122,122,0,122,122,NA,Sun Sep 24 20:27:29 2023,600,The main experiment item,FALSE,FlankerTask.osexp,C:\Users\backs\OneDrive\Documents,FALSE,mono,FALSE,18,no,white,no,yes,768,legacy,42,79,C:/Users/backs/OneDrive/Documents/BZ-subject-3.csv,legacy,Melodramatic Milgram,4.0.5,0,h,s,h,NA,h,NA,702,2200,22470,NA,702,NA,NA,NA,2,legacy,1024,2,48000,-16,experiment,HHHHH,3,odd,241551,5274,166925,NA,209421,3068,241051,242597,NA,3072,144454,NA,242698,243402,NA,242595,242698,NA,Flanker Task ,120,70100,123,1024
97,97,569,569,#3d3846,legacy,legacy,legacy,incongruent,1,undefined,1,s,123,0,0,0,123,0,123,123,NA,0,0,0,123,123,0,123,123,NA,Sun Sep 24 20:27:29 2023,600,The main experiment item,FALSE,FlankerTask.osexp,C:\Users\backs\OneDrive\Documents,FALSE,mono,FALSE,18,no,white,no,yes,768,legacy,43,79,C:/Users/backs/OneDrive/Documents/BZ-subject-3.csv,legacy,Melodramatic Milgram,4.0.5,0,s,s,h,NA,s,NA,494,2200,22470,NA,494,NA,NA,NA,2,legacy,1024,2,48000,-16,experiment,HHSHH,3,odd,243907,5274,166925,NA,209421,3068,243406,244960,NA,3072,144454,NA,245061,245556,NA,244958,245061,NA,Flanker Task ,121,70594,124,1024
97,97,568,568,#3d3846,legacy,legacy,legacy,congruent,1,undefined,1,h,124,0,0,0,124,0,124,124,NA,0,0,0,124,124,0,124,124,NA,Sun Sep 24 20:27:29 2023,600,The main experiment item,FALSE,FlankerTask.osexp,C:\Users\backs\OneDrive\Documents,FALSE,mono,FALSE,18,no,white,no,yes,768,legacy,44,79,C:/Users/backs/OneDrive/Documents/BZ-subject-3.csv,legacy,Melodramatic Milgram,4.0.5,0,h,s,h,NA,h,NA,422,2200,22470,NA,422,NA,NA,NA,2,legacy,1024,2,48000,-16,experiment,HHHHH,3,odd,245560,5274,166925,NA,209421,3068,243406,246608,NA,3072,144454,NA,246709,247133,NA,246606,246709,NA,Flanker Task ,122,71016,125,1024
97,97,567,567,#3d3846,legacy,legacy,legacy,incongruent,1,undefined,1,h,125,0,0,0,125,0,125,125,NA,0,0,0,125,125,0,125,125,NA,Sun Sep 24 20:27:29 2023,600,The main experiment item,FALSE,FlankerTask.osexp,C:\Users\backs\OneDrive\Documents,FALSE,mono,FALSE,18,no,white,no,yes,768,legacy,45,79,C:/Users/backs/OneDrive/Documents/BZ-subject-3.csv,legacy,Melodramatic Milgram,4.0.5,0,h,s,h,NA,h,NA,522,2200,22470,NA,522,NA,NA,NA,2,legacy,1024,2,48000,-16,experiment,SSHSS,3,odd,247137,5274,166925,NA,209421,3068,243406,248199,NA,3072,144454,NA,248300,248823,NA,248198,248299,NA,Flanker Task ,123,71538,126,1024
97,97,566,566,#3d3846,legacy,legacy,legacy,congruent,1,undefined,1,s,126,0,0,0,126,0,126,126,NA,0,0,0,126,126,0,126,126,NA,Sun Sep 24 20:27:29 2023,600,The main experiment item,FALSE,FlankerTask.osexp,C:\Users\backs\OneDrive\Documents,FALSE,mono,FALSE,18,no,white,no,yes,768,legacy,46,79,C:/Users/backs/OneDrive/Documents/BZ-subject-3.csv,legacy,Melodramatic Milgram,4.0.5,0,s,s,h,NA,s,NA,439,2200,22470,NA,439,NA,NA,NA,2,legacy,1024,2,48000,-16,experiment,SSSSS,3,odd,248827,5274,166925,NA,209421,3068,243406,249873,NA,3072,144454,NA,249974,250414,NA,249872,249974,NA,Flanker Task ,124,71977,127,1024
97,97,566,566,#3d3846,legacy,legacy,legacy,incongruent,1,undefined,1,h,127,0,0,0,127,0,127,127,NA,0,0,0,127,127,0,127,127,NA,Sun Sep 24 20:27:29 2023,600,The main experiment item,FALSE,FlankerTask.osexp,C:\Users\backs\OneDrive\Documents,FALSE,mono,FALSE,18,no,white,no,yes,768,legacy,47,79,C:/Users/backs/OneDrive/Documents/BZ-subject-3.csv,legacy,Melodramatic Milgram,4.0.5,0,h,s,h,NA,h,NA,520,2200,22470,NA,520,NA,NA,NA,2,legacy,1024,2,48000,-16,experiment,SSHSS,3,odd,250418,5274,166925,NA,209421,3068,243406,251478,NA,3072,144454,NA,251579,252100,NA,251476,251579,NA,Flanker Task ,125,72497,128,1024
97,97,565,565,#3d3846,legacy,legacy,legacy,incongruent,1,undefined,1,h,128,0,0,0,128,0,128,128,NA,0,0,0,128,128,0,128,128,NA,Sun Sep 24 20:27:29 2023,600,The main experiment item,FALSE,FlankerTask.osexp,C:\Users\backs\OneDrive\Documents,FALSE,mono,FALSE,18,no,white,no,yes,768,legacy,48,79,C:/Users/backs/OneDrive/Documents/BZ-subject-3.csv,legacy,Melodramatic Milgram,4.0.5,0,h,s,h,NA,h,NA,493,2200,22470,NA,493,NA,NA,NA,2,legacy,1024,2,48000,-16,experiment,SSHSS,3,odd,252104,5274,166925,NA,209421,3068,243406,253152,NA,3072,144454,NA,253253,253747,NA,253150,253253,NA,Flanker Task ,126,72990,129,1024
97,97,565,565,#3d3846,legacy,legacy,legacy,congruent,1,undefined,1,h,129,0,0,0,129,0,129,129,NA,0,0,0,129,129,0,129,129,NA,Sun Sep 24 20:27:29 2023,600,The main experiment item,FALSE,FlankerTask.osexp,C:\Users\backs\OneDrive\Documents,FALSE,mono,FALSE,18,no,white,no,yes,768,legacy,49,79,C:/Users/backs/OneDrive/Documents/BZ-subject-3.csv,legacy,Melodramatic Milgram,4.0.5,0,h,s,h,NA,h,NA,465,2200,22470,NA,465,NA,NA,NA,2,legacy,1024,2,48000,-16,experiment,HHHHH,3,odd,253753,5274,166925,NA,209421,3068,243406,254809,NA,3072,144454,NA,254910,255376,NA,254807,254910,NA,Flanker Task ,127,73455,130,1024
97,97,564,564,#3d3846,legacy,legacy,legacy,congruent,1,undefined,1,s,130,0,0,0,130,0,130,130,NA,0,0,0,130,130,0,130,130,NA,Sun Sep 24 20:27:29 2023,600,The main experiment item,FALSE,FlankerTask.osexp,C:\Users\backs\OneDrive\Documents,FALSE,mono,FALSE,18,no,white,no,yes,768,legacy,50,79,C:/Users/backs/OneDrive/Documents/BZ-subject-3.csv,legacy,Melodramatic Milgram,4.0.5,0,s,s,h,NA,s,NA,507,2200,22470,NA,507,NA,NA,NA,2,legacy,1024,2,48000,-16,experiment,SSSSS,3,odd,255380,5274,166925,NA,209421,3068,243406,256437,NA,3072,144454,NA,256538,257047,NA,256435,256538,NA,Flanker Task ,128,73962,131,1024
97,97,563,563,#3d3846,legacy,legacy,legacy,incongruent,1,undefined,1,h,131,0,0,0,131,0,131,131,NA,0,0,0,131,131,0,131,131,NA,Sun Sep 24 20:27:29 2023,600,The main experiment item,FALSE,FlankerTask.osexp,C:\Users\backs\OneDrive\Documents,FALSE,mono,FALSE,18,no,white,no,yes,768,legacy,51,79,C:/Users/backs/OneDrive/Documents/BZ-subject-3.csv,legacy,Melodramatic Milgram,4.0.5,0,h,s,h,NA,h,NA,461,2200,22470,NA,461,NA,NA,NA,2,legacy,1024,2,48000,-16,experiment,SSHSS,3,odd,257051,5274,166925,NA,209421,3068,243406,258103,NA,3072,144454,NA,258204,258667,NA,258102,258204,NA,Flanker Task ,129,74423,132,1024
97,97,562,562,#3d3846,legacy,legacy,legacy,incongruent,1,undefined,1,s,132,0,0,0,132,0,132,132,NA,0,0,0,132,132,0,132,132,NA,Sun Sep 24 20:27:29 2023,600,The main experiment item,FALSE,FlankerTask.osexp,C:\Users\backs\OneDrive\Documents,FALSE,mono,FALSE,18,no,white,no,yes,768,legacy,52,79,C:/Users/backs/OneDrive/Documents/BZ-subject-3.csv,legacy,Melodramatic Milgram,4.0.5,0,s,s,h,NA,s,NA,449,2200,22470,NA,449,NA,NA,NA,2,legacy,1024,2,48000,-16,experiment,HHSHH,3,odd,258672,5274,166925,NA,209421,3068,243406,259725,NA,3072,144454,NA,259826,260277,NA,259724,259826,NA,Flanker Task ,130,74872,133,1024
97,97,562,562,#3d3846,legacy,legacy,legacy,incongruent,0,undefined,0,s,133,0,0,0,133,0,133,133,NA,0,0,0,133,133,0,133,133,NA,Sun Sep 24 20:27:29 2023,600,The main experiment item,FALSE,FlankerTask.osexp,C:\Users\backs\OneDrive\Documents,FALSE,mono,FALSE,18,no,white,no,yes,768,legacy,53,79,C:/Users/backs/OneDrive/Documents/BZ-subject-3.csv,legacy,Melodramatic Milgram,4.0.5,0,h,s,h,NA,h,NA,467,2200,22470,NA,467,NA,NA,NA,2,legacy,1024,2,48000,-16,experiment,HHSHH,3,odd,260281,5274,166925,NA,209421,3068,243406,261336,NA,3072,144454,NA,261437,261905,NA,261334,261437,NA,Flanker Task ,130,75339,134,1024
97,97,561,561,#3d3846,legacy,legacy,legacy,congruent,1,undefined,1,h,134,0,0,0,134,0,134,134,NA,0,0,0,134,134,0,134,134,NA,Sun Sep 24 20:27:29 2023,600,The main experiment item,FALSE,FlankerTask.osexp,C:\Users\backs\OneDrive\Documents,FALSE,mono,FALSE,18,no,white,no,yes,768,legacy,54,79,C:/Users/backs/OneDrive/Documents/BZ-subject-3.csv,legacy,Melodramatic Milgram,4.0.5,0,h,s,h,NA,h,NA,520,2200,22470,NA,520,NA,NA,NA,2,legacy,1024,2,48000,-16,experiment,HHHHH,3,odd,262409,5274,166925,NA,261908,3068,243406,263458,NA,3072,144454,NA,263559,264080,NA,263457,263559,NA,Flanker Task ,131,75859,135,1024
97,97,561,561,#3d3846,legacy,legacy,legacy,incongruent,1,undefined,1,h,135,0,0,0,135,0,135,135,NA,0,0,0,135,135,0,135,135,NA,Sun Sep 24 20:27:29 2023,600,The main experiment item,FALSE,FlankerTask.osexp,C:\Users\backs\OneDrive\Documents,FALSE,mono,FALSE,18,no,white,no,yes,768,legacy,55,79,C:/Users/backs/OneDrive/Documents/BZ-subject-3.csv,legacy,Melodramatic Milgram,4.0.5,0,h,s,h,NA,h,NA,526,2200,22470,NA,526,NA,NA,NA,2,legacy,1024,2,48000,-16,experiment,SSHSS,3,odd,264084,5274,166925,NA,261908,3068,243406,265123,NA,3072,144454,NA,265224,265751,NA,265122,265224,NA,Flanker Task ,132,76385,136,1024
97,97,560,560,#3d3846,legacy,legacy,legacy,congruent,1,undefined,1,s,136,0,0,0,136,0,136,136,NA,0,0,0,136,136,0,136,136,NA,Sun Sep 24 20:27:29 2023,600,The main experiment item,FALSE,FlankerTask.osexp,C:\Users\backs\OneDrive\Documents,FALSE,mono,FALSE,18,no,white,no,yes,768,legacy,56,79,C:/Users/backs/OneDrive/Documents/BZ-subject-3.csv,legacy,Melodramatic Milgram,4.0.5,0,s,s,h,NA,s,NA,461,2200,22470,NA,461,NA,NA,NA,2,legacy,1024,2,48000,-16,experiment,SSSSS,3,odd,265755,5274,166925,NA,261908,3068,243406,266809,NA,3072,144454,NA,266910,267373,NA,266807,266909,NA,Flanker Task ,133,76846,137,1024
97,97,560,560,#3d3846,legacy,legacy,legacy,congruent,1,undefined,1,s,137,0,0,0,137,0,137,137,NA,0,0,0,137,137,0,137,137,NA,Sun Sep 24 20:27:29 2023,600,The main experiment item,FALSE,FlankerTask.osexp,C:\Users\backs\OneDrive\Documents,FALSE,mono,FALSE,18,no,white,no,yes,768,legacy,57,79,C:/Users/backs/OneDrive/Documents/BZ-subject-3.csv,legacy,Melodramatic Milgram,4.0.5,0,s,s,h,NA,s,NA,470,2200,22470,NA,470,NA,NA,NA,2,legacy,1024,2,48000,-16,experiment,SSSSS,3,odd,267375,5274,166925,NA,261908,3068,243406,268406,NA,3072,144454,NA,268508,268980,NA,268405,268508,NA,Flanker Task ,134,77316,138,1024
97,97,559,559,#3d3846,legacy,legacy,legacy,congruent,1,undefined,1,s,138,0,0,0,138,0,138,138,NA,0,0,0,138,138,0,138,138,NA,Sun Sep 24 20:27:29 2023,600,The main experiment item,FALSE,FlankerTask.osexp,C:\Users\backs\OneDrive\Documents,FALSE,mono,FALSE,18,no,white,no,yes,768,legacy,58,79,C:/Users/backs/OneDrive/Documents/BZ-subject-3.csv,legacy,Melodramatic Milgram,4.0.5,0,s,s,h,NA,s,NA,500,2200,22470,NA,500,NA,NA,NA,2,legacy,1024,2,48000,-16,experiment,SSSSS,3,odd,268984,5274,166925,NA,261908,3068,243406,270017,NA,3072,144454,NA,270118,270619,NA,270015,270118,NA,Flanker Task ,135,77816,139,1024
97,97,559,559,#3d3846,legacy,legacy,legacy,incongruent,1,undefined,1,s,139,0,0,0,139,0,139,139,NA,0,0,0,139,139,0,139,139,NA,Sun Sep 24 20:27:29 2023,600,The main experiment item,FALSE,FlankerTask.osexp,C:\Users\backs\OneDrive\Documents,FALSE,mono,FALSE,18,no,white,no,yes,768,legacy,59,79,C:/Users/backs/OneDrive/Documents/BZ-subject-3.csv,legacy,Melodramatic Milgram,4.0.5,0,s,s,h,NA,s,NA,470,2200,22470,NA,470,NA,NA,NA,2,legacy,1024,2,48000,-16,experiment,HHSHH,3,odd,270623,5274,166925,NA,261908,3068,243406,271660,NA,3072,144454,NA,271761,272232,NA,271659,271761,NA,Flanker Task ,136,78286,140,1024
97,97,558,558,#3d3846,legacy,legacy,legacy,incongruent,1,undefined,1,h,140,0,0,0,140,0,140,140,NA,0,0,0,140,140,0,140,140,NA,Sun Sep 24 20:27:29 2023,600,The main experiment item,FALSE,FlankerTask.osexp,C:\Users\backs\OneDrive\Documents,FALSE,mono,FALSE,18,no,white,no,yes,768,legacy,60,79,C:/Users/backs/OneDrive/Documents/BZ-subject-3.csv,legacy,Melodramatic Milgram,4.0.5,0,h,s,h,NA,h,NA,493,2200,22470,NA,493,NA,NA,NA,2,legacy,1024,2,48000,-16,experiment,SSHSS,3,odd,272237,5274,166925,NA,261908,3068,243406,273279,NA,3072,144454,NA,273380,273874,NA,273277,273380,NA,Flanker Task ,137,78779,141,1024
97,97,557,557,#3d3846,legacy,legacy,legacy,congruent,1,undefined,1,h,141,0,0,0,141,0,141,141,NA,0,0,0,141,141,0,141,141,NA,Sun Sep 24 20:27:29 2023,600,The main experiment item,FALSE,FlankerTask.osexp,C:\Users\backs\OneDrive\Documents,FALSE,mono,FALSE,18,no,white,no,yes,768,legacy,61,79,C:/Users/backs/OneDrive/Documents/BZ-subject-3.csv,legacy,Melodramatic Milgram,4.0.5,0,h,s,h,NA,h,NA,451,2200,22470,NA,451,NA,NA,NA,2,legacy,1024,2,48000,-16,experiment,HHHHH,3,odd,273877,5274,166925,NA,261908,3068,243406,274920,NA,3072,144454,NA,275021,275473,NA,274918,275021,NA,Flanker Task ,138,79230,142,1024
97,97,557,557,#3d3846,legacy,legacy,legacy,incongruent,1,undefined,1,s,142,0,0,0,142,0,142,142,NA,0,0,0,142,142,0,142,142,NA,Sun Sep 24 20:27:29 2023,600,The main experiment item,FALSE,FlankerTask.osexp,C:\Users\backs\OneDrive\Documents,FALSE,mono,FALSE,18,no,white,no,yes,768,legacy,62,79,C:/Users/backs/OneDrive/Documents/BZ-subject-3.csv,legacy,Melodramatic Milgram,4.0.5,0,s,s,h,NA,s,NA,553,2200,22470,NA,553,NA,NA,NA,2,legacy,1024,2,48000,-16,experiment,HHSHH,3,odd,275477,5274,166925,NA,261908,3068,243406,276529,NA,3072,144454,NA,276630,277184,NA,276528,276630,NA,Flanker Task ,139,79783,143,1024
97,97,557,557,#3d3846,legacy,legacy,legacy,congruent,1,undefined,1,s,143,0,0,0,143,0,143,143,NA,0,0,0,143,143,0,143,143,NA,Sun Sep 24 20:27:29 2023,600,The main experiment item,FALSE,FlankerTask.osexp,C:\Users\backs\OneDrive\Documents,FALSE,mono,FALSE,18,no,white,no,yes,768,legacy,63,79,C:/Users/backs/OneDrive/Documents/BZ-subject-3.csv,legacy,Melodramatic Milgram,4.0.5,0,s,s,h,NA,s,NA,436,2200,22470,NA,436,NA,NA,NA,2,legacy,1024,2,48000,-16,experiment,SSSSS,3,odd,277189,5274,166925,NA,261908,3068,243406,278244,NA,3072,144454,NA,278345,278783,NA,278243,278345,NA,Flanker Task ,140,80219,144,1024
97,97,556,556,#3d3846,legacy,legacy,legacy,incongruent,1,undefined,1,h,144,0,0,0,144,0,144,144,NA,0,0,0,144,144,0,144,144,NA,Sun Sep 24 20:27:29 2023,600,The main experiment item,FALSE,FlankerTask.osexp,C:\Users\backs\OneDrive\Documents,FALSE,mono,FALSE,18,no,white,no,yes,768,legacy,64,79,C:/Users/backs/OneDrive/Documents/BZ-subject-3.csv,legacy,Melodramatic Milgram,4.0.5,0,h,s,h,NA,h,NA,434,2200,22470,NA,434,NA,NA,NA,2,legacy,1024,2,48000,-16,experiment,SSHSS,3,odd,278786,5274,166925,NA,261908,3068,243406,279824,NA,3072,144454,NA,279925,280361,NA,279823,279925,NA,Flanker Task ,141,80653,145,1024
97,97,555,555,#3d3846,legacy,legacy,legacy,congruent,1,undefined,1,h,145,0,0,0,145,0,145,145,NA,0,0,0,145,145,0,145,145,NA,Sun Sep 24 20:27:29 2023,600,The main experiment item,FALSE,FlankerTask.osexp,C:\Users\backs\OneDrive\Documents,FALSE,mono,FALSE,18,no,white,no,yes,768,legacy,65,79,C:/Users/backs/OneDrive/Documents/BZ-subject-3.csv,legacy,Melodramatic Milgram,4.0.5,0,h,s,h,NA,h,NA,467,2200,22470,NA,467,NA,NA,NA,2,legacy,1024,2,48000,-16,experiment,HHHHH,3,odd,280366,5274,166925,NA,261908,3068,243406,281412,NA,3072,144454,NA,281513,281982,NA,281410,281513,NA,Flanker Task ,142,81120,146,1024
97,97,554,554,#3d3846,legacy,legacy,legacy,congruent,1,undefined,1,h,146,0,0,0,146,0,146,146,NA,0,0,0,146,146,0,146,146,NA,Sun Sep 24 20:27:29 2023,600,The main experiment item,FALSE,FlankerTask.osexp,C:\Users\backs\OneDrive\Documents,FALSE,mono,FALSE,18,no,white,no,yes,768,legacy,66,79,C:/Users/backs/OneDrive/Documents/BZ-subject-3.csv,legacy,Melodramatic Milgram,4.0.5,0,h,s,h,NA,h,NA,445,2200,22470,NA,445,NA,NA,NA,2,legacy,1024,2,48000,-16,experiment,HHHHH,3,odd,281987,5274,166925,NA,261908,3068,243406,283051,NA,3072,144454,NA,283152,283598,NA,283050,283152,NA,Flanker Task ,143,81565,147,1024
97,97,553,553,#3d3846,legacy,legacy,legacy,congruent,1,undefined,1,s,147,0,0,0,147,0,147,147,NA,0,0,0,147,147,0,147,147,NA,Sun Sep 24 20:27:29 2023,600,The main experiment item,FALSE,FlankerTask.osexp,C:\Users\backs\OneDrive\Documents,FALSE,mono,FALSE,18,no,white,no,yes,768,legacy,67,79,C:/Users/backs/OneDrive/Documents/BZ-subject-3.csv,legacy,Melodramatic Milgram,4.0.5,0,s,s,h,NA,s,NA,413,2200,22470,NA,413,NA,NA,NA,2,legacy,1024,2,48000,-16,experiment,SSSSS,3,odd,283602,5274,166925,NA,261908,3068,243406,284657,NA,3072,144454,NA,284758,285173,NA,284655,284758,NA,Flanker Task ,144,81978,148,1024
97,97,553,553,#3d3846,legacy,legacy,legacy,congruent,1,undefined,1,s,148,0,0,0,148,0,148,148,NA,0,0,0,148,148,0,148,148,NA,Sun Sep 24 20:27:29 2023,600,The main experiment item,FALSE,FlankerTask.osexp,C:\Users\backs\OneDrive\Documents,FALSE,mono,FALSE,18,no,white,no,yes,768,legacy,68,79,C:/Users/backs/OneDrive/Documents/BZ-subject-3.csv,legacy,Melodramatic Milgram,4.0.5,0,s,s,h,NA,s,NA,490,2200,22470,NA,490,NA,NA,NA,2,legacy,1024,2,48000,-16,experiment,SSSSS,3,odd,285177,5274,166925,NA,261908,3068,243406,286232,NA,3072,144454,NA,286334,286826,NA,286229,286333,NA,Flanker Task ,145,82468,149,1024
97,97,552,552,#3d3846,legacy,legacy,legacy,congruent,1,undefined,1,h,149,0,0,0,149,0,149,149,NA,0,0,0,149,149,0,149,149,NA,Sun Sep 24 20:27:29 2023,600,The main experiment item,FALSE,FlankerTask.osexp,C:\Users\backs\OneDrive\Documents,FALSE,mono,FALSE,18,no,white,no,yes,768,legacy,69,79,C:/Users/backs/OneDrive/Documents/BZ-subject-3.csv,legacy,Melodramatic Milgram,4.0.5,0,h,s,h,NA,h,NA,410,2200,22470,NA,410,NA,NA,NA,2,legacy,1024,2,48000,-16,experiment,HHHHH,3,odd,286830,5274,166925,NA,261908,3068,243406,287885,NA,3072,144454,NA,287986,288398,NA,287883,287986,NA,Flanker Task ,146,82878,150,1024
97,97,552,552,#3d3846,legacy,legacy,legacy,congruent,1,undefined,1,s,150,0,0,0,150,0,150,150,NA,0,0,0,150,150,0,150,150,NA,Sun Sep 24 20:27:29 2023,600,The main experiment item,FALSE,FlankerTask.osexp,C:\Users\backs\OneDrive\Documents,FALSE,mono,FALSE,18,no,white,no,yes,768,legacy,70,79,C:/Users/backs/OneDrive/Documents/BZ-subject-3.csv,legacy,Melodramatic Milgram,4.0.5,0,s,s,h,NA,s,NA,525,2200,22470,NA,525,NA,NA,NA,2,legacy,1024,2,48000,-16,experiment,SSSSS,3,odd,288403,5274,166925,NA,261908,3068,243406,289457,NA,3072,144454,NA,289558,290085,NA,289455,289558,NA,Flanker Task ,147,83403,151,1024
97,97,552,552,#3d3846,legacy,legacy,legacy,congruent,1,undefined,1,s,151,0,0,0,151,0,151,151,NA,0,0,0,151,151,0,151,151,NA,Sun Sep 24 20:27:29 2023,600,The main experiment item,FALSE,FlankerTask.osexp,C:\Users\backs\OneDrive\Documents,FALSE,mono,FALSE,18,no,white,no,yes,768,legacy,71,79,C:/Users/backs/OneDrive/Documents/BZ-subject-3.csv,legacy,Melodramatic Milgram,4.0.5,0,s,s,h,NA,s,NA,544,2200,22470,NA,544,NA,NA,NA,2,legacy,1024,2,48000,-16,experiment,SSSSS,3,odd,290089,5274,166925,NA,261908,3068,243406,291184,NA,3072,144454,NA,291285,291831,NA,291182,291285,NA,Flanker Task ,148,83947,152,1024
97,97,551,551,#3d3846,legacy,legacy,legacy,congruent,1,undefined,1,s,152,0,0,0,152,0,152,152,NA,0,0,0,152,152,0,152,152,NA,Sun Sep 24 20:27:29 2023,600,The main experiment item,FALSE,FlankerTask.osexp,C:\Users\backs\OneDrive\Documents,FALSE,mono,FALSE,18,no,white,no,yes,768,legacy,72,79,C:/Users/backs/OneDrive/Documents/BZ-subject-3.csv,legacy,Melodramatic Milgram,4.0.5,0,s,s,h,NA,s,NA,480,2200,22470,NA,480,NA,NA,NA,2,legacy,1024,2,48000,-16,experiment,SSSSS,3,odd,291835,5274,166925,NA,261908,3068,243406,292890,NA,3072,144454,NA,292991,293473,NA,292888,292991,NA,Flanker Task ,149,84427,153,1024
97,97,551,551,#3d3846,legacy,legacy,legacy,congruent,1,undefined,1,s,153,0,0,0,153,0,153,153,NA,0,0,0,153,153,0,153,153,NA,Sun Sep 24 20:27:29 2023,600,The main experiment item,FALSE,FlankerTask.osexp,C:\Users\backs\OneDrive\Documents,FALSE,mono,FALSE,18,no,white,no,yes,768,legacy,73,79,C:/Users/backs/OneDrive/Documents/BZ-subject-3.csv,legacy,Melodramatic Milgram,4.0.5,0,s,s,h,NA,s,NA,495,2200,22470,NA,495,NA,NA,NA,2,legacy,1024,2,48000,-16,experiment,SSSSS,3,odd,293477,5274,166925,NA,261908,3068,243406,294507,NA,3072,144454,NA,294608,295105,NA,294506,294608,NA,Flanker Task ,150,84922,154,1024
97,97,552,552,#3d3846,legacy,legacy,legacy,incongruent,1,undefined,1,s,154,0,0,0,154,0,154,154,NA,0,0,0,154,154,0,154,154,NA,Sun Sep 24 20:27:29 2023,600,The main experiment item,FALSE,FlankerTask.osexp,C:\Users\backs\OneDrive\Documents,FALSE,mono,FALSE,18,no,white,no,yes,768,legacy,74,79,C:/Users/backs/OneDrive/Documents/BZ-subject-3.csv,legacy,Melodramatic Milgram,4.0.5,0,s,s,h,NA,s,NA,654,2200,22470,NA,654,NA,NA,NA,2,legacy,1024,2,48000,-16,experiment,HHSHH,3,odd,295109,5274,166925,NA,261908,3068,243406,296141,NA,3072,144454,NA,296242,296898,NA,296139,296242,NA,Flanker Task ,151,85576,155,1024
97,97,552,552,#3d3846,legacy,legacy,legacy,incongruent,1,undefined,1,s,155,0,0,0,155,0,155,155,NA,0,0,0,155,155,0,155,155,NA,Sun Sep 24 20:27:29 2023,600,The main experiment item,FALSE,FlankerTask.osexp,C:\Users\backs\OneDrive\Documents,FALSE,mono,FALSE,18,no,white,no,yes,768,legacy,75,79,C:/Users/backs/OneDrive/Documents/BZ-subject-3.csv,legacy,Melodramatic Milgram,4.0.5,0,s,s,h,NA,s,NA,668,2200,22470,NA,668,NA,NA,NA,2,legacy,1024,2,48000,-16,experiment,HHSHH,3,odd,297402,5274,166925,NA,261908,3068,296901,298451,NA,3072,144454,NA,298552,299221,NA,298449,298552,NA,Flanker Task ,152,86244,156,1024
97,97,552,552,#3d3846,legacy,legacy,legacy,incongruent,1,undefined,1,h,156,0,0,0,156,0,156,156,NA,0,0,0,156,156,0,156,156,NA,Sun Sep 24 20:27:29 2023,600,The main experiment item,FALSE,FlankerTask.osexp,C:\Users\backs\OneDrive\Documents,FALSE,mono,FALSE,18,no,white,no,yes,768,legacy,76,79,C:/Users/backs/OneDrive/Documents/BZ-subject-3.csv,legacy,Melodramatic Milgram,4.0.5,0,h,s,h,NA,h,NA,502,2200,22470,NA,502,NA,NA,NA,2,legacy,1024,2,48000,-16,experiment,SSHSS,3,odd,299726,5274,166925,NA,261908,3068,299225,300762,NA,3072,144454,NA,300863,301366,NA,300760,300863,NA,Flanker Task ,153,86746,157,1024
97,97,551,551,#3d3846,legacy,legacy,legacy,incongruent,1,undefined,1,s,157,0,0,0,157,0,157,157,NA,0,0,0,157,157,0,157,157,NA,Sun Sep 24 20:27:29 2023,600,The main experiment item,FALSE,FlankerTask.osexp,C:\Users\backs\OneDrive\Documents,FALSE,mono,FALSE,18,no,white,no,yes,768,legacy,77,79,C:/Users/backs/OneDrive/Documents/BZ-subject-3.csv,legacy,Melodramatic Milgram,4.0.5,0,s,s,h,NA,s,NA,457,2200,22470,NA,457,NA,NA,NA,2,legacy,1024,2,48000,-16,experiment,HHSHH,3,odd,301370,5274,166925,NA,261908,3068,299225,302411,NA,3072,144454,NA,302512,302971,NA,302410,302512,NA,Flanker Task ,154,87203,158,1024
97,97,551,551,#3d3846,legacy,legacy,legacy,congruent,1,undefined,1,h,158,0,0,0,158,0,158,158,NA,0,0,0,158,158,0,158,158,NA,Sun Sep 24 20:27:29 2023,600,The main experiment item,FALSE,FlankerTask.osexp,C:\Users\backs\OneDrive\Documents,FALSE,mono,FALSE,18,no,white,no,yes,768,legacy,78,79,C:/Users/backs/OneDrive/Documents/BZ-subject-3.csv,legacy,Melodramatic Milgram,4.0.5,0,h,s,h,NA,h,NA,511,2200,22470,NA,511,NA,NA,NA,2,legacy,1024,2,48000,-16,experiment,HHHHH,3,odd,302974,5274,166925,NA,261908,3068,299225,304016,NA,3072,144454,NA,304117,304630,NA,304014,304117,NA,Flanker Task ,155,87714,159,1024
97,97,551,551,#3d3846,legacy,legacy,legacy,incongruent,1,undefined,1,s,159,0,0,0,159,0,159,159,NA,0,0,0,159,159,0,159,159,NA,Sun Sep 24 20:27:29 2023,600,The main experiment item,FALSE,FlankerTask.osexp,C:\Users\backs\OneDrive\Documents,FALSE,mono,FALSE,18,no,white,no,yes,768,legacy,79,79,C:/Users/backs/OneDrive/Documents/BZ-subject-3.csv,legacy,Melodramatic Milgram,4.0.5,0,s,s,h,NA,s,NA,470,2200,22470,NA,470,NA,NA,NA,2,legacy,1024,2,48000,-16,experiment,HHSHH,3,odd,304633,5274,166925,NA,261908,3068,299225,305681,NA,3072,144454,NA,305782,306253,NA,305680,305782,NA,Flanker Task ,156,88184,160,1024
96,96,551,551,#3d3846,legacy,legacy,legacy,incongruent,0,undefined,0,s,160,0,0,0,160,0,160,160,NA,0,0,0,160,160,0,160,160,NA,Sun Sep 24 20:27:29 2023,300,The main experiment item,FALSE,FlankerTask.osexp,C:\Users\backs\OneDrive\Documents,FALSE,mono,FALSE,18,no,white,no,yes,768,legacy,0,79,C:/Users/backs/OneDrive/Documents/BZ-subject-3.csv,legacy,Melodramatic Milgram,4.0.5,0,h,s,h,s,h,NA,533,2200,22470,43817,533,NA,NA,NA,2,legacy,1024,2,48000,-16,experiment,HHSHH,3,odd,306257,5274,166925,351076,261908,3068,299225,351139,NA,3072,144454,307258,351240,351775,NA,351138,351240,NA,Flanker Task ,156,88717,161,1024
96,96,550,550,#3d3846,legacy,legacy,legacy,congruent,1,undefined,1,s,161,0,0,0,161,0,161,161,NA,0,0,0,161,161,0,161,161,NA,Sun Sep 24 20:27:29 2023,300,The main experiment item,FALSE,FlankerTask.osexp,C:\Users\backs\OneDrive\Documents,FALSE,mono,FALSE,18,no,white,no,yes,768,legacy,1,79,C:/Users/backs/OneDrive/Documents/BZ-subject-3.csv,legacy,Melodramatic Milgram,4.0.5,0,s,s,h,s,s,NA,406,2200,22470,43817,406,NA,NA,NA,2,legacy,1024,2,48000,-16,experiment,SSSSS,3,odd,352780,5274,166925,351076,351778,3068,352278,353811,NA,3072,144454,307258,353912,354320,NA,353809,353912,NA,Flanker Task ,157,89123,162,1024
96,96,549,549,#3d3846,legacy,legacy,legacy,incongruent,1,undefined,1,s,162,0,0,0,162,0,162,162,NA,0,0,0,162,162,0,162,162,NA,Sun Sep 24 20:27:29 2023,300,The main experiment item,FALSE,FlankerTask.osexp,C:\Users\backs\OneDrive\Documents,FALSE,mono,FALSE,18,no,white,no,yes,768,legacy,2,79,C:/Users/backs/OneDrive/Documents/BZ-subject-3.csv,legacy,Melodramatic Milgram,4.0.5,0,s,s,h,s,s,NA,422,2200,22470,43817,422,NA,NA,NA,2,legacy,1024,2,48000,-16,experiment,HHSHH,3,odd,354826,5274,166925,351076,351778,3068,354325,355876,NA,3072,144454,307258,355977,356400,NA,355874,355977,NA,Flanker Task ,158,89545,163,1024
96,96,548,548,#3d3846,legacy,legacy,legacy,incongruent,1,undefined,1,s,163,0,0,0,163,0,163,163,NA,0,0,0,163,163,0,163,163,NA,Sun Sep 24 20:27:29 2023,300,The main experiment item,FALSE,FlankerTask.osexp,C:\Users\backs\OneDrive\Documents,FALSE,mono,FALSE,18,no,white,no,yes,768,legacy,3,79,C:/Users/backs/OneDrive/Documents/BZ-subject-3.csv,legacy,Melodramatic Milgram,4.0.5,0,s,s,h,s,s,NA,412,2200,22470,43817,412,NA,NA,NA,2,legacy,1024,2,48000,-16,experiment,HHSHH,3,odd,356905,5274,166925,351076,351778,3068,356404,357957,NA,3072,144454,307258,358058,358471,NA,357955,358057,NA,Flanker Task ,159,89957,164,1024
96,96,547,547,#3d3846,legacy,legacy,legacy,incongruent,1,undefined,1,s,164,0,0,0,164,0,164,164,NA,0,0,0,164,164,0,164,164,NA,Sun Sep 24 20:27:29 2023,300,The main experiment item,FALSE,FlankerTask.osexp,C:\Users\backs\OneDrive\Documents,FALSE,mono,FALSE,18,no,white,no,yes,768,legacy,4,79,C:/Users/backs/OneDrive/Documents/BZ-subject-3.csv,legacy,Melodramatic Milgram,4.0.5,0,s,s,h,s,s,NA,350,2200,22470,43817,350,NA,NA,NA,2,legacy,1024,2,48000,-16,experiment,HHSHH,3,odd,358976,5274,166925,351076,351778,3068,358475,360021,NA,3072,144454,307258,360122,360474,NA,360020,360122,NA,Flanker Task ,160,90307,165,1024
96,96,546,546,#3d3846,legacy,legacy,legacy,incongruent,0,undefined,0,h,165,0,0,0,165,0,165,165,NA,0,0,0,165,165,0,165,165,NA,Sun Sep 24 20:27:29 2023,300,The main experiment item,FALSE,FlankerTask.osexp,C:\Users\backs\OneDrive\Documents,FALSE,mono,FALSE,18,no,white,no,yes,768,legacy,5,79,C:/Users/backs/OneDrive/Documents/BZ-subject-3.csv,legacy,Melodramatic Milgram,4.0.5,0,s,s,h,s,s,NA,392,2200,22470,43817,392,NA,NA,NA,2,legacy,1024,2,48000,-16,experiment,SSHSS,3,odd,360979,5274,166925,351076,351778,3068,360479,362034,NA,3072,144454,307258,362135,362529,NA,362032,362135,NA,Flanker Task ,160,90699,166,1024
96,96,546,546,#3d3846,legacy,legacy,legacy,congruent,1,undefined,1,s,166,0,0,0,166,0,166,166,NA,0,0,0,166,166,0,166,166,NA,Sun Sep 24 20:27:29 2023,300,The main experiment item,FALSE,FlankerTask.osexp,C:\Users\backs\OneDrive\Documents,FALSE,mono,FALSE,18,no,white,no,yes,768,legacy,6,79,C:/Users/backs/OneDrive/Documents/BZ-subject-3.csv,legacy,Melodramatic Milgram,4.0.5,0,s,s,h,s,s,NA,505,2200,22470,43817,505,NA,NA,NA,2,legacy,1024,2,48000,-16,experiment,SSSSS,3,odd,363536,5274,166925,351076,362534,3068,363035,364593,NA,3072,144454,307258,364694,365201,NA,364591,364694,NA,Flanker Task ,161,91204,167,1024
