acc,accuracy,average_response_time,avg_rt,background,canvas_backend,clock_backend,color_backend,compensation,condition,coordinates,correct,correct_instructions1,correct_keyboard_response,correct_response,count_Block1,count_Block2,count_Block3,count_ISI,count_errorFeedback,count_experiment,count_faster,count_finish,count_fixation,count_instructions1,count_instructions2,count_instructions3,count_keyboard_response,count_logger,count_sequence,count_stimulus,datetime,deadline,description,disable_garbage_collection,experiment_file,experiment_path,font_bold,font_family,font_italic,font_size,font_underline,foreground,form_clicks,fullscreen,height,keyboard_backend,live_row,live_row_Block1,logfile,mouse_backend,opensesame_codename,opensesame_version,repeat_cycle,response,response_finish,response_instructions1,response_instructions2,response_instructions3,response_keyboard_response,response_time,response_time_finish,response_time_instructions1,response_time_instructions2,response_time_instructions3,response_time_keyboard_response,round_decimals,sampler_backend,sound_buf_size,sound_channels,sound_freq,sound_sample_size,start,stimulus,subject_nr,subject_parity,time_Block1,time_Block2,time_Block3,time_ISI,time_errorFeedback,time_experiment,time_faster,time_finish,time_fixation,time_instructions1,time_instructions2,time_instructions3,time_keyboard_response,time_logger,time_sequence,time_stimulus,title,total_correct,total_response_time,total_responses,uniform_coordinates,width
100,100,778,778,black,legacy,legacy,legacy,0,incongruent,uniform,1,undefined,1,s,0,0,0,0,0,0,0,0,0,0,0,0,0,0,0,0,9/29/19 20:07,1500,The main experiment item,yes,FlankerExperiment.osexp,E:\Classwork\AQMAED,no,mono,no,18,no,white,no,yes,768,legacy,0,0,E:/Classwork/AQMAED/CH-subject-3.csv,legacy,Kafkaesque Koffka,3.2.8,0,s,NA,s,NA,NA,s,778,NA,33788,NA,NA,778,2,legacy,1024,2,48000,-16,experiment,HHSHH,3,odd,36406,NA,NA,NA,NA,2615,NA,NA,36489,2618,NA,NA,36593,37372,36487,36592,Flanker Experiment,1,778,1,yes,1024
100,100,731,731,black,legacy,legacy,legacy,0,incongruent,uniform,1,undefined,1,h,0,0,0,1,1,0,1,0,1,0,0,0,1,1,1,1,9/29/19 20:07,1500,The main experiment item,yes,FlankerExperiment.osexp,E:\Classwork\AQMAED,no,mono,no,18,no,white,no,yes,768,legacy,1,1,E:/Classwork/AQMAED/CH-subject-3.csv,legacy,Kafkaesque Koffka,3.2.8,0,h,NA,s,NA,NA,h,684,NA,33788,NA,NA,684,2,legacy,1024,2,48000,-16,experiment,SSHSS,3,odd,36406,NA,NA,37400,NA,2615,NA,NA,38601,2618,NA,NA,38704,39389,38596,38703,Flanker Experiment,2,1462,2,yes,1024
100,100,675,675,black,legacy,legacy,legacy,0,incongruent,uniform,1,undefined,1,s,0,0,0,2,2,0,2,0,2,0,0,0,2,2,2,2,9/29/19 20:07,1500,The main experiment item,yes,FlankerExperiment.osexp,E:\Classwork\AQMAED,no,mono,no,18,no,white,no,yes,768,legacy,2,2,E:/Classwork/AQMAED/CH-subject-3.csv,legacy,Kafkaesque Koffka,3.2.8,0,s,NA,s,NA,NA,s,563,NA,33788,NA,NA,563,2,legacy,1024,2,48000,-16,experiment,HHSHH,3,odd,36406,NA,NA,39404,NA,2615,NA,NA,40583,2618,NA,NA,40687,41251,40578,40687,Flanker Experiment,3,2025,3,yes,1024
100,100,667.25,667.25,black,legacy,legacy,legacy,0,incongruent,uniform,1,undefined,1,h,0,0,0,3,3,0,3,0,3,0,0,0,3,3,3,3,9/29/19 20:07,1500,The main experiment item,yes,FlankerExperiment.osexp,E:\Classwork\AQMAED,no,mono,no,18,no,white,no,yes,768,legacy,3,3,E:/Classwork/AQMAED/CH-subject-3.csv,legacy,Kafkaesque Koffka,3.2.8,0,h,NA,s,NA,NA,h,644,NA,33788,NA,NA,644,2,legacy,1024,2,48000,-16,experiment,SSHSS,3,odd,36406,NA,NA,41259,NA,2615,NA,NA,42444,2618,NA,NA,42548,43193,42440,42547,Flanker Experiment,4,2669,4,yes,1024
100,100,668,668,black,legacy,legacy,legacy,0,congruent,uniform,1,undefined,1,h,0,0,0,4,4,0,4,0,4,0,0,0,4,4,4,4,9/29/19 20:07,1500,The main experiment item,yes,FlankerExperiment.osexp,E:\Classwork\AQMAED,no,mono,no,18,no,white,no,yes,768,legacy,4,4,E:/Classwork/AQMAED/CH-subject-3.csv,legacy,Kafkaesque Koffka,3.2.8,0,h,NA,s,NA,NA,h,671,NA,33788,NA,NA,671,2,legacy,1024,2,48000,-16,experiment,HHHHH,3,odd,36406,NA,NA,43202,NA,2615,NA,NA,44428,2618,NA,NA,44532,45204,44425,44532,Flanker Experiment,5,3340,5,yes,1024
83.33333333,83.33333333,623.6666667,623.6666667,black,legacy,legacy,legacy,0,incongruent,uniform,0,undefined,0,h,0,0,0,5,5,0,5,0,5,0,0,0,5,5,5,5,9/29/19 20:07,1500,The main experiment item,yes,FlankerExperiment.osexp,E:\Classwork\AQMAED,no,mono,no,18,no,white,no,yes,768,legacy,5,5,E:/Classwork/AQMAED/CH-subject-3.csv,legacy,Kafkaesque Koffka,3.2.8,0,s,NA,s,NA,NA,s,402,NA,33788,NA,NA,402,2,legacy,1024,2,48000,-16,experiment,SSHSS,3,odd,36406,NA,NA,45214,NA,2615,NA,NA,46408,2618,NA,NA,46513,46916,46403,46513,Flanker Experiment,5,3742,6,yes,1024
85.71428571,85.71428571,627.7142857,627.7142857,black,legacy,legacy,legacy,0,congruent,uniform,1,undefined,1,s,0,0,0,6,6,0,6,0,6,0,0,0,6,6,6,6,9/29/19 20:07,1500,The main experiment item,yes,FlankerExperiment.osexp,E:\Classwork\AQMAED,no,mono,no,18,no,white,no,yes,768,legacy,6,6,E:/Classwork/AQMAED/CH-subject-3.csv,legacy,Kafkaesque Koffka,3.2.8,0,s,NA,s,NA,NA,s,652,NA,33788,NA,NA,652,2,legacy,1024,2,48000,-16,experiment,SSSSS,3,odd,36406,NA,NA,47432,46929,2615,NA,NA,48641,2618,NA,NA,48745,49398,48635,48745,Flanker Experiment,6,4394,7,yes,1024
87.5,87.5,614.125,614.125,black,legacy,legacy,legacy,0,incongruent,uniform,1,undefined,1,s,0,0,0,7,7,0,7,0,7,0,0,0,7,7,7,7,9/29/19 20:07,1500,The main experiment item,yes,FlankerExperiment.osexp,E:\Classwork\AQMAED,no,mono,no,18,no,white,no,yes,768,legacy,7,7,E:/Classwork/AQMAED/CH-subject-3.csv,legacy,Kafkaesque Koffka,3.2.8,0,s,NA,s,NA,NA,s,519,NA,33788,NA,NA,519,2,legacy,1024,2,48000,-16,experiment,HHSHH,3,odd,36406,NA,NA,49409,46929,2615,NA,NA,50556,2618,NA,NA,50660,51180,50553,50660,Flanker Experiment,7,4913,8,yes,1024
88.88888889,88.88888889,589.4444444,589.4444444,black,legacy,legacy,legacy,0,incongruent,uniform,1,undefined,1,s,0,0,0,8,8,0,8,0,8,0,0,0,8,8,8,8,9/29/19 20:07,1500,The main experiment item,yes,FlankerExperiment.osexp,E:\Classwork\AQMAED,no,mono,no,18,no,white,no,yes,768,legacy,8,8,E:/Classwork/AQMAED/CH-subject-3.csv,legacy,Kafkaesque Koffka,3.2.8,0,s,NA,s,NA,NA,s,392,NA,33788,NA,NA,392,2,legacy,1024,2,48000,-16,experiment,HHSHH,3,odd,36406,NA,NA,51190,46929,2615,NA,NA,52380,2618,NA,NA,52484,52877,52377,52484,Flanker Experiment,8,5305,9,yes,1024
90,90,576.3,576.3,black,legacy,legacy,legacy,0,congruent,uniform,1,undefined,1,s,0,0,0,9,9,0,9,0,9,0,0,0,9,9,9,9,9/29/19 20:07,1500,The main experiment item,yes,FlankerExperiment.osexp,E:\Classwork\AQMAED,no,mono,no,18,no,white,no,yes,768,legacy,9,9,E:/Classwork/AQMAED/CH-subject-3.csv,legacy,Kafkaesque Koffka,3.2.8,0,s,NA,s,NA,NA,s,458,NA,33788,NA,NA,458,2,legacy,1024,2,48000,-16,experiment,SSSSS,3,odd,36406,NA,NA,52890,46929,2615,NA,NA,54117,2618,NA,NA,54221,54679,54112,54221,Flanker Experiment,9,5763,10,yes,1024
90.90909091,90.90909091,568.5454545,568.5454545,black,legacy,legacy,legacy,0,congruent,uniform,1,undefined,1,h,0,0,0,10,10,0,10,0,10,0,0,0,10,10,10,10,9/29/19 20:07,1500,The main experiment item,yes,FlankerExperiment.osexp,E:\Classwork\AQMAED,no,mono,no,18,no,white,no,yes,768,legacy,10,10,E:/Classwork/AQMAED/CH-subject-3.csv,legacy,Kafkaesque Koffka,3.2.8,0,h,NA,s,NA,NA,h,491,NA,33788,NA,NA,491,2,legacy,1024,2,48000,-16,experiment,HHHHH,3,odd,36406,NA,NA,54692,46929,2615,NA,NA,55888,2618,NA,NA,55994,56486,55885,55993,Flanker Experiment,10,6254,11,yes,1024
91.66666667,91.66666667,555.6666667,555.6666667,black,legacy,legacy,legacy,0,congruent,uniform,1,undefined,1,s,0,0,0,11,11,0,11,0,11,0,0,0,11,11,11,11,9/29/19 20:07,1500,The main experiment item,yes,FlankerExperiment.osexp,E:\Classwork\AQMAED,no,mono,no,18,no,white,no,yes,768,legacy,11,11,E:/Classwork/AQMAED/CH-subject-3.csv,legacy,Kafkaesque Koffka,3.2.8,0,s,NA,s,NA,NA,s,414,NA,33788,NA,NA,414,2,legacy,1024,2,48000,-16,experiment,SSSSS,3,odd,36406,NA,NA,56497,46929,2615,NA,NA,57665,2618,NA,NA,57769,58184,57662,57769,Flanker Experiment,11,6668,12,yes,1024
84.61538462,84.61538462,540.6153846,540.6153846,black,legacy,legacy,legacy,0,incongruent,uniform,0,undefined,0,h,0,0,0,12,12,0,12,0,12,0,0,0,12,12,12,12,9/29/19 20:07,1500,The main experiment item,yes,FlankerExperiment.osexp,E:\Classwork\AQMAED,no,mono,no,18,no,white,no,yes,768,legacy,12,12,E:/Classwork/AQMAED/CH-subject-3.csv,legacy,Kafkaesque Koffka,3.2.8,0,s,NA,s,NA,NA,s,360,NA,33788,NA,NA,360,2,legacy,1024,2,48000,-16,experiment,SSHSS,3,odd,36406,NA,NA,58198,46929,2615,NA,NA,59423,2618,NA,NA,59528,59889,59419,59528,Flanker Experiment,11,7028,13,yes,1024
85.71428571,85.71428571,536.2142857,536.2142857,black,legacy,legacy,legacy,0,congruent,uniform,1,undefined,1,h,0,0,0,13,13,0,13,0,13,0,0,0,13,13,13,13,9/29/19 20:07,1500,The main experiment item,yes,FlankerExperiment.osexp,E:\Classwork\AQMAED,no,mono,no,18,no,white,no,yes,768,legacy,13,13,E:/Classwork/AQMAED/CH-subject-3.csv,legacy,Kafkaesque Koffka,3.2.8,0,h,NA,s,NA,NA,h,479,NA,33788,NA,NA,479,2,legacy,1024,2,48000,-16,experiment,HHHHH,3,odd,36406,NA,NA,60410,59904,2615,NA,NA,61561,2618,NA,NA,61666,62145,61557,61665,Flanker Experiment,12,7507,14,yes,1024
86.66666667,86.66666667,545.4666667,545.4666667,black,legacy,legacy,legacy,0,congruent,uniform,1,undefined,1,s,0,0,0,14,14,0,14,0,14,0,0,0,14,14,14,14,9/29/19 20:07,1500,The main experiment item,yes,FlankerExperiment.osexp,E:\Classwork\AQMAED,no,mono,no,18,no,white,no,yes,768,legacy,14,14,E:/Classwork/AQMAED/CH-subject-3.csv,legacy,Kafkaesque Koffka,3.2.8,0,s,NA,s,NA,NA,s,675,NA,33788,NA,NA,675,2,legacy,1024,2,48000,-16,experiment,SSSSS,3,odd,36406,NA,NA,62151,59904,2615,NA,NA,63314,2618,NA,NA,63418,64093,63312,63418,Flanker Experiment,13,8182,15,yes,1024
87.5,87.5,546.125,546.125,black,legacy,legacy,legacy,0,congruent,uniform,1,undefined,1,h,0,0,0,15,15,0,15,0,15,0,0,0,15,15,15,15,9/29/19 20:07,1500,The main experiment item,yes,FlankerExperiment.osexp,E:\Classwork\AQMAED,no,mono,no,18,no,white,no,yes,768,legacy,15,15,E:/Classwork/AQMAED/CH-subject-3.csv,legacy,Kafkaesque Koffka,3.2.8,0,h,NA,s,NA,NA,h,556,NA,33788,NA,NA,556,2,legacy,1024,2,48000,-16,experiment,HHHHH,3,odd,36406,NA,NA,64102,59904,2615,NA,NA,65332,2618,NA,NA,65437,65993,65329,65437,Flanker Experiment,14,8738,16,yes,1024
88.23529412,88.23529412,550.1176471,550.1176471,black,legacy,legacy,legacy,0,incongruent,uniform,1,undefined,1,h,0,0,0,16,16,0,16,0,16,0,0,0,16,16,16,16,9/29/19 20:07,1500,The main experiment item,yes,FlankerExperiment.osexp,E:\Classwork\AQMAED,no,mono,no,18,no,white,no,yes,768,legacy,16,16,E:/Classwork/AQMAED/CH-subject-3.csv,legacy,Kafkaesque Koffka,3.2.8,0,h,NA,s,NA,NA,h,614,NA,33788,NA,NA,614,2,legacy,1024,2,48000,-16,experiment,SSHSS,3,odd,36406,NA,NA,66004,59904,2615,NA,NA,67211,2618,NA,NA,67316,67931,67205,67316,Flanker Experiment,15,9352,17,yes,1024
88.88888889,88.88888889,545.6111111,545.6111111,black,legacy,legacy,legacy,0,congruent,uniform,1,undefined,1,s,0,0,0,17,17,0,17,0,17,0,0,0,17,17,17,17,9/29/19 20:07,1500,The main experiment item,yes,FlankerExperiment.osexp,E:\Classwork\AQMAED,no,mono,no,18,no,white,no,yes,768,legacy,17,17,E:/Classwork/AQMAED/CH-subject-3.csv,legacy,Kafkaesque Koffka,3.2.8,0,s,NA,s,NA,NA,s,469,NA,33788,NA,NA,469,2,legacy,1024,2,48000,-16,experiment,SSSSS,3,odd,36406,NA,NA,67942,59904,2615,NA,NA,69129,2618,NA,NA,69232,69703,69125,69232,Flanker Experiment,16,9821,18,yes,1024
89.47368421,89.47368421,545.2631579,545.2631579,black,legacy,legacy,legacy,0,incongruent,uniform,1,undefined,1,s,0,0,0,18,18,0,18,0,18,0,0,0,18,18,18,18,9/29/19 20:07,1500,The main experiment item,yes,FlankerExperiment.osexp,E:\Classwork\AQMAED,no,mono,no,18,no,white,no,yes,768,legacy,18,18,E:/Classwork/AQMAED/CH-subject-3.csv,legacy,Kafkaesque Koffka,3.2.8,0,s,NA,s,NA,NA,s,539,NA,33788,NA,NA,539,2,legacy,1024,2,48000,-16,experiment,HHSHH,3,odd,36406,NA,NA,69717,59904,2615,NA,NA,70965,2618,NA,NA,71069,71608,70961,71069,Flanker Experiment,17,10360,19,yes,1024
90,90,543.95,543.95,black,legacy,legacy,legacy,0,congruent,uniform,1,undefined,1,h,0,0,0,19,19,0,19,0,19,0,0,0,19,19,19,19,9/29/19 20:07,1500,The main experiment item,yes,FlankerExperiment.osexp,E:\Classwork\AQMAED,no,mono,no,18,no,white,no,yes,768,legacy,19,19,E:/Classwork/AQMAED/CH-subject-3.csv,legacy,Kafkaesque Koffka,3.2.8,0,h,NA,s,NA,NA,h,519,NA,33788,NA,NA,519,2,legacy,1024,2,48000,-16,experiment,HHHHH,3,odd,36406,NA,NA,71615,59904,2615,NA,NA,72819,2618,NA,NA,72925,73445,72814,72924,Flanker Experiment,18,10879,20,yes,1024
90.47619048,90.47619048,548.4761905,548.4761905,black,legacy,legacy,legacy,0,incongruent,uniform,1,undefined,1,s,0,0,0,20,20,0,20,0,20,0,0,0,20,20,20,20,9/29/19 20:07,1500,The main experiment item,yes,FlankerExperiment.osexp,E:\Classwork\AQMAED,no,mono,no,18,no,white,no,yes,768,legacy,20,20,E:/Classwork/AQMAED/CH-subject-3.csv,legacy,Kafkaesque Koffka,3.2.8,0,s,NA,s,NA,NA,s,639,NA,33788,NA,NA,639,2,legacy,1024,2,48000,-16,experiment,HHSHH,3,odd,36406,NA,NA,73482,59904,2615,NA,NA,74658,2618,NA,NA,74763,75403,74654,74763,Flanker Experiment,19,11518,21,yes,1024
90.90909091,90.90909091,547.6363636,547.6363636,black,legacy,legacy,legacy,0,incongruent,uniform,1,undefined,1,s,0,0,0,21,21,0,21,0,21,0,0,0,21,21,21,21,9/29/19 20:07,1500,The main experiment item,yes,FlankerExperiment.osexp,E:\Classwork\AQMAED,no,mono,no,18,no,white,no,yes,768,legacy,21,21,E:/Classwork/AQMAED/CH-subject-3.csv,legacy,Kafkaesque Koffka,3.2.8,0,s,NA,s,NA,NA,s,530,NA,33788,NA,NA,530,2,legacy,1024,2,48000,-16,experiment,HHSHH,3,odd,36406,NA,NA,75419,59904,2615,NA,NA,76584,2618,NA,NA,76688,77218,76580,76688,Flanker Experiment,20,12048,22,yes,1024
91.30434783,91.30434783,545.2173913,545.2173913,black,legacy,legacy,legacy,0,congruent,uniform,1,undefined,1,h,0,0,0,22,22,0,22,0,22,0,0,0,22,22,22,22,9/29/19 20:07,1500,The main experiment item,yes,FlankerExperiment.osexp,E:\Classwork\AQMAED,no,mono,no,18,no,white,no,yes,768,legacy,22,22,E:/Classwork/AQMAED/CH-subject-3.csv,legacy,Kafkaesque Koffka,3.2.8,0,h,NA,s,NA,NA,h,492,NA,33788,NA,NA,492,2,legacy,1024,2,48000,-16,experiment,HHHHH,3,odd,36406,NA,NA,77227,59904,2615,NA,NA,78421,2618,NA,NA,78527,79020,78417,78526,Flanker Experiment,21,12540,23,yes,1024
91.66666667,91.66666667,545.5833333,545.5833333,black,legacy,legacy,legacy,0,incongruent,uniform,1,undefined,1,h,0,0,0,23,23,0,23,0,23,0,0,0,23,23,23,23,9/29/19 20:07,1500,The main experiment item,yes,FlankerExperiment.osexp,E:\Classwork\AQMAED,no,mono,no,18,no,white,no,yes,768,legacy,23,23,E:/Classwork/AQMAED/CH-subject-3.csv,legacy,Kafkaesque Koffka,3.2.8,0,h,NA,s,NA,NA,h,554,NA,33788,NA,NA,554,2,legacy,1024,2,48000,-16,experiment,SSHSS,3,odd,36406,NA,NA,79034,59904,2615,NA,NA,80242,2618,NA,NA,80347,80901,80237,80347,Flanker Experiment,22,13094,24,yes,1024
92,92,548.56,548.56,black,legacy,legacy,legacy,0,incongruent,uniform,1,undefined,1,s,0,0,0,24,24,0,24,0,24,0,0,0,24,24,24,24,9/29/19 20:07,1500,The main experiment item,yes,FlankerExperiment.osexp,E:\Classwork\AQMAED,no,mono,no,18,no,white,no,yes,768,legacy,24,24,E:/Classwork/AQMAED/CH-subject-3.csv,legacy,Kafkaesque Koffka,3.2.8,0,s,NA,s,NA,NA,s,620,NA,33788,NA,NA,620,2,legacy,1024,2,48000,-16,experiment,HHSHH,3,odd,36406,NA,NA,80911,59904,2615,NA,NA,82094,2618,NA,NA,82198,82818,82088,82198,Flanker Experiment,23,13714,25,yes,1024
92.30769231,92.30769231,549.7692308,549.7692308,black,legacy,legacy,legacy,0,congruent,uniform,1,undefined,1,h,0,0,0,25,25,0,25,0,25,0,0,0,25,25,25,25,9/29/19 20:07,1500,The main experiment item,yes,FlankerExperiment.osexp,E:\Classwork\AQMAED,no,mono,no,18,no,white,no,yes,768,legacy,25,25,E:/Classwork/AQMAED/CH-subject-3.csv,legacy,Kafkaesque Koffka,3.2.8,0,h,NA,s,NA,NA,h,580,NA,33788,NA,NA,580,2,legacy,1024,2,48000,-16,experiment,HHHHH,3,odd,36406,NA,NA,82831,59904,2615,NA,NA,84018,2618,NA,NA,84121,84702,84014,84121,Flanker Experiment,24,14294,26,yes,1024
92.59259259,92.59259259,551.1851852,551.1851852,black,legacy,legacy,legacy,0,incongruent,uniform,1,undefined,1,h,0,0,0,26,26,0,26,0,26,0,0,0,26,26,26,26,9/29/19 20:07,1500,The main experiment item,yes,FlankerExperiment.osexp,E:\Classwork\AQMAED,no,mono,no,18,no,white,no,yes,768,legacy,26,26,E:/Classwork/AQMAED/CH-subject-3.csv,legacy,Kafkaesque Koffka,3.2.8,0,h,NA,s,NA,NA,h,588,NA,33788,NA,NA,588,2,legacy,1024,2,48000,-16,experiment,SSHSS,3,odd,36406,NA,NA,84719,59904,2615,NA,NA,85918,2618,NA,NA,86023,86612,85915,86023,Flanker Experiment,25,14882,27,yes,1024
92.85714286,92.85714286,553.8214286,553.8214286,black,legacy,legacy,legacy,0,congruent,uniform,1,undefined,1,h,0,0,0,27,27,0,27,0,27,0,0,0,27,27,27,27,9/29/19 20:07,1500,The main experiment item,yes,FlankerExperiment.osexp,E:\Classwork\AQMAED,no,mono,no,18,no,white,no,yes,768,legacy,27,27,E:/Classwork/AQMAED/CH-subject-3.csv,legacy,Kafkaesque Koffka,3.2.8,0,h,NA,s,NA,NA,h,625,NA,33788,NA,NA,625,2,legacy,1024,2,48000,-16,experiment,HHHHH,3,odd,36406,NA,NA,86621,59904,2615,NA,NA,87793,2618,NA,NA,87898,88523,87789,87897,Flanker Experiment,26,15507,28,yes,1024
93.10344828,93.10344828,550.2413793,550.2413793,black,legacy,legacy,legacy,0,congruent,uniform,1,undefined,1,s,0,0,0,28,28,0,28,0,28,0,0,0,28,28,28,28,9/29/19 20:07,1500,The main experiment item,yes,FlankerExperiment.osexp,E:\Classwork\AQMAED,no,mono,no,18,no,white,no,yes,768,legacy,28,28,E:/Classwork/AQMAED/CH-subject-3.csv,legacy,Kafkaesque Koffka,3.2.8,0,s,NA,s,NA,NA,s,450,NA,33788,NA,NA,450,2,legacy,1024,2,48000,-16,experiment,SSSSS,3,odd,36406,NA,NA,88534,59904,2615,NA,NA,89760,2618,NA,NA,89865,90315,89755,89865,Flanker Experiment,27,15957,29,yes,1024
93.33333333,93.33333333,552.8666667,552.8666667,black,legacy,legacy,legacy,0,incongruent,uniform,1,undefined,1,s,0,0,0,29,29,0,29,0,29,0,0,0,29,29,29,29,9/29/19 20:07,1500,The main experiment item,yes,FlankerExperiment.osexp,E:\Classwork\AQMAED,no,mono,no,18,no,white,no,yes,768,legacy,29,29,E:/Classwork/AQMAED/CH-subject-3.csv,legacy,Kafkaesque Koffka,3.2.8,0,s,NA,s,NA,NA,s,629,NA,33788,NA,NA,629,2,legacy,1024,2,48000,-16,experiment,HHSHH,3,odd,36406,NA,NA,90325,59904,2615,NA,NA,91533,2618,NA,NA,91637,92267,91528,91637,Flanker Experiment,28,16586,30,yes,1024
93.5483871,93.5483871,550.483871,550.483871,black,legacy,legacy,legacy,0,incongruent,uniform,1,undefined,1,s,0,0,0,30,30,0,30,0,30,0,0,0,30,30,30,30,9/29/19 20:07,1500,The main experiment item,yes,FlankerExperiment.osexp,E:\Classwork\AQMAED,no,mono,no,18,no,white,no,yes,768,legacy,30,30,E:/Classwork/AQMAED/CH-subject-3.csv,legacy,Kafkaesque Koffka,3.2.8,0,s,NA,s,NA,NA,s,479,NA,33788,NA,NA,479,2,legacy,1024,2,48000,-16,experiment,HHSHH,3,odd,36406,NA,NA,92273,59904,2615,NA,NA,93450,2618,NA,NA,93554,94034,93447,93554,Flanker Experiment,29,17065,31,yes,1024
93.75,93.75,546.53125,546.53125,black,legacy,legacy,legacy,0,congruent,uniform,1,undefined,1,s,0,0,0,31,31,0,31,0,31,0,0,0,31,31,31,31,9/29/19 20:07,1500,The main experiment item,yes,FlankerExperiment.osexp,E:\Classwork\AQMAED,no,mono,no,18,no,white,no,yes,768,legacy,31,31,E:/Classwork/AQMAED/CH-subject-3.csv,legacy,Kafkaesque Koffka,3.2.8,0,s,NA,s,NA,NA,s,424,NA,33788,NA,NA,424,2,legacy,1024,2,48000,-16,experiment,SSSSS,3,odd,36406,NA,NA,94046,59904,2615,NA,NA,95301,2618,NA,NA,95405,95829,95296,95405,Flanker Experiment,30,17489,32,yes,1024
90.90909091,90.90909091,540.3030303,540.3030303,black,legacy,legacy,legacy,0,incongruent,uniform,0,undefined,0,h,0,0,0,32,32,0,32,0,32,0,0,0,32,32,32,32,9/29/19 20:07,1500,The main experiment item,yes,FlankerExperiment.osexp,E:\Classwork\AQMAED,no,mono,no,18,no,white,no,yes,768,legacy,32,32,E:/Classwork/AQMAED/CH-subject-3.csv,legacy,Kafkaesque Koffka,3.2.8,0,s,NA,s,NA,NA,s,341,NA,33788,NA,NA,341,2,legacy,1024,2,48000,-16,experiment,SSHSS,3,odd,36406,NA,NA,95840,59904,2615,NA,NA,97054,2618,NA,NA,97159,97501,97049,97159,Flanker Experiment,30,17830,33,yes,1024
91.17647059,91.17647059,536.7058824,536.7058824,black,legacy,legacy,legacy,0,congruent,uniform,1,undefined,1,s,0,0,0,33,33,0,33,0,33,0,0,0,33,33,33,33,9/29/19 20:07,1500,The main experiment item,yes,FlankerExperiment.osexp,E:\Classwork\AQMAED,no,mono,no,18,no,white,no,yes,768,legacy,33,33,E:/Classwork/AQMAED/CH-subject-3.csv,legacy,Kafkaesque Koffka,3.2.8,0,s,NA,s,NA,NA,s,418,NA,33788,NA,NA,418,2,legacy,1024,2,48000,-16,experiment,SSSSS,3,odd,36406,NA,NA,98021,97516,2615,NA,NA,99209,2618,NA,NA,99315,99734,99204,99314,Flanker Experiment,31,18248,34,yes,1024
88.57142857,88.57142857,533.2285714,533.2285714,black,legacy,legacy,legacy,0,incongruent,uniform,0,undefined,0,h,0,0,0,34,34,0,34,0,34,0,0,0,34,34,34,34,9/29/19 20:07,1500,The main experiment item,yes,FlankerExperiment.osexp,E:\Classwork\AQMAED,no,mono,no,18,no,white,no,yes,768,legacy,34,34,E:/Classwork/AQMAED/CH-subject-3.csv,legacy,Kafkaesque Koffka,3.2.8,0,s,NA,s,NA,NA,s,415,NA,33788,NA,NA,415,2,legacy,1024,2,48000,-16,experiment,SSHSS,3,odd,36406,NA,NA,99747,97516,2615,NA,NA,100959,2618,NA,NA,101064,101480,100956,101063,Flanker Experiment,31,18663,35,yes,1024
88.88888889,88.88888889,534.3055556,534.3055556,black,legacy,legacy,legacy,0,incongruent,uniform,1,undefined,1,h,0,0,0,35,35,0,35,0,35,0,0,0,35,35,35,35,9/29/19 20:07,1500,The main experiment item,yes,FlankerExperiment.osexp,E:\Classwork\AQMAED,no,mono,no,18,no,white,no,yes,768,legacy,35,35,E:/Classwork/AQMAED/CH-subject-3.csv,legacy,Kafkaesque Koffka,3.2.8,0,h,NA,s,NA,NA,h,572,NA,33788,NA,NA,572,2,legacy,1024,2,48000,-16,experiment,SSHSS,3,odd,36406,NA,NA,101992,101487,2615,NA,NA,103218,2618,NA,NA,103323,103896,103213,103323,Flanker Experiment,32,19235,36,yes,1024
89.18918919,89.18918919,533.9459459,533.9459459,black,legacy,legacy,legacy,0,congruent,uniform,1,undefined,1,s,0,0,0,36,36,0,36,0,36,0,0,0,36,36,36,36,9/29/19 20:07,1500,The main experiment item,yes,FlankerExperiment.osexp,E:\Classwork\AQMAED,no,mono,no,18,no,white,no,yes,768,legacy,36,36,E:/Classwork/AQMAED/CH-subject-3.csv,legacy,Kafkaesque Koffka,3.2.8,0,s,NA,s,NA,NA,s,521,NA,33788,NA,NA,521,2,legacy,1024,2,48000,-16,experiment,SSSSS,3,odd,36406,NA,NA,103910,101487,2615,NA,NA,105100,2618,NA,NA,105204,105725,105094,105204,Flanker Experiment,33,19756,37,yes,1024
89.47368421,89.47368421,530.7368421,530.7368421,black,legacy,legacy,legacy,0,congruent,uniform,1,undefined,1,s,0,0,0,37,37,0,37,0,37,0,0,0,37,37,37,37,9/29/19 20:07,1500,The main experiment item,yes,FlankerExperiment.osexp,E:\Classwork\AQMAED,no,mono,no,18,no,white,no,yes,768,legacy,37,37,E:/Classwork/AQMAED/CH-subject-3.csv,legacy,Kafkaesque Koffka,3.2.8,0,s,NA,s,NA,NA,s,412,NA,33788,NA,NA,412,2,legacy,1024,2,48000,-16,experiment,SSSSS,3,odd,36406,NA,NA,105738,101487,2615,NA,NA,106932,2618,NA,NA,107037,107451,106929,107036,Flanker Experiment,34,20168,38,yes,1024
89.74358974,89.74358974,531.1282051,531.1282051,black,legacy,legacy,legacy,0,incongruent,uniform,1,undefined,1,h,0,0,0,38,38,0,38,0,38,0,0,0,38,38,38,38,9/29/19 20:07,1500,The main experiment item,yes,FlankerExperiment.osexp,E:\Classwork\AQMAED,no,mono,no,18,no,white,no,yes,768,legacy,38,38,E:/Classwork/AQMAED/CH-subject-3.csv,legacy,Kafkaesque Koffka,3.2.8,0,h,NA,s,NA,NA,h,546,NA,33788,NA,NA,546,2,legacy,1024,2,48000,-16,experiment,SSHSS,3,odd,36406,NA,NA,107466,101487,2615,NA,NA,108690,2618,NA,NA,108794,109340,108685,108794,Flanker Experiment,35,20714,39,yes,1024
90,90,534.075,534.075,black,legacy,legacy,legacy,0,incongruent,uniform,1,undefined,1,h,0,0,0,39,39,0,39,0,39,0,0,0,39,39,39,39,9/29/19 20:07,1500,The main experiment item,yes,FlankerExperiment.osexp,E:\Classwork\AQMAED,no,mono,no,18,no,white,no,yes,768,legacy,39,39,E:/Classwork/AQMAED/CH-subject-3.csv,legacy,Kafkaesque Koffka,3.2.8,0,h,NA,s,NA,NA,h,649,NA,33788,NA,NA,649,2,legacy,1024,2,48000,-16,experiment,SSHSS,3,odd,36406,NA,NA,109360,101487,2615,NA,NA,110563,2618,NA,NA,110668,111318,110558,110668,Flanker Experiment,36,21363,40,yes,1024
90.24390244,90.24390244,533.6341463,533.6341463,black,legacy,legacy,legacy,0,congruent,uniform,1,undefined,1,h,0,0,0,40,40,0,40,0,40,0,0,0,40,40,40,40,9/29/19 20:07,1500,The main experiment item,yes,FlankerExperiment.osexp,E:\Classwork\AQMAED,no,mono,no,18,no,white,no,yes,768,legacy,40,40,E:/Classwork/AQMAED/CH-subject-3.csv,legacy,Kafkaesque Koffka,3.2.8,0,h,NA,s,NA,NA,h,516,NA,33788,NA,NA,516,2,legacy,1024,2,48000,-16,experiment,HHHHH,3,odd,36406,NA,NA,111330,101487,2615,NA,NA,112489,2618,NA,NA,112593,113112,112486,112593,Flanker Experiment,37,21879,41,yes,1024
90.47619048,90.47619048,531.9047619,531.9047619,black,legacy,legacy,legacy,0,congruent,uniform,1,undefined,1,h,0,0,0,41,41,0,41,0,41,0,0,0,41,41,41,41,9/29/19 20:07,1500,The main experiment item,yes,FlankerExperiment.osexp,E:\Classwork\AQMAED,no,mono,no,18,no,white,no,yes,768,legacy,41,41,E:/Classwork/AQMAED/CH-subject-3.csv,legacy,Kafkaesque Koffka,3.2.8,0,h,NA,s,NA,NA,h,461,NA,33788,NA,NA,461,2,legacy,1024,2,48000,-16,experiment,HHHHH,3,odd,36406,NA,NA,113127,101487,2615,NA,NA,114370,2618,NA,NA,114474,114935,114365,114474,Flanker Experiment,38,22340,42,yes,1024
90.69767442,90.69767442,533.255814,533.255814,black,legacy,legacy,legacy,0,incongruent,uniform,1,undefined,1,h,0,0,0,42,42,0,42,0,42,0,0,0,42,42,42,42,9/29/19 20:07,1500,The main experiment item,yes,FlankerExperiment.osexp,E:\Classwork\AQMAED,no,mono,no,18,no,white,no,yes,768,legacy,42,42,E:/Classwork/AQMAED/CH-subject-3.csv,legacy,Kafkaesque Koffka,3.2.8,0,h,NA,s,NA,NA,h,590,NA,33788,NA,NA,590,2,legacy,1024,2,48000,-16,experiment,SSHSS,3,odd,36406,NA,NA,114956,101487,2615,NA,NA,116157,2618,NA,NA,116261,116852,116152,116261,Flanker Experiment,39,22930,43,yes,1024
90.90909091,90.90909091,531.8181818,531.8181818,black,legacy,legacy,legacy,0,incongruent,uniform,1,undefined,1,h,0,0,0,43,43,0,43,0,43,0,0,0,43,43,43,43,9/29/19 20:07,1500,The main experiment item,yes,FlankerExperiment.osexp,E:\Classwork\AQMAED,no,mono,no,18,no,white,no,yes,768,legacy,43,43,E:/Classwork/AQMAED/CH-subject-3.csv,legacy,Kafkaesque Koffka,3.2.8,0,h,NA,s,NA,NA,h,470,NA,33788,NA,NA,470,2,legacy,1024,2,48000,-16,experiment,SSHSS,3,odd,36406,NA,NA,116863,101487,2615,NA,NA,118034,2618,NA,NA,118138,118609,118031,118138,Flanker Experiment,40,23400,44,yes,1024
91.11111111,91.11111111,530.6888889,530.6888889,black,legacy,legacy,legacy,0,incongruent,uniform,1,undefined,1,h,0,0,0,44,44,0,44,0,44,0,0,0,44,44,44,44,9/29/19 20:07,1500,The main experiment item,yes,FlankerExperiment.osexp,E:\Classwork\AQMAED,no,mono,no,18,no,white,no,yes,768,legacy,44,44,E:/Classwork/AQMAED/CH-subject-3.csv,legacy,Kafkaesque Koffka,3.2.8,0,h,NA,s,NA,NA,h,481,NA,33788,NA,NA,481,2,legacy,1024,2,48000,-16,experiment,SSHSS,3,odd,36406,NA,NA,118620,101487,2615,NA,NA,119874,2618,NA,NA,119978,120460,119868,119978,Flanker Experiment,41,23881,45,yes,1024
91.30434783,91.30434783,526.7391304,526.7391304,black,legacy,legacy,legacy,0,congruent,uniform,1,undefined,1,h,0,0,0,45,45,0,45,0,45,0,0,0,45,45,45,45,9/29/19 20:07,1500,The main experiment item,yes,FlankerExperiment.osexp,E:\Classwork\AQMAED,no,mono,no,18,no,white,no,yes,768,legacy,45,45,E:/Classwork/AQMAED/CH-subject-3.csv,legacy,Kafkaesque Koffka,3.2.8,0,h,NA,s,NA,NA,h,349,NA,33788,NA,NA,349,2,legacy,1024,2,48000,-16,experiment,HHHHH,3,odd,36406,NA,NA,120471,101487,2615,NA,NA,121637,2618,NA,NA,121742,122093,121635,121741,Flanker Experiment,42,24230,46,yes,1024
89.36170213,89.36170213,523.8085106,523.8085106,black,legacy,legacy,legacy,0,incongruent,uniform,0,undefined,0,s,0,0,0,46,46,0,46,0,46,0,0,0,46,46,46,46,9/29/19 20:07,1500,The main experiment item,yes,FlankerExperiment.osexp,E:\Classwork\AQMAED,no,mono,no,18,no,white,no,yes,768,legacy,46,46,E:/Classwork/AQMAED/CH-subject-3.csv,legacy,Kafkaesque Koffka,3.2.8,0,h,NA,s,NA,NA,h,389,NA,33788,NA,NA,389,2,legacy,1024,2,48000,-16,experiment,HHSHH,3,odd,36406,NA,NA,122104,101487,2615,NA,NA,123338,2618,NA,NA,123444,123834,123335,123444,Flanker Experiment,42,24619,47,yes,1024
89.58333333,89.58333333,522.625,522.625,black,legacy,legacy,legacy,0,congruent,uniform,1,undefined,1,h,0,0,0,47,47,0,47,0,47,0,0,0,47,47,47,47,9/29/19 20:07,1500,The main experiment item,yes,FlankerExperiment.osexp,E:\Classwork\AQMAED,no,mono,no,18,no,white,no,yes,768,legacy,47,47,E:/Classwork/AQMAED/CH-subject-3.csv,legacy,Kafkaesque Koffka,3.2.8,0,h,NA,s,NA,NA,h,467,NA,33788,NA,NA,467,2,legacy,1024,2,48000,-16,experiment,HHHHH,3,odd,36406,NA,NA,124352,123847,2615,NA,NA,125572,2618,NA,NA,125677,126145,125567,125677,Flanker Experiment,43,25086,48,yes,1024
89.79591837,89.79591837,520.4897959,520.4897959,black,legacy,legacy,legacy,0,congruent,uniform,1,undefined,1,s,0,0,0,48,48,0,48,0,48,0,0,0,48,48,48,48,9/29/19 20:07,1500,The main experiment item,yes,FlankerExperiment.osexp,E:\Classwork\AQMAED,no,mono,no,18,no,white,no,yes,768,legacy,48,48,E:/Classwork/AQMAED/CH-subject-3.csv,legacy,Kafkaesque Koffka,3.2.8,0,s,NA,s,NA,NA,s,418,NA,33788,NA,NA,418,2,legacy,1024,2,48000,-16,experiment,SSSSS,3,odd,36406,NA,NA,126156,123847,2615,NA,NA,127320,2618,NA,NA,127424,127844,127317,127423,Flanker Experiment,44,25504,49,yes,1024
90,90,522.88,522.88,black,legacy,legacy,legacy,0,congruent,uniform,1,undefined,1,h,0,0,0,49,49,0,49,0,49,0,0,0,49,49,49,49,9/29/19 20:07,1500,The main experiment item,yes,FlankerExperiment.osexp,E:\Classwork\AQMAED,no,mono,no,18,no,white,no,yes,768,legacy,49,49,E:/Classwork/AQMAED/CH-subject-3.csv,legacy,Kafkaesque Koffka,3.2.8,0,h,NA,s,NA,NA,h,640,NA,33788,NA,NA,640,2,legacy,1024,2,48000,-16,experiment,HHHHH,3,odd,36406,NA,NA,127858,123847,2615,NA,NA,129034,2618,NA,NA,129138,129779,129031,129138,Flanker Experiment,45,26144,50,yes,1024
90.19607843,90.19607843,521.4117647,521.4117647,black,legacy,legacy,legacy,0,congruent,uniform,1,undefined,1,h,0,0,0,50,50,0,50,0,50,0,0,0,50,50,50,50,9/29/19 20:07,1500,The main experiment item,yes,FlankerExperiment.osexp,E:\Classwork\AQMAED,no,mono,no,18,no,white,no,yes,768,legacy,50,50,E:/Classwork/AQMAED/CH-subject-3.csv,legacy,Kafkaesque Koffka,3.2.8,0,h,NA,s,NA,NA,h,448,NA,33788,NA,NA,448,2,legacy,1024,2,48000,-16,experiment,HHHHH,3,odd,36406,NA,NA,129788,123847,2615,NA,NA,130956,2618,NA,NA,131062,131512,130953,131061,Flanker Experiment,46,26592,51,yes,1024
90.38461538,90.38461538,520.6346154,520.6346154,black,legacy,legacy,legacy,0,incongruent,uniform,1,undefined,1,s,0,0,0,51,51,0,51,0,51,0,0,0,51,51,51,51,9/29/19 20:07,1500,The main experiment item,yes,FlankerExperiment.osexp,E:\Classwork\AQMAED,no,mono,no,18,no,white,no,yes,768,legacy,51,51,E:/Classwork/AQMAED/CH-subject-3.csv,legacy,Kafkaesque Koffka,3.2.8,0,s,NA,s,NA,NA,s,481,NA,33788,NA,NA,481,2,legacy,1024,2,48000,-16,experiment,HHSHH,3,odd,36406,NA,NA,131520,123847,2615,NA,NA,132735,2618,NA,NA,132840,133323,132730,132840,Flanker Experiment,47,27073,52,yes,1024
90.56603774,90.56603774,520.6226415,520.6226415,black,legacy,legacy,legacy,0,incongruent,uniform,1,undefined,1,s,0,0,0,52,52,0,52,0,52,0,0,0,52,52,52,52,9/29/19 20:07,1500,The main experiment item,yes,FlankerExperiment.osexp,E:\Classwork\AQMAED,no,mono,no,18,no,white,no,yes,768,legacy,52,52,E:/Classwork/AQMAED/CH-subject-3.csv,legacy,Kafkaesque Koffka,3.2.8,0,s,NA,s,NA,NA,s,520,NA,33788,NA,NA,520,2,legacy,1024,2,48000,-16,experiment,HHSHH,3,odd,36406,NA,NA,133335,123847,2615,NA,NA,134532,2618,NA,NA,134636,135159,134529,134636,Flanker Experiment,48,27593,53,yes,1024
90.74074074,90.74074074,519.1111111,519.1111111,black,legacy,legacy,legacy,0,congruent,uniform,1,undefined,1,s,0,0,0,53,53,0,53,0,53,0,0,0,53,53,53,53,9/29/19 20:07,1500,The main experiment item,yes,FlankerExperiment.osexp,E:\Classwork\AQMAED,no,mono,no,18,no,white,no,yes,768,legacy,53,53,E:/Classwork/AQMAED/CH-subject-3.csv,legacy,Kafkaesque Koffka,3.2.8,0,s,NA,s,NA,NA,s,439,NA,33788,NA,NA,439,2,legacy,1024,2,48000,-16,experiment,SSSSS,3,odd,36406,NA,NA,135171,123847,2615,NA,NA,136330,2618,NA,NA,136434,136874,136328,136434,Flanker Experiment,49,28032,54,yes,1024
90.90909091,90.90909091,517.1272727,517.1272727,black,legacy,legacy,legacy,0,congruent,uniform,1,undefined,1,s,0,0,0,54,54,0,54,0,54,0,0,0,54,54,54,54,9/29/19 20:07,1500,The main experiment item,yes,FlankerExperiment.osexp,E:\Classwork\AQMAED,no,mono,no,18,no,white,no,yes,768,legacy,54,54,E:/Classwork/AQMAED/CH-subject-3.csv,legacy,Kafkaesque Koffka,3.2.8,0,s,NA,s,NA,NA,s,410,NA,33788,NA,NA,410,2,legacy,1024,2,48000,-16,experiment,SSSSS,3,odd,36406,NA,NA,136885,123847,2615,NA,NA,137980,2618,NA,NA,138085,138497,137976,138084,Flanker Experiment,50,28442,55,yes,1024
91.07142857,91.07142857,517.7678571,517.7678571,black,legacy,legacy,legacy,0,incongruent,uniform,1,undefined,1,s,0,0,0,55,55,0,55,0,55,0,0,0,55,55,55,55,9/29/19 20:07,1500,The main experiment item,yes,FlankerExperiment.osexp,E:\Classwork\AQMAED,no,mono,no,18,no,white,no,yes,768,legacy,55,55,E:/Classwork/AQMAED/CH-subject-3.csv,legacy,Kafkaesque Koffka,3.2.8,0,s,NA,s,NA,NA,s,553,NA,33788,NA,NA,553,2,legacy,1024,2,48000,-16,experiment,HHSHH,3,odd,36406,NA,NA,138511,123847,2615,NA,NA,139708,2618,NA,NA,139813,140367,139704,139812,Flanker Experiment,51,28995,56,yes,1024
91.22807018,91.22807018,517.0877193,517.0877193,black,legacy,legacy,legacy,0,congruent,uniform,1,undefined,1,s,0,0,0,56,56,0,56,0,56,0,0,0,56,56,56,56,9/29/19 20:07,1500,The main experiment item,yes,FlankerExperiment.osexp,E:\Classwork\AQMAED,no,mono,no,18,no,white,no,yes,768,legacy,56,56,E:/Classwork/AQMAED/CH-subject-3.csv,legacy,Kafkaesque Koffka,3.2.8,0,s,NA,s,NA,NA,s,479,NA,33788,NA,NA,479,2,legacy,1024,2,48000,-16,experiment,SSSSS,3,odd,36406,NA,NA,140380,123847,2615,NA,NA,141581,2618,NA,NA,141685,142166,141578,141685,Flanker Experiment,52,29474,57,yes,1024
91.37931034,91.37931034,521.4655172,521.4655172,black,legacy,legacy,legacy,0,incongruent,uniform,1,undefined,1,s,0,0,0,57,57,0,57,0,57,0,0,0,57,57,57,57,9/29/19 20:07,1500,The main experiment item,yes,FlankerExperiment.osexp,E:\Classwork\AQMAED,no,mono,no,18,no,white,no,yes,768,legacy,57,57,E:/Classwork/AQMAED/CH-subject-3.csv,legacy,Kafkaesque Koffka,3.2.8,0,s,NA,s,NA,NA,s,771,NA,33788,NA,NA,771,2,legacy,1024,2,48000,-16,experiment,HHSHH,3,odd,36406,NA,NA,142178,123847,2615,NA,NA,143417,2618,NA,NA,143523,144295,143411,143522,Flanker Experiment,53,30245,58,yes,1024
91.52542373,91.52542373,525.1355932,525.1355932,black,legacy,legacy,legacy,0,congruent,uniform,1,undefined,1,h,0,0,0,58,58,0,58,0,58,0,0,0,58,58,58,58,9/29/19 20:07,1500,The main experiment item,yes,FlankerExperiment.osexp,E:\Classwork\AQMAED,no,mono,no,18,no,white,no,yes,768,legacy,58,58,E:/Classwork/AQMAED/CH-subject-3.csv,legacy,Kafkaesque Koffka,3.2.8,0,h,NA,s,NA,NA,h,738,NA,33788,NA,NA,738,2,legacy,1024,2,48000,-16,experiment,HHHHH,3,odd,36406,NA,NA,144305,123847,2615,NA,NA,145493,2618,NA,NA,145594,146334,145490,145594,Flanker Experiment,54,30983,59,yes,1024
91.66666667,91.66666667,525.4,525.4,black,legacy,legacy,legacy,0,incongruent,uniform,1,undefined,1,s,0,0,0,59,59,0,59,0,59,0,0,0,59,59,59,59,9/29/19 20:07,1500,The main experiment item,yes,FlankerExperiment.osexp,E:\Classwork\AQMAED,no,mono,no,18,no,white,no,yes,768,legacy,59,59,E:/Classwork/AQMAED/CH-subject-3.csv,legacy,Kafkaesque Koffka,3.2.8,0,s,NA,s,NA,NA,s,541,NA,33788,NA,NA,541,2,legacy,1024,2,48000,-16,experiment,HHSHH,3,odd,36406,NA,NA,146345,123847,2615,NA,NA,147548,2618,NA,NA,147652,148195,147542,147652,Flanker Experiment,55,31524,60,yes,1024
91.80327869,91.80327869,530.9836066,530.9836066,black,legacy,legacy,legacy,0,congruent,uniform,1,undefined,1,h,0,0,0,60,60,0,60,0,60,0,0,0,60,60,60,60,9/29/19 20:07,1500,The main experiment item,yes,FlankerExperiment.osexp,E:\Classwork\AQMAED,no,mono,no,18,no,white,no,yes,768,legacy,60,60,E:/Classwork/AQMAED/CH-subject-3.csv,legacy,Kafkaesque Koffka,3.2.8,0,h,NA,s,NA,NA,h,866,NA,33788,NA,NA,866,2,legacy,1024,2,48000,-16,experiment,HHHHH,3,odd,36406,NA,NA,148207,123847,2615,NA,NA,149434,2618,NA,NA,149539,150406,149429,149539,Flanker Experiment,56,32390,61,yes,1024
91.93548387,91.93548387,532.7258065,532.7258065,black,legacy,legacy,legacy,0,congruent,uniform,1,undefined,1,s,0,0,0,61,61,0,61,0,61,0,0,0,61,61,61,61,9/29/19 20:07,1500,The main experiment item,yes,FlankerExperiment.osexp,E:\Classwork\AQMAED,no,mono,no,18,no,white,no,yes,768,legacy,61,61,E:/Classwork/AQMAED/CH-subject-3.csv,legacy,Kafkaesque Koffka,3.2.8,0,s,NA,s,NA,NA,s,639,NA,33788,NA,NA,639,2,legacy,1024,2,48000,-16,experiment,SSSSS,3,odd,36406,NA,NA,150419,123847,2615,NA,NA,151613,2618,NA,NA,151717,152358,151610,151717,Flanker Experiment,57,33029,62,yes,1024
92.06349206,92.06349206,531.3650794,531.3650794,black,legacy,legacy,legacy,0,congruent,uniform,1,undefined,1,s,0,0,0,62,62,0,62,0,62,0,0,0,62,62,62,62,9/29/19 20:07,1500,The main experiment item,yes,FlankerExperiment.osexp,E:\Classwork\AQMAED,no,mono,no,18,no,white,no,yes,768,legacy,62,62,E:/Classwork/AQMAED/CH-subject-3.csv,legacy,Kafkaesque Koffka,3.2.8,0,s,NA,s,NA,NA,s,447,NA,33788,NA,NA,447,2,legacy,1024,2,48000,-16,experiment,SSSSS,3,odd,36406,NA,NA,152364,123847,2615,NA,NA,153562,2618,NA,NA,153666,154114,153560,153666,Flanker Experiment,58,33476,63,yes,1024
92.1875,92.1875,531.34375,531.34375,black,legacy,legacy,legacy,0,congruent,uniform,1,undefined,1,h,0,0,0,63,63,0,63,0,63,0,0,0,63,63,63,63,9/29/19 20:07,1500,The main experiment item,yes,FlankerExperiment.osexp,E:\Classwork\AQMAED,no,mono,no,18,no,white,no,yes,768,legacy,63,63,E:/Classwork/AQMAED/CH-subject-3.csv,legacy,Kafkaesque Koffka,3.2.8,0,h,NA,s,NA,NA,h,530,NA,33788,NA,NA,530,2,legacy,1024,2,48000,-16,experiment,HHHHH,3,odd,36406,NA,NA,154123,123847,2615,NA,NA,155321,2618,NA,NA,155425,155956,155316,155425,Flanker Experiment,59,34006,64,yes,1024
92.30769231,92.30769231,530.0153846,530.0153846,black,legacy,legacy,legacy,0,congruent,uniform,1,undefined,1,s,0,0,0,64,64,0,64,0,64,0,0,0,64,64,64,64,9/29/19 20:07,1500,The main experiment item,yes,FlankerExperiment.osexp,E:\Classwork\AQMAED,no,mono,no,18,no,white,no,yes,768,legacy,64,64,E:/Classwork/AQMAED/CH-subject-3.csv,legacy,Kafkaesque Koffka,3.2.8,0,s,NA,s,NA,NA,s,445,NA,33788,NA,NA,445,2,legacy,1024,2,48000,-16,experiment,SSSSS,3,odd,36406,NA,NA,155966,123847,2615,NA,NA,157122,2618,NA,NA,157226,157673,157119,157226,Flanker Experiment,60,34451,65,yes,1024
92.42424242,92.42424242,529.969697,529.969697,black,legacy,legacy,legacy,0,incongruent,uniform,1,undefined,1,h,0,0,0,65,65,0,65,0,65,0,0,0,65,65,65,65,9/29/19 20:07,1500,The main experiment item,yes,FlankerExperiment.osexp,E:\Classwork\AQMAED,no,mono,no,18,no,white,no,yes,768,legacy,65,65,E:/Classwork/AQMAED/CH-subject-3.csv,legacy,Kafkaesque Koffka,3.2.8,0,h,NA,s,NA,NA,h,527,NA,33788,NA,NA,527,2,legacy,1024,2,48000,-16,experiment,SSHSS,3,odd,36406,NA,NA,157685,123847,2615,NA,NA,158867,2618,NA,NA,158971,159500,158864,158971,Flanker Experiment,61,34978,66,yes,1024
92.53731343,92.53731343,529.1940299,529.1940299,black,legacy,legacy,legacy,0,incongruent,uniform,1,undefined,1,s,0,0,0,66,66,0,66,0,66,0,0,0,66,66,66,66,9/29/19 20:07,1500,The main experiment item,yes,FlankerExperiment.osexp,E:\Classwork\AQMAED,no,mono,no,18,no,white,no,yes,768,legacy,66,66,E:/Classwork/AQMAED/CH-subject-3.csv,legacy,Kafkaesque Koffka,3.2.8,0,s,NA,s,NA,NA,s,478,NA,33788,NA,NA,478,2,legacy,1024,2,48000,-16,experiment,HHSHH,3,odd,36406,NA,NA,159512,123847,2615,NA,NA,160703,2618,NA,NA,160807,161287,160698,160807,Flanker Experiment,62,35456,67,yes,1024
92.64705882,92.64705882,528.3235294,528.3235294,black,legacy,legacy,legacy,0,congruent,uniform,1,undefined,1,h,0,0,0,67,67,0,67,0,67,0,0,0,67,67,67,67,9/29/19 20:07,1500,The main experiment item,yes,FlankerExperiment.osexp,E:\Classwork\AQMAED,no,mono,no,18,no,white,no,yes,768,legacy,67,67,E:/Classwork/AQMAED/CH-subject-3.csv,legacy,Kafkaesque Koffka,3.2.8,0,h,NA,s,NA,NA,h,470,NA,33788,NA,NA,470,2,legacy,1024,2,48000,-16,experiment,HHHHH,3,odd,36406,NA,NA,161296,123847,2615,NA,NA,162511,2618,NA,NA,162615,163087,162506,162615,Flanker Experiment,63,35926,68,yes,1024
92.75362319,92.75362319,526.7391304,526.7391304,black,legacy,legacy,legacy,0,congruent,uniform,1,undefined,1,s,0,0,0,68,68,0,68,0,68,0,0,0,68,68,68,68,9/29/19 20:07,1500,The main experiment item,yes,FlankerExperiment.osexp,E:\Classwork\AQMAED,no,mono,no,18,no,white,no,yes,768,legacy,68,68,E:/Classwork/AQMAED/CH-subject-3.csv,legacy,Kafkaesque Koffka,3.2.8,0,s,NA,s,NA,NA,s,419,NA,33788,NA,NA,419,2,legacy,1024,2,48000,-16,experiment,SSSSS,3,odd,36406,NA,NA,163099,123847,2615,NA,NA,164260,2618,NA,NA,164362,164782,164257,164362,Flanker Experiment,64,36345,69,yes,1024
92.85714286,92.85714286,525.5,525.5,black,legacy,legacy,legacy,0,incongruent,uniform,1,undefined,1,h,0,0,0,69,69,0,69,0,69,0,0,0,69,69,69,69,9/29/19 20:07,1500,The main experiment item,yes,FlankerExperiment.osexp,E:\Classwork\AQMAED,no,mono,no,18,no,white,no,yes,768,legacy,69,69,E:/Classwork/AQMAED/CH-subject-3.csv,legacy,Kafkaesque Koffka,3.2.8,0,h,NA,s,NA,NA,h,440,NA,33788,NA,NA,440,2,legacy,1024,2,48000,-16,experiment,SSHSS,3,odd,36406,NA,NA,164796,123847,2615,NA,NA,165994,2618,NA,NA,166099,166539,165990,166099,Flanker Experiment,65,36785,70,yes,1024
92.95774648,92.95774648,522.9859155,522.9859155,black,legacy,legacy,legacy,0,incongruent,uniform,1,undefined,1,s,0,0,0,70,70,0,70,0,70,0,0,0,70,70,70,70,9/29/19 20:07,1500,The main experiment item,yes,FlankerExperiment.osexp,E:\Classwork\AQMAED,no,mono,no,18,no,white,no,yes,768,legacy,70,70,E:/Classwork/AQMAED/CH-subject-3.csv,legacy,Kafkaesque Koffka,3.2.8,0,s,NA,s,NA,NA,s,347,NA,33788,NA,NA,347,2,legacy,1024,2,48000,-16,experiment,HHSHH,3,odd,36406,NA,NA,166551,123847,2615,NA,NA,167770,2618,NA,NA,167873,168222,167764,167873,Flanker Experiment,66,37132,71,yes,1024
91.66666667,91.66666667,524.4166667,524.4166667,black,legacy,legacy,legacy,0,congruent,uniform,0,undefined,0,s,0,0,0,71,71,0,71,0,71,0,0,0,71,71,71,71,9/29/19 20:07,1500,The main experiment item,yes,FlankerExperiment.osexp,E:\Classwork\AQMAED,no,mono,no,18,no,white,no,yes,768,legacy,71,71,E:/Classwork/AQMAED/CH-subject-3.csv,legacy,Kafkaesque Koffka,3.2.8,0,h,NA,s,NA,NA,h,626,NA,33788,NA,NA,626,2,legacy,1024,2,48000,-16,experiment,SSSSS,3,odd,36406,NA,NA,168234,123847,2615,NA,NA,169472,2618,NA,NA,169576,170202,169467,169576,Flanker Experiment,66,37758,72,yes,1024
91.78082192,91.78082192,524.890411,524.890411,black,legacy,legacy,legacy,0,incongruent,uniform,1,undefined,1,s,0,0,0,72,72,0,72,0,72,0,0,0,72,72,72,72,9/29/19 20:07,1500,The main experiment item,yes,FlankerExperiment.osexp,E:\Classwork\AQMAED,no,mono,no,18,no,white,no,yes,768,legacy,72,72,E:/Classwork/AQMAED/CH-subject-3.csv,legacy,Kafkaesque Koffka,3.2.8,0,s,NA,s,NA,NA,s,559,NA,33788,NA,NA,559,2,legacy,1024,2,48000,-16,experiment,HHSHH,3,odd,36406,NA,NA,170714,170208,2615,NA,NA,171906,2618,NA,NA,172010,172570,171900,172010,Flanker Experiment,67,38317,73,yes,1024
91.89189189,91.89189189,527.9459459,527.9459459,black,legacy,legacy,legacy,0,incongruent,uniform,1,undefined,1,h,0,0,0,73,73,0,73,0,73,0,0,0,73,73,73,73,9/29/19 20:07,1500,The main experiment item,yes,FlankerExperiment.osexp,E:\Classwork\AQMAED,no,mono,no,18,no,white,no,yes,768,legacy,73,73,E:/Classwork/AQMAED/CH-subject-3.csv,legacy,Kafkaesque Koffka,3.2.8,0,h,NA,s,NA,NA,h,751,NA,33788,NA,NA,751,2,legacy,1024,2,48000,-16,experiment,SSHSS,3,odd,36406,NA,NA,172580,170208,2615,NA,NA,173765,2618,NA,NA,173869,174621,173761,173869,Flanker Experiment,68,39068,74,yes,1024
90.66666667,90.66666667,525.8,525.8,black,legacy,legacy,legacy,0,incongruent,uniform,0,undefined,0,h,0,0,0,74,74,0,74,0,74,0,0,0,74,74,74,74,9/29/19 20:07,1500,The main experiment item,yes,FlankerExperiment.osexp,E:\Classwork\AQMAED,no,mono,no,18,no,white,no,yes,768,legacy,74,74,E:/Classwork/AQMAED/CH-subject-3.csv,legacy,Kafkaesque Koffka,3.2.8,0,s,NA,s,NA,NA,s,367,NA,33788,NA,NA,367,2,legacy,1024,2,48000,-16,experiment,SSHSS,3,odd,36406,NA,NA,174631,170208,2615,NA,NA,175796,2618,NA,NA,175900,176267,175792,175900,Flanker Experiment,68,39435,75,yes,1024
90.78947368,90.78947368,526.7763158,526.7763158,black,legacy,legacy,legacy,0,congruent,uniform,1,undefined,1,h,0,0,0,75,75,0,75,0,75,0,0,0,75,75,75,75,9/29/19 20:07,1500,The main experiment item,yes,FlankerExperiment.osexp,E:\Classwork\AQMAED,no,mono,no,18,no,white,no,yes,768,legacy,75,75,E:/Classwork/AQMAED/CH-subject-3.csv,legacy,Kafkaesque Koffka,3.2.8,0,h,NA,s,NA,NA,h,600,NA,33788,NA,NA,600,2,legacy,1024,2,48000,-16,experiment,HHHHH,3,odd,36406,NA,NA,176782,176278,2615,NA,NA,177951,2618,NA,NA,178054,178656,177947,178054,Flanker Experiment,69,40035,76,yes,1024
90.90909091,90.90909091,525.8441558,525.8441558,black,legacy,legacy,legacy,0,congruent,uniform,1,undefined,1,s,0,0,0,76,76,0,76,0,76,0,0,0,76,76,76,76,9/29/19 20:07,1500,The main experiment item,yes,FlankerExperiment.osexp,E:\Classwork\AQMAED,no,mono,no,18,no,white,no,yes,768,legacy,76,76,E:/Classwork/AQMAED/CH-subject-3.csv,legacy,Kafkaesque Koffka,3.2.8,0,s,NA,s,NA,NA,s,455,NA,33788,NA,NA,455,2,legacy,1024,2,48000,-16,experiment,SSSSS,3,odd,36406,NA,NA,178672,176278,2615,NA,NA,179870,2618,NA,NA,179975,180433,179866,179975,Flanker Experiment,70,40490,77,yes,1024
91.02564103,91.02564103,526.1666667,526.1666667,black,legacy,legacy,legacy,0,incongruent,uniform,1,undefined,1,h,0,0,0,77,77,0,77,0,77,0,0,0,77,77,77,77,9/29/19 20:07,1500,The main experiment item,yes,FlankerExperiment.osexp,E:\Classwork\AQMAED,no,mono,no,18,no,white,no,yes,768,legacy,77,77,E:/Classwork/AQMAED/CH-subject-3.csv,legacy,Kafkaesque Koffka,3.2.8,0,h,NA,s,NA,NA,h,551,NA,33788,NA,NA,551,2,legacy,1024,2,48000,-16,experiment,SSHSS,3,odd,36406,NA,NA,180448,176278,2615,NA,NA,181654,2618,NA,NA,181756,182309,181650,181756,Flanker Experiment,71,41041,78,yes,1024
91.13924051,91.13924051,526.2531646,526.2531646,black,legacy,legacy,legacy,0,incongruent,uniform,1,undefined,1,s,0,0,0,78,78,0,78,0,78,0,0,0,78,78,78,78,9/29/19 20:07,1500,The main experiment item,yes,FlankerExperiment.osexp,E:\Classwork\AQMAED,no,mono,no,18,no,white,no,yes,768,legacy,78,78,E:/Classwork/AQMAED/CH-subject-3.csv,legacy,Kafkaesque Koffka,3.2.8,0,s,NA,s,NA,NA,s,533,NA,33788,NA,NA,533,2,legacy,1024,2,48000,-16,experiment,HHSHH,3,odd,36406,NA,NA,182321,176278,2615,NA,NA,183537,2618,NA,NA,183641,184175,183533,183641,Flanker Experiment,72,41574,79,yes,1024
91.25,91.25,525.9,525.9,black,legacy,legacy,legacy,0,congruent,uniform,1,undefined,1,h,0,0,0,79,79,0,79,0,79,0,0,0,79,79,79,79,9/29/19 20:07,1500,The main experiment item,yes,FlankerExperiment.osexp,E:\Classwork\AQMAED,no,mono,no,18,no,white,no,yes,768,legacy,79,79,E:/Classwork/AQMAED/CH-subject-3.csv,legacy,Kafkaesque Koffka,3.2.8,0,h,NA,s,NA,NA,h,498,NA,33788,NA,NA,498,2,legacy,1024,2,48000,-16,experiment,HHHHH,3,odd,36406,NA,NA,184187,176278,2615,NA,NA,185378,2618,NA,NA,185482,185982,185374,185482,Flanker Experiment,73,42072,80,yes,1024
91.35802469,91.35802469,528.0493827,528.0493827,black,legacy,legacy,legacy,0,incongruent,uniform,1,undefined,1,h,0,0,0,80,80,0,80,0,80,0,0,0,80,80,80,80,9/29/19 20:07,600,The main experiment item,yes,FlankerExperiment.osexp,E:\Classwork\AQMAED,no,mono,no,18,no,white,no,yes,768,legacy,0,79,E:/Classwork/AQMAED/CH-subject-3.csv,legacy,Kafkaesque Koffka,3.2.8,0,h,NA,s,s,NA,h,700,NA,33788,42192,NA,700,2,legacy,1024,2,48000,-16,experiment,SSHSS,3,odd,36406,229220,NA,185994,176278,2615,NA,NA,229286,2618,187027,NA,229389,230091,229284,229389,Flanker Experiment,74,42772,81,yes,1024
91.46341463,91.46341463,526.1219512,526.1219512,black,legacy,legacy,legacy,0,congruent,uniform,1,undefined,1,s,0,0,0,81,81,0,81,0,81,0,0,0,81,81,81,81,9/29/19 20:07,600,The main experiment item,yes,FlankerExperiment.osexp,E:\Classwork\AQMAED,no,mono,no,18,no,white,no,yes,768,legacy,1,79,E:/Classwork/AQMAED/CH-subject-3.csv,legacy,Kafkaesque Koffka,3.2.8,0,s,NA,s,s,NA,s,370,NA,33788,42192,NA,370,2,legacy,1024,2,48000,-16,experiment,SSSSS,3,odd,36406,229220,NA,230617,176278,2615,230113,NA,231781,2618,187027,NA,231886,232258,231777,231886,Flanker Experiment,75,43142,82,yes,1024
91.56626506,91.56626506,524.3614458,524.3614458,black,legacy,legacy,legacy,0,congruent,uniform,1,undefined,1,s,0,0,0,82,82,0,82,0,82,0,0,0,82,82,82,82,9/29/19 20:07,600,The main experiment item,yes,FlankerExperiment.osexp,E:\Classwork\AQMAED,no,mono,no,18,no,white,no,yes,768,legacy,2,79,E:/Classwork/AQMAED/CH-subject-3.csv,legacy,Kafkaesque Koffka,3.2.8,0,s,NA,s,s,NA,s,380,NA,33788,42192,NA,380,2,legacy,1024,2,48000,-16,experiment,SSSSS,3,odd,36406,229220,NA,232269,176278,2615,230113,NA,233498,2618,187027,NA,233603,233984,233495,233603,Flanker Experiment,76,43522,83,yes,1024
91.66666667,91.66666667,522.452381,522.452381,black,legacy,legacy,legacy,0,congruent,uniform,1,undefined,1,s,0,0,0,83,83,0,83,0,83,0,0,0,83,83,83,83,9/29/19 20:07,600,The main experiment item,yes,FlankerExperiment.osexp,E:\Classwork\AQMAED,no,mono,no,18,no,white,no,yes,768,legacy,3,79,E:/Classwork/AQMAED/CH-subject-3.csv,legacy,Kafkaesque Koffka,3.2.8,0,s,NA,s,s,NA,s,364,NA,33788,42192,NA,364,2,legacy,1024,2,48000,-16,experiment,SSSSS,3,odd,36406,229220,NA,233989,176278,2615,230113,NA,235181,2618,187027,NA,235285,235653,235178,235285,Flanker Experiment,77,43886,84,yes,1024
90.58823529,90.58823529,520.7411765,520.7411765,black,legacy,legacy,legacy,0,incongruent,uniform,0,undefined,0,s,0,0,0,84,84,0,84,0,84,0,0,0,84,84,84,84,9/29/19 20:07,600,The main experiment item,yes,FlankerExperiment.osexp,E:\Classwork\AQMAED,no,mono,no,18,no,white,no,yes,768,legacy,4,79,E:/Classwork/AQMAED/CH-subject-3.csv,legacy,Kafkaesque Koffka,3.2.8,0,h,NA,s,s,NA,h,377,NA,33788,42192,NA,377,2,legacy,1024,2,48000,-16,experiment,HHSHH,3,odd,36406,229220,NA,235669,176278,2615,230113,NA,236875,2618,187027,NA,236980,237359,236872,236979,Flanker Experiment,77,44263,85,yes,1024
90.69767442,90.69767442,519.4534884,519.4534884,black,legacy,legacy,legacy,0,congruent,uniform,1,undefined,1,h,0,0,0,85,85,0,85,0,85,0,0,0,85,85,85,85,9/29/19 20:07,600,The main experiment item,yes,FlankerExperiment.osexp,E:\Classwork\AQMAED,no,mono,no,18,no,white,no,yes,768,legacy,5,79,E:/Classwork/AQMAED/CH-subject-3.csv,legacy,Kafkaesque Koffka,3.2.8,0,h,NA,s,s,NA,h,410,NA,33788,42192,NA,410,2,legacy,1024,2,48000,-16,experiment,HHHHH,3,odd,36406,229220,NA,237879,237372,2615,230113,NA,239064,2618,187027,NA,239169,239582,239060,239169,Flanker Experiment,78,44673,86,yes,1024
90.8045977,90.8045977,519.5862069,519.5862069,black,legacy,legacy,legacy,0,incongruent,uniform,1,undefined,1,h,0,0,0,86,86,0,86,0,86,0,0,0,86,86,86,86,9/29/19 20:07,600,The main experiment item,yes,FlankerExperiment.osexp,E:\Classwork\AQMAED,no,mono,no,18,no,white,no,yes,768,legacy,6,79,E:/Classwork/AQMAED/CH-subject-3.csv,legacy,Kafkaesque Koffka,3.2.8,0,h,NA,s,s,NA,h,531,NA,33788,42192,NA,531,2,legacy,1024,2,48000,-16,experiment,SSHSS,3,odd,36406,229220,NA,239596,237372,2615,230113,NA,240759,2618,187027,NA,240864,241395,240757,240864,Flanker Experiment,79,45204,87,yes,1024
89.77272727,89.77272727,518.5681818,518.5681818,black,legacy,legacy,legacy,0,incongruent,uniform,0,undefined,0,s,0,0,0,87,87,0,87,0,87,0,0,0,87,87,87,87,9/29/19 20:07,600,The main experiment item,yes,FlankerExperiment.osexp,E:\Classwork\AQMAED,no,mono,no,18,no,white,no,yes,768,legacy,7,79,E:/Classwork/AQMAED/CH-subject-3.csv,legacy,Kafkaesque Koffka,3.2.8,0,h,NA,s,s,NA,h,430,NA,33788,42192,NA,430,2,legacy,1024,2,48000,-16,experiment,HHSHH,3,odd,36406,229220,NA,241407,237372,2615,230113,NA,242602,2618,187027,NA,242707,243138,242599,242706,Flanker Experiment,79,45634,88,yes,1024
89.88764045,89.88764045,518.247191,518.247191,black,legacy,legacy,legacy,0,congruent,uniform,1,undefined,1,s,0,0,0,88,88,0,88,0,88,0,0,0,88,88,88,88,9/29/19 20:07,600,The main experiment item,yes,FlankerExperiment.osexp,E:\Classwork\AQMAED,no,mono,no,18,no,white,no,yes,768,legacy,8,79,E:/Classwork/AQMAED/CH-subject-3.csv,legacy,Kafkaesque Koffka,3.2.8,0,s,NA,s,s,NA,s,490,NA,33788,42192,NA,490,2,legacy,1024,2,48000,-16,experiment,SSSSS,3,odd,36406,229220,NA,243648,243144,2615,230113,NA,244779,2618,187027,NA,244884,245376,244776,244883,Flanker Experiment,80,46124,89,yes,1024
88.88888889,88.88888889,516.6444444,516.6444444,black,legacy,legacy,legacy,0,incongruent,uniform,0,undefined,0,h,0,0,0,89,89,0,89,0,89,0,0,0,89,89,89,89,9/29/19 20:07,600,The main experiment item,yes,FlankerExperiment.osexp,E:\Classwork\AQMAED,no,mono,no,18,no,white,no,yes,768,legacy,9,79,E:/Classwork/AQMAED/CH-subject-3.csv,legacy,Kafkaesque Koffka,3.2.8,0,s,NA,s,s,NA,s,374,NA,33788,42192,NA,374,2,legacy,1024,2,48000,-16,experiment,SSHSS,3,odd,36406,229220,NA,245389,243144,2615,230113,NA,246592,2618,187027,NA,246697,247072,246586,246697,Flanker Experiment,80,46498,90,yes,1024
87.91208791,87.91208791,515.7032967,515.7032967,black,legacy,legacy,legacy,0,incongruent,uniform,0,undefined,0,h,0,0,0,90,90,0,90,0,90,0,0,0,90,90,90,90,9/29/19 20:07,600,The main experiment item,yes,FlankerExperiment.osexp,E:\Classwork\AQMAED,no,mono,no,18,no,white,no,yes,768,legacy,10,79,E:/Classwork/AQMAED/CH-subject-3.csv,legacy,Kafkaesque Koffka,3.2.8,0,s,NA,s,s,NA,s,431,NA,33788,42192,NA,431,2,legacy,1024,2,48000,-16,experiment,SSHSS,3,odd,36406,229220,NA,247587,247083,2615,230113,NA,248781,2618,187027,NA,248885,249320,248776,248884,Flanker Experiment,80,46929,91,yes,1024
88.04347826,88.04347826,514.6847826,514.6847826,black,legacy,legacy,legacy,0,congruent,uniform,1,undefined,1,h,0,0,0,91,91,0,91,0,91,0,0,0,91,91,91,91,9/29/19 20:07,600,The main experiment item,yes,FlankerExperiment.osexp,E:\Classwork\AQMAED,no,mono,no,18,no,white,no,yes,768,legacy,11,79,E:/Classwork/AQMAED/CH-subject-3.csv,legacy,Kafkaesque Koffka,3.2.8,0,h,NA,s,s,NA,h,422,NA,33788,42192,NA,422,2,legacy,1024,2,48000,-16,experiment,HHHHH,3,odd,36406,229220,NA,249839,249333,2615,230113,NA,251022,2618,187027,NA,251127,251550,251017,251127,Flanker Experiment,81,47351,92,yes,1024
88.17204301,88.17204301,513.827957,513.827957,black,legacy,legacy,legacy,0,congruent,uniform,1,undefined,1,h,0,0,0,92,92,0,92,0,92,0,0,0,92,92,92,92,9/29/19 20:07,600,The main experiment item,yes,FlankerExperiment.osexp,E:\Classwork\AQMAED,no,mono,no,18,no,white,no,yes,768,legacy,12,79,E:/Classwork/AQMAED/CH-subject-3.csv,legacy,Kafkaesque Koffka,3.2.8,0,h,NA,s,s,NA,h,435,NA,33788,42192,NA,435,2,legacy,1024,2,48000,-16,experiment,HHHHH,3,odd,36406,229220,NA,251560,249333,2615,230113,NA,252772,2618,187027,NA,252877,253314,252767,252876,Flanker Experiment,82,47786,93,yes,1024
88.29787234,88.29787234,513.393617,513.393617,black,legacy,legacy,legacy,0,incongruent,uniform,1,undefined,1,s,0,0,0,93,93,0,93,0,93,0,0,0,93,93,93,93,9/29/19 20:07,600,The main experiment item,yes,FlankerExperiment.osexp,E:\Classwork\AQMAED,no,mono,no,18,no,white,no,yes,768,legacy,13,79,E:/Classwork/AQMAED/CH-subject-3.csv,legacy,Kafkaesque Koffka,3.2.8,0,s,NA,s,s,NA,s,473,NA,33788,42192,NA,473,2,legacy,1024,2,48000,-16,experiment,HHSHH,3,odd,36406,229220,NA,253322,249333,2615,230113,NA,254542,2618,187027,NA,254645,255120,254538,254645,Flanker Experiment,83,48259,94,yes,1024
88.42105263,88.42105263,512.2631579,512.2631579,black,legacy,legacy,legacy,0,congruent,uniform,1,undefined,1,s,0,0,0,94,94,0,94,0,94,0,0,0,94,94,94,94,9/29/19 20:07,600,The main experiment item,yes,FlankerExperiment.osexp,E:\Classwork\AQMAED,no,mono,no,18,no,white,no,yes,768,legacy,14,79,E:/Classwork/AQMAED/CH-subject-3.csv,legacy,Kafkaesque Koffka,3.2.8,0,s,NA,s,s,NA,s,406,NA,33788,42192,NA,406,2,legacy,1024,2,48000,-16,experiment,SSSSS,3,odd,36406,229220,NA,255133,249333,2615,230113,NA,256343,2618,187027,NA,256448,256856,256338,256447,Flanker Experiment,84,48665,95,yes,1024
88.54166667,88.54166667,510.9166667,510.9166667,black,legacy,legacy,legacy,0,congruent,uniform,1,undefined,1,s,0,0,0,95,95,0,95,0,95,0,0,0,95,95,95,95,9/29/19 20:07,600,The main experiment item,yes,FlankerExperiment.osexp,E:\Classwork\AQMAED,no,mono,no,18,no,white,no,yes,768,legacy,15,79,E:/Classwork/AQMAED/CH-subject-3.csv,legacy,Kafkaesque Koffka,3.2.8,0,s,NA,s,s,NA,s,383,NA,33788,42192,NA,383,2,legacy,1024,2,48000,-16,experiment,SSSSS,3,odd,36406,229220,NA,256873,249333,2615,230113,NA,258101,2618,187027,NA,258206,258591,258097,258205,Flanker Experiment,85,49048,96,yes,1024
87.62886598,87.62886598,509.556701,509.556701,black,legacy,legacy,legacy,0,incongruent,uniform,0,undefined,0,h,0,0,0,96,96,0,96,0,96,0,0,0,96,96,96,96,9/29/19 20:07,600,The main experiment item,yes,FlankerExperiment.osexp,E:\Classwork\AQMAED,no,mono,no,18,no,white,no,yes,768,legacy,16,79,E:/Classwork/AQMAED/CH-subject-3.csv,legacy,Kafkaesque Koffka,3.2.8,0,s,NA,s,s,NA,s,379,NA,33788,42192,NA,379,2,legacy,1024,2,48000,-16,experiment,SSHSS,3,odd,36406,229220,NA,258598,249333,2615,230113,NA,259812,2618,187027,NA,259917,260297,259807,259917,Flanker Experiment,85,49427,97,yes,1024
87.75510204,87.75510204,510.9183673,510.9183673,black,legacy,legacy,legacy,0,incongruent,uniform,1,undefined,1,s,0,0,0,97,97,0,97,0,97,0,0,0,97,97,97,97,9/29/19 20:07,600,The main experiment item,yes,FlankerExperiment.osexp,E:\Classwork\AQMAED,no,mono,no,18,no,white,no,yes,768,legacy,17,79,E:/Classwork/AQMAED/CH-subject-3.csv,legacy,Kafkaesque Koffka,3.2.8,0,s,NA,s,s,NA,s,643,NA,33788,42192,NA,643,2,legacy,1024,2,48000,-16,experiment,HHSHH,3,odd,36406,229220,NA,260812,260307,2615,230113,NA,261986,2618,187027,NA,262090,262735,261983,262090,Flanker Experiment,86,50070,98,yes,1024
87.87878788,87.87878788,510.0606061,510.0606061,black,legacy,legacy,legacy,0,congruent,uniform,1,undefined,1,h,0,0,0,98,98,0,98,0,98,0,0,0,98,98,98,98,9/29/19 20:07,600,The main experiment item,yes,FlankerExperiment.osexp,E:\Classwork\AQMAED,no,mono,no,18,no,white,no,yes,768,legacy,18,79,E:/Classwork/AQMAED/CH-subject-3.csv,legacy,Kafkaesque Koffka,3.2.8,0,h,NA,s,s,NA,h,426,NA,33788,42192,NA,426,2,legacy,1024,2,48000,-16,experiment,HHHHH,3,odd,36406,229220,NA,263247,260307,2615,262743,NA,264445,2618,187027,NA,264549,264976,264441,264549,Flanker Experiment,87,50496,99,yes,1024
88,88,509.05,509.05,black,legacy,legacy,legacy,0,congruent,uniform,1,undefined,1,h,0,0,0,99,99,0,99,0,99,0,0,0,99,99,99,99,9/29/19 20:07,600,The main experiment item,yes,FlankerExperiment.osexp,E:\Classwork\AQMAED,no,mono,no,18,no,white,no,yes,768,legacy,19,79,E:/Classwork/AQMAED/CH-subject-3.csv,legacy,Kafkaesque Koffka,3.2.8,0,h,NA,s,s,NA,h,409,NA,33788,42192,NA,409,2,legacy,1024,2,48000,-16,experiment,HHHHH,3,odd,36406,229220,NA,264983,260307,2615,262743,NA,266159,2618,187027,NA,266264,266675,266155,266263,Flanker Experiment,88,50905,100,yes,1024
88.11881188,88.11881188,509.1980198,509.1980198,black,legacy,legacy,legacy,0,incongruent,uniform,1,undefined,1,h,0,0,0,100,100,0,100,0,100,0,0,0,100,100,100,100,9/29/19 20:07,600,The main experiment item,yes,FlankerExperiment.osexp,E:\Classwork\AQMAED,no,mono,no,18,no,white,no,yes,768,legacy,20,79,E:/Classwork/AQMAED/CH-subject-3.csv,legacy,Kafkaesque Koffka,3.2.8,0,h,NA,s,s,NA,h,524,NA,33788,42192,NA,524,2,legacy,1024,2,48000,-16,experiment,SSHSS,3,odd,36406,229220,NA,266688,260307,2615,262743,NA,267889,2618,187027,NA,267994,268519,267884,267994,Flanker Experiment,89,51429,101,yes,1024
88.23529412,88.23529412,508.7843137,508.7843137,black,legacy,legacy,legacy,0,incongruent,uniform,1,undefined,1,s,0,0,0,101,101,0,101,0,101,0,0,0,101,101,101,101,9/29/19 20:07,600,The main experiment item,yes,FlankerExperiment.osexp,E:\Classwork\AQMAED,no,mono,no,18,no,white,no,yes,768,legacy,21,79,E:/Classwork/AQMAED/CH-subject-3.csv,legacy,Kafkaesque Koffka,3.2.8,0,s,NA,s,s,NA,s,467,NA,33788,42192,NA,467,2,legacy,1024,2,48000,-16,experiment,HHSHH,3,odd,36406,229220,NA,268528,260307,2615,262743,NA,269729,2618,187027,NA,269834,270302,269724,269833,Flanker Experiment,90,51896,102,yes,1024
88.34951456,88.34951456,508.7961165,508.7961165,black,legacy,legacy,legacy,0,incongruent,uniform,1,undefined,1,h,0,0,0,102,102,0,102,0,102,0,0,0,102,102,102,102,9/29/19 20:07,600,The main experiment item,yes,FlankerExperiment.osexp,E:\Classwork\AQMAED,no,mono,no,18,no,white,no,yes,768,legacy,22,79,E:/Classwork/AQMAED/CH-subject-3.csv,legacy,Kafkaesque Koffka,3.2.8,0,h,NA,s,s,NA,h,510,NA,33788,42192,NA,510,2,legacy,1024,2,48000,-16,experiment,SSHSS,3,odd,36406,229220,NA,270311,260307,2615,262743,NA,271487,2618,187027,NA,271591,272104,271483,271591,Flanker Experiment,91,52406,103,yes,1024
88.46153846,88.46153846,508.5096154,508.5096154,black,legacy,legacy,legacy,0,incongruent,uniform,1,undefined,1,h,0,0,0,103,103,0,103,0,103,0,0,0,103,103,103,103,9/29/19 20:07,600,The main experiment item,yes,FlankerExperiment.osexp,E:\Classwork\AQMAED,no,mono,no,18,no,white,no,yes,768,legacy,23,79,E:/Classwork/AQMAED/CH-subject-3.csv,legacy,Kafkaesque Koffka,3.2.8,0,h,NA,s,s,NA,h,479,NA,33788,42192,NA,479,2,legacy,1024,2,48000,-16,experiment,SSHSS,3,odd,36406,229220,NA,272114,260307,2615,262743,NA,273303,2618,187027,NA,273408,273890,273300,273408,Flanker Experiment,92,52885,104,yes,1024
88.57142857,88.57142857,507.9428571,507.9428571,black,legacy,legacy,legacy,0,incongruent,uniform,1,undefined,1,s,0,0,0,104,104,0,104,0,104,0,0,0,104,104,104,104,9/29/19 20:07,600,The main experiment item,yes,FlankerExperiment.osexp,E:\Classwork\AQMAED,no,mono,no,18,no,white,no,yes,768,legacy,24,79,E:/Classwork/AQMAED/CH-subject-3.csv,legacy,Kafkaesque Koffka,3.2.8,0,s,NA,s,s,NA,s,449,NA,33788,42192,NA,449,2,legacy,1024,2,48000,-16,experiment,HHSHH,3,odd,36406,229220,NA,273902,260307,2615,262743,NA,275087,2618,187027,NA,275191,275642,275083,275191,Flanker Experiment,93,53334,105,yes,1024
88.67924528,88.67924528,507.6226415,507.6226415,black,legacy,legacy,legacy,0,incongruent,uniform,1,undefined,1,s,0,0,0,105,105,0,105,0,105,0,0,0,105,105,105,105,9/29/19 20:07,600,The main experiment item,yes,FlankerExperiment.osexp,E:\Classwork\AQMAED,no,mono,no,18,no,white,no,yes,768,legacy,25,79,E:/Classwork/AQMAED/CH-subject-3.csv,legacy,Kafkaesque Koffka,3.2.8,0,s,NA,s,s,NA,s,474,NA,33788,42192,NA,474,2,legacy,1024,2,48000,-16,experiment,HHSHH,3,odd,36406,229220,NA,275656,260307,2615,262743,NA,276864,2618,187027,NA,276968,277444,276859,276968,Flanker Experiment,94,53808,106,yes,1024
88.78504673,88.78504673,507.2803738,507.2803738,black,legacy,legacy,legacy,0,incongruent,uniform,1,undefined,1,h,0,0,0,106,106,0,106,0,106,0,0,0,106,106,106,106,9/29/19 20:07,600,The main experiment item,yes,FlankerExperiment.osexp,E:\Classwork\AQMAED,no,mono,no,18,no,white,no,yes,768,legacy,26,79,E:/Classwork/AQMAED/CH-subject-3.csv,legacy,Kafkaesque Koffka,3.2.8,0,h,NA,s,s,NA,h,471,NA,33788,42192,NA,471,2,legacy,1024,2,48000,-16,experiment,SSHSS,3,odd,36406,229220,NA,277454,260307,2615,262743,NA,278668,2618,187027,NA,278772,279244,278663,278771,Flanker Experiment,95,54279,107,yes,1024
88.88888889,88.88888889,506.2592593,506.2592593,black,legacy,legacy,legacy,0,congruent,uniform,1,undefined,1,h,0,0,0,107,107,0,107,0,107,0,0,0,107,107,107,107,9/29/19 20:07,600,The main experiment item,yes,FlankerExperiment.osexp,E:\Classwork\AQMAED,no,mono,no,18,no,white,no,yes,768,legacy,27,79,E:/Classwork/AQMAED/CH-subject-3.csv,legacy,Kafkaesque Koffka,3.2.8,0,h,NA,s,s,NA,h,397,NA,33788,42192,NA,397,2,legacy,1024,2,48000,-16,experiment,HHHHH,3,odd,36406,229220,NA,279254,260307,2615,262743,NA,280442,2618,187027,NA,280547,280945,280438,280546,Flanker Experiment,96,54676,108,yes,1024
88.99082569,88.99082569,505.6055046,505.6055046,black,legacy,legacy,legacy,0,congruent,uniform,1,undefined,1,s,0,0,0,108,108,0,108,0,108,0,0,0,108,108,108,108,9/29/19 20:07,600,The main experiment item,yes,FlankerExperiment.osexp,E:\Classwork\AQMAED,no,mono,no,18,no,white,no,yes,768,legacy,28,79,E:/Classwork/AQMAED/CH-subject-3.csv,legacy,Kafkaesque Koffka,3.2.8,0,s,NA,s,s,NA,s,435,NA,33788,42192,NA,435,2,legacy,1024,2,48000,-16,experiment,SSSSS,3,odd,36406,229220,NA,280955,260307,2615,262743,NA,282126,2618,187027,NA,282231,282669,282123,282231,Flanker Experiment,97,55111,109,yes,1024
89.09090909,89.09090909,504.7363636,504.7363636,black,legacy,legacy,legacy,0,congruent,uniform,1,undefined,1,h,0,0,0,109,109,0,109,0,109,0,0,0,109,109,109,109,9/29/19 20:07,600,The main experiment item,yes,FlankerExperiment.osexp,E:\Classwork\AQMAED,no,mono,no,18,no,white,no,yes,768,legacy,29,79,E:/Classwork/AQMAED/CH-subject-3.csv,legacy,Kafkaesque Koffka,3.2.8,0,h,NA,s,s,NA,h,410,NA,33788,42192,NA,410,2,legacy,1024,2,48000,-16,experiment,HHHHH,3,odd,36406,229220,NA,282681,260307,2615,262743,NA,283856,2618,187027,NA,283961,284373,283853,283961,Flanker Experiment,98,55521,110,yes,1024
89.18918919,89.18918919,504.5945946,504.5945946,black,legacy,legacy,legacy,0,incongruent,uniform,1,undefined,1,s,0,0,0,110,110,0,110,0,110,0,0,0,110,110,110,110,9/29/19 20:07,600,The main experiment item,yes,FlankerExperiment.osexp,E:\Classwork\AQMAED,no,mono,no,18,no,white,no,yes,768,legacy,30,79,E:/Classwork/AQMAED/CH-subject-3.csv,legacy,Kafkaesque Koffka,3.2.8,0,s,NA,s,s,NA,s,489,NA,33788,42192,NA,489,2,legacy,1024,2,48000,-16,experiment,HHSHH,3,odd,36406,229220,NA,284383,260307,2615,262743,NA,285574,2618,187027,NA,285678,286169,285571,285678,Flanker Experiment,99,56010,111,yes,1024
89.28571429,89.28571429,503.7232143,503.7232143,black,legacy,legacy,legacy,0,congruent,uniform,1,undefined,1,h,0,0,0,111,111,0,111,0,111,0,0,0,111,111,111,111,9/29/19 20:07,600,The main experiment item,yes,FlankerExperiment.osexp,E:\Classwork\AQMAED,no,mono,no,18,no,white,no,yes,768,legacy,31,79,E:/Classwork/AQMAED/CH-subject-3.csv,legacy,Kafkaesque Koffka,3.2.8,0,h,NA,s,s,NA,h,407,NA,33788,42192,NA,407,2,legacy,1024,2,48000,-16,experiment,HHHHH,3,odd,36406,229220,NA,286178,260307,2615,262743,NA,287377,2618,187027,NA,287482,287891,287373,287481,Flanker Experiment,100,56417,112,yes,1024
89.38053097,89.38053097,502.8761062,502.8761062,black,legacy,legacy,legacy,0,congruent,uniform,1,undefined,1,h,0,0,0,112,112,0,112,0,112,0,0,0,112,112,112,112,9/29/19 20:07,600,The main experiment item,yes,FlankerExperiment.osexp,E:\Classwork\AQMAED,no,mono,no,18,no,white,no,yes,768,legacy,32,79,E:/Classwork/AQMAED/CH-subject-3.csv,legacy,Kafkaesque Koffka,3.2.8,0,h,NA,s,s,NA,h,408,NA,33788,42192,NA,408,2,legacy,1024,2,48000,-16,experiment,HHHHH,3,odd,36406,229220,NA,287900,260307,2615,262743,NA,289104,2618,187027,NA,289208,289618,289100,289208,Flanker Experiment,101,56825,113,yes,1024
88.59649123,88.59649123,501.622807,501.622807,black,legacy,legacy,legacy,0,incongruent,uniform,0,undefined,0,h,0,0,0,113,113,0,113,0,113,0,0,0,113,113,113,113,9/29/19 20:07,600,The main experiment item,yes,FlankerExperiment.osexp,E:\Classwork\AQMAED,no,mono,no,18,no,white,no,yes,768,legacy,33,79,E:/Classwork/AQMAED/CH-subject-3.csv,legacy,Kafkaesque Koffka,3.2.8,0,s,NA,s,s,NA,s,360,NA,33788,42192,NA,360,2,legacy,1024,2,48000,-16,experiment,SSHSS,3,odd,36406,229220,NA,289627,260307,2615,262743,NA,290798,2618,187027,NA,290902,291265,290795,290902,Flanker Experiment,101,57185,114,yes,1024
88.69565217,88.69565217,502.4695652,502.4695652,black,legacy,legacy,legacy,0,congruent,uniform,1,undefined,1,s,0,0,0,114,114,0,114,0,114,0,0,0,114,114,114,114,9/29/19 20:07,600,The main experiment item,yes,FlankerExperiment.osexp,E:\Classwork\AQMAED,no,mono,no,18,no,white,no,yes,768,legacy,34,79,E:/Classwork/AQMAED/CH-subject-3.csv,legacy,Kafkaesque Koffka,3.2.8,0,s,NA,s,s,NA,s,599,NA,33788,42192,NA,599,2,legacy,1024,2,48000,-16,experiment,SSSSS,3,odd,36406,229220,NA,291782,291278,2615,262743,NA,292969,2618,187027,NA,293074,293674,292962,293073,Flanker Experiment,102,57784,115,yes,1024
88.79310345,88.79310345,501.5,501.5,black,legacy,legacy,legacy,0,congruent,uniform,1,undefined,1,s,0,0,0,115,115,0,115,0,115,0,0,0,115,115,115,115,9/29/19 20:07,600,The main experiment item,yes,FlankerExperiment.osexp,E:\Classwork\AQMAED,no,mono,no,18,no,white,no,yes,768,legacy,35,79,E:/Classwork/AQMAED/CH-subject-3.csv,legacy,Kafkaesque Koffka,3.2.8,0,s,NA,s,s,NA,s,390,NA,33788,42192,NA,390,2,legacy,1024,2,48000,-16,experiment,SSSSS,3,odd,36406,229220,NA,293684,291278,2615,262743,NA,294850,2618,187027,NA,294955,295349,294846,294954,Flanker Experiment,103,58174,116,yes,1024
88.88888889,88.88888889,500.7008547,500.7008547,black,legacy,legacy,legacy,0,congruent,uniform,1,undefined,1,h,0,0,0,116,116,0,116,0,116,0,0,0,116,116,116,116,9/29/19 20:07,600,The main experiment item,yes,FlankerExperiment.osexp,E:\Classwork\AQMAED,no,mono,no,18,no,white,no,yes,768,legacy,36,79,E:/Classwork/AQMAED/CH-subject-3.csv,legacy,Kafkaesque Koffka,3.2.8,0,h,NA,s,s,NA,h,408,NA,33788,42192,NA,408,2,legacy,1024,2,48000,-16,experiment,HHHHH,3,odd,36406,229220,NA,295362,291278,2615,262743,NA,296555,2618,187027,NA,296659,297070,296550,296659,Flanker Experiment,104,58582,117,yes,1024
88.98305085,88.98305085,499.7033898,499.7033898,black,legacy,legacy,legacy,0,congruent,uniform,1,undefined,1,s,0,0,0,117,117,0,117,0,117,0,0,0,117,117,117,117,9/29/19 20:07,600,The main experiment item,yes,FlankerExperiment.osexp,E:\Classwork\AQMAED,no,mono,no,18,no,white,no,yes,768,legacy,37,79,E:/Classwork/AQMAED/CH-subject-3.csv,legacy,Kafkaesque Koffka,3.2.8,0,s,NA,s,s,NA,s,383,NA,33788,42192,NA,383,2,legacy,1024,2,48000,-16,experiment,SSSSS,3,odd,36406,229220,NA,297083,291278,2615,262743,NA,298266,2618,187027,NA,298371,298756,298262,298371,Flanker Experiment,105,58965,118,yes,1024
89.07563025,89.07563025,500.1092437,500.1092437,black,legacy,legacy,legacy,0,incongruent,uniform,1,undefined,1,h,0,0,0,118,118,0,118,0,118,0,0,0,118,118,118,118,9/29/19 20:07,600,The main experiment item,yes,FlankerExperiment.osexp,E:\Classwork\AQMAED,no,mono,no,18,no,white,no,yes,768,legacy,38,79,E:/Classwork/AQMAED/CH-subject-3.csv,legacy,Kafkaesque Koffka,3.2.8,0,h,NA,s,s,NA,h,548,NA,33788,42192,NA,548,2,legacy,1024,2,48000,-16,experiment,SSHSS,3,odd,36406,229220,NA,298765,291278,2615,262743,NA,299982,2618,187027,NA,300087,300637,299977,300086,Flanker Experiment,106,59513,119,yes,1024
89.16666667,89.16666667,499.825,499.825,black,legacy,legacy,legacy,0,congruent,uniform,1,undefined,1,s,0,0,0,119,119,0,119,0,119,0,0,0,119,119,119,119,9/29/19 20:07,600,The main experiment item,yes,FlankerExperiment.osexp,E:\Classwork\AQMAED,no,mono,no,18,no,white,no,yes,768,legacy,39,79,E:/Classwork/AQMAED/CH-subject-3.csv,legacy,Kafkaesque Koffka,3.2.8,0,s,NA,s,s,NA,s,466,NA,33788,42192,NA,466,2,legacy,1024,2,48000,-16,experiment,SSSSS,3,odd,36406,229220,NA,300644,291278,2615,262743,NA,301835,2618,187027,NA,301939,302409,301832,301939,Flanker Experiment,107,59979,120,yes,1024
89.25619835,89.25619835,499.1487603,499.1487603,black,legacy,legacy,legacy,0,congruent,uniform,1,undefined,1,h,0,0,0,120,120,0,120,0,120,0,0,0,120,120,120,120,9/29/19 20:07,600,The main experiment item,yes,FlankerExperiment.osexp,E:\Classwork\AQMAED,no,mono,no,18,no,white,no,yes,768,legacy,40,79,E:/Classwork/AQMAED/CH-subject-3.csv,legacy,Kafkaesque Koffka,3.2.8,0,h,NA,s,s,NA,h,418,NA,33788,42192,NA,418,2,legacy,1024,2,48000,-16,experiment,HHHHH,3,odd,36406,229220,NA,302422,291278,2615,262743,NA,303650,2618,187027,NA,303755,304175,303645,303755,Flanker Experiment,108,60397,121,yes,1024
89.3442623,89.3442623,498.6639344,498.6639344,black,legacy,legacy,legacy,0,congruent,uniform,1,undefined,1,h,0,0,0,121,121,0,121,0,121,0,0,0,121,121,121,121,9/29/19 20:07,600,The main experiment item,yes,FlankerExperiment.osexp,E:\Classwork\AQMAED,no,mono,no,18,no,white,no,yes,768,legacy,41,79,E:/Classwork/AQMAED/CH-subject-3.csv,legacy,Kafkaesque Koffka,3.2.8,0,h,NA,s,s,NA,h,440,NA,33788,42192,NA,440,2,legacy,1024,2,48000,-16,experiment,HHHHH,3,odd,36406,229220,NA,304188,291278,2615,262743,NA,305399,2618,187027,NA,305503,305946,305394,305503,Flanker Experiment,109,60837,122,yes,1024
88.61788618,88.61788618,497.9105691,497.9105691,black,legacy,legacy,legacy,0,incongruent,uniform,0,undefined,0,h,0,0,0,122,122,0,122,0,122,0,0,0,122,122,122,122,9/29/19 20:07,600,The main experiment item,yes,FlankerExperiment.osexp,E:\Classwork\AQMAED,no,mono,no,18,no,white,no,yes,768,legacy,42,79,E:/Classwork/AQMAED/CH-subject-3.csv,legacy,Kafkaesque Koffka,3.2.8,0,s,NA,s,s,NA,s,406,NA,33788,42192,NA,406,2,legacy,1024,2,48000,-16,experiment,SSHSS,3,odd,36406,229220,NA,305958,291278,2615,262743,NA,307094,2618,187027,NA,307198,307607,307091,307198,Flanker Experiment,109,61243,123,yes,1024
88.70967742,88.70967742,498.0483871,498.0483871,black,legacy,legacy,legacy,0,incongruent,uniform,1,undefined,1,s,0,0,0,123,123,0,123,0,123,0,0,0,123,123,123,123,9/29/19 20:07,600,The main experiment item,yes,FlankerExperiment.osexp,E:\Classwork\AQMAED,no,mono,no,18,no,white,no,yes,768,legacy,43,79,E:/Classwork/AQMAED/CH-subject-3.csv,legacy,Kafkaesque Koffka,3.2.8,0,s,NA,s,s,NA,s,515,NA,33788,42192,NA,515,2,legacy,1024,2,48000,-16,experiment,HHSHH,3,odd,36406,229220,NA,308128,307624,2615,262743,NA,309316,2618,187027,NA,309421,309938,309312,309421,Flanker Experiment,110,61758,124,yes,1024
88.8,88.8,497.432,497.432,black,legacy,legacy,legacy,0,congruent,uniform,1,undefined,1,s,0,0,0,124,124,0,124,0,124,0,0,0,124,124,124,124,9/29/19 20:07,600,The main experiment item,yes,FlankerExperiment.osexp,E:\Classwork\AQMAED,no,mono,no,18,no,white,no,yes,768,legacy,44,79,E:/Classwork/AQMAED/CH-subject-3.csv,legacy,Kafkaesque Koffka,3.2.8,0,s,NA,s,s,NA,s,421,NA,33788,42192,NA,421,2,legacy,1024,2,48000,-16,experiment,SSSSS,3,odd,36406,229220,NA,309944,307624,2615,262743,NA,311112,2618,187027,NA,311216,311639,311107,311216,Flanker Experiment,111,62179,125,yes,1024
88.88888889,88.88888889,497.4444444,497.4444444,black,legacy,legacy,legacy,0,incongruent,uniform,1,undefined,1,s,0,0,0,125,125,0,125,0,125,0,0,0,125,125,125,125,9/29/19 20:07,600,The main experiment item,yes,FlankerExperiment.osexp,E:\Classwork\AQMAED,no,mono,no,18,no,white,no,yes,768,legacy,45,79,E:/Classwork/AQMAED/CH-subject-3.csv,legacy,Kafkaesque Koffka,3.2.8,0,s,NA,s,s,NA,s,499,NA,33788,42192,NA,499,2,legacy,1024,2,48000,-16,experiment,HHSHH,3,odd,36406,229220,NA,311648,307624,2615,262743,NA,312802,2618,187027,NA,312906,313408,312799,312906,Flanker Experiment,112,62678,126,yes,1024
88.97637795,88.97637795,496.976378,496.976378,black,legacy,legacy,legacy,0,congruent,uniform,1,undefined,1,s,0,0,0,126,126,0,126,0,126,0,0,0,126,126,126,126,9/29/19 20:07,600,The main experiment item,yes,FlankerExperiment.osexp,E:\Classwork\AQMAED,no,mono,no,18,no,white,no,yes,768,legacy,46,79,E:/Classwork/AQMAED/CH-subject-3.csv,legacy,Kafkaesque Koffka,3.2.8,0,s,NA,s,s,NA,s,438,NA,33788,42192,NA,438,2,legacy,1024,2,48000,-16,experiment,SSSSS,3,odd,36406,229220,NA,313421,307624,2615,262743,NA,314619,2618,187027,NA,314723,315163,314614,314723,Flanker Experiment,113,63116,127,yes,1024
88.28125,88.28125,496.1875,496.1875,black,legacy,legacy,legacy,0,incongruent,uniform,0,undefined,0,s,0,0,0,127,127,0,127,0,127,0,0,0,127,127,127,127,9/29/19 20:07,600,The main experiment item,yes,FlankerExperiment.osexp,E:\Classwork\AQMAED,no,mono,no,18,no,white,no,yes,768,legacy,47,79,E:/Classwork/AQMAED/CH-subject-3.csv,legacy,Kafkaesque Koffka,3.2.8,0,h,NA,s,s,NA,h,396,NA,33788,42192,NA,396,2,legacy,1024,2,48000,-16,experiment,HHSHH,3,odd,36406,229220,NA,315176,307624,2615,262743,NA,316373,2618,187027,NA,316477,316876,316368,316476,Flanker Experiment,113,63512,128,yes,1024
88.37209302,88.37209302,496.6124031,496.6124031,black,legacy,legacy,legacy,0,incongruent,uniform,1,undefined,1,h,0,0,0,128,128,0,128,0,128,0,0,0,128,128,128,128,9/29/19 20:07,600,The main experiment item,yes,FlankerExperiment.osexp,E:\Classwork\AQMAED,no,mono,no,18,no,white,no,yes,768,legacy,48,79,E:/Classwork/AQMAED/CH-subject-3.csv,legacy,Kafkaesque Koffka,3.2.8,0,h,NA,s,s,NA,h,551,NA,33788,42192,NA,551,2,legacy,1024,2,48000,-16,experiment,SSHSS,3,odd,36406,229220,NA,317393,316889,2615,262743,NA,318528,2618,187027,NA,318633,319187,318525,318632,Flanker Experiment,114,64063,129,yes,1024
88.46153846,88.46153846,496.5384615,496.5384615,black,legacy,legacy,legacy,0,congruent,uniform,1,undefined,1,s,0,0,0,129,129,0,129,0,129,0,0,0,129,129,129,129,9/29/19 20:07,600,The main experiment item,yes,FlankerExperiment.osexp,E:\Classwork\AQMAED,no,mono,no,18,no,white,no,yes,768,legacy,49,79,E:/Classwork/AQMAED/CH-subject-3.csv,legacy,Kafkaesque Koffka,3.2.8,0,s,NA,s,s,NA,s,487,NA,33788,42192,NA,487,2,legacy,1024,2,48000,-16,experiment,SSSSS,3,odd,36406,229220,NA,319195,316889,2615,262743,NA,320384,2618,187027,NA,320488,320977,320380,320488,Flanker Experiment,115,64550,130,yes,1024
88.54961832,88.54961832,496.2061069,496.2061069,black,legacy,legacy,legacy,0,congruent,uniform,1,undefined,1,h,0,0,0,130,130,0,130,0,130,0,0,0,130,130,130,130,9/29/19 20:07,600,The main experiment item,yes,FlankerExperiment.osexp,E:\Classwork\AQMAED,no,mono,no,18,no,white,no,yes,768,legacy,50,79,E:/Classwork/AQMAED/CH-subject-3.csv,legacy,Kafkaesque Koffka,3.2.8,0,h,NA,s,s,NA,h,453,NA,33788,42192,NA,453,2,legacy,1024,2,48000,-16,experiment,HHHHH,3,odd,36406,229220,NA,320986,316889,2615,262743,NA,322139,2618,187027,NA,322243,322700,322136,322243,Flanker Experiment,116,65003,131,yes,1024
88.63636364,88.63636364,495.7651515,495.7651515,black,legacy,legacy,legacy,0,congruent,uniform,1,undefined,1,s,0,0,0,131,131,0,131,0,131,0,0,0,131,131,131,131,9/29/19 20:07,600,The main experiment item,yes,FlankerExperiment.osexp,E:\Classwork\AQMAED,no,mono,no,18,no,white,no,yes,768,legacy,51,79,E:/Classwork/AQMAED/CH-subject-3.csv,legacy,Kafkaesque Koffka,3.2.8,0,s,NA,s,s,NA,s,438,NA,33788,42192,NA,438,2,legacy,1024,2,48000,-16,experiment,SSSSS,3,odd,36406,229220,NA,322708,316889,2615,262743,NA,323915,2618,187027,NA,324020,324460,323911,324020,Flanker Experiment,117,65441,132,yes,1024
88.72180451,88.72180451,496.481203,496.481203,black,legacy,legacy,legacy,0,incongruent,uniform,1,undefined,1,s,0,0,0,132,132,0,132,0,132,0,0,0,132,132,132,132,9/29/19 20:07,600,The main experiment item,yes,FlankerExperiment.osexp,E:\Classwork\AQMAED,no,mono,no,18,no,white,no,yes,768,legacy,52,79,E:/Classwork/AQMAED/CH-subject-3.csv,legacy,Kafkaesque Koffka,3.2.8,0,s,NA,s,s,NA,s,591,NA,33788,42192,NA,591,2,legacy,1024,2,48000,-16,experiment,HHSHH,3,odd,36406,229220,NA,324471,316889,2615,262743,NA,325624,2618,187027,NA,325728,326321,325622,325727,Flanker Experiment,118,66032,133,yes,1024
88.80597015,88.80597015,496.641791,496.641791,black,legacy,legacy,legacy,0,congruent,uniform,1,undefined,1,h,0,0,0,133,133,0,133,0,133,0,0,0,133,133,133,133,9/29/19 20:07,600,The main experiment item,yes,FlankerExperiment.osexp,E:\Classwork\AQMAED,no,mono,no,18,no,white,no,yes,768,legacy,53,79,E:/Classwork/AQMAED/CH-subject-3.csv,legacy,Kafkaesque Koffka,3.2.8,0,h,NA,s,s,NA,h,518,NA,33788,42192,NA,518,2,legacy,1024,2,48000,-16,experiment,HHHHH,3,odd,36406,229220,NA,326328,316889,2615,262743,NA,327528,2618,187027,NA,327633,328152,327524,327632,Flanker Experiment,119,66550,134,yes,1024
88.88888889,88.88888889,496.1481481,496.1481481,black,legacy,legacy,legacy,0,congruent,uniform,1,undefined,1,s,0,0,0,134,134,0,134,0,134,0,0,0,134,134,134,134,9/29/19 20:07,600,The main experiment item,yes,FlankerExperiment.osexp,E:\Classwork\AQMAED,no,mono,no,18,no,white,no,yes,768,legacy,54,79,E:/Classwork/AQMAED/CH-subject-3.csv,legacy,Kafkaesque Koffka,3.2.8,0,s,NA,s,s,NA,s,430,NA,33788,42192,NA,430,2,legacy,1024,2,48000,-16,experiment,SSSSS,3,odd,36406,229220,NA,328157,316889,2615,262743,NA,329333,2618,187027,NA,329437,329871,329329,329437,Flanker Experiment,120,66980,135,yes,1024
88.97058824,88.97058824,495.4338235,495.4338235,black,legacy,legacy,legacy,0,congruent,uniform,1,undefined,1,s,0,0,0,135,135,0,135,0,135,0,0,0,135,135,135,135,9/29/19 20:07,600,The main experiment item,yes,FlankerExperiment.osexp,E:\Classwork\AQMAED,no,mono,no,18,no,white,no,yes,768,legacy,55,79,E:/Classwork/AQMAED/CH-subject-3.csv,legacy,Kafkaesque Koffka,3.2.8,0,s,NA,s,s,NA,s,399,NA,33788,42192,NA,399,2,legacy,1024,2,48000,-16,experiment,SSSSS,3,odd,36406,229220,NA,329884,316889,2615,262743,NA,331080,2618,187027,NA,331185,331586,331076,331185,Flanker Experiment,121,67379,136,yes,1024
89.05109489,89.05109489,496.1459854,496.1459854,black,legacy,legacy,legacy,0,incongruent,uniform,1,undefined,1,s,0,0,0,136,136,0,136,0,136,0,0,0,136,136,136,136,9/29/19 20:07,600,The main experiment item,yes,FlankerExperiment.osexp,E:\Classwork\AQMAED,no,mono,no,18,no,white,no,yes,768,legacy,56,79,E:/Classwork/AQMAED/CH-subject-3.csv,legacy,Kafkaesque Koffka,3.2.8,0,s,NA,s,s,NA,s,593,NA,33788,42192,NA,593,2,legacy,1024,2,48000,-16,experiment,HHSHH,3,odd,36406,229220,NA,331594,316889,2615,262743,NA,332800,2618,187027,NA,332907,333503,332795,332906,Flanker Experiment,122,67972,137,yes,1024
89.13043478,89.13043478,496.5652174,496.5652174,black,legacy,legacy,legacy,0,incongruent,uniform,1,undefined,1,h,0,0,0,137,137,0,137,0,137,0,0,0,137,137,137,137,9/29/19 20:07,600,The main experiment item,yes,FlankerExperiment.osexp,E:\Classwork\AQMAED,no,mono,no,18,no,white,no,yes,768,legacy,57,79,E:/Classwork/AQMAED/CH-subject-3.csv,legacy,Kafkaesque Koffka,3.2.8,0,h,NA,s,s,NA,h,554,NA,33788,42192,NA,554,2,legacy,1024,2,48000,-16,experiment,SSHSS,3,odd,36406,229220,NA,333515,316889,2615,262743,NA,334742,2618,187027,NA,334847,335404,334736,334847,Flanker Experiment,123,68526,138,yes,1024
89.20863309,89.20863309,496.6330935,496.6330935,black,legacy,legacy,legacy,0,incongruent,uniform,1,undefined,1,s,0,0,0,138,138,0,138,0,138,0,0,0,138,138,138,138,9/29/19 20:07,600,The main experiment item,yes,FlankerExperiment.osexp,E:\Classwork\AQMAED,no,mono,no,18,no,white,no,yes,768,legacy,58,79,E:/Classwork/AQMAED/CH-subject-3.csv,legacy,Kafkaesque Koffka,3.2.8,0,s,NA,s,s,NA,s,506,NA,33788,42192,NA,506,2,legacy,1024,2,48000,-16,experiment,HHSHH,3,odd,36406,229220,NA,335412,316889,2615,262743,NA,336601,2618,187027,NA,336706,337214,336598,336706,Flanker Experiment,124,69032,139,yes,1024
89.28571429,89.28571429,497.2,497.2,black,legacy,legacy,legacy,0,incongruent,uniform,1,undefined,1,s,0,0,0,139,139,0,139,0,139,0,0,0,139,139,139,139,9/29/19 20:07,600,The main experiment item,yes,FlankerExperiment.osexp,E:\Classwork\AQMAED,no,mono,no,18,no,white,no,yes,768,legacy,59,79,E:/Classwork/AQMAED/CH-subject-3.csv,legacy,Kafkaesque Koffka,3.2.8,0,s,NA,s,s,NA,s,576,NA,33788,42192,NA,576,2,legacy,1024,2,48000,-16,experiment,HHSHH,3,odd,36406,229220,NA,337220,316889,2615,262743,NA,338409,2618,187027,NA,338513,339091,338405,338513,Flanker Experiment,125,69608,140,yes,1024
89.36170213,89.36170213,497.5177305,497.5177305,black,legacy,legacy,legacy,0,congruent,uniform,1,undefined,1,s,0,0,0,140,140,0,140,0,140,0,0,0,140,140,140,140,9/29/19 20:07,600,The main experiment item,yes,FlankerExperiment.osexp,E:\Classwork\AQMAED,no,mono,no,18,no,white,no,yes,768,legacy,60,79,E:/Classwork/AQMAED/CH-subject-3.csv,legacy,Kafkaesque Koffka,3.2.8,0,s,NA,s,s,NA,s,542,NA,33788,42192,NA,542,2,legacy,1024,2,48000,-16,experiment,SSSSS,3,odd,36406,229220,NA,339097,316889,2615,262743,NA,340338,2618,187027,NA,340444,340989,340335,340443,Flanker Experiment,126,70150,141,yes,1024
89.43661972,89.43661972,497.9366197,497.9366197,black,legacy,legacy,legacy,0,congruent,uniform,1,undefined,1,h,0,0,0,141,141,0,141,0,141,0,0,0,141,141,141,141,9/29/19 20:07,600,The main experiment item,yes,FlankerExperiment.osexp,E:\Classwork\AQMAED,no,mono,no,18,no,white,no,yes,768,legacy,61,79,E:/Classwork/AQMAED/CH-subject-3.csv,legacy,Kafkaesque Koffka,3.2.8,0,h,NA,s,s,NA,h,557,NA,33788,42192,NA,557,2,legacy,1024,2,48000,-16,experiment,HHHHH,3,odd,36406,229220,NA,341003,316889,2615,262743,NA,342196,2618,187027,NA,342301,342860,342194,342301,Flanker Experiment,127,70707,142,yes,1024
89.51048951,89.51048951,498.4195804,498.4195804,black,legacy,legacy,legacy,0,congruent,uniform,1,undefined,1,h,0,0,0,142,142,0,142,0,142,0,0,0,142,142,142,142,9/29/19 20:07,600,The main experiment item,yes,FlankerExperiment.osexp,E:\Classwork\AQMAED,no,mono,no,18,no,white,no,yes,768,legacy,62,79,E:/Classwork/AQMAED/CH-subject-3.csv,legacy,Kafkaesque Koffka,3.2.8,0,h,NA,s,s,NA,h,567,NA,33788,42192,NA,567,2,legacy,1024,2,48000,-16,experiment,HHHHH,3,odd,36406,229220,NA,342872,316889,2615,262743,NA,344043,2618,187027,NA,344147,344716,344039,344146,Flanker Experiment,128,71274,143,yes,1024
89.58333333,89.58333333,498.3680556,498.3680556,black,legacy,legacy,legacy,0,incongruent,uniform,1,undefined,1,s,0,0,0,143,143,0,143,0,143,0,0,0,143,143,143,143,9/29/19 20:07,600,The main experiment item,yes,FlankerExperiment.osexp,E:\Classwork\AQMAED,no,mono,no,18,no,white,no,yes,768,legacy,63,79,E:/Classwork/AQMAED/CH-subject-3.csv,legacy,Kafkaesque Koffka,3.2.8,0,s,NA,s,s,NA,s,491,NA,33788,42192,NA,491,2,legacy,1024,2,48000,-16,experiment,HHSHH,3,odd,36406,229220,NA,344723,316889,2615,262743,NA,345939,2618,187027,NA,346043,346538,345935,346043,Flanker Experiment,129,71765,144,yes,1024
89.65517241,89.65517241,498.4896552,498.4896552,black,legacy,legacy,legacy,0,congruent,uniform,1,undefined,1,h,0,0,0,144,144,0,144,0,144,0,0,0,144,144,144,144,9/29/19 20:07,600,The main experiment item,yes,FlankerExperiment.osexp,E:\Classwork\AQMAED,no,mono,no,18,no,white,no,yes,768,legacy,64,79,E:/Classwork/AQMAED/CH-subject-3.csv,legacy,Kafkaesque Koffka,3.2.8,0,h,NA,s,s,NA,h,516,NA,33788,42192,NA,516,2,legacy,1024,2,48000,-16,experiment,HHHHH,3,odd,36406,229220,NA,346550,316889,2615,262743,NA,347741,2618,187027,NA,347845,348363,347739,347845,Flanker Experiment,130,72281,145,yes,1024
89.7260274,89.7260274,498.1986301,498.1986301,black,legacy,legacy,legacy,0,congruent,uniform,1,undefined,1,h,0,0,0,145,145,0,145,0,145,0,0,0,145,145,145,145,9/29/19 20:07,600,The main experiment item,yes,FlankerExperiment.osexp,E:\Classwork\AQMAED,no,mono,no,18,no,white,no,yes,768,legacy,65,79,E:/Classwork/AQMAED/CH-subject-3.csv,legacy,Kafkaesque Koffka,3.2.8,0,h,NA,s,s,NA,h,456,NA,33788,42192,NA,456,2,legacy,1024,2,48000,-16,experiment,HHHHH,3,odd,36406,229220,NA,348369,316889,2615,262743,NA,349592,2618,187027,NA,349697,350157,349587,349696,Flanker Experiment,131,72737,146,yes,1024
89.79591837,89.79591837,499.0068027,499.0068027,black,legacy,legacy,legacy,0,incongruent,uniform,1,undefined,1,h,0,0,0,146,146,0,146,0,146,0,0,0,146,146,146,146,9/29/19 20:07,600,The main experiment item,yes,FlankerExperiment.osexp,E:\Classwork\AQMAED,no,mono,no,18,no,white,no,yes,768,legacy,66,79,E:/Classwork/AQMAED/CH-subject-3.csv,legacy,Kafkaesque Koffka,3.2.8,0,h,NA,s,s,NA,h,617,NA,33788,42192,NA,617,2,legacy,1024,2,48000,-16,experiment,SSHSS,3,odd,36406,229220,NA,350170,316889,2615,262743,NA,351359,2618,187027,NA,351462,352080,351355,351462,Flanker Experiment,132,73354,147,yes,1024
89.86486486,89.86486486,498.8581081,498.8581081,black,legacy,legacy,legacy,0,incongruent,uniform,1,undefined,1,h,0,0,0,147,147,0,147,0,147,0,0,0,147,147,147,147,9/29/19 20:07,600,The main experiment item,yes,FlankerExperiment.osexp,E:\Classwork\AQMAED,no,mono,no,18,no,white,no,yes,768,legacy,67,79,E:/Classwork/AQMAED/CH-subject-3.csv,legacy,Kafkaesque Koffka,3.2.8,0,h,NA,s,s,NA,h,477,NA,33788,42192,NA,477,2,legacy,1024,2,48000,-16,experiment,SSHSS,3,odd,36406,229220,NA,352591,316889,2615,352086,NA,353734,2618,187027,NA,353839,354321,353730,353839,Flanker Experiment,133,73831,148,yes,1024
89.93288591,89.93288591,499.3959732,499.3959732,black,legacy,legacy,legacy,0,incongruent,uniform,1,undefined,1,h,0,0,0,148,148,0,148,0,148,0,0,0,148,148,148,148,9/29/19 20:07,600,The main experiment item,yes,FlankerExperiment.osexp,E:\Classwork\AQMAED,no,mono,no,18,no,white,no,yes,768,legacy,68,79,E:/Classwork/AQMAED/CH-subject-3.csv,legacy,Kafkaesque Koffka,3.2.8,0,h,NA,s,s,NA,h,579,NA,33788,42192,NA,579,2,legacy,1024,2,48000,-16,experiment,SSHSS,3,odd,36406,229220,NA,354338,316889,2615,352086,NA,355523,2618,187027,NA,355628,356209,355520,355628,Flanker Experiment,134,74410,149,yes,1024
90,90,498.5466667,498.5466667,black,legacy,legacy,legacy,0,incongruent,uniform,1,undefined,1,h,0,0,0,149,149,0,149,0,149,0,0,0,149,149,149,149,9/29/19 20:07,600,The main experiment item,yes,FlankerExperiment.osexp,E:\Classwork\AQMAED,no,mono,no,18,no,white,no,yes,768,legacy,69,79,E:/Classwork/AQMAED/CH-subject-3.csv,legacy,Kafkaesque Koffka,3.2.8,0,h,NA,s,s,NA,h,372,NA,33788,42192,NA,372,2,legacy,1024,2,48000,-16,experiment,SSHSS,3,odd,36406,229220,NA,356218,316889,2615,352086,NA,357389,2618,187027,NA,357493,357868,357385,357493,Flanker Experiment,135,74782,150,yes,1024
89.40397351,89.40397351,497.6225166,497.6225166,black,legacy,legacy,legacy,0,incongruent,uniform,0,undefined,0,s,0,0,0,150,150,0,150,0,150,0,0,0,150,150,150,150,9/29/19 20:07,600,The main experiment item,yes,FlankerExperiment.osexp,E:\Classwork\AQMAED,no,mono,no,18,no,white,no,yes,768,legacy,70,79,E:/Classwork/AQMAED/CH-subject-3.csv,legacy,Kafkaesque Koffka,3.2.8,0,h,NA,s,s,NA,h,359,NA,33788,42192,NA,359,2,legacy,1024,2,48000,-16,experiment,HHSHH,3,odd,36406,229220,NA,357881,316889,2615,352086,NA,359107,2618,187027,NA,359213,359572,359102,359211,Flanker Experiment,135,75141,151,yes,1024
88.81578947,88.81578947,497.0065789,497.0065789,black,legacy,legacy,legacy,0,incongruent,uniform,0,undefined,0,h,0,0,0,151,151,0,151,0,151,0,0,0,151,151,151,151,9/29/19 20:07,600,The main experiment item,yes,FlankerExperiment.osexp,E:\Classwork\AQMAED,no,mono,no,18,no,white,no,yes,768,legacy,71,79,E:/Classwork/AQMAED/CH-subject-3.csv,legacy,Kafkaesque Koffka,3.2.8,0,s,NA,s,s,NA,s,404,NA,33788,42192,NA,404,2,legacy,1024,2,48000,-16,experiment,SSHSS,3,odd,36406,229220,NA,360086,359582,2615,352086,NA,361218,2618,187027,NA,361319,361724,361215,361319,Flanker Experiment,135,75545,152,yes,1024
88.88888889,88.88888889,497.8300654,497.8300654,black,legacy,legacy,legacy,0,incongruent,uniform,1,undefined,1,s,0,0,0,152,152,0,152,0,152,0,0,0,152,152,152,152,9/29/19 20:07,600,The main experiment item,yes,FlankerExperiment.osexp,E:\Classwork\AQMAED,no,mono,no,18,no,white,no,yes,768,legacy,72,79,E:/Classwork/AQMAED/CH-subject-3.csv,legacy,Kafkaesque Koffka,3.2.8,0,s,NA,s,s,NA,s,623,NA,33788,42192,NA,623,2,legacy,1024,2,48000,-16,experiment,HHSHH,3,odd,36406,229220,NA,362238,361734,2615,352086,NA,363420,2618,187027,NA,363521,364146,363417,363521,Flanker Experiment,136,76168,153,yes,1024
88.96103896,88.96103896,497.7662338,497.7662338,black,legacy,legacy,legacy,0,congruent,uniform,1,undefined,1,s,0,0,0,153,153,0,153,0,153,0,0,0,153,153,153,153,9/29/19 20:07,600,The main experiment item,yes,FlankerExperiment.osexp,E:\Classwork\AQMAED,no,mono,no,18,no,white,no,yes,768,legacy,73,79,E:/Classwork/AQMAED/CH-subject-3.csv,legacy,Kafkaesque Koffka,3.2.8,0,s,NA,s,s,NA,s,488,NA,33788,42192,NA,488,2,legacy,1024,2,48000,-16,experiment,SSSSS,3,odd,36406,229220,NA,364661,361734,2615,364157,NA,365854,2618,187027,NA,365959,366449,365850,365959,Flanker Experiment,137,76656,154,yes,1024
89.03225806,89.03225806,498.6064516,498.6064516,black,legacy,legacy,legacy,0,incongruent,uniform,1,undefined,1,s,0,0,0,154,154,0,154,0,154,0,0,0,154,154,154,154,9/29/19 20:07,600,The main experiment item,yes,FlankerExperiment.osexp,E:\Classwork\AQMAED,no,mono,no,18,no,white,no,yes,768,legacy,74,79,E:/Classwork/AQMAED/CH-subject-3.csv,legacy,Kafkaesque Koffka,3.2.8,0,s,NA,s,s,NA,s,628,NA,33788,42192,NA,628,2,legacy,1024,2,48000,-16,experiment,HHSHH,3,odd,36406,229220,NA,366458,361734,2615,364157,NA,367671,2618,187027,NA,367775,368406,367666,367775,Flanker Experiment,138,77284,155,yes,1024
89.1025641,89.1025641,498.8782051,498.8782051,black,legacy,legacy,legacy,0,incongruent,uniform,1,undefined,1,s,0,0,0,155,155,0,155,0,155,0,0,0,155,155,155,155,9/29/19 20:07,600,The main experiment item,yes,FlankerExperiment.osexp,E:\Classwork\AQMAED,no,mono,no,18,no,white,no,yes,768,legacy,75,79,E:/Classwork/AQMAED/CH-subject-3.csv,legacy,Kafkaesque Koffka,3.2.8,0,s,NA,s,s,NA,s,541,NA,33788,42192,NA,541,2,legacy,1024,2,48000,-16,experiment,HHSHH,3,odd,36406,229220,NA,368923,361734,2615,368419,NA,370104,2618,187027,NA,370209,370752,370100,370208,Flanker Experiment,139,77825,156,yes,1024
89.17197452,89.17197452,498.7070064,498.7070064,black,legacy,legacy,legacy,0,congruent,uniform,1,undefined,1,h,0,0,0,156,156,0,156,0,156,0,0,0,156,156,156,156,9/29/19 20:07,600,The main experiment item,yes,FlankerExperiment.osexp,E:\Classwork\AQMAED,no,mono,no,18,no,white,no,yes,768,legacy,76,79,E:/Classwork/AQMAED/CH-subject-3.csv,legacy,Kafkaesque Koffka,3.2.8,0,h,NA,s,s,NA,h,472,NA,33788,42192,NA,472,2,legacy,1024,2,48000,-16,experiment,HHHHH,3,odd,36406,229220,NA,370762,361734,2615,368419,NA,371955,2618,187027,NA,372059,372532,371951,372059,Flanker Experiment,140,78297,157,yes,1024
89.24050633,89.24050633,498.7658228,498.7658228,black,legacy,legacy,legacy,0,congruent,uniform,1,undefined,1,s,0,0,0,157,157,0,157,0,157,0,0,0,157,157,157,157,9/29/19 20:07,600,The main experiment item,yes,FlankerExperiment.osexp,E:\Classwork\AQMAED,no,mono,no,18,no,white,no,yes,768,legacy,77,79,E:/Classwork/AQMAED/CH-subject-3.csv,legacy,Kafkaesque Koffka,3.2.8,0,s,NA,s,s,NA,s,508,NA,33788,42192,NA,508,2,legacy,1024,2,48000,-16,experiment,SSSSS,3,odd,36406,229220,NA,372543,361734,2615,368419,NA,373715,2618,187027,NA,373819,374329,373711,373819,Flanker Experiment,141,78805,158,yes,1024
89.3081761,89.3081761,498.1823899,498.1823899,black,legacy,legacy,legacy,0,congruent,uniform,1,undefined,1,h,0,0,0,158,158,0,158,0,158,0,0,0,158,158,158,158,9/29/19 20:07,600,The main experiment item,yes,FlankerExperiment.osexp,E:\Classwork\AQMAED,no,mono,no,18,no,white,no,yes,768,legacy,78,79,E:/Classwork/AQMAED/CH-subject-3.csv,legacy,Kafkaesque Koffka,3.2.8,0,h,NA,s,s,NA,h,406,NA,33788,42192,NA,406,2,legacy,1024,2,48000,-16,experiment,HHHHH,3,odd,36406,229220,NA,374339,361734,2615,368419,NA,375533,2618,187027,NA,375638,376049,375530,375637,Flanker Experiment,142,79211,159,yes,1024
88.75,88.75,497.4375,497.4375,black,legacy,legacy,legacy,0,incongruent,uniform,0,undefined,0,h,0,0,0,159,159,0,159,0,159,0,0,0,159,159,159,159,9/29/19 20:07,600,The main experiment item,yes,FlankerExperiment.osexp,E:\Classwork\AQMAED,no,mono,no,18,no,white,no,yes,768,legacy,79,79,E:/Classwork/AQMAED/CH-subject-3.csv,legacy,Kafkaesque Koffka,3.2.8,0,s,NA,s,s,NA,s,379,NA,33788,42192,NA,379,2,legacy,1024,2,48000,-16,experiment,SSHSS,3,odd,36406,229220,NA,376062,361734,2615,368419,NA,377252,2618,187027,NA,377356,377739,377249,377356,Flanker Experiment,142,79590,160,yes,1024
88.19875776,88.19875776,496.7018634,496.7018634,black,legacy,legacy,legacy,0,incongruent,uniform,0,undefined,0,h,0,0,0,160,160,0,160,0,160,0,0,0,160,160,160,160,9/29/19 20:07,300,The main experiment item,yes,FlankerExperiment.osexp,E:\Classwork\AQMAED,no,mono,no,18,no,white,no,yes,768,legacy,0,79,E:/Classwork/AQMAED/CH-subject-3.csv,legacy,Kafkaesque Koffka,3.2.8,0,s,NA,s,s,h,s,379,NA,33788,42192,23008,379,2,legacy,1024,2,48000,-16,experiment,SSHSS,3,odd,36406,229220,402303,378253,377748,2615,368419,NA,402392,2618,187027,379291,402496,402879,402390,402495,Flanker Experiment,142,79969,161,yes,1024
88.27160494,88.27160494,496.6728395,496.6728395,black,legacy,legacy,legacy,0,congruent,uniform,1,undefined,1,h,0,0,0,161,161,0,161,0,161,0,0,0,161,161,161,161,9/29/19 20:07,300,The main experiment item,yes,FlankerExperiment.osexp,E:\Classwork\AQMAED,no,mono,no,18,no,white,no,yes,768,legacy,1,79,E:/Classwork/AQMAED/CH-subject-3.csv,legacy,Kafkaesque Koffka,3.2.8,0,h,NA,s,s,h,h,492,NA,33788,42192,23008,492,2,legacy,1024,2,48000,-16,experiment,HHHHH,3,odd,36406,229220,402303,403897,402891,2615,403394,NA,405066,2618,187027,379291,405170,405667,405062,405170,Flanker Experiment,143,80461,162,yes,1024
87.73006135,87.73006135,495.7300614,495.7300614,black,legacy,legacy,legacy,0,incongruent,uniform,0,undefined,0,h,0,0,0,162,162,0,162,0,162,0,0,0,162,162,162,162,9/29/19 20:07,300,The main experiment item,yes,FlankerExperiment.osexp,E:\Classwork\AQMAED,no,mono,no,18,no,white,no,yes,768,legacy,2,79,E:/Classwork/AQMAED/CH-subject-3.csv,legacy,Kafkaesque Koffka,3.2.8,0,s,NA,s,s,h,s,343,NA,33788,42192,23008,343,2,legacy,1024,2,48000,-16,experiment,SSHSS,3,odd,36406,229220,402303,406185,402891,2615,405680,NA,407335,2618,187027,379291,407441,407785,407332,407440,Flanker Experiment,143,80804,163,yes,1024
87.80487805,87.80487805,495.9390244,495.9390244,black,legacy,legacy,legacy,0,incongruent,uniform,1,undefined,1,s,0,0,0,163,163,0,163,0,163,0,0,0,163,163,163,163,9/29/19 20:07,300,The main experiment item,yes,FlankerExperiment.osexp,E:\Classwork\AQMAED,no,mono,no,18,no,white,no,yes,768,legacy,3,79,E:/Classwork/AQMAED/CH-subject-3.csv,legacy,Kafkaesque Koffka,3.2.8,0,s,NA,s,s,h,s,530,NA,33788,42192,23008,530,2,legacy,1024,2,48000,-16,experiment,HHSHH,3,odd,36406,229220,402303,408803,407794,2615,408299,NA,410017,2618,187027,379291,410122,410656,410012,410122,Flanker Experiment,144,81334,164,yes,1024
87.27272727,87.27272727,494.9333333,494.9333333,black,legacy,legacy,legacy,0,incongruent,uniform,0,undefined,0,s,0,0,0,164,164,0,164,0,164,0,0,0,164,164,164,164,9/29/19 20:07,300,The main experiment item,yes,FlankerExperiment.osexp,E:\Classwork\AQMAED,no,mono,no,18,no,white,no,yes,768,legacy,4,79,E:/Classwork/AQMAED/CH-subject-3.csv,legacy,Kafkaesque Koffka,3.2.8,0,h,NA,s,s,h,h,330,NA,33788,42192,23008,330,2,legacy,1024,2,48000,-16,experiment,HHSHH,3,odd,36406,229220,402303,411173,407794,2615,410669,NA,412385,2618,187027,379291,412489,412822,412379,412489,Flanker Experiment,144,81664,165,yes,1024
87.34939759,87.34939759,494.7228916,494.7228916,black,legacy,legacy,legacy,0,incongruent,uniform,1,undefined,1,s,0,0,0,165,165,0,165,0,165,0,0,0,165,165,165,165,9/29/19 20:07,300,The main experiment item,yes,FlankerExperiment.osexp,E:\Classwork\AQMAED,no,mono,no,18,no,white,no,yes,768,legacy,5,79,E:/Classwork/AQMAED/CH-subject-3.csv,legacy,Kafkaesque Koffka,3.2.8,0,s,NA,s,s,h,s,460,NA,33788,42192,23008,460,2,legacy,1024,2,48000,-16,experiment,HHSHH,3,odd,36406,229220,402303,413845,412835,2615,413340,NA,414975,2618,187027,379291,415080,415544,414972,415080,Flanker Experiment,145,82124,166,yes,1024
87.4251497,87.4251497,493.7784431,493.7784431,black,legacy,legacy,legacy,0,incongruent,uniform,1,undefined,1,s,0,0,0,166,166,0,166,0,166,0,0,0,166,166,166,166,9/29/19 20:07,300,The main experiment item,yes,FlankerExperiment.osexp,E:\Classwork\AQMAED,no,mono,no,18,no,white,no,yes,768,legacy,6,79,E:/Classwork/AQMAED/CH-subject-3.csv,legacy,Kafkaesque Koffka,3.2.8,0,s,NA,s,s,h,s,337,NA,33788,42192,23008,337,2,legacy,1024,2,48000,-16,experiment,HHSHH,3,odd,36406,229220,402303,416061,412835,2615,415557,NA,417225,2618,187027,379291,417330,417671,417223,417330,Flanker Experiment,146,82461,167,yes,1024
87.5,87.5,494.4285714,494.4285714,black,legacy,legacy,legacy,0,incongruent,uniform,1,undefined,1,h,0,0,0,167,167,0,167,0,167,0,0,0,167,167,167,167,9/29/19 20:07,300,The main experiment item,yes,FlankerExperiment.osexp,E:\Classwork\AQMAED,no,mono,no,18,no,white,no,yes,768,legacy,7,79,E:/Classwork/AQMAED/CH-subject-3.csv,legacy,Kafkaesque Koffka,3.2.8,0,h,NA,s,s,h,h,603,NA,33788,42192,23008,603,2,legacy,1024,2,48000,-16,experiment,SSHSS,3,odd,36406,229220,402303,418188,412835,2615,417684,NA,419379,2618,187027,379291,419483,420087,419375,419483,Flanker Experiment,147,83064,168,yes,1024
87.5739645,87.5739645,495.6627219,495.6627219,black,legacy,legacy,legacy,0,congruent,uniform,1,undefined,1,s,0,0,0,168,168,0,168,0,168,0,0,0,168,168,168,168,9/29/19 20:07,300,The main experiment item,yes,FlankerExperiment.osexp,E:\Classwork\AQMAED,no,mono,no,18,no,white,no,yes,768,legacy,8,79,E:/Classwork/AQMAED/CH-subject-3.csv,legacy,Kafkaesque Koffka,3.2.8,0,s,NA,s,s,h,s,703,NA,33788,42192,23008,703,2,legacy,1024,2,48000,-16,experiment,SSSSS,3,odd,36406,229220,402303,420601,412835,2615,420097,NA,421753,2618,187027,379291,421857,422564,421749,421857,Flanker Experiment,148,83767,169,yes,1024
87.05882353,87.05882353,495.2058824,495.2058824,black,legacy,legacy,legacy,0,congruent,uniform,0,undefined,0,h,0,0,0,169,169,0,169,0,169,0,0,0,169,169,169,169,9/29/19 20:07,300,The main experiment item,yes,FlankerExperiment.osexp,E:\Classwork\AQMAED,no,mono,no,18,no,white,no,yes,768,legacy,9,79,E:/Classwork/AQMAED/CH-subject-3.csv,legacy,Kafkaesque Koffka,3.2.8,0,s,NA,s,s,h,s,418,NA,33788,42192,23008,418,2,legacy,1024,2,48000,-16,experiment,HHHHH,3,odd,36406,229220,402303,423081,412835,2615,422575,NA,424259,2618,187027,379291,424364,424783,424255,424363,Flanker Experiment,148,84185,170,yes,1024
