"acc","accuracy","average_response_time","avg_rt","background","canvas_backend","clock_backend","color_backend","condition","correct","correct_Instructions1","correct_KeyboardResponse","correct_response","count_Block1","count_Block2","count_Block3","count_ErrorFeedback","count_Faster","count_Finish","count_Fixation","count_ISI","count_Instructions1","count_Instructions2","count_Instructions3","count_KeyboardResponse","count_Logger","count_Sequence","count_Stimulus","count_experiment","datetime","deadline","description","disable_garbage_collection","experiment_file","experiment_path","font_bold","font_family","font_italic","font_size","font_underline","foreground","form_clicks","fullscreen","height","keyboard_backend","live_row","live_row_Block1","logfile","mouse_backend","opensesame_codename","opensesame_version","repeat_cycle","response","response_Finish","response_Instructions1","response_Instructions2","response_Instructions3","response_KeyboardResponse","response_time","response_time_Finish","response_time_Instructions1","response_time_Instructions2","response_time_Instructions3","response_time_KeyboardResponse","round_decimals","sampler_backend","sound_buf_size","sound_channels","sound_freq","sound_sample_size","start","stimulus","subject_nr","subject_parity","time_Block1","time_Block2","time_Block3","time_ErrorFeedback","time_Faster","time_Finish","time_Fixation","time_ISI","time_Instructions1","time_Instructions2","time_Instructions3","time_KeyboardResponse","time_Logger","time_Sequence","time_Stimulus","time_experiment","title","total_correct","total_response_time","total_responses","width"
"100","100","515","515","#000000","legacy","legacy","legacy","incongruent","1","undefined","1","h","0","0","0","0","0","0","0","0","0","0","0","0","0","0","0","0","Wed Sep 20 18:31:31 2023","1500","The main experiment item","False","Flanker Task.osexp","/Users/RMILLER1/Library/CloudStorage/OneDrive-tarleton.edu(NTNET)/TSU Online Classes/Graduate Class/ Adv Quant Methods and Design","False","mono","False","18","no","white","no","no","768","legacy","0","0","/Users/RMILLER1/Library/CloudStorage/OneDrive-tarleton.edu(NTNET)/TSU Online Classes/Graduate Class/ Adv Quant Methods and Design/RM-subject-4.csv","legacy","Melodramatic Milgram","4.0.5","0","h","NA","s","NA","NA","h","515.0","NA","4284","NA","NA","515","2","legacy","1024","2","48000","-16","experiment","SSHSS","4","even","16958","NA","NA","NA","NA","NA","16981","NA","12662","NA","NA","17083","17599","16978","17083","12615","Flanker Task","1","515.0","1","1024"
"50","50","426","426","#000000","legacy","legacy","legacy","congruent","0","undefined","0","h","0","0","0","1","1","0","1","1","0","0","0","1","1","1","1","0","Wed Sep 20 18:31:31 2023","1500","The main experiment item","False","Flanker Task.osexp","/Users/RMILLER1/Library/CloudStorage/OneDrive-tarleton.edu(NTNET)/TSU Online Classes/Graduate Class/ Adv Quant Methods and Design","False","mono","False","18","no","white","no","no","768","legacy","1","1","/Users/RMILLER1/Library/CloudStorage/OneDrive-tarleton.edu(NTNET)/TSU Online Classes/Graduate Class/ Adv Quant Methods and Design/RM-subject-4.csv","legacy","Melodramatic Milgram","4.0.5","0","s","NA","s","NA","NA","s","338.0","NA","4284","NA","NA","338","2","legacy","1024","2","48000","-16","experiment","HHHHH","4","even","16958","NA","NA","NA","NA","NA","18621","17604","12662","NA","NA","18722","19061","18619","18722","12615","Flanker Task","1","853.0","2","1024"
"33","33","387","387","#000000","legacy","legacy","legacy","incongruent","0","undefined","0","h","0","0","0","2","2","0","2","2","0","0","0","2","2","2","2","0","Wed Sep 20 18:31:31 2023","1500","The main experiment item","False","Flanker Task.osexp","/Users/RMILLER1/Library/CloudStorage/OneDrive-tarleton.edu(NTNET)/TSU Online Classes/Graduate Class/ Adv Quant Methods and Design","False","mono","False","18","no","white","no","no","768","legacy","2","2","/Users/RMILLER1/Library/CloudStorage/OneDrive-tarleton.edu(NTNET)/TSU Online Classes/Graduate Class/ Adv Quant Methods and Design/RM-subject-4.csv","legacy","Melodramatic Milgram","4.0.5","0","s","NA","s","NA","NA","s","310.0","NA","4284","NA","NA","310","2","legacy","1024","2","48000","-16","experiment","SSHSS","4","even","16958","NA","NA","19064","NA","NA","20605","19568","12662","NA","NA","20707","21024","20601","20707","12615","Flanker Task","1","1163.0","3","1024"
"25","25","359","359","#000000","legacy","legacy","legacy","incongruent","0","undefined","0","s","0","0","0","3","3","0","3","3","0","0","0","3","3","3","3","0","Wed Sep 20 18:31:31 2023","1500","The main experiment item","False","Flanker Task.osexp","/Users/RMILLER1/Library/CloudStorage/OneDrive-tarleton.edu(NTNET)/TSU Online Classes/Graduate Class/ Adv Quant Methods and Design","False","mono","False","18","no","white","no","no","768","legacy","3","3","/Users/RMILLER1/Library/CloudStorage/OneDrive-tarleton.edu(NTNET)/TSU Online Classes/Graduate Class/ Adv Quant Methods and Design/RM-subject-4.csv","legacy","Melodramatic Milgram","4.0.5","0","h","NA","s","NA","NA","h","274.0","NA","4284","NA","NA","274","2","legacy","1024","2","48000","-16","experiment","HHSHH","4","even","16958","NA","NA","21026","NA","NA","22554","21529","12662","NA","NA","22657","22932","22552","22657","12615","Flanker Task","1","1437.0","4","1024"
"40","40","376","376","#000000","legacy","legacy","legacy","incongruent","1","undefined","1","h","0","0","0","4","4","0","4","4","0","0","0","4","4","4","4","0","Wed Sep 20 18:31:31 2023","1500","The main experiment item","False","Flanker Task.osexp","/Users/RMILLER1/Library/CloudStorage/OneDrive-tarleton.edu(NTNET)/TSU Online Classes/Graduate Class/ Adv Quant Methods and Design","False","mono","False","18","no","white","no","no","768","legacy","4","4","/Users/RMILLER1/Library/CloudStorage/OneDrive-tarleton.edu(NTNET)/TSU Online Classes/Graduate Class/ Adv Quant Methods and Design/RM-subject-4.csv","legacy","Melodramatic Milgram","4.0.5","0","h","NA","s","NA","NA","h","445.0","NA","4284","NA","NA","445","2","legacy","1024","2","48000","-16","experiment","SSHSS","4","even","16958","NA","NA","22937","NA","NA","24476","23441","12662","NA","NA","24579","25025","24471","24579","12615","Flanker Task","2","1882.0","5","1024"
"33","33","443","443","#000000","legacy","legacy","legacy","incongruent","0","undefined","0","s","0","0","0","5","5","0","5","5","0","0","0","5","5","5","5","0","Wed Sep 20 18:31:31 2023","1500","The main experiment item","False","Flanker Task.osexp","/Users/RMILLER1/Library/CloudStorage/OneDrive-tarleton.edu(NTNET)/TSU Online Classes/Graduate Class/ Adv Quant Methods and Design","False","mono","False","18","no","white","no","no","768","legacy","5","5","/Users/RMILLER1/Library/CloudStorage/OneDrive-tarleton.edu(NTNET)/TSU Online Classes/Graduate Class/ Adv Quant Methods and Design/RM-subject-4.csv","legacy","Melodramatic Milgram","4.0.5","0","h","NA","s","NA","NA","h","778.0","NA","4284","NA","NA","778","2","legacy","1024","2","48000","-16","experiment","HHSHH","4","even","16958","NA","NA","22937","NA","NA","26056","25028","12662","NA","NA","26160","26938","26052","26160","12615","Flanker Task","2","2660.0","6","1024"
"42","42","440","440","#000000","legacy","legacy","legacy","congruent","1","undefined","1","h","0","0","0","6","6","0","6","6","0","0","0","6","6","6","6","0","Wed Sep 20 18:31:31 2023","1500","The main experiment item","False","Flanker Task.osexp","/Users/RMILLER1/Library/CloudStorage/OneDrive-tarleton.edu(NTNET)/TSU Online Classes/Graduate Class/ Adv Quant Methods and Design","False","mono","False","18","no","white","no","no","768","legacy","6","6","/Users/RMILLER1/Library/CloudStorage/OneDrive-tarleton.edu(NTNET)/TSU Online Classes/Graduate Class/ Adv Quant Methods and Design/RM-subject-4.csv","legacy","Melodramatic Milgram","4.0.5","0","h","NA","s","NA","NA","h","426.0","NA","4284","NA","NA","426","2","legacy","1024","2","48000","-16","experiment","HHHHH","4","even","16958","NA","NA","26943","NA","NA","28479","27447","12662","NA","NA","28581","29007","28474","28581","12615","Flanker Task","3","3086.0","7","1024"
"50","50","460","460","#000000","legacy","legacy","legacy","incongruent","1","undefined","1","s","0","0","0","7","7","0","7","7","0","0","0","7","7","7","7","0","Wed Sep 20 18:31:31 2023","1500","The main experiment item","False","Flanker Task.osexp","/Users/RMILLER1/Library/CloudStorage/OneDrive-tarleton.edu(NTNET)/TSU Online Classes/Graduate Class/ Adv Quant Methods and Design","False","mono","False","18","no","white","no","no","768","legacy","7","7","/Users/RMILLER1/Library/CloudStorage/OneDrive-tarleton.edu(NTNET)/TSU Online Classes/Graduate Class/ Adv Quant Methods and Design/RM-subject-4.csv","legacy","Melodramatic Milgram","4.0.5","0","s","NA","s","NA","NA","s","599.0","NA","4284","NA","NA","599","2","legacy","1024","2","48000","-16","experiment","HHSHH","4","even","16958","NA","NA","26943","NA","NA","30039","29010","12662","NA","NA","30143","30742","30034","30143","12615","Flanker Task","4","3685.0","8","1024"
"55","55","460","460","#000000","legacy","legacy","legacy","incongruent","1","undefined","1","h","0","0","0","8","8","0","8","8","0","0","0","8","8","8","8","0","Wed Sep 20 18:31:31 2023","1500","The main experiment item","False","Flanker Task.osexp","/Users/RMILLER1/Library/CloudStorage/OneDrive-tarleton.edu(NTNET)/TSU Online Classes/Graduate Class/ Adv Quant Methods and Design","False","mono","False","18","no","white","no","no","768","legacy","8","8","/Users/RMILLER1/Library/CloudStorage/OneDrive-tarleton.edu(NTNET)/TSU Online Classes/Graduate Class/ Adv Quant Methods and Design/RM-subject-4.csv","legacy","Melodramatic Milgram","4.0.5","0","h","NA","s","NA","NA","h","455.0","NA","4284","NA","NA","455","2","legacy","1024","2","48000","-16","experiment","SSHSS","4","even","16958","NA","NA","26943","NA","NA","31778","30746","12662","NA","NA","31882","32338","31771","31881","12615","Flanker Task","5","4140.0","9","1024"
"50","50","453","453","#000000","legacy","legacy","legacy","incongruent","0","undefined","0","s","0","0","0","9","9","0","9","9","0","0","0","9","9","9","9","0","Wed Sep 20 18:31:31 2023","1500","The main experiment item","False","Flanker Task.osexp","/Users/RMILLER1/Library/CloudStorage/OneDrive-tarleton.edu(NTNET)/TSU Online Classes/Graduate Class/ Adv Quant Methods and Design","False","mono","False","18","no","white","no","no","768","legacy","9","9","/Users/RMILLER1/Library/CloudStorage/OneDrive-tarleton.edu(NTNET)/TSU Online Classes/Graduate Class/ Adv Quant Methods and Design/RM-subject-4.csv","legacy","Melodramatic Milgram","4.0.5","0","h","NA","s","NA","NA","h","392.0","NA","4284","NA","NA","392","2","legacy","1024","2","48000","-16","experiment","HHSHH","4","even","16958","NA","NA","26943","NA","NA","33350","32340","12662","NA","NA","33453","33846","33348","33453","12615","Flanker Task","5","4532.0","10","1024"
"54","54","447","447","#000000","legacy","legacy","legacy","congruent","1","undefined","1","s","0","0","0","10","10","0","10","10","0","0","0","10","10","10","10","0","Wed Sep 20 18:31:31 2023","1500","The main experiment item","False","Flanker Task.osexp","/Users/RMILLER1/Library/CloudStorage/OneDrive-tarleton.edu(NTNET)/TSU Online Classes/Graduate Class/ Adv Quant Methods and Design","False","mono","False","18","no","white","no","no","768","legacy","10","10","/Users/RMILLER1/Library/CloudStorage/OneDrive-tarleton.edu(NTNET)/TSU Online Classes/Graduate Class/ Adv Quant Methods and Design/RM-subject-4.csv","legacy","Melodramatic Milgram","4.0.5","0","s","NA","s","NA","NA","s","387.0","NA","4284","NA","NA","387","2","legacy","1024","2","48000","-16","experiment","SSSSS","4","even","16958","NA","NA","33849","NA","NA","35382","34351","12662","NA","NA","35484","35872","35380","35484","12615","Flanker Task","6","4919.0","11","1024"
"50","50","452","452","#000000","legacy","legacy","legacy","incongruent","0","undefined","0","s","0","0","0","11","11","0","11","11","0","0","0","11","11","11","11","0","Wed Sep 20 18:31:31 2023","1500","The main experiment item","False","Flanker Task.osexp","/Users/RMILLER1/Library/CloudStorage/OneDrive-tarleton.edu(NTNET)/TSU Online Classes/Graduate Class/ Adv Quant Methods and Design","False","mono","False","18","no","white","no","no","768","legacy","11","11","/Users/RMILLER1/Library/CloudStorage/OneDrive-tarleton.edu(NTNET)/TSU Online Classes/Graduate Class/ Adv Quant Methods and Design/RM-subject-4.csv","legacy","Melodramatic Milgram","4.0.5","0","h","NA","s","NA","NA","h","509.0","NA","4284","NA","NA","509","2","legacy","1024","2","48000","-16","experiment","HHSHH","4","even","16958","NA","NA","33849","NA","NA","36897","35875","12662","NA","NA","37000","37509","36894","37000","12615","Flanker Task","6","5428.0","12","1024"
"53","53","452","452","#000000","legacy","legacy","legacy","congruent","1","undefined","1","h","0","0","0","12","12","0","12","12","0","0","0","12","12","12","12","0","Wed Sep 20 18:31:31 2023","1500","The main experiment item","False","Flanker Task.osexp","/Users/RMILLER1/Library/CloudStorage/OneDrive-tarleton.edu(NTNET)/TSU Online Classes/Graduate Class/ Adv Quant Methods and Design","False","mono","False","18","no","white","no","no","768","legacy","12","12","/Users/RMILLER1/Library/CloudStorage/OneDrive-tarleton.edu(NTNET)/TSU Online Classes/Graduate Class/ Adv Quant Methods and Design/RM-subject-4.csv","legacy","Melodramatic Milgram","4.0.5","0","h","NA","s","NA","NA","h","458.0","NA","4284","NA","NA","458","2","legacy","1024","2","48000","-16","experiment","HHHHH","4","even","16958","NA","NA","37512","NA","NA","39043","38016","12662","NA","NA","39146","39605","39038","39145","12615","Flanker Task","7","5886.0","13","1024"
"57","57","460","460","#000000","legacy","legacy","legacy","incongruent","1","undefined","1","h","0","0","0","13","13","0","13","13","0","0","0","13","13","13","13","0","Wed Sep 20 18:31:31 2023","1500","The main experiment item","False","Flanker Task.osexp","/Users/RMILLER1/Library/CloudStorage/OneDrive-tarleton.edu(NTNET)/TSU Online Classes/Graduate Class/ Adv Quant Methods and Design","False","mono","False","18","no","white","no","no","768","legacy","13","13","/Users/RMILLER1/Library/CloudStorage/OneDrive-tarleton.edu(NTNET)/TSU Online Classes/Graduate Class/ Adv Quant Methods and Design/RM-subject-4.csv","legacy","Melodramatic Milgram","4.0.5","0","h","NA","s","NA","NA","h","555.0","NA","4284","NA","NA","555","2","legacy","1024","2","48000","-16","experiment","SSHSS","4","even","16958","NA","NA","37512","NA","NA","40634","39608","12662","NA","NA","40737","41293","40630","40737","12615","Flanker Task","8","6441.0","14","1024"
"60","60","456","456","#000000","legacy","legacy","legacy","congruent","1","undefined","1","s","0","0","0","14","14","0","14","14","0","0","0","14","14","14","14","0","Wed Sep 20 18:31:31 2023","1500","The main experiment item","False","Flanker Task.osexp","/Users/RMILLER1/Library/CloudStorage/OneDrive-tarleton.edu(NTNET)/TSU Online Classes/Graduate Class/ Adv Quant Methods and Design","False","mono","False","18","no","white","no","no","768","legacy","14","14","/Users/RMILLER1/Library/CloudStorage/OneDrive-tarleton.edu(NTNET)/TSU Online Classes/Graduate Class/ Adv Quant Methods and Design/RM-subject-4.csv","legacy","Melodramatic Milgram","4.0.5","0","s","NA","s","NA","NA","s","401.0","NA","4284","NA","NA","401","2","legacy","1024","2","48000","-16","experiment","SSSSS","4","even","16958","NA","NA","37512","NA","NA","42320","41297","12662","NA","NA","42423","42825","42317","42423","12615","Flanker Task","9","6842.0","15","1024"
"62","62","452","452","#000000","legacy","legacy","legacy","congruent","1","undefined","1","h","0","0","0","15","15","0","15","15","0","0","0","15","15","15","15","0","Wed Sep 20 18:31:31 2023","1500","The main experiment item","False","Flanker Task.osexp","/Users/RMILLER1/Library/CloudStorage/OneDrive-tarleton.edu(NTNET)/TSU Online Classes/Graduate Class/ Adv Quant Methods and Design","False","mono","False","18","no","white","no","no","768","legacy","15","15","/Users/RMILLER1/Library/CloudStorage/OneDrive-tarleton.edu(NTNET)/TSU Online Classes/Graduate Class/ Adv Quant Methods and Design/RM-subject-4.csv","legacy","Melodramatic Milgram","4.0.5","0","h","NA","s","NA","NA","h","397.0","NA","4284","NA","NA","397","2","legacy","1024","2","48000","-16","experiment","HHHHH","4","even","16958","NA","NA","37512","NA","NA","43851","42827","12662","NA","NA","43954","44352","43847","43953","12615","Flanker Task","10","7239.0","16","1024"
"64","64","466","466","#000000","legacy","legacy","legacy","congruent","1","undefined","1","h","0","0","0","16","16","0","16","16","0","0","0","16","16","16","16","0","Wed Sep 20 18:31:31 2023","1500","The main experiment item","False","Flanker Task.osexp","/Users/RMILLER1/Library/CloudStorage/OneDrive-tarleton.edu(NTNET)/TSU Online Classes/Graduate Class/ Adv Quant Methods and Design","False","mono","False","18","no","white","no","no","768","legacy","16","16","/Users/RMILLER1/Library/CloudStorage/OneDrive-tarleton.edu(NTNET)/TSU Online Classes/Graduate Class/ Adv Quant Methods and Design/RM-subject-4.csv","legacy","Melodramatic Milgram","4.0.5","0","h","NA","s","NA","NA","h","694.0","NA","4284","NA","NA","694","2","legacy","1024","2","48000","-16","experiment","HHHHH","4","even","16958","NA","NA","37512","NA","NA","45377","44355","12662","NA","NA","45481","46176","45373","45481","12615","Flanker Task","11","7933.0","17","1024"
"66","66","462","462","#000000","legacy","legacy","legacy","congruent","1","undefined","1","s","0","0","0","17","17","0","17","17","0","0","0","17","17","17","17","0","Wed Sep 20 18:31:31 2023","1500","The main experiment item","False","Flanker Task.osexp","/Users/RMILLER1/Library/CloudStorage/OneDrive-tarleton.edu(NTNET)/TSU Online Classes/Graduate Class/ Adv Quant Methods and Design","False","mono","False","18","no","white","no","no","768","legacy","17","17","/Users/RMILLER1/Library/CloudStorage/OneDrive-tarleton.edu(NTNET)/TSU Online Classes/Graduate Class/ Adv Quant Methods and Design/RM-subject-4.csv","legacy","Melodramatic Milgram","4.0.5","0","s","NA","s","NA","NA","s","399.0","NA","4284","NA","NA","399","2","legacy","1024","2","48000","-16","experiment","SSSSS","4","even","16958","NA","NA","37512","NA","NA","47199","46179","12662","NA","NA","47305","47704","47195","47305","12615","Flanker Task","12","8332.0","18","1024"
"68","68","464","464","#000000","legacy","legacy","legacy","incongruent","1","undefined","1","s","0","0","0","18","18","0","18","18","0","0","0","18","18","18","18","0","Wed Sep 20 18:31:31 2023","1500","The main experiment item","False","Flanker Task.osexp","/Users/RMILLER1/Library/CloudStorage/OneDrive-tarleton.edu(NTNET)/TSU Online Classes/Graduate Class/ Adv Quant Methods and Design","False","mono","False","18","no","white","no","no","768","legacy","18","18","/Users/RMILLER1/Library/CloudStorage/OneDrive-tarleton.edu(NTNET)/TSU Online Classes/Graduate Class/ Adv Quant Methods and Design/RM-subject-4.csv","legacy","Melodramatic Milgram","4.0.5","0","s","NA","s","NA","NA","s","495.0","NA","4284","NA","NA","495","2","legacy","1024","2","48000","-16","experiment","HHSHH","4","even","16958","NA","NA","37512","NA","NA","48725","47707","12662","NA","NA","48828","49324","48722","48828","12615","Flanker Task","13","8827.0","19","1024"
"70","70","462","462","#000000","legacy","legacy","legacy","congruent","1","undefined","1","s","0","0","0","19","19","0","19","19","0","0","0","19","19","19","19","0","Wed Sep 20 18:31:31 2023","1500","The main experiment item","False","Flanker Task.osexp","/Users/RMILLER1/Library/CloudStorage/OneDrive-tarleton.edu(NTNET)/TSU Online Classes/Graduate Class/ Adv Quant Methods and Design","False","mono","False","18","no","white","no","no","768","legacy","19","19","/Users/RMILLER1/Library/CloudStorage/OneDrive-tarleton.edu(NTNET)/TSU Online Classes/Graduate Class/ Adv Quant Methods and Design/RM-subject-4.csv","legacy","Melodramatic Milgram","4.0.5","0","s","NA","s","NA","NA","s","416.0","NA","4284","NA","NA","416","2","legacy","1024","2","48000","-16","experiment","SSSSS","4","even","16958","NA","NA","37512","NA","NA","50345","49327","12662","NA","NA","50447","50864","50342","50447","12615","Flanker Task","14","9243.0","20","1024"
"71","71","460","460","#000000","legacy","legacy","legacy","incongruent","1","undefined","1","h","0","0","0","20","20","0","20","20","0","0","0","20","20","20","20","0","Wed Sep 20 18:31:31 2023","1500","The main experiment item","False","Flanker Task.osexp","/Users/RMILLER1/Library/CloudStorage/OneDrive-tarleton.edu(NTNET)/TSU Online Classes/Graduate Class/ Adv Quant Methods and Design","False","mono","False","18","no","white","no","no","768","legacy","20","20","/Users/RMILLER1/Library/CloudStorage/OneDrive-tarleton.edu(NTNET)/TSU Online Classes/Graduate Class/ Adv Quant Methods and Design/RM-subject-4.csv","legacy","Melodramatic Milgram","4.0.5","0","h","NA","s","NA","NA","h","435.0","NA","4284","NA","NA","435","2","legacy","1024","2","48000","-16","experiment","SSHSS","4","even","16958","NA","NA","37512","NA","NA","51892","50867","12662","NA","NA","51994","52430","51888","51994","12615","Flanker Task","15","9678.0","21","1024"
"72","72","458","458","#000000","legacy","legacy","legacy","incongruent","1","undefined","1","s","0","0","0","21","21","0","21","21","0","0","0","21","21","21","21","0","Wed Sep 20 18:31:31 2023","1500","The main experiment item","False","Flanker Task.osexp","/Users/RMILLER1/Library/CloudStorage/OneDrive-tarleton.edu(NTNET)/TSU Online Classes/Graduate Class/ Adv Quant Methods and Design","False","mono","False","18","no","white","no","no","768","legacy","21","21","/Users/RMILLER1/Library/CloudStorage/OneDrive-tarleton.edu(NTNET)/TSU Online Classes/Graduate Class/ Adv Quant Methods and Design/RM-subject-4.csv","legacy","Melodramatic Milgram","4.0.5","0","s","NA","s","NA","NA","s","416.0","NA","4284","NA","NA","416","2","legacy","1024","2","48000","-16","experiment","HHSHH","4","even","16958","NA","NA","37512","NA","NA","53461","52433","12662","NA","NA","53564","53981","53456","53564","12615","Flanker Task","16","10094.0","22","1024"
"73","73","457","457","#000000","legacy","legacy","legacy","congruent","1","undefined","1","s","0","0","0","22","22","0","22","22","0","0","0","22","22","22","22","0","Wed Sep 20 18:31:31 2023","1500","The main experiment item","False","Flanker Task.osexp","/Users/RMILLER1/Library/CloudStorage/OneDrive-tarleton.edu(NTNET)/TSU Online Classes/Graduate Class/ Adv Quant Methods and Design","False","mono","False","18","no","white","no","no","768","legacy","22","22","/Users/RMILLER1/Library/CloudStorage/OneDrive-tarleton.edu(NTNET)/TSU Online Classes/Graduate Class/ Adv Quant Methods and Design/RM-subject-4.csv","legacy","Melodramatic Milgram","4.0.5","0","s","NA","s","NA","NA","s","426.0","NA","4284","NA","NA","426","2","legacy","1024","2","48000","-16","experiment","SSSSS","4","even","16958","NA","NA","37512","NA","NA","55005","53984","12662","NA","NA","55108","55535","54999","55108","12615","Flanker Task","17","10520.0","23","1024"
"75","75","457","457","#000000","legacy","legacy","legacy","incongruent","1","undefined","1","s","0","0","0","23","23","0","23","23","0","0","0","23","23","23","23","0","Wed Sep 20 18:31:31 2023","1500","The main experiment item","False","Flanker Task.osexp","/Users/RMILLER1/Library/CloudStorage/OneDrive-tarleton.edu(NTNET)/TSU Online Classes/Graduate Class/ Adv Quant Methods and Design","False","mono","False","18","no","white","no","no","768","legacy","23","23","/Users/RMILLER1/Library/CloudStorage/OneDrive-tarleton.edu(NTNET)/TSU Online Classes/Graduate Class/ Adv Quant Methods and Design/RM-subject-4.csv","legacy","Melodramatic Milgram","4.0.5","0","s","NA","s","NA","NA","s","471.0","NA","4284","NA","NA","471","2","legacy","1024","2","48000","-16","experiment","HHSHH","4","even","16958","NA","NA","37512","NA","NA","56556","55537","12662","NA","NA","56661","57133","56552","56661","12615","Flanker Task","18","10991.0","24","1024"
"76","76","454","454","#000000","legacy","legacy","legacy","incongruent","1","undefined","1","h","0","0","0","24","24","0","24","24","0","0","0","24","24","24","24","0","Wed Sep 20 18:31:31 2023","1500","The main experiment item","False","Flanker Task.osexp","/Users/RMILLER1/Library/CloudStorage/OneDrive-tarleton.edu(NTNET)/TSU Online Classes/Graduate Class/ Adv Quant Methods and Design","False","mono","False","18","no","white","no","no","768","legacy","24","24","/Users/RMILLER1/Library/CloudStorage/OneDrive-tarleton.edu(NTNET)/TSU Online Classes/Graduate Class/ Adv Quant Methods and Design/RM-subject-4.csv","legacy","Melodramatic Milgram","4.0.5","0","h","NA","s","NA","NA","h","359.0","NA","4284","NA","NA","359","2","legacy","1024","2","48000","-16","experiment","SSHSS","4","even","16958","NA","NA","37512","NA","NA","58155","57137","12662","NA","NA","58257","58617","58151","58257","12615","Flanker Task","19","11350.0","25","1024"
"76","76","450","450","#000000","legacy","legacy","legacy","congruent","1","undefined","1","s","0","0","0","25","25","0","25","25","0","0","0","25","25","25","25","0","Wed Sep 20 18:31:31 2023","1500","The main experiment item","False","Flanker Task.osexp","/Users/RMILLER1/Library/CloudStorage/OneDrive-tarleton.edu(NTNET)/TSU Online Classes/Graduate Class/ Adv Quant Methods and Design","False","mono","False","18","no","white","no","no","768","legacy","25","25","/Users/RMILLER1/Library/CloudStorage/OneDrive-tarleton.edu(NTNET)/TSU Online Classes/Graduate Class/ Adv Quant Methods and Design/RM-subject-4.csv","legacy","Melodramatic Milgram","4.0.5","0","s","NA","s","NA","NA","s","375.0","NA","4284","NA","NA","375","2","legacy","1024","2","48000","-16","experiment","SSSSS","4","even","16958","NA","NA","37512","NA","NA","59639","58620","12662","NA","NA","59748","60124","59636","59748","12615","Flanker Task","20","11725.0","26","1024"
"77","77","448","448","#000000","legacy","legacy","legacy","congruent","1","undefined","1","s","0","0","0","26","26","0","26","26","0","0","0","26","26","26","26","0","Wed Sep 20 18:31:31 2023","1500","The main experiment item","False","Flanker Task.osexp","/Users/RMILLER1/Library/CloudStorage/OneDrive-tarleton.edu(NTNET)/TSU Online Classes/Graduate Class/ Adv Quant Methods and Design","False","mono","False","18","no","white","no","no","768","legacy","26","26","/Users/RMILLER1/Library/CloudStorage/OneDrive-tarleton.edu(NTNET)/TSU Online Classes/Graduate Class/ Adv Quant Methods and Design/RM-subject-4.csv","legacy","Melodramatic Milgram","4.0.5","0","s","NA","s","NA","NA","s","377.0","NA","4284","NA","NA","377","2","legacy","1024","2","48000","-16","experiment","SSSSS","4","even","16958","NA","NA","37512","NA","NA","61149","60127","12662","NA","NA","61254","61631","61144","61253","12615","Flanker Task","21","12102.0","27","1024"
"78","78","448","448","#000000","legacy","legacy","legacy","incongruent","1","undefined","1","h","0","0","0","27","27","0","27","27","0","0","0","27","27","27","27","0","Wed Sep 20 18:31:31 2023","1500","The main experiment item","False","Flanker Task.osexp","/Users/RMILLER1/Library/CloudStorage/OneDrive-tarleton.edu(NTNET)/TSU Online Classes/Graduate Class/ Adv Quant Methods and Design","False","mono","False","18","no","white","no","no","768","legacy","27","27","/Users/RMILLER1/Library/CloudStorage/OneDrive-tarleton.edu(NTNET)/TSU Online Classes/Graduate Class/ Adv Quant Methods and Design/RM-subject-4.csv","legacy","Melodramatic Milgram","4.0.5","0","h","NA","s","NA","NA","h","443.0","NA","4284","NA","NA","443","2","legacy","1024","2","48000","-16","experiment","SSHSS","4","even","16958","NA","NA","37512","NA","NA","62661","61634","12662","NA","NA","62764","63208","62657","62764","12615","Flanker Task","22","12545.0","28","1024"
"79","79","447","447","#000000","legacy","legacy","legacy","congruent","1","undefined","1","h","0","0","0","28","28","0","28","28","0","0","0","28","28","28","28","0","Wed Sep 20 18:31:31 2023","1500","The main experiment item","False","Flanker Task.osexp","/Users/RMILLER1/Library/CloudStorage/OneDrive-tarleton.edu(NTNET)/TSU Online Classes/Graduate Class/ Adv Quant Methods and Design","False","mono","False","18","no","white","no","no","768","legacy","28","28","/Users/RMILLER1/Library/CloudStorage/OneDrive-tarleton.edu(NTNET)/TSU Online Classes/Graduate Class/ Adv Quant Methods and Design/RM-subject-4.csv","legacy","Melodramatic Milgram","4.0.5","0","h","NA","s","NA","NA","h","419.0","NA","4284","NA","NA","419","2","legacy","1024","2","48000","-16","experiment","HHHHH","4","even","16958","NA","NA","37512","NA","NA","64237","63211","12662","NA","NA","64341","64760","64233","64341","12615","Flanker Task","23","12964.0","29","1024"
"76","76","447","447","#000000","legacy","legacy","legacy","congruent","0","undefined","0","h","0","0","0","29","29","0","29","29","0","0","0","29","29","29","29","0","Wed Sep 20 18:31:31 2023","1500","The main experiment item","False","Flanker Task.osexp","/Users/RMILLER1/Library/CloudStorage/OneDrive-tarleton.edu(NTNET)/TSU Online Classes/Graduate Class/ Adv Quant Methods and Design","False","mono","False","18","no","white","no","no","768","legacy","29","29","/Users/RMILLER1/Library/CloudStorage/OneDrive-tarleton.edu(NTNET)/TSU Online Classes/Graduate Class/ Adv Quant Methods and Design/RM-subject-4.csv","legacy","Melodramatic Milgram","4.0.5","0","s","NA","s","NA","NA","s","453.0","NA","4284","NA","NA","453","2","legacy","1024","2","48000","-16","experiment","HHHHH","4","even","16958","NA","NA","37512","NA","NA","65780","64764","12662","NA","NA","65881","66334","65777","65881","12615","Flanker Task","23","13417.0","30","1024"
"77","77","447","447","#000000","legacy","legacy","legacy","incongruent","1","undefined","1","s","0","0","0","30","30","0","30","30","0","0","0","30","30","30","30","0","Wed Sep 20 18:31:31 2023","1500","The main experiment item","False","Flanker Task.osexp","/Users/RMILLER1/Library/CloudStorage/OneDrive-tarleton.edu(NTNET)/TSU Online Classes/Graduate Class/ Adv Quant Methods and Design","False","mono","False","18","no","white","no","no","768","legacy","30","30","/Users/RMILLER1/Library/CloudStorage/OneDrive-tarleton.edu(NTNET)/TSU Online Classes/Graduate Class/ Adv Quant Methods and Design/RM-subject-4.csv","legacy","Melodramatic Milgram","4.0.5","0","s","NA","s","NA","NA","s","449.0","NA","4284","NA","NA","449","2","legacy","1024","2","48000","-16","experiment","HHSHH","4","even","16958","NA","NA","66337","NA","NA","67876","66839","12662","NA","NA","67978","68428","67873","67978","12615","Flanker Task","24","13866.0","31","1024"
"78","78","445","445","#000000","legacy","legacy","legacy","incongruent","1","undefined","1","h","0","0","0","31","31","0","31","31","0","0","0","31","31","31","31","0","Wed Sep 20 18:31:31 2023","1500","The main experiment item","False","Flanker Task.osexp","/Users/RMILLER1/Library/CloudStorage/OneDrive-tarleton.edu(NTNET)/TSU Online Classes/Graduate Class/ Adv Quant Methods and Design","False","mono","False","18","no","white","no","no","768","legacy","31","31","/Users/RMILLER1/Library/CloudStorage/OneDrive-tarleton.edu(NTNET)/TSU Online Classes/Graduate Class/ Adv Quant Methods and Design/RM-subject-4.csv","legacy","Melodramatic Milgram","4.0.5","0","h","NA","s","NA","NA","h","376.0","NA","4284","NA","NA","376","2","legacy","1024","2","48000","-16","experiment","SSHSS","4","even","16958","NA","NA","66337","NA","NA","69454","68431","12662","NA","NA","69557","69933","69448","69557","12615","Flanker Task","25","14242.0","32","1024"
"78","78","446","446","#000000","legacy","legacy","legacy","incongruent","1","undefined","1","s","0","0","0","32","32","0","32","32","0","0","0","32","32","32","32","0","Wed Sep 20 18:31:31 2023","1500","The main experiment item","False","Flanker Task.osexp","/Users/RMILLER1/Library/CloudStorage/OneDrive-tarleton.edu(NTNET)/TSU Online Classes/Graduate Class/ Adv Quant Methods and Design","False","mono","False","18","no","white","no","no","768","legacy","32","32","/Users/RMILLER1/Library/CloudStorage/OneDrive-tarleton.edu(NTNET)/TSU Online Classes/Graduate Class/ Adv Quant Methods and Design/RM-subject-4.csv","legacy","Melodramatic Milgram","4.0.5","0","s","NA","s","NA","NA","s","477.0","NA","4284","NA","NA","477","2","legacy","1024","2","48000","-16","experiment","HHSHH","4","even","16958","NA","NA","66337","NA","NA","70954","69936","12662","NA","NA","71057","71535","70950","71057","12615","Flanker Task","26","14719.0","33","1024"
"79","79","444","444","#000000","legacy","legacy","legacy","congruent","1","undefined","1","s","0","0","0","33","33","0","33","33","0","0","0","33","33","33","33","0","Wed Sep 20 18:31:31 2023","1500","The main experiment item","False","Flanker Task.osexp","/Users/RMILLER1/Library/CloudStorage/OneDrive-tarleton.edu(NTNET)/TSU Online Classes/Graduate Class/ Adv Quant Methods and Design","False","mono","False","18","no","white","no","no","768","legacy","33","33","/Users/RMILLER1/Library/CloudStorage/OneDrive-tarleton.edu(NTNET)/TSU Online Classes/Graduate Class/ Adv Quant Methods and Design/RM-subject-4.csv","legacy","Melodramatic Milgram","4.0.5","0","s","NA","s","NA","NA","s","379.0","NA","4284","NA","NA","379","2","legacy","1024","2","48000","-16","experiment","SSSSS","4","even","16958","NA","NA","66337","NA","NA","72559","71538","12662","NA","NA","72661","73041","72555","72661","12615","Flanker Task","27","15098.0","34","1024"
"80","80","441","441","#000000","legacy","legacy","legacy","congruent","1","undefined","1","h","0","0","0","34","34","0","34","34","0","0","0","34","34","34","34","0","Wed Sep 20 18:31:31 2023","1500","The main experiment item","False","Flanker Task.osexp","/Users/RMILLER1/Library/CloudStorage/OneDrive-tarleton.edu(NTNET)/TSU Online Classes/Graduate Class/ Adv Quant Methods and Design","False","mono","False","18","no","white","no","no","768","legacy","34","34","/Users/RMILLER1/Library/CloudStorage/OneDrive-tarleton.edu(NTNET)/TSU Online Classes/Graduate Class/ Adv Quant Methods and Design/RM-subject-4.csv","legacy","Melodramatic Milgram","4.0.5","0","h","NA","s","NA","NA","h","367.0","NA","4284","NA","NA","367","2","legacy","1024","2","48000","-16","experiment","HHHHH","4","even","16958","NA","NA","66337","NA","NA","74054","73043","12662","NA","NA","74157","74525","74052","74157","12615","Flanker Task","28","15465.0","35","1024"
"80","80","440","440","#000000","legacy","legacy","legacy","incongruent","1","undefined","1","h","0","0","0","35","35","0","35","35","0","0","0","35","35","35","35","0","Wed Sep 20 18:31:31 2023","1500","The main experiment item","False","Flanker Task.osexp","/Users/RMILLER1/Library/CloudStorage/OneDrive-tarleton.edu(NTNET)/TSU Online Classes/Graduate Class/ Adv Quant Methods and Design","False","mono","False","18","no","white","no","no","768","legacy","35","35","/Users/RMILLER1/Library/CloudStorage/OneDrive-tarleton.edu(NTNET)/TSU Online Classes/Graduate Class/ Adv Quant Methods and Design/RM-subject-4.csv","legacy","Melodramatic Milgram","4.0.5","0","h","NA","s","NA","NA","h","404.0","NA","4284","NA","NA","404","2","legacy","1024","2","48000","-16","experiment","SSHSS","4","even","16958","NA","NA","66337","NA","NA","75550","74528","12662","NA","NA","75653","76057","75546","75653","12615","Flanker Task","29","15869.0","36","1024"
"81","81","440","440","#000000","legacy","legacy","legacy","incongruent","1","undefined","1","h","0","0","0","36","36","0","36","36","0","0","0","36","36","36","36","0","Wed Sep 20 18:31:31 2023","1500","The main experiment item","False","Flanker Task.osexp","/Users/RMILLER1/Library/CloudStorage/OneDrive-tarleton.edu(NTNET)/TSU Online Classes/Graduate Class/ Adv Quant Methods and Design","False","mono","False","18","no","white","no","no","768","legacy","36","36","/Users/RMILLER1/Library/CloudStorage/OneDrive-tarleton.edu(NTNET)/TSU Online Classes/Graduate Class/ Adv Quant Methods and Design/RM-subject-4.csv","legacy","Melodramatic Milgram","4.0.5","0","h","NA","s","NA","NA","h","431.0","NA","4284","NA","NA","431","2","legacy","1024","2","48000","-16","experiment","SSHSS","4","even","16958","NA","NA","66337","NA","NA","77074","76060","12662","NA","NA","77176","77608","77071","77176","12615","Flanker Task","30","16300.0","37","1024"
"81","81","438","438","#000000","legacy","legacy","legacy","incongruent","1","undefined","1","h","0","0","0","37","37","0","37","37","0","0","0","37","37","37","37","0","Wed Sep 20 18:31:31 2023","1500","The main experiment item","False","Flanker Task.osexp","/Users/RMILLER1/Library/CloudStorage/OneDrive-tarleton.edu(NTNET)/TSU Online Classes/Graduate Class/ Adv Quant Methods and Design","False","mono","False","18","no","white","no","no","768","legacy","37","37","/Users/RMILLER1/Library/CloudStorage/OneDrive-tarleton.edu(NTNET)/TSU Online Classes/Graduate Class/ Adv Quant Methods and Design/RM-subject-4.csv","legacy","Melodramatic Milgram","4.0.5","0","h","NA","s","NA","NA","h","377.0","NA","4284","NA","NA","377","2","legacy","1024","2","48000","-16","experiment","SSHSS","4","even","16958","NA","NA","66337","NA","NA","78632","77611","12662","NA","NA","78735","79112","78628","78735","12615","Flanker Task","31","16677.0","38","1024"
"82","82","437","437","#000000","legacy","legacy","legacy","incongruent","1","undefined","1","h","0","0","0","38","38","0","38","38","0","0","0","38","38","38","38","0","Wed Sep 20 18:31:31 2023","1500","The main experiment item","False","Flanker Task.osexp","/Users/RMILLER1/Library/CloudStorage/OneDrive-tarleton.edu(NTNET)/TSU Online Classes/Graduate Class/ Adv Quant Methods and Design","False","mono","False","18","no","white","no","no","768","legacy","38","38","/Users/RMILLER1/Library/CloudStorage/OneDrive-tarleton.edu(NTNET)/TSU Online Classes/Graduate Class/ Adv Quant Methods and Design/RM-subject-4.csv","legacy","Melodramatic Milgram","4.0.5","0","h","NA","s","NA","NA","h","388.0","NA","4284","NA","NA","388","2","legacy","1024","2","48000","-16","experiment","SSHSS","4","even","16958","NA","NA","66337","NA","NA","80131","79115","12662","NA","NA","80234","80623","80129","80234","12615","Flanker Task","32","17065.0","39","1024"
"82","82","437","437","#000000","legacy","legacy","legacy","incongruent","1","undefined","1","s","0","0","0","39","39","0","39","39","0","0","0","39","39","39","39","0","Wed Sep 20 18:31:31 2023","1500","The main experiment item","False","Flanker Task.osexp","/Users/RMILLER1/Library/CloudStorage/OneDrive-tarleton.edu(NTNET)/TSU Online Classes/Graduate Class/ Adv Quant Methods and Design","False","mono","False","18","no","white","no","no","768","legacy","39","39","/Users/RMILLER1/Library/CloudStorage/OneDrive-tarleton.edu(NTNET)/TSU Online Classes/Graduate Class/ Adv Quant Methods and Design/RM-subject-4.csv","legacy","Melodramatic Milgram","4.0.5","0","s","NA","s","NA","NA","s","420.0","NA","4284","NA","NA","420","2","legacy","1024","2","48000","-16","experiment","HHSHH","4","even","16958","NA","NA","66337","NA","NA","81647","80625","12662","NA","NA","81754","82175","81643","81754","12615","Flanker Task","33","17485.0","40","1024"
"82","82","436","436","#000000","legacy","legacy","legacy","congruent","1","undefined","1","s","0","0","0","40","40","0","40","40","0","0","0","40","40","40","40","0","Wed Sep 20 18:31:31 2023","1500","The main experiment item","False","Flanker Task.osexp","/Users/RMILLER1/Library/CloudStorage/OneDrive-tarleton.edu(NTNET)/TSU Online Classes/Graduate Class/ Adv Quant Methods and Design","False","mono","False","18","no","white","no","no","768","legacy","40","40","/Users/RMILLER1/Library/CloudStorage/OneDrive-tarleton.edu(NTNET)/TSU Online Classes/Graduate Class/ Adv Quant Methods and Design/RM-subject-4.csv","legacy","Melodramatic Milgram","4.0.5","0","s","NA","s","NA","NA","s","411.0","NA","4284","NA","NA","411","2","legacy","1024","2","48000","-16","experiment","SSSSS","4","even","16958","NA","NA","66337","NA","NA","83194","82177","12662","NA","NA","83296","83708","83191","83296","12615","Flanker Task","34","17896.0","41","1024"
"83","83","434","434","#000000","legacy","legacy","legacy","congruent","1","undefined","1","s","0","0","0","41","41","0","41","41","0","0","0","41","41","41","41","0","Wed Sep 20 18:31:31 2023","1500","The main experiment item","False","Flanker Task.osexp","/Users/RMILLER1/Library/CloudStorage/OneDrive-tarleton.edu(NTNET)/TSU Online Classes/Graduate Class/ Adv Quant Methods and Design","False","mono","False","18","no","white","no","no","768","legacy","41","41","/Users/RMILLER1/Library/CloudStorage/OneDrive-tarleton.edu(NTNET)/TSU Online Classes/Graduate Class/ Adv Quant Methods and Design/RM-subject-4.csv","legacy","Melodramatic Milgram","4.0.5","0","s","NA","s","NA","NA","s","354.0","NA","4284","NA","NA","354","2","legacy","1024","2","48000","-16","experiment","SSSSS","4","even","16958","NA","NA","66337","NA","NA","84733","83711","12662","NA","NA","84836","85191","84728","84836","12615","Flanker Task","35","18250.0","42","1024"
"83","83","431","431","#000000","legacy","legacy","legacy","congruent","1","undefined","1","h","0","0","0","42","42","0","42","42","0","0","0","42","42","42","42","0","Wed Sep 20 18:31:31 2023","1500","The main experiment item","False","Flanker Task.osexp","/Users/RMILLER1/Library/CloudStorage/OneDrive-tarleton.edu(NTNET)/TSU Online Classes/Graduate Class/ Adv Quant Methods and Design","False","mono","False","18","no","white","no","no","768","legacy","42","42","/Users/RMILLER1/Library/CloudStorage/OneDrive-tarleton.edu(NTNET)/TSU Online Classes/Graduate Class/ Adv Quant Methods and Design/RM-subject-4.csv","legacy","Melodramatic Milgram","4.0.5","0","h","NA","s","NA","NA","h","318.0","NA","4284","NA","NA","318","2","legacy","1024","2","48000","-16","experiment","HHHHH","4","even","16958","NA","NA","66337","NA","NA","86209","85193","12662","NA","NA","86311","86630","86207","86311","12615","Flanker Task","36","18568.0","43","1024"
"84","84","429","429","#000000","legacy","legacy","legacy","congruent","1","undefined","1","s","0","0","0","43","43","0","43","43","0","0","0","43","43","43","43","0","Wed Sep 20 18:31:31 2023","1500","The main experiment item","False","Flanker Task.osexp","/Users/RMILLER1/Library/CloudStorage/OneDrive-tarleton.edu(NTNET)/TSU Online Classes/Graduate Class/ Adv Quant Methods and Design","False","mono","False","18","no","white","no","no","768","legacy","43","43","/Users/RMILLER1/Library/CloudStorage/OneDrive-tarleton.edu(NTNET)/TSU Online Classes/Graduate Class/ Adv Quant Methods and Design/RM-subject-4.csv","legacy","Melodramatic Milgram","4.0.5","0","s","NA","s","NA","NA","s","308.0","NA","4284","NA","NA","308","2","legacy","1024","2","48000","-16","experiment","SSSSS","4","even","16958","NA","NA","66337","NA","NA","87660","86633","12662","NA","NA","87763","88072","87655","87762","12615","Flanker Task","37","18876.0","44","1024"
"84","84","426","426","#000000","legacy","legacy","legacy","congruent","1","undefined","1","h","0","0","0","44","44","0","44","44","0","0","0","44","44","44","44","0","Wed Sep 20 18:31:31 2023","1500","The main experiment item","False","Flanker Task.osexp","/Users/RMILLER1/Library/CloudStorage/OneDrive-tarleton.edu(NTNET)/TSU Online Classes/Graduate Class/ Adv Quant Methods and Design","False","mono","False","18","no","white","no","no","768","legacy","44","44","/Users/RMILLER1/Library/CloudStorage/OneDrive-tarleton.edu(NTNET)/TSU Online Classes/Graduate Class/ Adv Quant Methods and Design/RM-subject-4.csv","legacy","Melodramatic Milgram","4.0.5","0","h","NA","s","NA","NA","h","327.0","NA","4284","NA","NA","327","2","legacy","1024","2","48000","-16","experiment","HHHHH","4","even","16958","NA","NA","66337","NA","NA","89097","88075","12662","NA","NA","89205","89533","89093","89204","12615","Flanker Task","38","19203.0","45","1024"
"84","84","425","425","#000000","legacy","legacy","legacy","congruent","1","undefined","1","h","0","0","0","45","45","0","45","45","0","0","0","45","45","45","45","0","Wed Sep 20 18:31:31 2023","1500","The main experiment item","False","Flanker Task.osexp","/Users/RMILLER1/Library/CloudStorage/OneDrive-tarleton.edu(NTNET)/TSU Online Classes/Graduate Class/ Adv Quant Methods and Design","False","mono","False","18","no","white","no","no","768","legacy","45","45","/Users/RMILLER1/Library/CloudStorage/OneDrive-tarleton.edu(NTNET)/TSU Online Classes/Graduate Class/ Adv Quant Methods and Design/RM-subject-4.csv","legacy","Melodramatic Milgram","4.0.5","0","h","NA","s","NA","NA","h","359.0","NA","4284","NA","NA","359","2","legacy","1024","2","48000","-16","experiment","HHHHH","4","even","16958","NA","NA","66337","NA","NA","90559","89536","12662","NA","NA","90662","91022","90553","90662","12615","Flanker Task","39","19562.0","46","1024"
"82","82","418","418","#000000","legacy","legacy","legacy","incongruent","0","undefined","0","h","0","0","0","46","46","0","46","46","0","0","0","46","46","46","46","0","Wed Sep 20 18:31:31 2023","1500","The main experiment item","False","Flanker Task.osexp","/Users/RMILLER1/Library/CloudStorage/OneDrive-tarleton.edu(NTNET)/TSU Online Classes/Graduate Class/ Adv Quant Methods and Design","False","mono","False","18","no","white","no","no","768","legacy","46","46","/Users/RMILLER1/Library/CloudStorage/OneDrive-tarleton.edu(NTNET)/TSU Online Classes/Graduate Class/ Adv Quant Methods and Design/RM-subject-4.csv","legacy","Melodramatic Milgram","4.0.5","0","s","NA","s","NA","NA","s","109.0","NA","4284","NA","NA","109","2","legacy","1024","2","48000","-16","experiment","SSHSS","4","even","16958","NA","NA","66337","NA","NA","92046","91025","12662","NA","NA","92149","92259","92042","92149","12615","Flanker Task","39","19671.0","47","1024"
"83","83","417","417","#000000","legacy","legacy","legacy","incongruent","1","undefined","1","h","0","0","0","47","47","0","47","47","0","0","0","47","47","47","47","0","Wed Sep 20 18:31:31 2023","1500","The main experiment item","False","Flanker Task.osexp","/Users/RMILLER1/Library/CloudStorage/OneDrive-tarleton.edu(NTNET)/TSU Online Classes/Graduate Class/ Adv Quant Methods and Design","False","mono","False","18","no","white","no","no","768","legacy","47","47","/Users/RMILLER1/Library/CloudStorage/OneDrive-tarleton.edu(NTNET)/TSU Online Classes/Graduate Class/ Adv Quant Methods and Design/RM-subject-4.csv","legacy","Melodramatic Milgram","4.0.5","0","h","NA","s","NA","NA","h","367.0","NA","4284","NA","NA","367","2","legacy","1024","2","48000","-16","experiment","SSHSS","4","even","16958","NA","NA","92261","NA","NA","93791","92765","12662","NA","NA","93894","94261","93786","93894","12615","Flanker Task","40","20038.0","48","1024"
"83","83","415","415","#000000","legacy","legacy","legacy","congruent","1","undefined","1","h","0","0","0","48","48","0","48","48","0","0","0","48","48","48","48","0","Wed Sep 20 18:31:31 2023","1500","The main experiment item","False","Flanker Task.osexp","/Users/RMILLER1/Library/CloudStorage/OneDrive-tarleton.edu(NTNET)/TSU Online Classes/Graduate Class/ Adv Quant Methods and Design","False","mono","False","18","no","white","no","no","768","legacy","48","48","/Users/RMILLER1/Library/CloudStorage/OneDrive-tarleton.edu(NTNET)/TSU Online Classes/Graduate Class/ Adv Quant Methods and Design/RM-subject-4.csv","legacy","Melodramatic Milgram","4.0.5","0","h","NA","s","NA","NA","h","327.0","NA","4284","NA","NA","327","2","legacy","1024","2","48000","-16","experiment","HHHHH","4","even","16958","NA","NA","92261","NA","NA","95292","94264","12662","NA","NA","95394","95722","95282","95393","12615","Flanker Task","41","20365.0","49","1024"
"84","84","414","414","#000000","legacy","legacy","legacy","congruent","1","undefined","1","s","0","0","0","49","49","0","49","49","0","0","0","49","49","49","49","0","Wed Sep 20 18:31:31 2023","1500","The main experiment item","False","Flanker Task.osexp","/Users/RMILLER1/Library/CloudStorage/OneDrive-tarleton.edu(NTNET)/TSU Online Classes/Graduate Class/ Adv Quant Methods and Design","False","mono","False","18","no","white","no","no","768","legacy","49","49","/Users/RMILLER1/Library/CloudStorage/OneDrive-tarleton.edu(NTNET)/TSU Online Classes/Graduate Class/ Adv Quant Methods and Design/RM-subject-4.csv","legacy","Melodramatic Milgram","4.0.5","0","s","NA","s","NA","NA","s","379.0","NA","4284","NA","NA","379","2","legacy","1024","2","48000","-16","experiment","SSSSS","4","even","16958","NA","NA","92261","NA","NA","96745","95724","12662","NA","NA","96849","97229","96741","96849","12615","Flanker Task","42","20744.0","50","1024"
"82","82","414","414","#000000","legacy","legacy","legacy","congruent","0","undefined","0","s","0","0","0","50","50","0","50","50","0","0","0","50","50","50","50","0","Wed Sep 20 18:31:31 2023","1500","The main experiment item","False","Flanker Task.osexp","/Users/RMILLER1/Library/CloudStorage/OneDrive-tarleton.edu(NTNET)/TSU Online Classes/Graduate Class/ Adv Quant Methods and Design","False","mono","False","18","no","white","no","no","768","legacy","50","50","/Users/RMILLER1/Library/CloudStorage/OneDrive-tarleton.edu(NTNET)/TSU Online Classes/Graduate Class/ Adv Quant Methods and Design/RM-subject-4.csv","legacy","Melodramatic Milgram","4.0.5","0","h","NA","s","NA","NA","h","396.0","NA","4284","NA","NA","396","2","legacy","1024","2","48000","-16","experiment","SSSSS","4","even","16958","NA","NA","92261","NA","NA","98259","97232","12662","NA","NA","98361","98758","98253","98361","12615","Flanker Task","42","21140.0","51","1024"
"80","80","411","411","#000000","legacy","legacy","legacy","incongruent","0","undefined","0","h","0","0","0","51","51","0","51","51","0","0","0","51","51","51","51","0","Wed Sep 20 18:31:31 2023","1500","The main experiment item","False","Flanker Task.osexp","/Users/RMILLER1/Library/CloudStorage/OneDrive-tarleton.edu(NTNET)/TSU Online Classes/Graduate Class/ Adv Quant Methods and Design","False","mono","False","18","no","white","no","no","768","legacy","51","51","/Users/RMILLER1/Library/CloudStorage/OneDrive-tarleton.edu(NTNET)/TSU Online Classes/Graduate Class/ Adv Quant Methods and Design/RM-subject-4.csv","legacy","Melodramatic Milgram","4.0.5","0","s","NA","s","NA","NA","s","252.0","NA","4284","NA","NA","252","2","legacy","1024","2","48000","-16","experiment","SSHSS","4","even","16958","NA","NA","98761","NA","NA","100293","99264","12662","NA","NA","100395","100648","100287","100394","12615","Flanker Task","42","21392.0","52","1024"
"81","81","408","408","#000000","legacy","legacy","legacy","congruent","1","undefined","1","h","0","0","0","52","52","0","52","52","0","0","0","52","52","52","52","0","Wed Sep 20 18:31:31 2023","1500","The main experiment item","False","Flanker Task.osexp","/Users/RMILLER1/Library/CloudStorage/OneDrive-tarleton.edu(NTNET)/TSU Online Classes/Graduate Class/ Adv Quant Methods and Design","False","mono","False","18","no","white","no","no","768","legacy","52","52","/Users/RMILLER1/Library/CloudStorage/OneDrive-tarleton.edu(NTNET)/TSU Online Classes/Graduate Class/ Adv Quant Methods and Design/RM-subject-4.csv","legacy","Melodramatic Milgram","4.0.5","0","h","NA","s","NA","NA","h","279.0","NA","4284","NA","NA","279","2","legacy","1024","2","48000","-16","experiment","HHHHH","4","even","16958","NA","NA","100651","NA","NA","102179","101155","12662","NA","NA","102281","102560","102176","102281","12615","Flanker Task","43","21671.0","53","1024"
"81","81","411","411","#000000","legacy","legacy","legacy","incongruent","1","undefined","1","s","0","0","0","53","53","0","53","53","0","0","0","53","53","53","53","0","Wed Sep 20 18:31:31 2023","1500","The main experiment item","False","Flanker Task.osexp","/Users/RMILLER1/Library/CloudStorage/OneDrive-tarleton.edu(NTNET)/TSU Online Classes/Graduate Class/ Adv Quant Methods and Design","False","mono","False","18","no","white","no","no","768","legacy","53","53","/Users/RMILLER1/Library/CloudStorage/OneDrive-tarleton.edu(NTNET)/TSU Online Classes/Graduate Class/ Adv Quant Methods and Design/RM-subject-4.csv","legacy","Melodramatic Milgram","4.0.5","0","s","NA","s","NA","NA","s","545.0","NA","4284","NA","NA","545","2","legacy","1024","2","48000","-16","experiment","HHSHH","4","even","16958","NA","NA","100651","NA","NA","103578","102563","12662","NA","NA","103680","104226","103575","103680","12615","Flanker Task","44","22216.0","54","1024"
"81","81","410","410","#000000","legacy","legacy","legacy","incongruent","1","undefined","1","s","0","0","0","54","54","0","54","54","0","0","0","54","54","54","54","0","Wed Sep 20 18:31:31 2023","1500","The main experiment item","False","Flanker Task.osexp","/Users/RMILLER1/Library/CloudStorage/OneDrive-tarleton.edu(NTNET)/TSU Online Classes/Graduate Class/ Adv Quant Methods and Design","False","mono","False","18","no","white","no","no","768","legacy","54","54","/Users/RMILLER1/Library/CloudStorage/OneDrive-tarleton.edu(NTNET)/TSU Online Classes/Graduate Class/ Adv Quant Methods and Design/RM-subject-4.csv","legacy","Melodramatic Milgram","4.0.5","0","s","NA","s","NA","NA","s","382.0","NA","4284","NA","NA","382","2","legacy","1024","2","48000","-16","experiment","HHSHH","4","even","16958","NA","NA","100651","NA","NA","105247","104229","12662","NA","NA","105350","105733","105243","105349","12615","Flanker Task","45","22598.0","55","1024"
"82","82","410","410","#000000","legacy","legacy","legacy","congruent","1","undefined","1","h","0","0","0","55","55","0","55","55","0","0","0","55","55","55","55","0","Wed Sep 20 18:31:31 2023","1500","The main experiment item","False","Flanker Task.osexp","/Users/RMILLER1/Library/CloudStorage/OneDrive-tarleton.edu(NTNET)/TSU Online Classes/Graduate Class/ Adv Quant Methods and Design","False","mono","False","18","no","white","no","no","768","legacy","55","55","/Users/RMILLER1/Library/CloudStorage/OneDrive-tarleton.edu(NTNET)/TSU Online Classes/Graduate Class/ Adv Quant Methods and Design/RM-subject-4.csv","legacy","Melodramatic Milgram","4.0.5","0","h","NA","s","NA","NA","h","380.0","NA","4284","NA","NA","380","2","legacy","1024","2","48000","-16","experiment","HHHHH","4","even","16958","NA","NA","100651","NA","NA","106759","105737","12662","NA","NA","106862","107243","106754","106862","12615","Flanker Task","46","22978.0","56","1024"
"82","82","410","410","#000000","legacy","legacy","legacy","incongruent","1","undefined","1","s","0","0","0","56","56","0","56","56","0","0","0","56","56","56","56","0","Wed Sep 20 18:31:31 2023","1500","The main experiment item","False","Flanker Task.osexp","/Users/RMILLER1/Library/CloudStorage/OneDrive-tarleton.edu(NTNET)/TSU Online Classes/Graduate Class/ Adv Quant Methods and Design","False","mono","False","18","no","white","no","no","768","legacy","56","56","/Users/RMILLER1/Library/CloudStorage/OneDrive-tarleton.edu(NTNET)/TSU Online Classes/Graduate Class/ Adv Quant Methods and Design/RM-subject-4.csv","legacy","Melodramatic Milgram","4.0.5","0","s","NA","s","NA","NA","s","422.0","NA","4284","NA","NA","422","2","legacy","1024","2","48000","-16","experiment","HHSHH","4","even","16958","NA","NA","100651","NA","NA","108271","107246","12662","NA","NA","108376","108799","108266","108376","12615","Flanker Task","47","23400.0","57","1024"
"81","81","408","408","#000000","legacy","legacy","legacy","congruent","0","undefined","0","h","0","0","0","57","57","0","57","57","0","0","0","57","57","57","57","0","Wed Sep 20 18:31:31 2023","1500","The main experiment item","False","Flanker Task.osexp","/Users/RMILLER1/Library/CloudStorage/OneDrive-tarleton.edu(NTNET)/TSU Online Classes/Graduate Class/ Adv Quant Methods and Design","False","mono","False","18","no","white","no","no","768","legacy","57","57","/Users/RMILLER1/Library/CloudStorage/OneDrive-tarleton.edu(NTNET)/TSU Online Classes/Graduate Class/ Adv Quant Methods and Design/RM-subject-4.csv","legacy","Melodramatic Milgram","4.0.5","0","s","NA","s","NA","NA","s","304.0","NA","4284","NA","NA","304","2","legacy","1024","2","48000","-16","experiment","HHHHH","4","even","16958","NA","NA","100651","NA","NA","109826","108804","12662","NA","NA","109928","110233","109821","109928","12615","Flanker Task","47","23704.0","58","1024"
"81","81","405","405","#000000","legacy","legacy","legacy","congruent","1","undefined","1","s","0","0","0","58","58","0","58","58","0","0","0","58","58","58","58","0","Wed Sep 20 18:31:31 2023","1500","The main experiment item","False","Flanker Task.osexp","/Users/RMILLER1/Library/CloudStorage/OneDrive-tarleton.edu(NTNET)/TSU Online Classes/Graduate Class/ Adv Quant Methods and Design","False","mono","False","18","no","white","no","no","768","legacy","58","58","/Users/RMILLER1/Library/CloudStorage/OneDrive-tarleton.edu(NTNET)/TSU Online Classes/Graduate Class/ Adv Quant Methods and Design/RM-subject-4.csv","legacy","Melodramatic Milgram","4.0.5","0","s","NA","s","NA","NA","s","245.0","NA","4284","NA","NA","245","2","legacy","1024","2","48000","-16","experiment","SSSSS","4","even","16958","NA","NA","110236","NA","NA","111773","110740","12662","NA","NA","111876","112122","111764","111876","12615","Flanker Task","48","23949.0","59","1024"
"80","80","403","403","#000000","legacy","legacy","legacy","incongruent","0","undefined","0","s","0","0","0","59","59","0","59","59","0","0","0","59","59","59","59","0","Wed Sep 20 18:31:31 2023","1500","The main experiment item","False","Flanker Task.osexp","/Users/RMILLER1/Library/CloudStorage/OneDrive-tarleton.edu(NTNET)/TSU Online Classes/Graduate Class/ Adv Quant Methods and Design","False","mono","False","18","no","white","no","no","768","legacy","59","59","/Users/RMILLER1/Library/CloudStorage/OneDrive-tarleton.edu(NTNET)/TSU Online Classes/Graduate Class/ Adv Quant Methods and Design/RM-subject-4.csv","legacy","Melodramatic Milgram","4.0.5","0","h","NA","s","NA","NA","h","268.0","NA","4284","NA","NA","268","2","legacy","1024","2","48000","-16","experiment","HHSHH","4","even","16958","NA","NA","110236","NA","NA","113146","112125","12662","NA","NA","113249","113518","113143","113249","12615","Flanker Task","48","24217.0","60","1024"
"78","78","400","400","#000000","legacy","legacy","legacy","incongruent","0","undefined","0","s","0","0","0","60","60","0","60","60","0","0","0","60","60","60","60","0","Wed Sep 20 18:31:31 2023","1500","The main experiment item","False","Flanker Task.osexp","/Users/RMILLER1/Library/CloudStorage/OneDrive-tarleton.edu(NTNET)/TSU Online Classes/Graduate Class/ Adv Quant Methods and Design","False","mono","False","18","no","white","no","no","768","legacy","60","60","/Users/RMILLER1/Library/CloudStorage/OneDrive-tarleton.edu(NTNET)/TSU Online Classes/Graduate Class/ Adv Quant Methods and Design/RM-subject-4.csv","legacy","Melodramatic Milgram","4.0.5","0","h","NA","s","NA","NA","h","209.0","NA","4284","NA","NA","209","2","legacy","1024","2","48000","-16","experiment","HHSHH","4","even","16958","NA","NA","113521","NA","NA","115051","114024","12662","NA","NA","115154","115364","115048","115154","12615","Flanker Task","48","24426.0","61","1024"
"79","79","397","397","#000000","legacy","legacy","legacy","incongruent","1","undefined","1","h","0","0","0","61","61","0","61","61","0","0","0","61","61","61","61","0","Wed Sep 20 18:31:31 2023","1500","The main experiment item","False","Flanker Task.osexp","/Users/RMILLER1/Library/CloudStorage/OneDrive-tarleton.edu(NTNET)/TSU Online Classes/Graduate Class/ Adv Quant Methods and Design","False","mono","False","18","no","white","no","no","768","legacy","61","61","/Users/RMILLER1/Library/CloudStorage/OneDrive-tarleton.edu(NTNET)/TSU Online Classes/Graduate Class/ Adv Quant Methods and Design/RM-subject-4.csv","legacy","Melodramatic Milgram","4.0.5","0","h","NA","s","NA","NA","h","189.0","NA","4284","NA","NA","189","2","legacy","1024","2","48000","-16","experiment","SSHSS","4","even","16958","NA","NA","115367","NA","NA","116896","115870","12662","NA","NA","116998","117188","116893","116998","12615","Flanker Task","49","24615.0","62","1024"
"77","77","397","397","#000000","legacy","legacy","legacy","incongruent","0","undefined","0","s","0","0","0","62","62","0","62","62","0","0","0","62","62","62","62","0","Wed Sep 20 18:31:31 2023","1500","The main experiment item","False","Flanker Task.osexp","/Users/RMILLER1/Library/CloudStorage/OneDrive-tarleton.edu(NTNET)/TSU Online Classes/Graduate Class/ Adv Quant Methods and Design","False","mono","False","18","no","white","no","no","768","legacy","62","62","/Users/RMILLER1/Library/CloudStorage/OneDrive-tarleton.edu(NTNET)/TSU Online Classes/Graduate Class/ Adv Quant Methods and Design/RM-subject-4.csv","legacy","Melodramatic Milgram","4.0.5","0","h","NA","s","NA","NA","h","448.0","NA","4284","NA","NA","448","2","legacy","1024","2","48000","-16","experiment","HHSHH","4","even","16958","NA","NA","115367","NA","NA","118211","117191","12662","NA","NA","118314","118762","118207","118314","12615","Flanker Task","49","25063.0","63","1024"
"76","76","394","394","#000000","legacy","legacy","legacy","congruent","0","undefined","0","h","0","0","0","63","63","0","63","63","0","0","0","63","63","63","63","0","Wed Sep 20 18:31:31 2023","1500","The main experiment item","False","Flanker Task.osexp","/Users/RMILLER1/Library/CloudStorage/OneDrive-tarleton.edu(NTNET)/TSU Online Classes/Graduate Class/ Adv Quant Methods and Design","False","mono","False","18","no","white","no","no","768","legacy","63","63","/Users/RMILLER1/Library/CloudStorage/OneDrive-tarleton.edu(NTNET)/TSU Online Classes/Graduate Class/ Adv Quant Methods and Design/RM-subject-4.csv","legacy","Melodramatic Milgram","4.0.5","0","s","NA","s","NA","NA","s","188.0","NA","4284","NA","NA","188","2","legacy","1024","2","48000","-16","experiment","HHHHH","4","even","16958","NA","NA","118765","NA","NA","120293","119268","12662","NA","NA","120395","120584","120290","120395","12615","Flanker Task","49","25251.0","64","1024"
"75","75","393","393","#000000","legacy","legacy","legacy","congruent","0","undefined","0","s","0","0","0","64","64","0","64","64","0","0","0","64","64","64","64","0","Wed Sep 20 18:31:31 2023","1500","The main experiment item","False","Flanker Task.osexp","/Users/RMILLER1/Library/CloudStorage/OneDrive-tarleton.edu(NTNET)/TSU Online Classes/Graduate Class/ Adv Quant Methods and Design","False","mono","False","18","no","white","no","no","768","legacy","64","64","/Users/RMILLER1/Library/CloudStorage/OneDrive-tarleton.edu(NTNET)/TSU Online Classes/Graduate Class/ Adv Quant Methods and Design/RM-subject-4.csv","legacy","Melodramatic Milgram","4.0.5","0","h","NA","s","NA","NA","h","300.0","NA","4284","NA","NA","300","2","legacy","1024","2","48000","-16","experiment","SSSSS","4","even","16958","NA","NA","120586","NA","NA","122117","121089","12662","NA","NA","122220","122521","122113","122220","12615","Flanker Task","49","25551.0","65","1024"
"75","75","393","393","#000000","legacy","legacy","legacy","congruent","1","undefined","1","s","0","0","0","65","65","0","65","65","0","0","0","65","65","65","65","0","Wed Sep 20 18:31:31 2023","1500","The main experiment item","False","Flanker Task.osexp","/Users/RMILLER1/Library/CloudStorage/OneDrive-tarleton.edu(NTNET)/TSU Online Classes/Graduate Class/ Adv Quant Methods and Design","False","mono","False","18","no","white","no","no","768","legacy","65","65","/Users/RMILLER1/Library/CloudStorage/OneDrive-tarleton.edu(NTNET)/TSU Online Classes/Graduate Class/ Adv Quant Methods and Design/RM-subject-4.csv","legacy","Melodramatic Milgram","4.0.5","0","s","NA","s","NA","NA","s","387.0","NA","4284","NA","NA","387","2","legacy","1024","2","48000","-16","experiment","SSSSS","4","even","16958","NA","NA","122525","NA","NA","124054","123028","12662","NA","NA","124157","124545","124050","124157","12615","Flanker Task","50","25938.0","66","1024"
"76","76","393","393","#000000","legacy","legacy","legacy","congruent","1","undefined","1","h","0","0","0","66","66","0","66","66","0","0","0","66","66","66","66","0","Wed Sep 20 18:31:31 2023","1500","The main experiment item","False","Flanker Task.osexp","/Users/RMILLER1/Library/CloudStorage/OneDrive-tarleton.edu(NTNET)/TSU Online Classes/Graduate Class/ Adv Quant Methods and Design","False","mono","False","18","no","white","no","no","768","legacy","66","66","/Users/RMILLER1/Library/CloudStorage/OneDrive-tarleton.edu(NTNET)/TSU Online Classes/Graduate Class/ Adv Quant Methods and Design/RM-subject-4.csv","legacy","Melodramatic Milgram","4.0.5","0","h","NA","s","NA","NA","h","419.0","NA","4284","NA","NA","419","2","legacy","1024","2","48000","-16","experiment","HHHHH","4","even","16958","NA","NA","122525","NA","NA","125573","124548","12662","NA","NA","125676","126096","125568","125676","12615","Flanker Task","51","26357.0","67","1024"
"76","76","392","392","#000000","legacy","legacy","legacy","incongruent","1","undefined","1","s","0","0","0","67","67","0","67","67","0","0","0","67","67","67","67","0","Wed Sep 20 18:31:31 2023","1500","The main experiment item","False","Flanker Task.osexp","/Users/RMILLER1/Library/CloudStorage/OneDrive-tarleton.edu(NTNET)/TSU Online Classes/Graduate Class/ Adv Quant Methods and Design","False","mono","False","18","no","white","no","no","768","legacy","67","67","/Users/RMILLER1/Library/CloudStorage/OneDrive-tarleton.edu(NTNET)/TSU Online Classes/Graduate Class/ Adv Quant Methods and Design/RM-subject-4.csv","legacy","Melodramatic Milgram","4.0.5","0","s","NA","s","NA","NA","s","332.0","NA","4284","NA","NA","332","2","legacy","1024","2","48000","-16","experiment","HHSHH","4","even","16958","NA","NA","122525","NA","NA","127122","126099","12662","NA","NA","127226","127559","127118","127226","12615","Flanker Task","52","26689.0","68","1024"
"76","76","391","391","#000000","legacy","legacy","legacy","congruent","1","undefined","1","s","0","0","0","68","68","0","68","68","0","0","0","68","68","68","68","0","Wed Sep 20 18:31:31 2023","1500","The main experiment item","False","Flanker Task.osexp","/Users/RMILLER1/Library/CloudStorage/OneDrive-tarleton.edu(NTNET)/TSU Online Classes/Graduate Class/ Adv Quant Methods and Design","False","mono","False","18","no","white","no","no","768","legacy","68","68","/Users/RMILLER1/Library/CloudStorage/OneDrive-tarleton.edu(NTNET)/TSU Online Classes/Graduate Class/ Adv Quant Methods and Design/RM-subject-4.csv","legacy","Melodramatic Milgram","4.0.5","0","s","NA","s","NA","NA","s","333.0","NA","4284","NA","NA","333","2","legacy","1024","2","48000","-16","experiment","SSSSS","4","even","16958","NA","NA","122525","NA","NA","128583","127562","12662","NA","NA","128687","129021","128579","128686","12615","Flanker Task","53","27022.0","69","1024"
"75","75","391","391","#000000","legacy","legacy","legacy","incongruent","0","undefined","0","h","0","0","0","69","69","0","69","69","0","0","0","69","69","69","69","0","Wed Sep 20 18:31:31 2023","1500","The main experiment item","False","Flanker Task.osexp","/Users/RMILLER1/Library/CloudStorage/OneDrive-tarleton.edu(NTNET)/TSU Online Classes/Graduate Class/ Adv Quant Methods and Design","False","mono","False","18","no","white","no","no","768","legacy","69","69","/Users/RMILLER1/Library/CloudStorage/OneDrive-tarleton.edu(NTNET)/TSU Online Classes/Graduate Class/ Adv Quant Methods and Design/RM-subject-4.csv","legacy","Melodramatic Milgram","4.0.5","0","s","NA","s","NA","NA","s","358.0","NA","4284","NA","NA","358","2","legacy","1024","2","48000","-16","experiment","SSHSS","4","even","16958","NA","NA","122525","NA","NA","130046","129024","12662","NA","NA","130149","130508","130041","130149","12615","Flanker Task","53","27380.0","70","1024"
"76","76","392","392","#000000","legacy","legacy","legacy","congruent","1","undefined","1","s","0","0","0","70","70","0","70","70","0","0","0","70","70","70","70","0","Wed Sep 20 18:31:31 2023","1500","The main experiment item","False","Flanker Task.osexp","/Users/RMILLER1/Library/CloudStorage/OneDrive-tarleton.edu(NTNET)/TSU Online Classes/Graduate Class/ Adv Quant Methods and Design","False","mono","False","18","no","white","no","no","768","legacy","70","70","/Users/RMILLER1/Library/CloudStorage/OneDrive-tarleton.edu(NTNET)/TSU Online Classes/Graduate Class/ Adv Quant Methods and Design/RM-subject-4.csv","legacy","Melodramatic Milgram","4.0.5","0","s","NA","s","NA","NA","s","484.0","NA","4284","NA","NA","484","2","legacy","1024","2","48000","-16","experiment","SSSSS","4","even","16958","NA","NA","130511","NA","NA","132033","131013","12662","NA","NA","132136","132621","132031","132136","12615","Flanker Task","54","27864.0","71","1024"
"76","76","392","392","#000000","legacy","legacy","legacy","incongruent","1","undefined","1","h","0","0","0","71","71","0","71","71","0","0","0","71","71","71","71","0","Wed Sep 20 18:31:31 2023","1500","The main experiment item","False","Flanker Task.osexp","/Users/RMILLER1/Library/CloudStorage/OneDrive-tarleton.edu(NTNET)/TSU Online Classes/Graduate Class/ Adv Quant Methods and Design","False","mono","False","18","no","white","no","no","768","legacy","71","71","/Users/RMILLER1/Library/CloudStorage/OneDrive-tarleton.edu(NTNET)/TSU Online Classes/Graduate Class/ Adv Quant Methods and Design/RM-subject-4.csv","legacy","Melodramatic Milgram","4.0.5","0","h","NA","s","NA","NA","h","409.0","NA","4284","NA","NA","409","2","legacy","1024","2","48000","-16","experiment","SSHSS","4","even","16958","NA","NA","130511","NA","NA","133645","132624","12662","NA","NA","133748","134158","133640","133748","12615","Flanker Task","55","28273.0","72","1024"
"76","76","393","393","#000000","legacy","legacy","legacy","incongruent","1","undefined","1","h","0","0","0","72","72","0","72","72","0","0","0","72","72","72","72","0","Wed Sep 20 18:31:31 2023","1500","The main experiment item","False","Flanker Task.osexp","/Users/RMILLER1/Library/CloudStorage/OneDrive-tarleton.edu(NTNET)/TSU Online Classes/Graduate Class/ Adv Quant Methods and Design","False","mono","False","18","no","white","no","no","768","legacy","72","72","/Users/RMILLER1/Library/CloudStorage/OneDrive-tarleton.edu(NTNET)/TSU Online Classes/Graduate Class/ Adv Quant Methods and Design/RM-subject-4.csv","legacy","Melodramatic Milgram","4.0.5","0","h","NA","s","NA","NA","h","417.0","NA","4284","NA","NA","417","2","legacy","1024","2","48000","-16","experiment","SSHSS","4","even","16958","NA","NA","130511","NA","NA","135182","134160","12662","NA","NA","135286","135704","135178","135286","12615","Flanker Task","56","28690.0","73","1024"
"77","77","392","392","#000000","legacy","legacy","legacy","congruent","1","undefined","1","h","0","0","0","73","73","0","73","73","0","0","0","73","73","73","73","0","Wed Sep 20 18:31:31 2023","1500","The main experiment item","False","Flanker Task.osexp","/Users/RMILLER1/Library/CloudStorage/OneDrive-tarleton.edu(NTNET)/TSU Online Classes/Graduate Class/ Adv Quant Methods and Design","False","mono","False","18","no","white","no","no","768","legacy","73","73","/Users/RMILLER1/Library/CloudStorage/OneDrive-tarleton.edu(NTNET)/TSU Online Classes/Graduate Class/ Adv Quant Methods and Design/RM-subject-4.csv","legacy","Melodramatic Milgram","4.0.5","0","h","NA","s","NA","NA","h","357.0","NA","4284","NA","NA","357","2","legacy","1024","2","48000","-16","experiment","HHHHH","4","even","16958","NA","NA","130511","NA","NA","136727","135707","12662","NA","NA","136830","137188","136723","136830","12615","Flanker Task","57","29047.0","74","1024"
"77","77","392","392","#000000","legacy","legacy","legacy","congruent","1","undefined","1","h","0","0","0","74","74","0","74","74","0","0","0","74","74","74","74","0","Wed Sep 20 18:31:31 2023","1500","The main experiment item","False","Flanker Task.osexp","/Users/RMILLER1/Library/CloudStorage/OneDrive-tarleton.edu(NTNET)/TSU Online Classes/Graduate Class/ Adv Quant Methods and Design","False","mono","False","18","no","white","no","no","768","legacy","74","74","/Users/RMILLER1/Library/CloudStorage/OneDrive-tarleton.edu(NTNET)/TSU Online Classes/Graduate Class/ Adv Quant Methods and Design/RM-subject-4.csv","legacy","Melodramatic Milgram","4.0.5","0","h","NA","s","NA","NA","h","360.0","NA","4284","NA","NA","360","2","legacy","1024","2","48000","-16","experiment","HHHHH","4","even","16958","NA","NA","130511","NA","NA","138209","137190","12662","NA","NA","138313","138674","138206","138313","12615","Flanker Task","58","29407.0","75","1024"
"77","77","391","391","#000000","legacy","legacy","legacy","congruent","1","undefined","1","s","0","0","0","75","75","0","75","75","0","0","0","75","75","75","75","0","Wed Sep 20 18:31:31 2023","1500","The main experiment item","False","Flanker Task.osexp","/Users/RMILLER1/Library/CloudStorage/OneDrive-tarleton.edu(NTNET)/TSU Online Classes/Graduate Class/ Adv Quant Methods and Design","False","mono","False","18","no","white","no","no","768","legacy","75","75","/Users/RMILLER1/Library/CloudStorage/OneDrive-tarleton.edu(NTNET)/TSU Online Classes/Graduate Class/ Adv Quant Methods and Design/RM-subject-4.csv","legacy","Melodramatic Milgram","4.0.5","0","s","NA","s","NA","NA","s","377.0","NA","4284","NA","NA","377","2","legacy","1024","2","48000","-16","experiment","SSSSS","4","even","16958","NA","NA","130511","NA","NA","139698","138677","12662","NA","NA","139801","140179","139694","139801","12615","Flanker Task","59","29784.0","76","1024"
"77","77","393","393","#000000","legacy","legacy","legacy","congruent","1","undefined","1","s","0","0","0","76","76","0","76","76","0","0","0","76","76","76","76","0","Wed Sep 20 18:31:31 2023","1500","The main experiment item","False","Flanker Task.osexp","/Users/RMILLER1/Library/CloudStorage/OneDrive-tarleton.edu(NTNET)/TSU Online Classes/Graduate Class/ Adv Quant Methods and Design","False","mono","False","18","no","white","no","no","768","legacy","76","76","/Users/RMILLER1/Library/CloudStorage/OneDrive-tarleton.edu(NTNET)/TSU Online Classes/Graduate Class/ Adv Quant Methods and Design/RM-subject-4.csv","legacy","Melodramatic Milgram","4.0.5","0","s","NA","s","NA","NA","s","524.0","NA","4284","NA","NA","524","2","legacy","1024","2","48000","-16","experiment","SSSSS","4","even","16958","NA","NA","130511","NA","NA","141197","140181","12662","NA","NA","141300","141825","141194","141300","12615","Flanker Task","60","30308.0","77","1024"
"78","78","396","396","#000000","legacy","legacy","legacy","incongruent","1","undefined","1","s","0","0","0","77","77","0","77","77","0","0","0","77","77","77","77","0","Wed Sep 20 18:31:31 2023","1500","The main experiment item","False","Flanker Task.osexp","/Users/RMILLER1/Library/CloudStorage/OneDrive-tarleton.edu(NTNET)/TSU Online Classes/Graduate Class/ Adv Quant Methods and Design","False","mono","False","18","no","white","no","no","768","legacy","77","77","/Users/RMILLER1/Library/CloudStorage/OneDrive-tarleton.edu(NTNET)/TSU Online Classes/Graduate Class/ Adv Quant Methods and Design/RM-subject-4.csv","legacy","Melodramatic Milgram","4.0.5","0","s","NA","s","NA","NA","s","580.0","NA","4284","NA","NA","580","2","legacy","1024","2","48000","-16","experiment","HHSHH","4","even","16958","NA","NA","130511","NA","NA","142848","141828","12662","NA","NA","142951","143533","142844","142950","12615","Flanker Task","61","30888.0","78","1024"
"78","78","396","396","#000000","legacy","legacy","legacy","congruent","1","undefined","1","h","0","0","0","78","78","0","78","78","0","0","0","78","78","78","78","0","Wed Sep 20 18:31:31 2023","1500","The main experiment item","False","Flanker Task.osexp","/Users/RMILLER1/Library/CloudStorage/OneDrive-tarleton.edu(NTNET)/TSU Online Classes/Graduate Class/ Adv Quant Methods and Design","False","mono","False","18","no","white","no","no","768","legacy","78","78","/Users/RMILLER1/Library/CloudStorage/OneDrive-tarleton.edu(NTNET)/TSU Online Classes/Graduate Class/ Adv Quant Methods and Design/RM-subject-4.csv","legacy","Melodramatic Milgram","4.0.5","0","h","NA","s","NA","NA","h","452.0","NA","4284","NA","NA","452","2","legacy","1024","2","48000","-16","experiment","HHHHH","4","even","16958","NA","NA","130511","NA","NA","144555","143536","12662","NA","NA","144657","145110","144551","144657","12615","Flanker Task","62","31340.0","79","1024"
"78","78","397","397","#000000","legacy","legacy","legacy","incongruent","1","undefined","1","s","0","0","0","79","79","0","79","79","0","0","0","79","79","79","79","0","Wed Sep 20 18:31:31 2023","1500","The main experiment item","False","Flanker Task.osexp","/Users/RMILLER1/Library/CloudStorage/OneDrive-tarleton.edu(NTNET)/TSU Online Classes/Graduate Class/ Adv Quant Methods and Design","False","mono","False","18","no","white","no","no","768","legacy","79","79","/Users/RMILLER1/Library/CloudStorage/OneDrive-tarleton.edu(NTNET)/TSU Online Classes/Graduate Class/ Adv Quant Methods and Design/RM-subject-4.csv","legacy","Melodramatic Milgram","4.0.5","0","s","NA","s","NA","NA","s","452.0","NA","4284","NA","NA","452","2","legacy","1024","2","48000","-16","experiment","HHSHH","4","even","16958","NA","NA","130511","NA","NA","146129","145113","12662","NA","NA","146231","146684","146126","146231","12615","Flanker Task","63","31792.0","80","1024"
"77","77","398","398","#000000","legacy","legacy","legacy","congruent","0","undefined","0","s","0","0","0","80","80","0","80","80","0","0","0","80","80","80","80","0","Wed Sep 20 18:31:31 2023","600","The main experiment item","False","Flanker Task.osexp","/Users/RMILLER1/Library/CloudStorage/OneDrive-tarleton.edu(NTNET)/TSU Online Classes/Graduate Class/ Adv Quant Methods and Design","False","mono","False","18","no","white","no","no","768","legacy","0","79","/Users/RMILLER1/Library/CloudStorage/OneDrive-tarleton.edu(NTNET)/TSU Online Classes/Graduate Class/ Adv Quant Methods and Design/RM-subject-4.csv","legacy","Melodramatic Milgram","4.0.5","0","h","NA","s","h","NA","h","489.0","NA","4284","1107","NA","489","2","legacy","1024","2","48000","-16","experiment","SSSSS","4","even","16958","148799","NA","130511","NA","NA","148816","146686","12662","147691","NA","148918","149407","148813","148918","12615","Flanker Task","63","32281.0","81","1024"
"76","76","398","398","#000000","legacy","legacy","legacy","incongruent","0","undefined","0","s","0","0","0","81","81","0","81","81","0","0","0","81","81","81","81","0","Wed Sep 20 18:31:31 2023","600","The main experiment item","False","Flanker Task.osexp","/Users/RMILLER1/Library/CloudStorage/OneDrive-tarleton.edu(NTNET)/TSU Online Classes/Graduate Class/ Adv Quant Methods and Design","False","mono","False","18","no","white","no","no","768","legacy","1","79","/Users/RMILLER1/Library/CloudStorage/OneDrive-tarleton.edu(NTNET)/TSU Online Classes/Graduate Class/ Adv Quant Methods and Design/RM-subject-4.csv","legacy","Melodramatic Milgram","4.0.5","0","h","NA","s","h","NA","h","375.0","NA","4284","1107","NA","375","2","legacy","1024","2","48000","-16","experiment","HHSHH","4","even","16958","148799","NA","149410","NA","NA","150943","149913","12662","147691","NA","151045","151421","150936","151045","12615","Flanker Task","63","32656.0","82","1024"
"77","77","397","397","#000000","legacy","legacy","legacy","congruent","1","undefined","1","s","0","0","0","82","82","0","82","82","0","0","0","82","82","82","82","0","Wed Sep 20 18:31:31 2023","600","The main experiment item","False","Flanker Task.osexp","/Users/RMILLER1/Library/CloudStorage/OneDrive-tarleton.edu(NTNET)/TSU Online Classes/Graduate Class/ Adv Quant Methods and Design","False","mono","False","18","no","white","no","no","768","legacy","2","79","/Users/RMILLER1/Library/CloudStorage/OneDrive-tarleton.edu(NTNET)/TSU Online Classes/Graduate Class/ Adv Quant Methods and Design/RM-subject-4.csv","legacy","Melodramatic Milgram","4.0.5","0","s","NA","s","h","NA","s","375.0","NA","4284","1107","NA","375","2","legacy","1024","2","48000","-16","experiment","SSSSS","4","even","16958","148799","NA","151424","NA","NA","152955","151927","12662","147691","NA","153057","153433","152951","153057","12615","Flanker Task","64","33031.0","83","1024"
"76","76","398","398","#000000","legacy","legacy","legacy","incongruent","0","undefined","0","s","0","0","0","83","83","0","83","83","0","0","0","83","83","83","83","0","Wed Sep 20 18:31:31 2023","600","The main experiment item","False","Flanker Task.osexp","/Users/RMILLER1/Library/CloudStorage/OneDrive-tarleton.edu(NTNET)/TSU Online Classes/Graduate Class/ Adv Quant Methods and Design","False","mono","False","18","no","white","no","no","768","legacy","3","79","/Users/RMILLER1/Library/CloudStorage/OneDrive-tarleton.edu(NTNET)/TSU Online Classes/Graduate Class/ Adv Quant Methods and Design/RM-subject-4.csv","legacy","Melodramatic Milgram","4.0.5","0","h","NA","s","h","NA","h","401.0","NA","4284","1107","NA","401","2","legacy","1024","2","48000","-16","experiment","HHSHH","4","even","16958","148799","NA","151424","NA","NA","154458","153436","12662","147691","NA","154562","154964","154454","154561","12615","Flanker Task","64","33432.0","84","1024"
"76","76","398","398","#000000","legacy","legacy","legacy","incongruent","1","undefined","1","s","0","0","0","84","84","0","84","84","0","0","0","84","84","84","84","0","Wed Sep 20 18:31:31 2023","600","The main experiment item","False","Flanker Task.osexp","/Users/RMILLER1/Library/CloudStorage/OneDrive-tarleton.edu(NTNET)/TSU Online Classes/Graduate Class/ Adv Quant Methods and Design","False","mono","False","18","no","white","no","no","768","legacy","4","79","/Users/RMILLER1/Library/CloudStorage/OneDrive-tarleton.edu(NTNET)/TSU Online Classes/Graduate Class/ Adv Quant Methods and Design/RM-subject-4.csv","legacy","Melodramatic Milgram","4.0.5","0","s","NA","s","h","NA","s","443.0","NA","4284","1107","NA","443","2","legacy","1024","2","48000","-16","experiment","HHSHH","4","even","16958","148799","NA","154967","NA","NA","156487","155470","12662","147691","NA","156590","157034","156484","156590","12615","Flanker Task","65","33875.0","85","1024"
"76","76","398","398","#000000","legacy","legacy","legacy","congruent","1","undefined","1","h","0","0","0","85","85","0","85","85","0","0","0","85","85","85","85","0","Wed Sep 20 18:31:31 2023","600","The main experiment item","False","Flanker Task.osexp","/Users/RMILLER1/Library/CloudStorage/OneDrive-tarleton.edu(NTNET)/TSU Online Classes/Graduate Class/ Adv Quant Methods and Design","False","mono","False","18","no","white","no","no","768","legacy","5","79","/Users/RMILLER1/Library/CloudStorage/OneDrive-tarleton.edu(NTNET)/TSU Online Classes/Graduate Class/ Adv Quant Methods and Design/RM-subject-4.csv","legacy","Melodramatic Milgram","4.0.5","0","h","NA","s","h","NA","h","395.0","NA","4284","1107","NA","395","2","legacy","1024","2","48000","-16","experiment","HHHHH","4","even","16958","148799","NA","154967","NA","NA","158063","157037","12662","147691","NA","158166","158561","158059","158166","12615","Flanker Task","66","34270.0","86","1024"
"77","77","398","398","#000000","legacy","legacy","legacy","incongruent","1","undefined","1","h","0","0","0","86","86","0","86","86","0","0","0","86","86","86","86","0","Wed Sep 20 18:31:31 2023","600","The main experiment item","False","Flanker Task.osexp","/Users/RMILLER1/Library/CloudStorage/OneDrive-tarleton.edu(NTNET)/TSU Online Classes/Graduate Class/ Adv Quant Methods and Design","False","mono","False","18","no","white","no","no","768","legacy","6","79","/Users/RMILLER1/Library/CloudStorage/OneDrive-tarleton.edu(NTNET)/TSU Online Classes/Graduate Class/ Adv Quant Methods and Design/RM-subject-4.csv","legacy","Melodramatic Milgram","4.0.5","0","h","NA","s","h","NA","h","373.0","NA","4284","1107","NA","373","2","legacy","1024","2","48000","-16","experiment","SSHSS","4","even","16958","148799","NA","154967","NA","NA","159593","158564","12662","147691","NA","159697","160071","159589","159697","12615","Flanker Task","67","34643.0","87","1024"
"77","77","397","397","#000000","legacy","legacy","legacy","congruent","1","undefined","1","h","0","0","0","87","87","0","87","87","0","0","0","87","87","87","87","0","Wed Sep 20 18:31:31 2023","600","The main experiment item","False","Flanker Task.osexp","/Users/RMILLER1/Library/CloudStorage/OneDrive-tarleton.edu(NTNET)/TSU Online Classes/Graduate Class/ Adv Quant Methods and Design","False","mono","False","18","no","white","no","no","768","legacy","7","79","/Users/RMILLER1/Library/CloudStorage/OneDrive-tarleton.edu(NTNET)/TSU Online Classes/Graduate Class/ Adv Quant Methods and Design/RM-subject-4.csv","legacy","Melodramatic Milgram","4.0.5","0","h","NA","s","h","NA","h","325.0","NA","4284","1107","NA","325","2","legacy","1024","2","48000","-16","experiment","HHHHH","4","even","16958","148799","NA","154967","NA","NA","161103","160074","12662","147691","NA","161207","161532","161097","161207","12615","Flanker Task","68","34968.0","88","1024"
"77","77","398","398","#000000","legacy","legacy","legacy","congruent","1","undefined","1","s","0","0","0","88","88","0","88","88","0","0","0","88","88","88","88","0","Wed Sep 20 18:31:31 2023","600","The main experiment item","False","Flanker Task.osexp","/Users/RMILLER1/Library/CloudStorage/OneDrive-tarleton.edu(NTNET)/TSU Online Classes/Graduate Class/ Adv Quant Methods and Design","False","mono","False","18","no","white","no","no","768","legacy","8","79","/Users/RMILLER1/Library/CloudStorage/OneDrive-tarleton.edu(NTNET)/TSU Online Classes/Graduate Class/ Adv Quant Methods and Design/RM-subject-4.csv","legacy","Melodramatic Milgram","4.0.5","0","s","NA","s","h","NA","s","517.0","NA","4284","1107","NA","517","2","legacy","1024","2","48000","-16","experiment","SSSSS","4","even","16958","148799","NA","154967","NA","NA","162559","161536","12662","147691","NA","162661","163179","162555","162661","12615","Flanker Task","69","35485.0","89","1024"
"77","77","398","398","#000000","legacy","legacy","legacy","congruent","1","undefined","1","s","0","0","0","89","89","0","89","89","0","0","0","89","89","89","89","0","Wed Sep 20 18:31:31 2023","600","The main experiment item","False","Flanker Task.osexp","/Users/RMILLER1/Library/CloudStorage/OneDrive-tarleton.edu(NTNET)/TSU Online Classes/Graduate Class/ Adv Quant Methods and Design","False","mono","False","18","no","white","no","no","768","legacy","9","79","/Users/RMILLER1/Library/CloudStorage/OneDrive-tarleton.edu(NTNET)/TSU Online Classes/Graduate Class/ Adv Quant Methods and Design/RM-subject-4.csv","legacy","Melodramatic Milgram","4.0.5","0","s","NA","s","h","NA","s","352.0","NA","4284","1107","NA","352","2","legacy","1024","2","48000","-16","experiment","SSSSS","4","even","16958","148799","NA","154967","NA","NA","164205","163182","12662","147691","NA","164308","164661","164201","164308","12615","Flanker Task","70","35837.0","90","1024"
"76","76","398","398","#000000","legacy","legacy","legacy","incongruent","0","undefined","0","s","0","0","0","90","90","0","90","90","0","0","0","90","90","90","90","0","Wed Sep 20 18:31:31 2023","600","The main experiment item","False","Flanker Task.osexp","/Users/RMILLER1/Library/CloudStorage/OneDrive-tarleton.edu(NTNET)/TSU Online Classes/Graduate Class/ Adv Quant Methods and Design","False","mono","False","18","no","white","no","no","768","legacy","10","79","/Users/RMILLER1/Library/CloudStorage/OneDrive-tarleton.edu(NTNET)/TSU Online Classes/Graduate Class/ Adv Quant Methods and Design/RM-subject-4.csv","legacy","Melodramatic Milgram","4.0.5","0","h","NA","s","h","NA","h","399.0","NA","4284","1107","NA","399","2","legacy","1024","2","48000","-16","experiment","HHSHH","4","even","16958","148799","NA","154967","NA","NA","165686","164663","12662","147691","NA","165794","166194","165683","165794","12615","Flanker Task","70","36236.0","91","1024"
"76","76","397","397","#000000","legacy","legacy","legacy","incongruent","0","undefined","0","h","0","0","0","91","91","0","91","91","0","0","0","91","91","91","91","0","Wed Sep 20 18:31:31 2023","600","The main experiment item","False","Flanker Task.osexp","/Users/RMILLER1/Library/CloudStorage/OneDrive-tarleton.edu(NTNET)/TSU Online Classes/Graduate Class/ Adv Quant Methods and Design","False","mono","False","18","no","white","no","no","768","legacy","11","79","/Users/RMILLER1/Library/CloudStorage/OneDrive-tarleton.edu(NTNET)/TSU Online Classes/Graduate Class/ Adv Quant Methods and Design/RM-subject-4.csv","legacy","Melodramatic Milgram","4.0.5","0","s","NA","s","h","NA","s","319.0","NA","4284","1107","NA","319","2","legacy","1024","2","48000","-16","experiment","SSHSS","4","even","16958","148799","NA","166198","NA","NA","167727","166701","12662","147691","NA","167829","168149","167724","167829","12615","Flanker Task","70","36555.0","92","1024"
"76","76","397","397","#000000","legacy","legacy","legacy","incongruent","1","undefined","1","h","0","0","0","92","92","0","92","92","0","0","0","92","92","92","92","0","Wed Sep 20 18:31:31 2023","600","The main experiment item","False","Flanker Task.osexp","/Users/RMILLER1/Library/CloudStorage/OneDrive-tarleton.edu(NTNET)/TSU Online Classes/Graduate Class/ Adv Quant Methods and Design","False","mono","False","18","no","white","no","no","768","legacy","12","79","/Users/RMILLER1/Library/CloudStorage/OneDrive-tarleton.edu(NTNET)/TSU Online Classes/Graduate Class/ Adv Quant Methods and Design/RM-subject-4.csv","legacy","Melodramatic Milgram","4.0.5","0","h","NA","s","h","NA","h","371.0","NA","4284","1107","NA","371","2","legacy","1024","2","48000","-16","experiment","SSHSS","4","even","16958","148799","NA","168153","NA","NA","169677","168656","12662","147691","NA","169779","170151","169674","169779","12615","Flanker Task","71","36926.0","93","1024"
"76","76","398","398","#000000","legacy","legacy","legacy","incongruent","1","undefined","1","h","0","0","0","93","93","0","93","93","0","0","0","93","93","93","93","0","Wed Sep 20 18:31:31 2023","600","The main experiment item","False","Flanker Task.osexp","/Users/RMILLER1/Library/CloudStorage/OneDrive-tarleton.edu(NTNET)/TSU Online Classes/Graduate Class/ Adv Quant Methods and Design","False","mono","False","18","no","white","no","no","768","legacy","13","79","/Users/RMILLER1/Library/CloudStorage/OneDrive-tarleton.edu(NTNET)/TSU Online Classes/Graduate Class/ Adv Quant Methods and Design/RM-subject-4.csv","legacy","Melodramatic Milgram","4.0.5","0","h","NA","s","h","NA","h","537.0","NA","4284","1107","NA","537","2","legacy","1024","2","48000","-16","experiment","SSHSS","4","even","16958","148799","NA","168153","NA","NA","171176","170154","12662","147691","NA","171279","171817","171170","171279","12615","Flanker Task","72","37463.0","94","1024"
"76","76","398","398","#000000","legacy","legacy","legacy","incongruent","1","undefined","1","h","0","0","0","94","94","0","94","94","0","0","0","94","94","94","94","0","Wed Sep 20 18:31:31 2023","600","The main experiment item","False","Flanker Task.osexp","/Users/RMILLER1/Library/CloudStorage/OneDrive-tarleton.edu(NTNET)/TSU Online Classes/Graduate Class/ Adv Quant Methods and Design","False","mono","False","18","no","white","no","no","768","legacy","14","79","/Users/RMILLER1/Library/CloudStorage/OneDrive-tarleton.edu(NTNET)/TSU Online Classes/Graduate Class/ Adv Quant Methods and Design/RM-subject-4.csv","legacy","Melodramatic Milgram","4.0.5","0","h","NA","s","h","NA","h","400.0","NA","4284","1107","NA","400","2","legacy","1024","2","48000","-16","experiment","SSHSS","4","even","16958","148799","NA","168153","NA","NA","172843","171819","12662","147691","NA","172945","173346","172836","172945","12615","Flanker Task","73","37863.0","95","1024"
"77","77","398","398","#000000","legacy","legacy","legacy","congruent","1","undefined","1","s","0","0","0","95","95","0","95","95","0","0","0","95","95","95","95","0","Wed Sep 20 18:31:31 2023","600","The main experiment item","False","Flanker Task.osexp","/Users/RMILLER1/Library/CloudStorage/OneDrive-tarleton.edu(NTNET)/TSU Online Classes/Graduate Class/ Adv Quant Methods and Design","False","mono","False","18","no","white","no","no","768","legacy","15","79","/Users/RMILLER1/Library/CloudStorage/OneDrive-tarleton.edu(NTNET)/TSU Online Classes/Graduate Class/ Adv Quant Methods and Design/RM-subject-4.csv","legacy","Melodramatic Milgram","4.0.5","0","s","NA","s","h","NA","s","377.0","NA","4284","1107","NA","377","2","legacy","1024","2","48000","-16","experiment","SSSSS","4","even","16958","148799","NA","168153","NA","NA","174375","173349","12662","147691","NA","174477","174855","174371","174477","12615","Flanker Task","74","38240.0","96","1024"
"76","76","397","397","#000000","legacy","legacy","legacy","incongruent","0","undefined","0","s","0","0","0","96","96","0","96","96","0","0","0","96","96","96","96","0","Wed Sep 20 18:31:31 2023","600","The main experiment item","False","Flanker Task.osexp","/Users/RMILLER1/Library/CloudStorage/OneDrive-tarleton.edu(NTNET)/TSU Online Classes/Graduate Class/ Adv Quant Methods and Design","False","mono","False","18","no","white","no","no","768","legacy","16","79","/Users/RMILLER1/Library/CloudStorage/OneDrive-tarleton.edu(NTNET)/TSU Online Classes/Graduate Class/ Adv Quant Methods and Design/RM-subject-4.csv","legacy","Melodramatic Milgram","4.0.5","0","h","NA","s","h","NA","h","364.0","NA","4284","1107","NA","364","2","legacy","1024","2","48000","-16","experiment","HHSHH","4","even","16958","148799","NA","168153","NA","NA","175874","174857","12662","147691","NA","175977","176342","175871","175977","12615","Flanker Task","74","38604.0","97","1024"
"76","76","397","397","#000000","legacy","legacy","legacy","congruent","1","undefined","1","h","0","0","0","97","97","0","97","97","0","0","0","97","97","97","97","0","Wed Sep 20 18:31:31 2023","600","The main experiment item","False","Flanker Task.osexp","/Users/RMILLER1/Library/CloudStorage/OneDrive-tarleton.edu(NTNET)/TSU Online Classes/Graduate Class/ Adv Quant Methods and Design","False","mono","False","18","no","white","no","no","768","legacy","17","79","/Users/RMILLER1/Library/CloudStorage/OneDrive-tarleton.edu(NTNET)/TSU Online Classes/Graduate Class/ Adv Quant Methods and Design/RM-subject-4.csv","legacy","Melodramatic Milgram","4.0.5","0","h","NA","s","h","NA","h","369.0","NA","4284","1107","NA","369","2","legacy","1024","2","48000","-16","experiment","HHHHH","4","even","16958","148799","NA","176345","NA","NA","177871","176848","12662","147691","NA","177974","178344","177868","177974","12615","Flanker Task","75","38973.0","98","1024"
"75","75","396","396","#000000","legacy","legacy","legacy","incongruent","0","undefined","0","s","0","0","0","98","98","0","98","98","0","0","0","98","98","98","98","0","Wed Sep 20 18:31:31 2023","600","The main experiment item","False","Flanker Task.osexp","/Users/RMILLER1/Library/CloudStorage/OneDrive-tarleton.edu(NTNET)/TSU Online Classes/Graduate Class/ Adv Quant Methods and Design","False","mono","False","18","no","white","no","no","768","legacy","18","79","/Users/RMILLER1/Library/CloudStorage/OneDrive-tarleton.edu(NTNET)/TSU Online Classes/Graduate Class/ Adv Quant Methods and Design/RM-subject-4.csv","legacy","Melodramatic Milgram","4.0.5","0","h","NA","s","h","NA","h","284.0","NA","4284","1107","NA","284","2","legacy","1024","2","48000","-16","experiment","HHSHH","4","even","16958","148799","NA","176345","NA","NA","179370","178347","12662","147691","NA","179473","179758","179365","179473","12615","Flanker Task","75","39257.0","99","1024"
"75","75","395","395","#000000","legacy","legacy","legacy","congruent","0","undefined","0","s","0","0","0","99","99","0","99","99","0","0","0","99","99","99","99","0","Wed Sep 20 18:31:31 2023","600","The main experiment item","False","Flanker Task.osexp","/Users/RMILLER1/Library/CloudStorage/OneDrive-tarleton.edu(NTNET)/TSU Online Classes/Graduate Class/ Adv Quant Methods and Design","False","mono","False","18","no","white","no","no","768","legacy","19","79","/Users/RMILLER1/Library/CloudStorage/OneDrive-tarleton.edu(NTNET)/TSU Online Classes/Graduate Class/ Adv Quant Methods and Design/RM-subject-4.csv","legacy","Melodramatic Milgram","4.0.5","0","h","NA","s","h","NA","h","281.0","NA","4284","1107","NA","281","2","legacy","1024","2","48000","-16","experiment","SSSSS","4","even","16958","148799","NA","179760","NA","NA","181283","180263","12662","147691","NA","181389","181671","181281","181389","12615","Flanker Task","75","39538.0","100","1024"
"75","75","395","395","#000000","legacy","legacy","legacy","congruent","1","undefined","1","h","0","0","0","100","100","0","100","100","0","0","0","100","100","100","100","0","Wed Sep 20 18:31:31 2023","600","The main experiment item","False","Flanker Task.osexp","/Users/RMILLER1/Library/CloudStorage/OneDrive-tarleton.edu(NTNET)/TSU Online Classes/Graduate Class/ Adv Quant Methods and Design","False","mono","False","18","no","white","no","no","768","legacy","20","79","/Users/RMILLER1/Library/CloudStorage/OneDrive-tarleton.edu(NTNET)/TSU Online Classes/Graduate Class/ Adv Quant Methods and Design/RM-subject-4.csv","legacy","Melodramatic Milgram","4.0.5","0","h","NA","s","h","NA","h","413.0","NA","4284","1107","NA","413","2","legacy","1024","2","48000","-16","experiment","HHHHH","4","even","16958","148799","NA","181673","NA","NA","183204","182177","12662","147691","NA","183307","183721","183200","183307","12615","Flanker Task","76","39951.0","101","1024"
"75","75","395","395","#000000","legacy","legacy","legacy","incongruent","1","undefined","1","h","0","0","0","101","101","0","101","101","0","0","0","101","101","101","101","0","Wed Sep 20 18:31:31 2023","600","The main experiment item","False","Flanker Task.osexp","/Users/RMILLER1/Library/CloudStorage/OneDrive-tarleton.edu(NTNET)/TSU Online Classes/Graduate Class/ Adv Quant Methods and Design","False","mono","False","18","no","white","no","no","768","legacy","21","79","/Users/RMILLER1/Library/CloudStorage/OneDrive-tarleton.edu(NTNET)/TSU Online Classes/Graduate Class/ Adv Quant Methods and Design/RM-subject-4.csv","legacy","Melodramatic Milgram","4.0.5","0","h","NA","s","h","NA","h","440.0","NA","4284","1107","NA","440","2","legacy","1024","2","48000","-16","experiment","SSHSS","4","even","16958","148799","NA","181673","NA","NA","184748","183724","12662","147691","NA","184853","185294","184744","184853","12615","Flanker Task","77","40391.0","102","1024"
"75","75","395","395","#000000","legacy","legacy","legacy","incongruent","1","undefined","1","s","0","0","0","102","102","0","102","102","0","0","0","102","102","102","102","0","Wed Sep 20 18:31:31 2023","600","The main experiment item","False","Flanker Task.osexp","/Users/RMILLER1/Library/CloudStorage/OneDrive-tarleton.edu(NTNET)/TSU Online Classes/Graduate Class/ Adv Quant Methods and Design","False","mono","False","18","no","white","no","no","768","legacy","22","79","/Users/RMILLER1/Library/CloudStorage/OneDrive-tarleton.edu(NTNET)/TSU Online Classes/Graduate Class/ Adv Quant Methods and Design/RM-subject-4.csv","legacy","Melodramatic Milgram","4.0.5","0","s","NA","s","h","NA","s","324.0","NA","4284","1107","NA","324","2","legacy","1024","2","48000","-16","experiment","HHSHH","4","even","16958","148799","NA","181673","NA","NA","186307","185297","12662","147691","NA","186410","186735","186304","186409","12615","Flanker Task","78","40715.0","103","1024"
