acc,accuracy,average_response_time,avg_rt,background,canvas_backend,clock_backend,color_backend,compensation,condition,coordinates,correct,correct_Instructions1,correct_keyboard_response,correct_response,count_Faster,count_ISI,count_Instructions1,count_Instructions2,count_Instructions3,count_Stimulus,count_block1,count_block2,count_block3,count_errorFeedback,count_experiment,count_finish,count_fixation,count_keyboard_response,count_new_logger,count_sequence,datetime,deadline,description,disable_garbage_collection,experiment_file,experiment_path,font_bold,font_family,font_italic,font_size,font_underline,foreground,form_clicks,fullscreen,height,keyboard_backend,live_row,live_row_block1,logfile,mouse_backend,opensesame_codename,opensesame_version,repeat_cycle,response,response_Instructions1,response_Instructions2,response_Instructions3,response_finish,response_keyboard_response,response_time,response_time_Instructions1,response_time_Instructions2,response_time_Instructions3,response_time_finish,response_time_keyboard_response,round_decimals,sampler_backend,sound_buf_size,sound_channels,sound_freq,sound_sample_size,start,stimulus,subject_nr,subject_parity,time_Faster,time_ISI,time_Instructions1,time_Instructions2,time_Instructions3,time_Stimulus,time_block1,time_block2,time_block3,time_errorFeedback,time_experiment,time_finish,time_fixation,time_keyboard_response,time_new_logger,time_sequence,title,total_correct,total_response_time,total_responses,uniform_coordinates,width
0,0,1500,1500,black,legacy,legacy,legacy,0,incongruent,uniform,0,undefined,0,s,0,0,0,0,0,0,0,0,0,0,0,0,0,0,0,0,9/28/19 21:54,1500,The main experiment item,yes,FlankerTask.osexp,C:\Users\Jeanette\Desktop\Jeanette Master's\AQM&ED,no,mono,no,18,no,white,no,yes,768,legacy,0,0,C:/Users/Jeanette/Desktop/Jeanette Master's/AQM&ED/jh-subject-3.csv,legacy,Kafkaesque Koffka,3.2.8,0,None,space,NA,NA,NA,None,1500,17810,NA,NA,NA,1500,2,legacy,1024,2,48000,-16,experiment,HHSHH,3,odd,NA,NA,7637,NA,NA,25773,25447,NA,NA,NA,7634,NA,25667,25773,27273,25665,Flanker Task,0,1500,1,yes,1024
50,50,1046.5,1046.5,black,legacy,legacy,legacy,0,congruent,uniform,1,undefined,1,s,1,1,0,0,0,1,0,0,0,1,0,0,1,1,1,1,9/28/19 21:54,1500,The main experiment item,yes,FlankerTask.osexp,C:\Users\Jeanette\Desktop\Jeanette Master's\AQM&ED,no,mono,no,18,no,white,no,yes,768,legacy,1,1,C:/Users/Jeanette/Desktop/Jeanette Master's/AQM&ED/jh-subject-3.csv,legacy,Kafkaesque Koffka,3.2.8,0,s,space,NA,NA,NA,s,593,17810,NA,NA,NA,593,2,legacy,1024,2,48000,-16,experiment,SSSSS,3,odd,NA,27878,7637,NA,NA,29094,25447,NA,NA,27372,7634,NA,28988,29094,29687,28985,Flanker Task,1,2093,2,yes,1024
66.66666667,66.66666667,900.6666667,900.6666667,black,legacy,legacy,legacy,0,incongruent,uniform,1,undefined,1,s,2,2,0,0,0,2,0,0,0,2,0,0,2,2,2,2,9/28/19 21:54,1500,The main experiment item,yes,FlankerTask.osexp,C:\Users\Jeanette\Desktop\Jeanette Master's\AQM&ED,no,mono,no,18,no,white,no,yes,768,legacy,2,2,C:/Users/Jeanette/Desktop/Jeanette Master's/AQM&ED/jh-subject-3.csv,legacy,Kafkaesque Koffka,3.2.8,0,s,space,NA,NA,NA,s,609,17810,NA,NA,NA,609,2,legacy,1024,2,48000,-16,experiment,HHSHH,3,odd,NA,29711,7637,NA,NA,30926,25447,NA,NA,27372,7634,NA,30821,30926,31535,30818,Flanker Task,2,2702,3,yes,1024
75,75,774.25,774.25,black,legacy,legacy,legacy,0,congruent,uniform,1,undefined,1,h,3,3,0,0,0,3,0,0,0,3,0,0,3,3,3,3,9/28/19 21:54,1500,The main experiment item,yes,FlankerTask.osexp,C:\Users\Jeanette\Desktop\Jeanette Master's\AQM&ED,no,mono,no,18,no,white,no,yes,768,legacy,3,3,C:/Users/Jeanette/Desktop/Jeanette Master's/AQM&ED/jh-subject-3.csv,legacy,Kafkaesque Koffka,3.2.8,0,h,space,NA,NA,NA,h,395,17810,NA,NA,NA,395,2,legacy,1024,2,48000,-16,experiment,HHHHH,3,odd,NA,31553,7637,NA,NA,32747,25447,NA,NA,27372,7634,NA,32642,32747,33143,32639,Flanker Task,3,3097,4,yes,1024
80,80,724,724,black,legacy,legacy,legacy,0,congruent,uniform,1,undefined,1,h,4,4,0,0,0,4,0,0,0,4,0,0,4,4,4,4,9/28/19 21:54,1500,The main experiment item,yes,FlankerTask.osexp,C:\Users\Jeanette\Desktop\Jeanette Master's\AQM&ED,no,mono,no,18,no,white,no,yes,768,legacy,4,4,C:/Users/Jeanette/Desktop/Jeanette Master's/AQM&ED/jh-subject-3.csv,legacy,Kafkaesque Koffka,3.2.8,0,h,space,NA,NA,NA,h,523,17810,NA,NA,NA,523,2,legacy,1024,2,48000,-16,experiment,HHHHH,3,odd,NA,33161,7637,NA,NA,34363,25447,NA,NA,27372,7634,NA,34258,34363,34887,34255,Flanker Task,4,3620,5,yes,1024
83.33333333,83.33333333,693.6666667,693.6666667,black,legacy,legacy,legacy,0,incongruent,uniform,1,undefined,1,s,5,5,0,0,0,5,0,0,0,5,0,0,5,5,5,5,9/28/19 21:54,1500,The main experiment item,yes,FlankerTask.osexp,C:\Users\Jeanette\Desktop\Jeanette Master's\AQM&ED,no,mono,no,18,no,white,no,yes,768,legacy,5,5,C:/Users/Jeanette/Desktop/Jeanette Master's/AQM&ED/jh-subject-3.csv,legacy,Kafkaesque Koffka,3.2.8,0,s,space,NA,NA,NA,s,542,17810,NA,NA,NA,542,2,legacy,1024,2,48000,-16,experiment,HHSHH,3,odd,NA,34910,7637,NA,NA,36097,25447,NA,NA,27372,7634,NA,35992,36097,36639,35989,Flanker Task,5,4162,6,yes,1024
85.71428571,85.71428571,651,651,black,legacy,legacy,legacy,0,congruent,uniform,1,undefined,1,s,6,6,0,0,0,6,0,0,0,6,0,0,6,6,6,6,9/28/19 21:54,1500,The main experiment item,yes,FlankerTask.osexp,C:\Users\Jeanette\Desktop\Jeanette Master's\AQM&ED,no,mono,no,18,no,white,no,yes,768,legacy,6,6,C:/Users/Jeanette/Desktop/Jeanette Master's/AQM&ED/jh-subject-3.csv,legacy,Kafkaesque Koffka,3.2.8,0,s,space,NA,NA,NA,s,395,17810,NA,NA,NA,395,2,legacy,1024,2,48000,-16,experiment,SSSSS,3,odd,NA,36657,7637,NA,NA,37892,25447,NA,NA,27372,7634,NA,37787,37892,38287,37784,Flanker Task,6,4557,7,yes,1024
87.5,87.5,627.875,627.875,black,legacy,legacy,legacy,0,congruent,uniform,1,undefined,1,h,7,7,0,0,0,7,0,0,0,7,0,0,7,7,7,7,9/28/19 21:54,1500,The main experiment item,yes,FlankerTask.osexp,C:\Users\Jeanette\Desktop\Jeanette Master's\AQM&ED,no,mono,no,18,no,white,no,yes,768,legacy,7,7,C:/Users/Jeanette/Desktop/Jeanette Master's/AQM&ED/jh-subject-3.csv,legacy,Kafkaesque Koffka,3.2.8,0,h,space,NA,NA,NA,h,466,17810,NA,NA,NA,466,2,legacy,1024,2,48000,-16,experiment,HHHHH,3,odd,NA,38311,7637,NA,NA,39524,25447,NA,NA,27372,7634,NA,39419,39524,39991,39416,Flanker Task,7,5023,8,yes,1024
88.88888889,88.88888889,606.4444444,606.4444444,black,legacy,legacy,legacy,0,incongruent,uniform,1,undefined,1,s,8,8,0,0,0,8,0,0,0,8,0,0,8,8,8,8,9/28/19 21:54,1500,The main experiment item,yes,FlankerTask.osexp,C:\Users\Jeanette\Desktop\Jeanette Master's\AQM&ED,no,mono,no,18,no,white,no,yes,768,legacy,8,8,C:/Users/Jeanette/Desktop/Jeanette Master's/AQM&ED/jh-subject-3.csv,legacy,Kafkaesque Koffka,3.2.8,0,s,space,NA,NA,NA,s,435,17810,NA,NA,NA,435,2,legacy,1024,2,48000,-16,experiment,HHSHH,3,odd,NA,40019,7637,NA,NA,41244,25447,NA,NA,27372,7634,NA,41139,41244,41679,41136,Flanker Task,8,5458,9,yes,1024
90,90,601.4,601.4,black,legacy,legacy,legacy,0,incongruent,uniform,1,undefined,1,h,9,9,0,0,0,9,0,0,0,9,0,0,9,9,9,9,9/28/19 21:54,1500,The main experiment item,yes,FlankerTask.osexp,C:\Users\Jeanette\Desktop\Jeanette Master's\AQM&ED,no,mono,no,18,no,white,no,yes,768,legacy,9,9,C:/Users/Jeanette/Desktop/Jeanette Master's/AQM&ED/jh-subject-3.csv,legacy,Kafkaesque Koffka,3.2.8,0,h,space,NA,NA,NA,h,556,17810,NA,NA,NA,556,2,legacy,1024,2,48000,-16,experiment,SSHSS,3,odd,NA,41692,7637,NA,NA,42899,25447,NA,NA,27372,7634,NA,42794,42899,43455,42791,Flanker Task,9,6014,10,yes,1024
90.90909091,90.90909091,609.6363636,609.6363636,black,legacy,legacy,legacy,0,incongruent,uniform,1,undefined,1,h,10,10,0,0,0,10,0,0,0,10,0,0,10,10,10,10,9/28/19 21:54,1500,The main experiment item,yes,FlankerTask.osexp,C:\Users\Jeanette\Desktop\Jeanette Master's\AQM&ED,no,mono,no,18,no,white,no,yes,768,legacy,10,10,C:/Users/Jeanette/Desktop/Jeanette Master's/AQM&ED/jh-subject-3.csv,legacy,Kafkaesque Koffka,3.2.8,0,h,space,NA,NA,NA,h,692,17810,NA,NA,NA,692,2,legacy,1024,2,48000,-16,experiment,SSHSS,3,odd,NA,43495,7637,NA,NA,44715,25447,NA,NA,27372,7634,NA,44610,44715,45407,44607,Flanker Task,10,6706,11,yes,1024
91.66666667,91.66666667,595.5,595.5,black,legacy,legacy,legacy,0,congruent,uniform,1,undefined,1,s,11,11,0,0,0,11,0,0,0,11,0,0,11,11,11,11,9/28/19 21:54,1500,The main experiment item,yes,FlankerTask.osexp,C:\Users\Jeanette\Desktop\Jeanette Master's\AQM&ED,no,mono,no,18,no,white,no,yes,768,legacy,11,11,C:/Users/Jeanette/Desktop/Jeanette Master's/AQM&ED/jh-subject-3.csv,legacy,Kafkaesque Koffka,3.2.8,0,s,space,NA,NA,NA,s,440,17810,NA,NA,NA,440,2,legacy,1024,2,48000,-16,experiment,SSSSS,3,odd,NA,45436,7637,NA,NA,46639,25447,NA,NA,27372,7634,NA,46534,46639,47079,46531,Flanker Task,11,7146,12,yes,1024
92.30769231,92.30769231,585.8461538,585.8461538,black,legacy,legacy,legacy,0,congruent,uniform,1,undefined,1,h,12,12,0,0,0,12,0,0,0,12,0,0,12,12,12,12,9/28/19 21:54,1500,The main experiment item,yes,FlankerTask.osexp,C:\Users\Jeanette\Desktop\Jeanette Master's\AQM&ED,no,mono,no,18,no,white,no,yes,768,legacy,12,12,C:/Users/Jeanette/Desktop/Jeanette Master's/AQM&ED/jh-subject-3.csv,legacy,Kafkaesque Koffka,3.2.8,0,h,space,NA,NA,NA,h,470,17810,NA,NA,NA,470,2,legacy,1024,2,48000,-16,experiment,HHHHH,3,odd,NA,47103,7637,NA,NA,48321,25447,NA,NA,27372,7634,NA,48216,48321,48791,48213,Flanker Task,12,7616,13,yes,1024
85.71428571,85.71428571,573.8571429,573.8571429,black,legacy,legacy,legacy,0,incongruent,uniform,0,undefined,0,h,13,13,0,0,0,13,0,0,0,13,0,0,13,13,13,13,9/28/19 21:54,1500,The main experiment item,yes,FlankerTask.osexp,C:\Users\Jeanette\Desktop\Jeanette Master's\AQM&ED,no,mono,no,18,no,white,no,yes,768,legacy,13,13,C:/Users/Jeanette/Desktop/Jeanette Master's/AQM&ED/jh-subject-3.csv,legacy,Kafkaesque Koffka,3.2.8,0,s,space,NA,NA,NA,s,418,17810,NA,NA,NA,418,2,legacy,1024,2,48000,-16,experiment,SSHSS,3,odd,NA,48809,7637,NA,NA,50012,25447,NA,NA,27372,7634,NA,49907,50012,50431,49904,Flanker Task,12,8034,14,yes,1024
86.66666667,86.66666667,574.6,574.6,black,legacy,legacy,legacy,0,congruent,uniform,1,undefined,1,h,14,14,0,0,0,14,0,0,0,14,0,0,14,14,14,14,9/28/19 21:54,1500,The main experiment item,yes,FlankerTask.osexp,C:\Users\Jeanette\Desktop\Jeanette Master's\AQM&ED,no,mono,no,18,no,white,no,yes,768,legacy,14,14,C:/Users/Jeanette/Desktop/Jeanette Master's/AQM&ED/jh-subject-3.csv,legacy,Kafkaesque Koffka,3.2.8,0,h,space,NA,NA,NA,h,585,17810,NA,NA,NA,585,2,legacy,1024,2,48000,-16,experiment,HHHHH,3,odd,NA,50954,7637,NA,NA,52181,25447,NA,NA,50450,7634,NA,52076,52182,52767,52073,Flanker Task,13,8619,15,yes,1024
87.5,87.5,579.625,579.625,black,legacy,legacy,legacy,0,congruent,uniform,1,undefined,1,s,15,15,0,0,0,15,0,0,0,15,0,0,15,15,15,15,9/28/19 21:54,1500,The main experiment item,yes,FlankerTask.osexp,C:\Users\Jeanette\Desktop\Jeanette Master's\AQM&ED,no,mono,no,18,no,white,no,yes,768,legacy,15,15,C:/Users/Jeanette/Desktop/Jeanette Master's/AQM&ED/jh-subject-3.csv,legacy,Kafkaesque Koffka,3.2.8,0,s,space,NA,NA,NA,s,655,17810,NA,NA,NA,655,2,legacy,1024,2,48000,-16,experiment,SSSSS,3,odd,NA,52784,7637,NA,NA,53983,25447,NA,NA,50450,7634,NA,53878,53984,54639,53875,Flanker Task,14,9274,16,yes,1024
88.23529412,88.23529412,571.7647059,571.7647059,black,legacy,legacy,legacy,0,incongruent,uniform,1,undefined,1,h,16,16,0,0,0,16,0,0,0,16,0,0,16,16,16,16,9/28/19 21:54,1500,The main experiment item,yes,FlankerTask.osexp,C:\Users\Jeanette\Desktop\Jeanette Master's\AQM&ED,no,mono,no,18,no,white,no,yes,768,legacy,16,16,C:/Users/Jeanette/Desktop/Jeanette Master's/AQM&ED/jh-subject-3.csv,legacy,Kafkaesque Koffka,3.2.8,0,h,space,NA,NA,NA,h,446,17810,NA,NA,NA,446,2,legacy,1024,2,48000,-16,experiment,SSHSS,3,odd,NA,54662,7637,NA,NA,55863,25447,NA,NA,50450,7634,NA,55758,55864,56311,55755,Flanker Task,15,9720,17,yes,1024
88.88888889,88.88888889,570,570,black,legacy,legacy,legacy,0,congruent,uniform,1,undefined,1,h,17,17,0,0,0,17,0,0,0,17,0,0,17,17,17,17,9/28/19 21:54,1500,The main experiment item,yes,FlankerTask.osexp,C:\Users\Jeanette\Desktop\Jeanette Master's\AQM&ED,no,mono,no,18,no,white,no,yes,768,legacy,17,17,C:/Users/Jeanette/Desktop/Jeanette Master's/AQM&ED/jh-subject-3.csv,legacy,Kafkaesque Koffka,3.2.8,0,h,space,NA,NA,NA,h,540,17810,NA,NA,NA,540,2,legacy,1024,2,48000,-16,experiment,HHHHH,3,odd,NA,56337,7637,NA,NA,57546,25447,NA,NA,50450,7634,NA,57440,57546,58087,57438,Flanker Task,16,10260,18,yes,1024
89.47368421,89.47368421,560.8947368,560.8947368,black,legacy,legacy,legacy,0,congruent,uniform,1,undefined,1,s,18,18,0,0,0,18,0,0,0,18,0,0,18,18,18,18,9/28/19 21:54,1500,The main experiment item,yes,FlankerTask.osexp,C:\Users\Jeanette\Desktop\Jeanette Master's\AQM&ED,no,mono,no,18,no,white,no,yes,768,legacy,18,18,C:/Users/Jeanette/Desktop/Jeanette Master's/AQM&ED/jh-subject-3.csv,legacy,Kafkaesque Koffka,3.2.8,0,s,space,NA,NA,NA,s,397,17810,NA,NA,NA,397,2,legacy,1024,2,48000,-16,experiment,SSSSS,3,odd,NA,58101,7637,NA,NA,59313,25447,NA,NA,50450,7634,NA,59208,59313,59710,59205,Flanker Task,17,10657,19,yes,1024
90,90,556.1,556.1,black,legacy,legacy,legacy,0,congruent,uniform,1,undefined,1,h,19,19,0,0,0,19,0,0,0,19,0,0,19,19,19,19,9/28/19 21:54,1500,The main experiment item,yes,FlankerTask.osexp,C:\Users\Jeanette\Desktop\Jeanette Master's\AQM&ED,no,mono,no,18,no,white,no,yes,768,legacy,19,19,C:/Users/Jeanette/Desktop/Jeanette Master's/AQM&ED/jh-subject-3.csv,legacy,Kafkaesque Koffka,3.2.8,0,h,space,NA,NA,NA,h,465,17810,NA,NA,NA,465,2,legacy,1024,2,48000,-16,experiment,HHHHH,3,odd,NA,59729,7637,NA,NA,60933,25447,NA,NA,50450,7634,NA,60827,60933,61399,60825,Flanker Task,18,11122,20,yes,1024
90.47619048,90.47619048,553.7142857,553.7142857,black,legacy,legacy,legacy,0,incongruent,uniform,1,undefined,1,s,20,20,0,0,0,20,0,0,0,20,0,0,20,20,20,20,9/28/19 21:54,1500,The main experiment item,yes,FlankerTask.osexp,C:\Users\Jeanette\Desktop\Jeanette Master's\AQM&ED,no,mono,no,18,no,white,no,yes,768,legacy,20,20,C:/Users/Jeanette/Desktop/Jeanette Master's/AQM&ED/jh-subject-3.csv,legacy,Kafkaesque Koffka,3.2.8,0,s,space,NA,NA,NA,s,506,17810,NA,NA,NA,506,2,legacy,1024,2,48000,-16,experiment,HHSHH,3,odd,NA,61418,7637,NA,NA,62612,25447,NA,NA,50450,7634,NA,62507,62612,63119,62504,Flanker Task,19,11628,21,yes,1024
90.90909091,90.90909091,548.5909091,548.5909091,black,legacy,legacy,legacy,0,congruent,uniform,1,undefined,1,h,21,21,0,0,0,21,0,0,0,21,0,0,21,21,21,21,9/28/19 21:54,1500,The main experiment item,yes,FlankerTask.osexp,C:\Users\Jeanette\Desktop\Jeanette Master's\AQM&ED,no,mono,no,18,no,white,no,yes,768,legacy,21,21,C:/Users/Jeanette/Desktop/Jeanette Master's/AQM&ED/jh-subject-3.csv,legacy,Kafkaesque Koffka,3.2.8,0,h,space,NA,NA,NA,h,441,17810,NA,NA,NA,441,2,legacy,1024,2,48000,-16,experiment,HHHHH,3,odd,NA,63146,7637,NA,NA,64349,25447,NA,NA,50450,7634,NA,64244,64349,64791,64241,Flanker Task,20,12069,22,yes,1024
91.30434783,91.30434783,547.1304348,547.1304348,black,legacy,legacy,legacy,0,congruent,uniform,1,undefined,1,h,22,22,0,0,0,22,0,0,0,22,0,0,22,22,22,22,9/28/19 21:54,1500,The main experiment item,yes,FlankerTask.osexp,C:\Users\Jeanette\Desktop\Jeanette Master's\AQM&ED,no,mono,no,18,no,white,no,yes,768,legacy,22,22,C:/Users/Jeanette/Desktop/Jeanette Master's/AQM&ED/jh-subject-3.csv,legacy,Kafkaesque Koffka,3.2.8,0,h,space,NA,NA,NA,h,515,17810,NA,NA,NA,515,2,legacy,1024,2,48000,-16,experiment,HHHHH,3,odd,NA,64802,7637,NA,NA,66004,25447,NA,NA,50450,7634,NA,65899,66004,66519,65896,Flanker Task,21,12584,23,yes,1024
87.5,87.5,542.7916667,542.7916667,black,legacy,legacy,legacy,0,incongruent,uniform,0,undefined,0,s,23,23,0,0,0,23,0,0,0,23,0,0,23,23,23,23,9/28/19 21:54,1500,The main experiment item,yes,FlankerTask.osexp,C:\Users\Jeanette\Desktop\Jeanette Master's\AQM&ED,no,mono,no,18,no,white,no,yes,768,legacy,23,23,C:/Users/Jeanette/Desktop/Jeanette Master's/AQM&ED/jh-subject-3.csv,legacy,Kafkaesque Koffka,3.2.8,0,h,space,NA,NA,NA,h,443,17810,NA,NA,NA,443,2,legacy,1024,2,48000,-16,experiment,HHSHH,3,odd,NA,66539,7637,NA,NA,67732,25447,NA,NA,50450,7634,NA,67627,67732,68175,67624,Flanker Task,21,13027,24,yes,1024
88,88,550.72,550.72,black,legacy,legacy,legacy,0,congruent,uniform,1,undefined,1,h,24,24,0,0,0,24,0,0,0,24,0,0,24,24,24,24,9/28/19 21:54,1500,The main experiment item,yes,FlankerTask.osexp,C:\Users\Jeanette\Desktop\Jeanette Master's\AQM&ED,no,mono,no,18,no,white,no,yes,768,legacy,24,24,C:/Users/Jeanette/Desktop/Jeanette Master's/AQM&ED/jh-subject-3.csv,legacy,Kafkaesque Koffka,3.2.8,0,h,space,NA,NA,NA,h,741,17810,NA,NA,NA,741,2,legacy,1024,2,48000,-16,experiment,HHHHH,3,odd,NA,68699,7637,NA,NA,69929,25447,NA,NA,68194,7634,NA,69824,69929,70671,69821,Flanker Task,22,13768,25,yes,1024
88.46153846,88.46153846,544.8846154,544.8846154,black,legacy,legacy,legacy,0,congruent,uniform,1,undefined,1,s,25,25,0,0,0,25,0,0,0,25,0,0,25,25,25,25,9/28/19 21:54,1500,The main experiment item,yes,FlankerTask.osexp,C:\Users\Jeanette\Desktop\Jeanette Master's\AQM&ED,no,mono,no,18,no,white,no,yes,768,legacy,25,25,C:/Users/Jeanette/Desktop/Jeanette Master's/AQM&ED/jh-subject-3.csv,legacy,Kafkaesque Koffka,3.2.8,0,s,space,NA,NA,NA,s,399,17810,NA,NA,NA,399,2,legacy,1024,2,48000,-16,experiment,SSSSS,3,odd,NA,70688,7637,NA,NA,71887,25447,NA,NA,68194,7634,NA,71782,71887,72287,71779,Flanker Task,23,14167,26,yes,1024
88.88888889,88.88888889,539.962963,539.962963,black,legacy,legacy,legacy,0,incongruent,uniform,1,undefined,1,h,26,26,0,0,0,26,0,0,0,26,0,0,26,26,26,26,9/28/19 21:54,1500,The main experiment item,yes,FlankerTask.osexp,C:\Users\Jeanette\Desktop\Jeanette Master's\AQM&ED,no,mono,no,18,no,white,no,yes,768,legacy,26,26,C:/Users/Jeanette/Desktop/Jeanette Master's/AQM&ED/jh-subject-3.csv,legacy,Kafkaesque Koffka,3.2.8,0,h,space,NA,NA,NA,h,412,17810,NA,NA,NA,412,2,legacy,1024,2,48000,-16,experiment,SSHSS,3,odd,NA,72322,7637,NA,NA,73531,25447,NA,NA,68194,7634,NA,73426,73531,73943,73423,Flanker Task,24,14579,27,yes,1024
89.28571429,89.28571429,533.7142857,533.7142857,black,legacy,legacy,legacy,0,congruent,uniform,1,undefined,1,s,27,27,0,0,0,27,0,0,0,27,0,0,27,27,27,27,9/28/19 21:54,1500,The main experiment item,yes,FlankerTask.osexp,C:\Users\Jeanette\Desktop\Jeanette Master's\AQM&ED,no,mono,no,18,no,white,no,yes,768,legacy,27,27,C:/Users/Jeanette/Desktop/Jeanette Master's/AQM&ED/jh-subject-3.csv,legacy,Kafkaesque Koffka,3.2.8,0,s,space,NA,NA,NA,s,365,17810,NA,NA,NA,365,2,legacy,1024,2,48000,-16,experiment,SSSSS,3,odd,NA,73961,7637,NA,NA,75185,25447,NA,NA,68194,7634,NA,75080,75185,75551,75077,Flanker Task,25,14944,28,yes,1024
89.65517241,89.65517241,532.4827586,532.4827586,black,legacy,legacy,legacy,0,congruent,uniform,1,undefined,1,s,28,28,0,0,0,28,0,0,0,28,0,0,28,28,28,28,9/28/19 21:54,1500,The main experiment item,yes,FlankerTask.osexp,C:\Users\Jeanette\Desktop\Jeanette Master's\AQM&ED,no,mono,no,18,no,white,no,yes,768,legacy,28,28,C:/Users/Jeanette/Desktop/Jeanette Master's/AQM&ED/jh-subject-3.csv,legacy,Kafkaesque Koffka,3.2.8,0,s,space,NA,NA,NA,s,498,17810,NA,NA,NA,498,2,legacy,1024,2,48000,-16,experiment,SSSSS,3,odd,NA,75572,7637,NA,NA,76773,25447,NA,NA,68194,7634,NA,76668,76773,77271,76665,Flanker Task,26,15442,29,yes,1024
90,90,529.4666667,529.4666667,black,legacy,legacy,legacy,0,congruent,uniform,1,undefined,1,h,29,29,0,0,0,29,0,0,0,29,0,0,29,29,29,29,9/28/19 21:54,1500,The main experiment item,yes,FlankerTask.osexp,C:\Users\Jeanette\Desktop\Jeanette Master's\AQM&ED,no,mono,no,18,no,white,no,yes,768,legacy,29,29,C:/Users/Jeanette/Desktop/Jeanette Master's/AQM&ED/jh-subject-3.csv,legacy,Kafkaesque Koffka,3.2.8,0,h,space,NA,NA,NA,h,442,17810,NA,NA,NA,442,2,legacy,1024,2,48000,-16,experiment,HHHHH,3,odd,NA,77287,7637,NA,NA,78484,25447,NA,NA,68194,7634,NA,78379,78484,78927,78376,Flanker Task,27,15884,30,yes,1024
90.32258065,90.32258065,529.4516129,529.4516129,black,legacy,legacy,legacy,0,incongruent,uniform,1,undefined,1,h,30,30,0,0,0,30,0,0,0,30,0,0,30,30,30,30,9/28/19 21:54,1500,The main experiment item,yes,FlankerTask.osexp,C:\Users\Jeanette\Desktop\Jeanette Master's\AQM&ED,no,mono,no,18,no,white,no,yes,768,legacy,30,30,C:/Users/Jeanette/Desktop/Jeanette Master's/AQM&ED/jh-subject-3.csv,legacy,Kafkaesque Koffka,3.2.8,0,h,space,NA,NA,NA,h,529,17810,NA,NA,NA,529,2,legacy,1024,2,48000,-16,experiment,SSHSS,3,odd,NA,78945,7637,NA,NA,80125,25447,NA,NA,68194,7634,NA,80020,80125,80655,80017,Flanker Task,28,16413,31,yes,1024
90.625,90.625,531,531,black,legacy,legacy,legacy,0,incongruent,uniform,1,undefined,1,h,31,31,0,0,0,31,0,0,0,31,0,0,31,31,31,31,9/28/19 21:54,1500,The main experiment item,yes,FlankerTask.osexp,C:\Users\Jeanette\Desktop\Jeanette Master's\AQM&ED,no,mono,no,18,no,white,no,yes,768,legacy,31,31,C:/Users/Jeanette/Desktop/Jeanette Master's/AQM&ED/jh-subject-3.csv,legacy,Kafkaesque Koffka,3.2.8,0,h,space,NA,NA,NA,h,579,17810,NA,NA,NA,579,2,legacy,1024,2,48000,-16,experiment,SSHSS,3,odd,NA,80673,7637,NA,NA,81891,25447,NA,NA,68194,7634,NA,81786,81891,82471,81783,Flanker Task,29,16992,32,yes,1024
87.87878788,87.87878788,527.3939394,527.3939394,black,legacy,legacy,legacy,0,incongruent,uniform,0,undefined,0,s,32,32,0,0,0,32,0,0,0,32,0,0,32,32,32,32,9/28/19 21:54,1500,The main experiment item,yes,FlankerTask.osexp,C:\Users\Jeanette\Desktop\Jeanette Master's\AQM&ED,no,mono,no,18,no,white,no,yes,768,legacy,32,32,C:/Users/Jeanette/Desktop/Jeanette Master's/AQM&ED/jh-subject-3.csv,legacy,Kafkaesque Koffka,3.2.8,0,h,space,NA,NA,NA,h,412,17810,NA,NA,NA,412,2,legacy,1024,2,48000,-16,experiment,HHSHH,3,odd,NA,82487,7637,NA,NA,83698,25447,NA,NA,68194,7634,NA,83592,83698,84111,83589,Flanker Task,29,17404,33,yes,1024
88.23529412,88.23529412,530.1176471,530.1176471,black,legacy,legacy,legacy,0,incongruent,uniform,1,undefined,1,s,33,33,0,0,0,33,0,0,0,33,0,0,33,33,33,33,9/28/19 21:54,1500,The main experiment item,yes,FlankerTask.osexp,C:\Users\Jeanette\Desktop\Jeanette Master's\AQM&ED,no,mono,no,18,no,white,no,yes,768,legacy,33,33,C:/Users/Jeanette/Desktop/Jeanette Master's/AQM&ED/jh-subject-3.csv,legacy,Kafkaesque Koffka,3.2.8,0,s,space,NA,NA,NA,s,620,17810,NA,NA,NA,620,2,legacy,1024,2,48000,-16,experiment,HHSHH,3,odd,NA,84637,7637,NA,NA,85834,25447,NA,NA,84132,7634,NA,85729,85834,86455,85726,Flanker Task,30,18024,34,yes,1024
88.57142857,88.57142857,530.6285714,530.6285714,black,legacy,legacy,legacy,0,incongruent,uniform,1,undefined,1,h,34,34,0,0,0,34,0,0,0,34,0,0,34,34,34,34,9/28/19 21:54,1500,The main experiment item,yes,FlankerTask.osexp,C:\Users\Jeanette\Desktop\Jeanette Master's\AQM&ED,no,mono,no,18,no,white,no,yes,768,legacy,34,34,C:/Users/Jeanette/Desktop/Jeanette Master's/AQM&ED/jh-subject-3.csv,legacy,Kafkaesque Koffka,3.2.8,0,h,space,NA,NA,NA,h,548,17810,NA,NA,NA,548,2,legacy,1024,2,48000,-16,experiment,SSHSS,3,odd,NA,86471,7637,NA,NA,87667,25447,NA,NA,84132,7634,NA,87562,87667,88215,87559,Flanker Task,31,18572,35,yes,1024
88.88888889,88.88888889,527.8055556,527.8055556,black,legacy,legacy,legacy,0,congruent,uniform,1,undefined,1,s,35,35,0,0,0,35,0,0,0,35,0,0,35,35,35,35,9/28/19 21:54,1500,The main experiment item,yes,FlankerTask.osexp,C:\Users\Jeanette\Desktop\Jeanette Master's\AQM&ED,no,mono,no,18,no,white,no,yes,768,legacy,35,35,C:/Users/Jeanette/Desktop/Jeanette Master's/AQM&ED/jh-subject-3.csv,legacy,Kafkaesque Koffka,3.2.8,0,s,space,NA,NA,NA,s,429,17810,NA,NA,NA,429,2,legacy,1024,2,48000,-16,experiment,SSSSS,3,odd,NA,88230,7637,NA,NA,89433,25447,NA,NA,84132,7634,NA,89328,89433,89863,89325,Flanker Task,32,19001,36,yes,1024
89.18918919,89.18918919,528.1621622,528.1621622,black,legacy,legacy,legacy,0,incongruent,uniform,1,undefined,1,h,36,36,0,0,0,36,0,0,0,36,0,0,36,36,36,36,9/28/19 21:54,1500,The main experiment item,yes,FlankerTask.osexp,C:\Users\Jeanette\Desktop\Jeanette Master's\AQM&ED,no,mono,no,18,no,white,no,yes,768,legacy,36,36,C:/Users/Jeanette/Desktop/Jeanette Master's/AQM&ED/jh-subject-3.csv,legacy,Kafkaesque Koffka,3.2.8,0,h,space,NA,NA,NA,h,541,17810,NA,NA,NA,541,2,legacy,1024,2,48000,-16,experiment,SSHSS,3,odd,NA,89892,7637,NA,NA,91088,25447,NA,NA,84132,7634,NA,90983,91089,91630,90980,Flanker Task,33,19542,37,yes,1024
89.47368421,89.47368421,525.5526316,525.5526316,black,legacy,legacy,legacy,0,incongruent,uniform,1,undefined,1,h,37,37,0,0,0,37,0,0,0,37,0,0,37,37,37,37,9/28/19 21:54,1500,The main experiment item,yes,FlankerTask.osexp,C:\Users\Jeanette\Desktop\Jeanette Master's\AQM&ED,no,mono,no,18,no,white,no,yes,768,legacy,37,37,C:/Users/Jeanette/Desktop/Jeanette Master's/AQM&ED/jh-subject-3.csv,legacy,Kafkaesque Koffka,3.2.8,0,h,space,NA,NA,NA,h,429,17810,NA,NA,NA,429,2,legacy,1024,2,48000,-16,experiment,SSHSS,3,odd,NA,91647,7637,NA,NA,92834,25447,NA,NA,84132,7634,NA,92729,92834,93263,92726,Flanker Task,34,19971,38,yes,1024
89.74358974,89.74358974,526.1794872,526.1794872,black,legacy,legacy,legacy,0,incongruent,uniform,1,undefined,1,h,38,38,0,0,0,38,0,0,0,38,0,0,38,38,38,38,9/28/19 21:54,1500,The main experiment item,yes,FlankerTask.osexp,C:\Users\Jeanette\Desktop\Jeanette Master's\AQM&ED,no,mono,no,18,no,white,no,yes,768,legacy,38,38,C:/Users/Jeanette/Desktop/Jeanette Master's/AQM&ED/jh-subject-3.csv,legacy,Kafkaesque Koffka,3.2.8,0,h,space,NA,NA,NA,h,550,17810,NA,NA,NA,550,2,legacy,1024,2,48000,-16,experiment,SSHSS,3,odd,NA,93280,7637,NA,NA,94480,25447,NA,NA,84132,7634,NA,94375,94480,95031,94372,Flanker Task,35,20521,39,yes,1024
90,90,523.775,523.775,black,legacy,legacy,legacy,0,congruent,uniform,1,undefined,1,s,39,39,0,0,0,39,0,0,0,39,0,0,39,39,39,39,9/28/19 21:54,1500,The main experiment item,yes,FlankerTask.osexp,C:\Users\Jeanette\Desktop\Jeanette Master's\AQM&ED,no,mono,no,18,no,white,no,yes,768,legacy,39,39,C:/Users/Jeanette/Desktop/Jeanette Master's/AQM&ED/jh-subject-3.csv,legacy,Kafkaesque Koffka,3.2.8,0,s,space,NA,NA,NA,s,430,17810,NA,NA,NA,430,2,legacy,1024,2,48000,-16,experiment,SSSSS,3,odd,NA,95058,7637,NA,NA,96272,25447,NA,NA,84132,7634,NA,96167,96272,96703,96164,Flanker Task,36,20951,40,yes,1024
90.24390244,90.24390244,524.9756098,524.9756098,black,legacy,legacy,legacy,0,incongruent,uniform,1,undefined,1,s,40,40,0,0,0,40,0,0,0,40,0,0,40,40,40,40,9/28/19 21:54,1500,The main experiment item,yes,FlankerTask.osexp,C:\Users\Jeanette\Desktop\Jeanette Master's\AQM&ED,no,mono,no,18,no,white,no,yes,768,legacy,40,40,C:/Users/Jeanette/Desktop/Jeanette Master's/AQM&ED/jh-subject-3.csv,legacy,Kafkaesque Koffka,3.2.8,0,s,space,NA,NA,NA,s,573,17810,NA,NA,NA,573,2,legacy,1024,2,48000,-16,experiment,HHSHH,3,odd,NA,96725,7637,NA,NA,97945,25447,NA,NA,84132,7634,NA,97840,97945,98519,97837,Flanker Task,37,21524,41,yes,1024
90.47619048,90.47619048,523.6904762,523.6904762,black,legacy,legacy,legacy,0,congruent,uniform,1,undefined,1,h,41,41,0,0,0,41,0,0,0,41,0,0,41,41,41,41,9/28/19 21:54,1500,The main experiment item,yes,FlankerTask.osexp,C:\Users\Jeanette\Desktop\Jeanette Master's\AQM&ED,no,mono,no,18,no,white,no,yes,768,legacy,41,41,C:/Users/Jeanette/Desktop/Jeanette Master's/AQM&ED/jh-subject-3.csv,legacy,Kafkaesque Koffka,3.2.8,0,h,space,NA,NA,NA,h,471,17810,NA,NA,NA,471,2,legacy,1024,2,48000,-16,experiment,HHHHH,3,odd,NA,98530,7637,NA,NA,99727,25447,NA,NA,84132,7634,NA,99622,99727,100199,99619,Flanker Task,38,21995,42,yes,1024
90.69767442,90.69767442,521.3023256,521.3023256,black,legacy,legacy,legacy,0,congruent,uniform,1,undefined,1,s,42,42,0,0,0,42,0,0,0,42,0,0,42,42,42,42,9/28/19 21:54,1500,The main experiment item,yes,FlankerTask.osexp,C:\Users\Jeanette\Desktop\Jeanette Master's\AQM&ED,no,mono,no,18,no,white,no,yes,768,legacy,42,42,C:/Users/Jeanette/Desktop/Jeanette Master's/AQM&ED/jh-subject-3.csv,legacy,Kafkaesque Koffka,3.2.8,0,s,space,NA,NA,NA,s,421,17810,NA,NA,NA,421,2,legacy,1024,2,48000,-16,experiment,SSSSS,3,odd,NA,100214,7637,NA,NA,101408,25447,NA,NA,84132,7634,NA,101304,101409,101831,101301,Flanker Task,39,22416,43,yes,1024
90.90909091,90.90909091,519.3181818,519.3181818,black,legacy,legacy,legacy,0,congruent,uniform,1,undefined,1,h,43,43,0,0,0,43,0,0,0,43,0,0,43,43,43,43,9/28/19 21:54,1500,The main experiment item,yes,FlankerTask.osexp,C:\Users\Jeanette\Desktop\Jeanette Master's\AQM&ED,no,mono,no,18,no,white,no,yes,768,legacy,43,43,C:/Users/Jeanette/Desktop/Jeanette Master's/AQM&ED/jh-subject-3.csv,legacy,Kafkaesque Koffka,3.2.8,0,h,space,NA,NA,NA,h,434,17810,NA,NA,NA,434,2,legacy,1024,2,48000,-16,experiment,HHHHH,3,odd,NA,101848,7637,NA,NA,103052,25447,NA,NA,84132,7634,NA,102947,103052,103487,102944,Flanker Task,40,22850,44,yes,1024
91.11111111,91.11111111,519.4,519.4,black,legacy,legacy,legacy,0,incongruent,uniform,1,undefined,1,h,44,44,0,0,0,44,0,0,0,44,0,0,44,44,44,44,9/28/19 21:54,1500,The main experiment item,yes,FlankerTask.osexp,C:\Users\Jeanette\Desktop\Jeanette Master's\AQM&ED,no,mono,no,18,no,white,no,yes,768,legacy,44,44,C:/Users/Jeanette/Desktop/Jeanette Master's/AQM&ED/jh-subject-3.csv,legacy,Kafkaesque Koffka,3.2.8,0,h,space,NA,NA,NA,h,523,17810,NA,NA,NA,523,2,legacy,1024,2,48000,-16,experiment,SSHSS,3,odd,NA,103563,7637,NA,NA,104779,25447,NA,NA,84132,7634,NA,104674,104779,105303,104671,Flanker Task,41,23373,45,yes,1024
91.30434783,91.30434783,517.8478261,517.8478261,black,legacy,legacy,legacy,0,congruent,uniform,1,undefined,1,h,45,45,0,0,0,45,0,0,0,45,0,0,45,45,45,45,9/28/19 21:54,1500,The main experiment item,yes,FlankerTask.osexp,C:\Users\Jeanette\Desktop\Jeanette Master's\AQM&ED,no,mono,no,18,no,white,no,yes,768,legacy,45,45,C:/Users/Jeanette/Desktop/Jeanette Master's/AQM&ED/jh-subject-3.csv,legacy,Kafkaesque Koffka,3.2.8,0,h,space,NA,NA,NA,h,448,17810,NA,NA,NA,448,2,legacy,1024,2,48000,-16,experiment,HHHHH,3,odd,NA,105326,7637,NA,NA,106534,25447,NA,NA,84132,7634,NA,106429,106534,106983,106426,Flanker Task,42,23821,46,yes,1024
91.4893617,91.4893617,517.9574468,517.9574468,black,legacy,legacy,legacy,0,incongruent,uniform,1,undefined,1,h,46,46,0,0,0,46,0,0,0,46,0,0,46,46,46,46,9/28/19 21:54,1500,The main experiment item,yes,FlankerTask.osexp,C:\Users\Jeanette\Desktop\Jeanette Master's\AQM&ED,no,mono,no,18,no,white,no,yes,768,legacy,46,46,C:/Users/Jeanette/Desktop/Jeanette Master's/AQM&ED/jh-subject-3.csv,legacy,Kafkaesque Koffka,3.2.8,0,h,space,NA,NA,NA,h,523,17810,NA,NA,NA,523,2,legacy,1024,2,48000,-16,experiment,SSHSS,3,odd,NA,106998,7637,NA,NA,108195,25447,NA,NA,84132,7634,NA,108090,108195,108719,108087,Flanker Task,43,24344,47,yes,1024
91.66666667,91.66666667,518.125,518.125,black,legacy,legacy,legacy,0,incongruent,uniform,1,undefined,1,h,47,47,0,0,0,47,0,0,0,47,0,0,47,47,47,47,9/28/19 21:54,1500,The main experiment item,yes,FlankerTask.osexp,C:\Users\Jeanette\Desktop\Jeanette Master's\AQM&ED,no,mono,no,18,no,white,no,yes,768,legacy,47,47,C:/Users/Jeanette/Desktop/Jeanette Master's/AQM&ED/jh-subject-3.csv,legacy,Kafkaesque Koffka,3.2.8,0,h,space,NA,NA,NA,h,526,17810,NA,NA,NA,526,2,legacy,1024,2,48000,-16,experiment,SSHSS,3,odd,NA,108743,7637,NA,NA,109960,25447,NA,NA,84132,7634,NA,109855,109960,110487,109852,Flanker Task,44,24870,48,yes,1024
91.83673469,91.83673469,517.2653061,517.2653061,black,legacy,legacy,legacy,0,congruent,uniform,1,undefined,1,s,48,48,0,0,0,48,0,0,0,48,0,0,48,48,48,48,9/28/19 21:54,1500,The main experiment item,yes,FlankerTask.osexp,C:\Users\Jeanette\Desktop\Jeanette Master's\AQM&ED,no,mono,no,18,no,white,no,yes,768,legacy,48,48,C:/Users/Jeanette/Desktop/Jeanette Master's/AQM&ED/jh-subject-3.csv,legacy,Kafkaesque Koffka,3.2.8,0,s,space,NA,NA,NA,s,476,17810,NA,NA,NA,476,2,legacy,1024,2,48000,-16,experiment,SSSSS,3,odd,NA,110518,7637,NA,NA,111722,25447,NA,NA,84132,7634,NA,111615,111722,112199,111612,Flanker Task,45,25346,49,yes,1024
92,92,518.08,518.08,black,legacy,legacy,legacy,0,incongruent,uniform,1,undefined,1,s,49,49,0,0,0,49,0,0,0,49,0,0,49,49,49,49,9/28/19 21:54,1500,The main experiment item,yes,FlankerTask.osexp,C:\Users\Jeanette\Desktop\Jeanette Master's\AQM&ED,no,mono,no,18,no,white,no,yes,768,legacy,49,49,C:/Users/Jeanette/Desktop/Jeanette Master's/AQM&ED/jh-subject-3.csv,legacy,Kafkaesque Koffka,3.2.8,0,s,space,NA,NA,NA,s,558,17810,NA,NA,NA,558,2,legacy,1024,2,48000,-16,experiment,HHSHH,3,odd,NA,112215,7637,NA,NA,113408,25447,NA,NA,84132,7634,NA,113303,113408,113967,113300,Flanker Task,46,25904,50,yes,1024
92.15686275,92.15686275,516.9411765,516.9411765,black,legacy,legacy,legacy,0,incongruent,uniform,1,undefined,1,s,50,50,0,0,0,50,0,0,0,50,0,0,50,50,50,50,9/28/19 21:54,1500,The main experiment item,yes,FlankerTask.osexp,C:\Users\Jeanette\Desktop\Jeanette Master's\AQM&ED,no,mono,no,18,no,white,no,yes,768,legacy,50,50,C:/Users/Jeanette/Desktop/Jeanette Master's/AQM&ED/jh-subject-3.csv,legacy,Kafkaesque Koffka,3.2.8,0,s,space,NA,NA,NA,s,460,17810,NA,NA,NA,460,2,legacy,1024,2,48000,-16,experiment,HHSHH,3,odd,NA,113985,7637,NA,NA,115178,25447,NA,NA,84132,7634,NA,115073,115178,115639,115070,Flanker Task,47,26364,51,yes,1024
92.30769231,92.30769231,514.7115385,514.7115385,black,legacy,legacy,legacy,0,congruent,uniform,1,undefined,1,h,51,51,0,0,0,51,0,0,0,51,0,0,51,51,51,51,9/28/19 21:54,1500,The main experiment item,yes,FlankerTask.osexp,C:\Users\Jeanette\Desktop\Jeanette Master's\AQM&ED,no,mono,no,18,no,white,no,yes,768,legacy,51,51,C:/Users/Jeanette/Desktop/Jeanette Master's/AQM&ED/jh-subject-3.csv,legacy,Kafkaesque Koffka,3.2.8,0,h,space,NA,NA,NA,h,401,17810,NA,NA,NA,401,2,legacy,1024,2,48000,-16,experiment,HHHHH,3,odd,NA,115657,7637,NA,NA,116861,25447,NA,NA,84132,7634,NA,116756,116861,117263,116753,Flanker Task,48,26765,52,yes,1024
92.45283019,92.45283019,513.5471698,513.5471698,black,legacy,legacy,legacy,0,congruent,uniform,1,undefined,1,h,52,52,0,0,0,52,0,0,0,52,0,0,52,52,52,52,9/28/19 21:54,1500,The main experiment item,yes,FlankerTask.osexp,C:\Users\Jeanette\Desktop\Jeanette Master's\AQM&ED,no,mono,no,18,no,white,no,yes,768,legacy,52,52,C:/Users/Jeanette/Desktop/Jeanette Master's/AQM&ED/jh-subject-3.csv,legacy,Kafkaesque Koffka,3.2.8,0,h,space,NA,NA,NA,h,453,17810,NA,NA,NA,453,2,legacy,1024,2,48000,-16,experiment,HHHHH,3,odd,NA,117282,7637,NA,NA,118489,25447,NA,NA,84132,7634,NA,118383,118489,118943,118380,Flanker Task,49,27218,53,yes,1024
92.59259259,92.59259259,512.2962963,512.2962963,black,legacy,legacy,legacy,0,congruent,uniform,1,undefined,1,h,53,53,0,0,0,53,0,0,0,53,0,0,53,53,53,53,9/28/19 21:54,1500,The main experiment item,yes,FlankerTask.osexp,C:\Users\Jeanette\Desktop\Jeanette Master's\AQM&ED,no,mono,no,18,no,white,no,yes,768,legacy,53,53,C:/Users/Jeanette/Desktop/Jeanette Master's/AQM&ED/jh-subject-3.csv,legacy,Kafkaesque Koffka,3.2.8,0,h,space,NA,NA,NA,h,446,17810,NA,NA,NA,446,2,legacy,1024,2,48000,-16,experiment,HHHHH,3,odd,NA,118960,7637,NA,NA,120152,25447,NA,NA,84132,7634,NA,120047,120152,120599,120044,Flanker Task,50,27664,54,yes,1024
92.72727273,92.72727273,510.2,510.2,black,legacy,legacy,legacy,0,congruent,uniform,1,undefined,1,h,54,54,0,0,0,54,0,0,0,54,0,0,54,54,54,54,9/28/19 21:54,1500,The main experiment item,yes,FlankerTask.osexp,C:\Users\Jeanette\Desktop\Jeanette Master's\AQM&ED,no,mono,no,18,no,white,no,yes,768,legacy,54,54,C:/Users/Jeanette/Desktop/Jeanette Master's/AQM&ED/jh-subject-3.csv,legacy,Kafkaesque Koffka,3.2.8,0,h,space,NA,NA,NA,h,397,17810,NA,NA,NA,397,2,legacy,1024,2,48000,-16,experiment,HHHHH,3,odd,NA,120617,7637,NA,NA,121808,25447,NA,NA,84132,7634,NA,121703,121809,122207,121700,Flanker Task,51,28061,55,yes,1024
92.85714286,92.85714286,509.9821429,509.9821429,black,legacy,legacy,legacy,0,congruent,uniform,1,undefined,1,s,55,55,0,0,0,55,0,0,0,55,0,0,55,55,55,55,9/28/19 21:54,1500,The main experiment item,yes,FlankerTask.osexp,C:\Users\Jeanette\Desktop\Jeanette Master's\AQM&ED,no,mono,no,18,no,white,no,yes,768,legacy,55,55,C:/Users/Jeanette/Desktop/Jeanette Master's/AQM&ED/jh-subject-3.csv,legacy,Kafkaesque Koffka,3.2.8,0,s,space,NA,NA,NA,s,498,17810,NA,NA,NA,498,2,legacy,1024,2,48000,-16,experiment,SSSSS,3,odd,NA,122225,7637,NA,NA,123452,25447,NA,NA,84132,7634,NA,123349,123452,123951,123346,Flanker Task,52,28559,56,yes,1024
92.98245614,92.98245614,509.0877193,509.0877193,black,legacy,legacy,legacy,0,incongruent,uniform,1,undefined,1,s,56,56,0,0,0,56,0,0,0,56,0,0,56,56,56,56,9/28/19 21:54,1500,The main experiment item,yes,FlankerTask.osexp,C:\Users\Jeanette\Desktop\Jeanette Master's\AQM&ED,no,mono,no,18,no,white,no,yes,768,legacy,56,56,C:/Users/Jeanette/Desktop/Jeanette Master's/AQM&ED/jh-subject-3.csv,legacy,Kafkaesque Koffka,3.2.8,0,s,space,NA,NA,NA,s,459,17810,NA,NA,NA,459,2,legacy,1024,2,48000,-16,experiment,HHSHH,3,odd,NA,123978,7637,NA,NA,125195,25447,NA,NA,84132,7634,NA,125090,125195,125655,125087,Flanker Task,53,29018,57,yes,1024
93.10344828,93.10344828,511.8103448,511.8103448,black,legacy,legacy,legacy,0,incongruent,uniform,1,undefined,1,s,57,57,0,0,0,57,0,0,0,57,0,0,57,57,57,57,9/28/19 21:54,1500,The main experiment item,yes,FlankerTask.osexp,C:\Users\Jeanette\Desktop\Jeanette Master's\AQM&ED,no,mono,no,18,no,white,no,yes,768,legacy,57,57,C:/Users/Jeanette/Desktop/Jeanette Master's/AQM&ED/jh-subject-3.csv,legacy,Kafkaesque Koffka,3.2.8,0,s,space,NA,NA,NA,s,667,17810,NA,NA,NA,667,2,legacy,1024,2,48000,-16,experiment,HHSHH,3,odd,NA,125667,7637,NA,NA,126875,25447,NA,NA,84132,7634,NA,126770,126875,127543,126767,Flanker Task,54,29685,58,yes,1024
93.22033898,93.22033898,511.9322034,511.9322034,black,legacy,legacy,legacy,0,incongruent,uniform,1,undefined,1,s,58,58,0,0,0,58,0,0,0,58,0,0,58,58,58,58,9/28/19 21:54,1500,The main experiment item,yes,FlankerTask.osexp,C:\Users\Jeanette\Desktop\Jeanette Master's\AQM&ED,no,mono,no,18,no,white,no,yes,768,legacy,58,58,C:/Users/Jeanette/Desktop/Jeanette Master's/AQM&ED/jh-subject-3.csv,legacy,Kafkaesque Koffka,3.2.8,0,s,space,NA,NA,NA,s,519,17810,NA,NA,NA,519,2,legacy,1024,2,48000,-16,experiment,HHSHH,3,odd,NA,127559,7637,NA,NA,128767,25447,NA,NA,84132,7634,NA,128662,128767,129287,128659,Flanker Task,55,30204,59,yes,1024
93.33333333,93.33333333,512.3833333,512.3833333,black,legacy,legacy,legacy,0,incongruent,uniform,1,undefined,1,h,59,59,0,0,0,59,0,0,0,59,0,0,59,59,59,59,9/28/19 21:54,1500,The main experiment item,yes,FlankerTask.osexp,C:\Users\Jeanette\Desktop\Jeanette Master's\AQM&ED,no,mono,no,18,no,white,no,yes,768,legacy,59,59,C:/Users/Jeanette/Desktop/Jeanette Master's/AQM&ED/jh-subject-3.csv,legacy,Kafkaesque Koffka,3.2.8,0,h,space,NA,NA,NA,h,539,17810,NA,NA,NA,539,2,legacy,1024,2,48000,-16,experiment,SSHSS,3,odd,NA,129312,7637,NA,NA,130523,25447,NA,NA,84132,7634,NA,130418,130523,131063,130415,Flanker Task,56,30743,60,yes,1024
93.44262295,93.44262295,511.4590164,511.4590164,black,legacy,legacy,legacy,0,congruent,uniform,1,undefined,1,h,60,60,0,0,0,60,0,0,0,60,0,0,60,60,60,60,9/28/19 21:54,1500,The main experiment item,yes,FlankerTask.osexp,C:\Users\Jeanette\Desktop\Jeanette Master's\AQM&ED,no,mono,no,18,no,white,no,yes,768,legacy,60,60,C:/Users/Jeanette/Desktop/Jeanette Master's/AQM&ED/jh-subject-3.csv,legacy,Kafkaesque Koffka,3.2.8,0,h,space,NA,NA,NA,h,456,17810,NA,NA,NA,456,2,legacy,1024,2,48000,-16,experiment,HHHHH,3,odd,NA,131084,7637,NA,NA,132278,25447,NA,NA,84132,7634,NA,132173,132278,132735,132170,Flanker Task,57,31199,61,yes,1024
93.5483871,93.5483871,509,509,black,legacy,legacy,legacy,0,congruent,uniform,1,undefined,1,s,61,61,0,0,0,61,0,0,0,61,0,0,61,61,61,61,9/28/19 21:54,1500,The main experiment item,yes,FlankerTask.osexp,C:\Users\Jeanette\Desktop\Jeanette Master's\AQM&ED,no,mono,no,18,no,white,no,yes,768,legacy,61,61,C:/Users/Jeanette/Desktop/Jeanette Master's/AQM&ED/jh-subject-3.csv,legacy,Kafkaesque Koffka,3.2.8,0,s,space,NA,NA,NA,s,359,17810,NA,NA,NA,359,2,legacy,1024,2,48000,-16,experiment,SSSSS,3,odd,NA,132776,7637,NA,NA,133982,25447,NA,NA,84132,7634,NA,133877,133982,134342,133874,Flanker Task,58,31558,62,yes,1024
93.65079365,93.65079365,507.968254,507.968254,black,legacy,legacy,legacy,0,incongruent,uniform,1,undefined,1,h,62,62,0,0,0,62,0,0,0,62,0,0,62,62,62,62,9/28/19 21:54,1500,The main experiment item,yes,FlankerTask.osexp,C:\Users\Jeanette\Desktop\Jeanette Master's\AQM&ED,no,mono,no,18,no,white,no,yes,768,legacy,62,62,C:/Users/Jeanette/Desktop/Jeanette Master's/AQM&ED/jh-subject-3.csv,legacy,Kafkaesque Koffka,3.2.8,0,h,space,NA,NA,NA,h,444,17810,NA,NA,NA,444,2,legacy,1024,2,48000,-16,experiment,SSHSS,3,odd,NA,134371,7637,NA,NA,135570,25447,NA,NA,84132,7634,NA,135465,135570,136015,135462,Flanker Task,59,32002,63,yes,1024
92.1875,92.1875,506.390625,506.390625,black,legacy,legacy,legacy,0,incongruent,uniform,0,undefined,0,h,63,63,0,0,0,63,0,0,0,63,0,0,63,63,63,63,9/28/19 21:54,1500,The main experiment item,yes,FlankerTask.osexp,C:\Users\Jeanette\Desktop\Jeanette Master's\AQM&ED,no,mono,no,18,no,white,no,yes,768,legacy,63,63,C:/Users/Jeanette/Desktop/Jeanette Master's/AQM&ED/jh-subject-3.csv,legacy,Kafkaesque Koffka,3.2.8,0,s,space,NA,NA,NA,s,407,17810,NA,NA,NA,407,2,legacy,1024,2,48000,-16,experiment,SSHSS,3,odd,NA,136046,7637,NA,NA,137255,25447,NA,NA,84132,7634,NA,137150,137255,137663,137147,Flanker Task,59,32409,64,yes,1024
92.30769231,92.30769231,505.1230769,505.1230769,black,legacy,legacy,legacy,0,incongruent,uniform,1,undefined,1,s,64,64,0,0,0,64,0,0,0,64,0,0,64,64,64,64,9/28/19 21:54,1500,The main experiment item,yes,FlankerTask.osexp,C:\Users\Jeanette\Desktop\Jeanette Master's\AQM&ED,no,mono,no,18,no,white,no,yes,768,legacy,64,64,C:/Users/Jeanette/Desktop/Jeanette Master's/AQM&ED/jh-subject-3.csv,legacy,Kafkaesque Koffka,3.2.8,0,s,space,NA,NA,NA,s,424,17810,NA,NA,NA,424,2,legacy,1024,2,48000,-16,experiment,HHSHH,3,odd,NA,138201,7637,NA,NA,139390,25447,NA,NA,137696,7634,NA,139285,139390,139815,139282,Flanker Task,60,32833,65,yes,1024
92.42424242,92.42424242,505.6363636,505.6363636,black,legacy,legacy,legacy,0,congruent,uniform,1,undefined,1,s,65,65,0,0,0,65,0,0,0,65,0,0,65,65,65,65,9/28/19 21:54,1500,The main experiment item,yes,FlankerTask.osexp,C:\Users\Jeanette\Desktop\Jeanette Master's\AQM&ED,no,mono,no,18,no,white,no,yes,768,legacy,65,65,C:/Users/Jeanette/Desktop/Jeanette Master's/AQM&ED/jh-subject-3.csv,legacy,Kafkaesque Koffka,3.2.8,0,s,space,NA,NA,NA,s,539,17810,NA,NA,NA,539,2,legacy,1024,2,48000,-16,experiment,SSSSS,3,odd,NA,139835,7637,NA,NA,141026,25447,NA,NA,137696,7634,NA,140921,141026,141566,140918,Flanker Task,61,33372,66,yes,1024
92.53731343,92.53731343,504.880597,504.880597,black,legacy,legacy,legacy,0,congruent,uniform,1,undefined,1,s,66,66,0,0,0,66,0,0,0,66,0,0,66,66,66,66,9/28/19 21:54,1500,The main experiment item,yes,FlankerTask.osexp,C:\Users\Jeanette\Desktop\Jeanette Master's\AQM&ED,no,mono,no,18,no,white,no,yes,768,legacy,66,66,C:/Users/Jeanette/Desktop/Jeanette Master's/AQM&ED/jh-subject-3.csv,legacy,Kafkaesque Koffka,3.2.8,0,s,space,NA,NA,NA,s,455,17810,NA,NA,NA,455,2,legacy,1024,2,48000,-16,experiment,SSSSS,3,odd,NA,141585,7637,NA,NA,142783,25447,NA,NA,137696,7634,NA,142678,142783,143239,142675,Flanker Task,62,33827,67,yes,1024
92.64705882,92.64705882,505.3382353,505.3382353,black,legacy,legacy,legacy,0,incongruent,uniform,1,undefined,1,h,67,67,0,0,0,67,0,0,0,67,0,0,67,67,67,67,9/28/19 21:54,1500,The main experiment item,yes,FlankerTask.osexp,C:\Users\Jeanette\Desktop\Jeanette Master's\AQM&ED,no,mono,no,18,no,white,no,yes,768,legacy,67,67,C:/Users/Jeanette/Desktop/Jeanette Master's/AQM&ED/jh-subject-3.csv,legacy,Kafkaesque Koffka,3.2.8,0,h,space,NA,NA,NA,h,536,17810,NA,NA,NA,536,2,legacy,1024,2,48000,-16,experiment,SSHSS,3,odd,NA,143252,7637,NA,NA,144477,25447,NA,NA,137696,7634,NA,144372,144477,145014,144369,Flanker Task,63,34363,68,yes,1024
91.30434783,91.30434783,504.3478261,504.3478261,black,legacy,legacy,legacy,0,incongruent,uniform,0,undefined,0,s,68,68,0,0,0,68,0,0,0,68,0,0,68,68,68,68,9/28/19 21:54,1500,The main experiment item,yes,FlankerTask.osexp,C:\Users\Jeanette\Desktop\Jeanette Master's\AQM&ED,no,mono,no,18,no,white,no,yes,768,legacy,68,68,C:/Users/Jeanette/Desktop/Jeanette Master's/AQM&ED/jh-subject-3.csv,legacy,Kafkaesque Koffka,3.2.8,0,h,space,NA,NA,NA,h,437,17810,NA,NA,NA,437,2,legacy,1024,2,48000,-16,experiment,HHSHH,3,odd,NA,145038,7637,NA,NA,146233,25447,NA,NA,137696,7634,NA,146128,146233,146671,146125,Flanker Task,63,34800,69,yes,1024
90,90,502.4285714,502.4285714,black,legacy,legacy,legacy,0,incongruent,uniform,0,undefined,0,s,69,69,0,0,0,69,0,0,0,69,0,0,69,69,69,69,9/28/19 21:54,1500,The main experiment item,yes,FlankerTask.osexp,C:\Users\Jeanette\Desktop\Jeanette Master's\AQM&ED,no,mono,no,18,no,white,no,yes,768,legacy,69,69,C:/Users/Jeanette/Desktop/Jeanette Master's/AQM&ED/jh-subject-3.csv,legacy,Kafkaesque Koffka,3.2.8,0,h,space,NA,NA,NA,h,370,17810,NA,NA,NA,370,2,legacy,1024,2,48000,-16,experiment,HHSHH,3,odd,NA,147191,7637,NA,NA,148404,25447,NA,NA,146685,7634,NA,148299,148404,148775,148296,Flanker Task,63,35170,70,yes,1024
90.14084507,90.14084507,501.8873239,501.8873239,black,legacy,legacy,legacy,0,congruent,uniform,1,undefined,1,s,70,70,0,0,0,70,0,0,0,70,0,0,70,70,70,70,9/28/19 21:54,1500,The main experiment item,yes,FlankerTask.osexp,C:\Users\Jeanette\Desktop\Jeanette Master's\AQM&ED,no,mono,no,18,no,white,no,yes,768,legacy,70,70,C:/Users/Jeanette/Desktop/Jeanette Master's/AQM&ED/jh-subject-3.csv,legacy,Kafkaesque Koffka,3.2.8,0,s,space,NA,NA,NA,s,464,17810,NA,NA,NA,464,2,legacy,1024,2,48000,-16,experiment,SSSSS,3,odd,NA,149303,7637,NA,NA,150510,25447,NA,NA,148797,7634,NA,150405,150510,150975,150402,Flanker Task,64,35634,71,yes,1024
90.27777778,90.27777778,501.1527778,501.1527778,black,legacy,legacy,legacy,0,congruent,uniform,1,undefined,1,s,71,71,0,0,0,71,0,0,0,71,0,0,71,71,71,71,9/28/19 21:54,1500,The main experiment item,yes,FlankerTask.osexp,C:\Users\Jeanette\Desktop\Jeanette Master's\AQM&ED,no,mono,no,18,no,white,no,yes,768,legacy,71,71,C:/Users/Jeanette/Desktop/Jeanette Master's/AQM&ED/jh-subject-3.csv,legacy,Kafkaesque Koffka,3.2.8,0,s,space,NA,NA,NA,s,449,17810,NA,NA,NA,449,2,legacy,1024,2,48000,-16,experiment,SSSSS,3,odd,NA,150986,7637,NA,NA,152196,25447,NA,NA,148797,7634,NA,152091,152196,152646,152088,Flanker Task,65,36083,72,yes,1024
90.4109589,90.4109589,501.2191781,501.2191781,black,legacy,legacy,legacy,0,congruent,uniform,1,undefined,1,h,72,72,0,0,0,72,0,0,0,72,0,0,72,72,72,72,9/28/19 21:54,1500,The main experiment item,yes,FlankerTask.osexp,C:\Users\Jeanette\Desktop\Jeanette Master's\AQM&ED,no,mono,no,18,no,white,no,yes,768,legacy,72,72,C:/Users/Jeanette/Desktop/Jeanette Master's/AQM&ED/jh-subject-3.csv,legacy,Kafkaesque Koffka,3.2.8,0,h,space,NA,NA,NA,h,506,17810,NA,NA,NA,506,2,legacy,1024,2,48000,-16,experiment,HHHHH,3,odd,NA,152661,7637,NA,NA,153859,25447,NA,NA,148797,7634,NA,153754,153860,154367,153751,Flanker Task,66,36589,73,yes,1024
90.54054054,90.54054054,501.6486486,501.6486486,black,legacy,legacy,legacy,0,incongruent,uniform,1,undefined,1,h,73,73,0,0,0,73,0,0,0,73,0,0,73,73,73,73,9/28/19 21:54,1500,The main experiment item,yes,FlankerTask.osexp,C:\Users\Jeanette\Desktop\Jeanette Master's\AQM&ED,no,mono,no,18,no,white,no,yes,768,legacy,73,73,C:/Users/Jeanette/Desktop/Jeanette Master's/AQM&ED/jh-subject-3.csv,legacy,Kafkaesque Koffka,3.2.8,0,h,space,NA,NA,NA,h,533,17810,NA,NA,NA,533,2,legacy,1024,2,48000,-16,experiment,SSHSS,3,odd,NA,154389,7637,NA,NA,155584,25447,NA,NA,148797,7634,NA,155479,155584,156118,155476,Flanker Task,67,37122,74,yes,1024
90.66666667,90.66666667,500.7466667,500.7466667,black,legacy,legacy,legacy,0,incongruent,uniform,1,undefined,1,s,74,74,0,0,0,74,0,0,0,74,0,0,74,74,74,74,9/28/19 21:54,1500,The main experiment item,yes,FlankerTask.osexp,C:\Users\Jeanette\Desktop\Jeanette Master's\AQM&ED,no,mono,no,18,no,white,no,yes,768,legacy,74,74,C:/Users/Jeanette/Desktop/Jeanette Master's/AQM&ED/jh-subject-3.csv,legacy,Kafkaesque Koffka,3.2.8,0,s,space,NA,NA,NA,s,434,17810,NA,NA,NA,434,2,legacy,1024,2,48000,-16,experiment,HHSHH,3,odd,NA,156136,7637,NA,NA,157332,25447,NA,NA,148797,7634,NA,157227,157332,157767,157224,Flanker Task,68,37556,75,yes,1024
90.78947368,90.78947368,501,501,black,legacy,legacy,legacy,0,incongruent,uniform,1,undefined,1,s,75,75,0,0,0,75,0,0,0,75,0,0,75,75,75,75,9/28/19 21:54,1500,The main experiment item,yes,FlankerTask.osexp,C:\Users\Jeanette\Desktop\Jeanette Master's\AQM&ED,no,mono,no,18,no,white,no,yes,768,legacy,75,75,C:/Users/Jeanette/Desktop/Jeanette Master's/AQM&ED/jh-subject-3.csv,legacy,Kafkaesque Koffka,3.2.8,0,s,space,NA,NA,NA,s,520,17810,NA,NA,NA,520,2,legacy,1024,2,48000,-16,experiment,HHSHH,3,odd,NA,157798,7637,NA,NA,159022,25447,NA,NA,148797,7634,NA,158917,159022,159543,158914,Flanker Task,69,38076,76,yes,1024
90.90909091,90.90909091,500.7532468,500.7532468,black,legacy,legacy,legacy,0,incongruent,uniform,1,undefined,1,s,76,76,0,0,0,76,0,0,0,76,0,0,76,76,76,76,9/28/19 21:54,1500,The main experiment item,yes,FlankerTask.osexp,C:\Users\Jeanette\Desktop\Jeanette Master's\AQM&ED,no,mono,no,18,no,white,no,yes,768,legacy,76,76,C:/Users/Jeanette/Desktop/Jeanette Master's/AQM&ED/jh-subject-3.csv,legacy,Kafkaesque Koffka,3.2.8,0,s,space,NA,NA,NA,s,482,17810,NA,NA,NA,482,2,legacy,1024,2,48000,-16,experiment,HHSHH,3,odd,NA,159565,7637,NA,NA,160772,25447,NA,NA,148797,7634,NA,160670,160772,161255,160666,Flanker Task,70,38558,77,yes,1024
91.02564103,91.02564103,500.6282051,500.6282051,black,legacy,legacy,legacy,0,congruent,uniform,1,undefined,1,s,77,77,0,0,0,77,0,0,0,77,0,0,77,77,77,77,9/28/19 21:54,1500,The main experiment item,yes,FlankerTask.osexp,C:\Users\Jeanette\Desktop\Jeanette Master's\AQM&ED,no,mono,no,18,no,white,no,yes,768,legacy,77,77,C:/Users/Jeanette/Desktop/Jeanette Master's/AQM&ED/jh-subject-3.csv,legacy,Kafkaesque Koffka,3.2.8,0,s,space,NA,NA,NA,s,491,17810,NA,NA,NA,491,2,legacy,1024,2,48000,-16,experiment,SSSSS,3,odd,NA,161293,7637,NA,NA,162507,25447,NA,NA,148797,7634,NA,162402,162507,162999,162399,Flanker Task,71,39049,78,yes,1024
91.13924051,91.13924051,500.164557,500.164557,black,legacy,legacy,legacy,0,congruent,uniform,1,undefined,1,s,78,78,0,0,0,78,0,0,0,78,0,0,78,78,78,78,9/28/19 21:54,1500,The main experiment item,yes,FlankerTask.osexp,C:\Users\Jeanette\Desktop\Jeanette Master's\AQM&ED,no,mono,no,18,no,white,no,yes,768,legacy,78,78,C:/Users/Jeanette/Desktop/Jeanette Master's/AQM&ED/jh-subject-3.csv,legacy,Kafkaesque Koffka,3.2.8,0,s,space,NA,NA,NA,s,464,17810,NA,NA,NA,464,2,legacy,1024,2,48000,-16,experiment,SSSSS,3,odd,NA,163012,7637,NA,NA,164230,25447,NA,NA,148797,7634,NA,164125,164230,164695,164121,Flanker Task,72,39513,79,yes,1024
91.25,91.25,498.875,498.875,black,legacy,legacy,legacy,0,incongruent,uniform,1,undefined,1,h,79,79,0,0,0,79,0,0,0,79,0,0,79,79,79,79,9/28/19 21:54,1500,The main experiment item,yes,FlankerTask.osexp,C:\Users\Jeanette\Desktop\Jeanette Master's\AQM&ED,no,mono,no,18,no,white,no,yes,768,legacy,79,79,C:/Users/Jeanette/Desktop/Jeanette Master's/AQM&ED/jh-subject-3.csv,legacy,Kafkaesque Koffka,3.2.8,0,h,space,NA,NA,NA,h,397,17810,NA,NA,NA,397,2,legacy,1024,2,48000,-16,experiment,SSHSS,3,odd,NA,164732,7637,NA,NA,165936,25447,NA,NA,148797,7634,NA,165831,165936,166334,165828,Flanker Task,73,39910,80,yes,1024
91.35802469,91.35802469,502.5432099,502.5432099,black,legacy,legacy,legacy,0,Congruent,uniform,1,undefined,1,s,80,80,0,0,0,80,0,0,0,80,0,0,80,80,80,80,9/28/19 21:54,600,The main experiment item,yes,FlankerTask.osexp,C:\Users\Jeanette\Desktop\Jeanette Master's\AQM&ED,no,mono,no,18,no,white,no,yes,768,legacy,0,79,C:/Users/Jeanette/Desktop/Jeanette Master's/AQM&ED/jh-subject-3.csv,legacy,Kafkaesque Koffka,3.2.8,0,s,space,space,NA,NA,s,796,17810,6229,NA,NA,796,2,legacy,1024,2,48000,-16,experiment,SSSSS,3,odd,NA,166346,7637,167384,NA,173785,25447,173614,NA,148797,7634,NA,173680,173786,174583,173678,Flanker Task,74,40706,81,yes,1024
90.24390244,90.24390244,501.7073171,501.7073171,black,legacy,legacy,legacy,0,Incongruent,uniform,0,undefined,0,s,81,81,0,0,0,81,0,0,0,81,0,0,81,81,81,81,9/28/19 21:54,600,The main experiment item,yes,FlankerTask.osexp,C:\Users\Jeanette\Desktop\Jeanette Master's\AQM&ED,no,mono,no,18,no,white,no,yes,768,legacy,1,79,C:/Users/Jeanette/Desktop/Jeanette Master's/AQM&ED/jh-subject-3.csv,legacy,Kafkaesque Koffka,3.2.8,0,h,space,space,NA,NA,h,434,17810,6229,NA,NA,434,2,legacy,1024,2,48000,-16,experiment,HHSHH,3,odd,174607,175113,7637,167384,NA,176292,25447,173614,NA,148797,7634,NA,176187,176292,176727,176184,Flanker Task,74,41140,82,yes,1024
89.15662651,89.15662651,500.4578313,500.4578313,black,legacy,legacy,legacy,0,Incongruent,uniform,0,undefined,0,s,82,82,0,0,0,82,0,0,0,82,0,0,82,82,82,82,9/28/19 21:54,600,The main experiment item,yes,FlankerTask.osexp,C:\Users\Jeanette\Desktop\Jeanette Master's\AQM&ED,no,mono,no,18,no,white,no,yes,768,legacy,2,79,C:/Users/Jeanette/Desktop/Jeanette Master's/AQM&ED/jh-subject-3.csv,legacy,Kafkaesque Koffka,3.2.8,0,h,space,space,NA,NA,h,398,17810,6229,NA,NA,398,2,legacy,1024,2,48000,-16,experiment,HHSHH,3,odd,174607,177253,7637,167384,NA,178431,25447,173614,NA,176747,7634,NA,178326,178432,178831,178323,Flanker Task,74,41538,83,yes,1024
89.28571429,89.28571429,502.047619,502.047619,black,legacy,legacy,legacy,0,Incongruent,uniform,1,undefined,1,h,83,83,0,0,0,83,0,0,0,83,0,0,83,83,83,83,9/28/19 21:54,600,The main experiment item,yes,FlankerTask.osexp,C:\Users\Jeanette\Desktop\Jeanette Master's\AQM&ED,no,mono,no,18,no,white,no,yes,768,legacy,3,79,C:/Users/Jeanette/Desktop/Jeanette Master's/AQM&ED/jh-subject-3.csv,legacy,Kafkaesque Koffka,3.2.8,0,h,space,space,NA,NA,h,634,17810,6229,NA,NA,634,2,legacy,1024,2,48000,-16,experiment,SSHSS,3,odd,174607,179372,7637,167384,NA,180571,25447,173614,NA,178867,7634,NA,180469,180571,181207,180466,Flanker Task,75,42172,84,yes,1024
89.41176471,89.41176471,502.3058824,502.3058824,black,legacy,legacy,legacy,0,Congruent,uniform,1,undefined,1,h,84,84,0,0,0,84,0,0,0,84,0,0,84,84,84,84,9/28/19 21:54,600,The main experiment item,yes,FlankerTask.osexp,C:\Users\Jeanette\Desktop\Jeanette Master's\AQM&ED,no,mono,no,18,no,white,no,yes,768,legacy,4,79,C:/Users/Jeanette/Desktop/Jeanette Master's/AQM&ED/jh-subject-3.csv,legacy,Kafkaesque Koffka,3.2.8,0,h,space,space,NA,NA,h,524,17810,6229,NA,NA,524,2,legacy,1024,2,48000,-16,experiment,HHHHH,3,odd,181234,181740,7637,167384,NA,182945,25447,173614,NA,178867,7634,NA,182840,182946,183471,182837,Flanker Task,76,42696,85,yes,1024
89.53488372,89.53488372,502.1162791,502.1162791,black,legacy,legacy,legacy,0,Congruent,uniform,1,undefined,1,h,85,85,0,0,0,85,0,0,0,85,0,0,85,85,85,85,9/28/19 21:54,600,The main experiment item,yes,FlankerTask.osexp,C:\Users\Jeanette\Desktop\Jeanette Master's\AQM&ED,no,mono,no,18,no,white,no,yes,768,legacy,5,79,C:/Users/Jeanette/Desktop/Jeanette Master's/AQM&ED/jh-subject-3.csv,legacy,Kafkaesque Koffka,3.2.8,0,h,space,space,NA,NA,h,486,17810,6229,NA,NA,486,2,legacy,1024,2,48000,-16,experiment,HHHHH,3,odd,181234,183489,7637,167384,NA,184680,25447,173614,NA,178867,7634,NA,184575,184680,185167,184572,Flanker Task,77,43182,86,yes,1024
89.65517241,89.65517241,501.4827586,501.4827586,black,legacy,legacy,legacy,0,Congruent,uniform,1,undefined,1,h,86,86,0,0,0,86,0,0,0,86,0,0,86,86,86,86,9/28/19 21:54,600,The main experiment item,yes,FlankerTask.osexp,C:\Users\Jeanette\Desktop\Jeanette Master's\AQM&ED,no,mono,no,18,no,white,no,yes,768,legacy,6,79,C:/Users/Jeanette/Desktop/Jeanette Master's/AQM&ED/jh-subject-3.csv,legacy,Kafkaesque Koffka,3.2.8,0,h,space,space,NA,NA,h,447,17810,6229,NA,NA,447,2,legacy,1024,2,48000,-16,experiment,HHHHH,3,odd,181234,185184,7637,167384,NA,186374,25447,173614,NA,178867,7634,NA,186269,186374,186822,186266,Flanker Task,78,43629,87,yes,1024
89.77272727,89.77272727,500.5113636,500.5113636,black,legacy,legacy,legacy,0,Congruent,uniform,1,undefined,1,h,87,87,0,0,0,87,0,0,0,87,0,0,87,87,87,87,9/28/19 21:54,600,The main experiment item,yes,FlankerTask.osexp,C:\Users\Jeanette\Desktop\Jeanette Master's\AQM&ED,no,mono,no,18,no,white,no,yes,768,legacy,7,79,C:/Users/Jeanette/Desktop/Jeanette Master's/AQM&ED/jh-subject-3.csv,legacy,Kafkaesque Koffka,3.2.8,0,h,space,space,NA,NA,h,416,17810,6229,NA,NA,416,2,legacy,1024,2,48000,-16,experiment,HHHHH,3,odd,181234,186916,7637,167384,NA,188110,25447,173614,NA,178867,7634,NA,188005,188110,188527,188002,Flanker Task,79,44045,88,yes,1024
88.76404494,88.76404494,499.8314607,499.8314607,black,legacy,legacy,legacy,0,Incongruent,uniform,0,undefined,0,h,88,88,0,0,0,88,0,0,0,88,0,0,88,88,88,88,9/28/19 21:54,600,The main experiment item,yes,FlankerTask.osexp,C:\Users\Jeanette\Desktop\Jeanette Master's\AQM&ED,no,mono,no,18,no,white,no,yes,768,legacy,8,79,C:/Users/Jeanette/Desktop/Jeanette Master's/AQM&ED/jh-subject-3.csv,legacy,Kafkaesque Koffka,3.2.8,0,s,space,space,NA,NA,s,440,17810,6229,NA,NA,440,2,legacy,1024,2,48000,-16,experiment,SSHSS,3,odd,181234,188540,7637,167384,NA,189749,25447,173614,NA,178867,7634,NA,189644,189749,190191,189642,Flanker Task,79,44485,89,yes,1024
88.88888889,88.88888889,499.8555556,499.8555556,black,legacy,legacy,legacy,0,Incongruent,uniform,1,undefined,1,h,89,89,0,0,0,89,0,0,0,89,0,0,89,89,89,89,9/28/19 21:54,600,The main experiment item,yes,FlankerTask.osexp,C:\Users\Jeanette\Desktop\Jeanette Master's\AQM&ED,no,mono,no,18,no,white,no,yes,768,legacy,9,79,C:/Users/Jeanette/Desktop/Jeanette Master's/AQM&ED/jh-subject-3.csv,legacy,Kafkaesque Koffka,3.2.8,0,h,space,space,NA,NA,h,502,17810,6229,NA,NA,502,2,legacy,1024,2,48000,-16,experiment,SSHSS,3,odd,181234,190716,7637,167384,NA,191936,25447,173614,NA,190210,7634,NA,191831,191936,192439,191828,Flanker Task,80,44987,90,yes,1024
89.01098901,89.01098901,500.1428571,500.1428571,black,legacy,legacy,legacy,0,Incongruent,uniform,1,undefined,1,s,90,90,0,0,0,90,0,0,0,90,0,0,90,90,90,90,9/28/19 21:54,600,The main experiment item,yes,FlankerTask.osexp,C:\Users\Jeanette\Desktop\Jeanette Master's\AQM&ED,no,mono,no,18,no,white,no,yes,768,legacy,10,79,C:/Users/Jeanette/Desktop/Jeanette Master's/AQM&ED/jh-subject-3.csv,legacy,Kafkaesque Koffka,3.2.8,0,s,space,space,NA,NA,s,526,17810,6229,NA,NA,526,2,legacy,1024,2,48000,-16,experiment,HHSHH,3,odd,181234,192457,7637,167384,NA,193647,25447,173614,NA,190210,7634,NA,193541,193647,194174,193539,Flanker Task,81,45513,91,yes,1024
89.13043478,89.13043478,499.5217391,499.5217391,black,legacy,legacy,legacy,0,Congruent,uniform,1,undefined,1,h,91,91,0,0,0,91,0,0,0,91,0,0,91,91,91,91,9/28/19 21:54,600,The main experiment item,yes,FlankerTask.osexp,C:\Users\Jeanette\Desktop\Jeanette Master's\AQM&ED,no,mono,no,18,no,white,no,yes,768,legacy,11,79,C:/Users/Jeanette/Desktop/Jeanette Master's/AQM&ED/jh-subject-3.csv,legacy,Kafkaesque Koffka,3.2.8,0,h,space,space,NA,NA,h,443,17810,6229,NA,NA,443,2,legacy,1024,2,48000,-16,experiment,HHHHH,3,odd,181234,194190,7637,167384,NA,195411,25447,173614,NA,190210,7634,NA,195305,195411,195855,195302,Flanker Task,82,45956,92,yes,1024
89.24731183,89.24731183,499.8494624,499.8494624,black,legacy,legacy,legacy,0,Congruent,uniform,1,undefined,1,h,92,92,0,0,0,92,0,0,0,92,0,0,92,92,92,92,9/28/19 21:54,600,The main experiment item,yes,FlankerTask.osexp,C:\Users\Jeanette\Desktop\Jeanette Master's\AQM&ED,no,mono,no,18,no,white,no,yes,768,legacy,12,79,C:/Users/Jeanette/Desktop/Jeanette Master's/AQM&ED/jh-subject-3.csv,legacy,Kafkaesque Koffka,3.2.8,0,h,space,space,NA,NA,h,530,17810,6229,NA,NA,530,2,legacy,1024,2,48000,-16,experiment,HHHHH,3,odd,181234,195877,7637,167384,NA,197076,25447,173614,NA,190210,7634,NA,196971,197076,197607,196968,Flanker Task,83,46486,93,yes,1024
89.36170213,89.36170213,501.2659574,501.2659574,black,legacy,legacy,legacy,0,Incongruent,uniform,1,undefined,1,h,93,93,0,0,0,93,0,0,0,93,0,0,93,93,93,93,9/28/19 21:54,600,The main experiment item,yes,FlankerTask.osexp,C:\Users\Jeanette\Desktop\Jeanette Master's\AQM&ED,no,mono,no,18,no,white,no,yes,768,legacy,13,79,C:/Users/Jeanette/Desktop/Jeanette Master's/AQM&ED/jh-subject-3.csv,legacy,Kafkaesque Koffka,3.2.8,0,h,space,space,NA,NA,h,633,17810,6229,NA,NA,633,2,legacy,1024,2,48000,-16,experiment,SSHSS,3,odd,181234,197634,7637,167384,NA,198852,25447,173614,NA,190210,7634,NA,198747,198852,199486,198744,Flanker Task,84,47119,94,yes,1024
89.47368421,89.47368421,501,501,black,legacy,legacy,legacy,0,Incongruent,uniform,1,undefined,1,h,94,94,0,0,0,94,0,0,0,94,0,0,94,94,94,94,9/28/19 21:54,600,The main experiment item,yes,FlankerTask.osexp,C:\Users\Jeanette\Desktop\Jeanette Master's\AQM&ED,no,mono,no,18,no,white,no,yes,768,legacy,14,79,C:/Users/Jeanette/Desktop/Jeanette Master's/AQM&ED/jh-subject-3.csv,legacy,Kafkaesque Koffka,3.2.8,0,h,space,space,NA,NA,h,476,17810,6229,NA,NA,476,2,legacy,1024,2,48000,-16,experiment,SSHSS,3,odd,199510,200015,7637,167384,NA,201233,25447,173614,NA,190210,7634,NA,201128,201233,201711,201125,Flanker Task,85,47595,95,yes,1024
89.58333333,89.58333333,499.6354167,499.6354167,black,legacy,legacy,legacy,0,Congruent,uniform,1,undefined,1,h,95,95,0,0,0,95,0,0,0,95,0,0,95,95,95,95,9/28/19 21:54,600,The main experiment item,yes,FlankerTask.osexp,C:\Users\Jeanette\Desktop\Jeanette Master's\AQM&ED,no,mono,no,18,no,white,no,yes,768,legacy,15,79,C:/Users/Jeanette/Desktop/Jeanette Master's/AQM&ED/jh-subject-3.csv,legacy,Kafkaesque Koffka,3.2.8,0,h,space,space,NA,NA,h,370,17810,6229,NA,NA,370,2,legacy,1024,2,48000,-16,experiment,HHHHH,3,odd,199510,201726,7637,167384,NA,202924,25447,173614,NA,190210,7634,NA,202819,202924,203295,202816,Flanker Task,86,47965,96,yes,1024
89.69072165,89.69072165,498.6391753,498.6391753,black,legacy,legacy,legacy,0,Congruent,uniform,1,undefined,1,h,96,96,0,0,0,96,0,0,0,96,0,0,96,96,96,96,9/28/19 21:54,600,The main experiment item,yes,FlankerTask.osexp,C:\Users\Jeanette\Desktop\Jeanette Master's\AQM&ED,no,mono,no,18,no,white,no,yes,768,legacy,16,79,C:/Users/Jeanette/Desktop/Jeanette Master's/AQM&ED/jh-subject-3.csv,legacy,Kafkaesque Koffka,3.2.8,0,h,space,space,NA,NA,h,403,17810,6229,NA,NA,403,2,legacy,1024,2,48000,-16,experiment,HHHHH,3,odd,199510,203318,7637,167384,NA,204515,25447,173614,NA,190210,7634,NA,204409,204515,204919,204407,Flanker Task,87,48368,97,yes,1024
89.79591837,89.79591837,497.9591837,497.9591837,black,legacy,legacy,legacy,0,Incongruent,uniform,1,undefined,1,s,97,97,0,0,0,97,0,0,0,97,0,0,97,97,97,97,9/28/19 21:54,600,The main experiment item,yes,FlankerTask.osexp,C:\Users\Jeanette\Desktop\Jeanette Master's\AQM&ED,no,mono,no,18,no,white,no,yes,768,legacy,17,79,C:/Users/Jeanette/Desktop/Jeanette Master's/AQM&ED/jh-subject-3.csv,legacy,Kafkaesque Koffka,3.2.8,0,s,space,space,NA,NA,s,432,17810,6229,NA,NA,432,2,legacy,1024,2,48000,-16,experiment,HHSHH,3,odd,199510,204936,7637,167384,NA,206117,25447,173614,NA,190210,7634,NA,206012,206117,206550,206009,Flanker Task,88,48800,98,yes,1024
89.8989899,89.8989899,497.3838384,497.3838384,black,legacy,legacy,legacy,0,Congruent,uniform,1,undefined,1,s,98,98,0,0,0,98,0,0,0,98,0,0,98,98,98,98,9/28/19 21:54,600,The main experiment item,yes,FlankerTask.osexp,C:\Users\Jeanette\Desktop\Jeanette Master's\AQM&ED,no,mono,no,18,no,white,no,yes,768,legacy,18,79,C:/Users/Jeanette/Desktop/Jeanette Master's/AQM&ED/jh-subject-3.csv,legacy,Kafkaesque Koffka,3.2.8,0,s,space,space,NA,NA,s,441,17810,6229,NA,NA,441,2,legacy,1024,2,48000,-16,experiment,SSSSS,3,odd,199510,206568,7637,167384,NA,207780,25447,173614,NA,190210,7634,NA,207675,207780,208223,207672,Flanker Task,89,49241,99,yes,1024
90,90,499.94,499.94,black,legacy,legacy,legacy,0,Congruent,uniform,1,undefined,1,h,99,99,0,0,0,99,0,0,0,99,0,0,99,99,99,99,9/28/19 21:54,600,The main experiment item,yes,FlankerTask.osexp,C:\Users\Jeanette\Desktop\Jeanette Master's\AQM&ED,no,mono,no,18,no,white,no,yes,768,legacy,19,79,C:/Users/Jeanette/Desktop/Jeanette Master's/AQM&ED/jh-subject-3.csv,legacy,Kafkaesque Koffka,3.2.8,0,h,space,space,NA,NA,h,753,17810,6229,NA,NA,753,2,legacy,1024,2,48000,-16,experiment,HHHHH,3,odd,199510,208244,7637,167384,NA,209420,25447,173614,NA,190210,7634,NA,209317,209420,210174,209316,Flanker Task,90,49994,100,yes,1024
90.0990099,90.0990099,500.2970297,500.2970297,black,legacy,legacy,legacy,0,Incongruent,uniform,1,undefined,1,s,100,100,0,0,0,100,0,0,0,100,0,0,100,100,100,100,9/28/19 21:54,600,The main experiment item,yes,FlankerTask.osexp,C:\Users\Jeanette\Desktop\Jeanette Master's\AQM&ED,no,mono,no,18,no,white,no,yes,768,legacy,20,79,C:/Users/Jeanette/Desktop/Jeanette Master's/AQM&ED/jh-subject-3.csv,legacy,Kafkaesque Koffka,3.2.8,0,s,space,space,NA,NA,s,536,17810,6229,NA,NA,536,2,legacy,1024,2,48000,-16,experiment,HHSHH,3,odd,210203,210708,7637,167384,NA,211901,25447,173614,NA,190210,7634,NA,211796,211902,212439,211794,Flanker Task,91,50530,101,yes,1024
89.21568627,89.21568627,499.3431373,499.3431373,black,legacy,legacy,legacy,0,Incongruent,uniform,0,undefined,0,s,101,101,0,0,0,101,0,0,0,101,0,0,101,101,101,101,9/28/19 21:54,600,The main experiment item,yes,FlankerTask.osexp,C:\Users\Jeanette\Desktop\Jeanette Master's\AQM&ED,no,mono,no,18,no,white,no,yes,768,legacy,21,79,C:/Users/Jeanette/Desktop/Jeanette Master's/AQM&ED/jh-subject-3.csv,legacy,Kafkaesque Koffka,3.2.8,0,h,space,space,NA,NA,h,403,17810,6229,NA,NA,403,2,legacy,1024,2,48000,-16,experiment,HHSHH,3,odd,210203,212462,7637,167384,NA,213675,25447,173614,NA,190210,7634,NA,213569,213675,214079,213566,Flanker Task,91,50933,102,yes,1024
89.32038835,89.32038835,499.368932,499.368932,black,legacy,legacy,legacy,0,Congruent,uniform,1,undefined,1,s,102,102,0,0,0,102,0,0,0,102,0,0,102,102,102,102,9/28/19 21:54,600,The main experiment item,yes,FlankerTask.osexp,C:\Users\Jeanette\Desktop\Jeanette Master's\AQM&ED,no,mono,no,18,no,white,no,yes,768,legacy,22,79,C:/Users/Jeanette/Desktop/Jeanette Master's/AQM&ED/jh-subject-3.csv,legacy,Kafkaesque Koffka,3.2.8,0,s,space,space,NA,NA,s,502,17810,6229,NA,NA,502,2,legacy,1024,2,48000,-16,experiment,SSSSS,3,odd,210203,214608,7637,167384,NA,215816,25447,173614,NA,214103,7634,NA,215711,215816,216319,215708,Flanker Task,92,51435,103,yes,1024
89.42307692,89.42307692,499.6346154,499.6346154,black,legacy,legacy,legacy,0,Incongruent,uniform,1,undefined,1,h,103,103,0,0,0,103,0,0,0,103,0,0,103,103,103,103,9/28/19 21:54,600,The main experiment item,yes,FlankerTask.osexp,C:\Users\Jeanette\Desktop\Jeanette Master's\AQM&ED,no,mono,no,18,no,white,no,yes,768,legacy,23,79,C:/Users/Jeanette/Desktop/Jeanette Master's/AQM&ED/jh-subject-3.csv,legacy,Kafkaesque Koffka,3.2.8,0,h,space,space,NA,NA,h,527,17810,6229,NA,NA,527,2,legacy,1024,2,48000,-16,experiment,SSHSS,3,odd,210203,216345,7637,167384,NA,217559,25447,173614,NA,214103,7634,NA,217453,217559,218087,217451,Flanker Task,93,51962,104,yes,1024
89.52380952,89.52380952,499.4571429,499.4571429,black,legacy,legacy,legacy,0,Incongruent,uniform,1,undefined,1,s,104,104,0,0,0,104,0,0,0,104,0,0,104,104,104,104,9/28/19 21:54,600,The main experiment item,yes,FlankerTask.osexp,C:\Users\Jeanette\Desktop\Jeanette Master's\AQM&ED,no,mono,no,18,no,white,no,yes,768,legacy,24,79,C:/Users/Jeanette/Desktop/Jeanette Master's/AQM&ED/jh-subject-3.csv,legacy,Kafkaesque Koffka,3.2.8,0,s,space,space,NA,NA,s,481,17810,6229,NA,NA,481,2,legacy,1024,2,48000,-16,experiment,HHSHH,3,odd,210203,218113,7637,167384,NA,219308,25447,173614,NA,214103,7634,NA,219203,219308,219791,219200,Flanker Task,94,52443,105,yes,1024
89.62264151,89.62264151,498.5754717,498.5754717,black,legacy,legacy,legacy,0,Congruent,uniform,1,undefined,1,s,105,105,0,0,0,105,0,0,0,105,0,0,105,105,105,105,9/28/19 21:54,600,The main experiment item,yes,FlankerTask.osexp,C:\Users\Jeanette\Desktop\Jeanette Master's\AQM&ED,no,mono,no,18,no,white,no,yes,768,legacy,25,79,C:/Users/Jeanette/Desktop/Jeanette Master's/AQM&ED/jh-subject-3.csv,legacy,Kafkaesque Koffka,3.2.8,0,s,space,space,NA,NA,s,406,17810,6229,NA,NA,406,2,legacy,1024,2,48000,-16,experiment,SSSSS,3,odd,210203,219821,7637,167384,NA,221007,25447,173614,NA,214103,7634,NA,220902,221008,221415,220900,Flanker Task,95,52849,106,yes,1024
89.71962617,89.71962617,498.4392523,498.4392523,black,legacy,legacy,legacy,0,Incongruent,uniform,1,undefined,1,s,106,106,0,0,0,106,0,0,0,106,0,0,106,106,106,106,9/28/19 21:54,600,The main experiment item,yes,FlankerTask.osexp,C:\Users\Jeanette\Desktop\Jeanette Master's\AQM&ED,no,mono,no,18,no,white,no,yes,768,legacy,26,79,C:/Users/Jeanette/Desktop/Jeanette Master's/AQM&ED/jh-subject-3.csv,legacy,Kafkaesque Koffka,3.2.8,0,s,space,space,NA,NA,s,484,17810,6229,NA,NA,484,2,legacy,1024,2,48000,-16,experiment,HHSHH,3,odd,210203,221428,7637,167384,NA,222633,25447,173614,NA,214103,7634,NA,222528,222633,223119,222525,Flanker Task,96,53333,107,yes,1024
89.81481481,89.81481481,497.3611111,497.3611111,black,legacy,legacy,legacy,0,Congruent,uniform,1,undefined,1,h,107,107,0,0,0,107,0,0,0,107,0,0,107,107,107,107,9/28/19 21:54,600,The main experiment item,yes,FlankerTask.osexp,C:\Users\Jeanette\Desktop\Jeanette Master's\AQM&ED,no,mono,no,18,no,white,no,yes,768,legacy,27,79,C:/Users/Jeanette/Desktop/Jeanette Master's/AQM&ED/jh-subject-3.csv,legacy,Kafkaesque Koffka,3.2.8,0,h,space,space,NA,NA,h,382,17810,6229,NA,NA,382,2,legacy,1024,2,48000,-16,experiment,HHHHH,3,odd,210203,223138,7637,167384,NA,224343,25447,173614,NA,214103,7634,NA,224238,224343,224727,224236,Flanker Task,97,53715,108,yes,1024
89.90825688,89.90825688,497.2752294,497.2752294,black,legacy,legacy,legacy,0,Congruent,uniform,1,undefined,1,s,108,108,0,0,0,108,0,0,0,108,0,0,108,108,108,108,9/28/19 21:54,600,The main experiment item,yes,FlankerTask.osexp,C:\Users\Jeanette\Desktop\Jeanette Master's\AQM&ED,no,mono,no,18,no,white,no,yes,768,legacy,28,79,C:/Users/Jeanette/Desktop/Jeanette Master's/AQM&ED/jh-subject-3.csv,legacy,Kafkaesque Koffka,3.2.8,0,s,space,space,NA,NA,s,488,17810,6229,NA,NA,488,2,legacy,1024,2,48000,-16,experiment,SSSSS,3,odd,210203,224799,7637,167384,NA,226037,25447,173614,NA,214103,7634,NA,225932,226037,226526,225928,Flanker Task,98,54203,109,yes,1024
90,90,496.7,496.7,black,legacy,legacy,legacy,0,Congruent,uniform,1,undefined,1,s,109,109,0,0,0,109,0,0,0,109,0,0,109,109,109,109,9/28/19 21:54,600,The main experiment item,yes,FlankerTask.osexp,C:\Users\Jeanette\Desktop\Jeanette Master's\AQM&ED,no,mono,no,18,no,white,no,yes,768,legacy,29,79,C:/Users/Jeanette/Desktop/Jeanette Master's/AQM&ED/jh-subject-3.csv,legacy,Kafkaesque Koffka,3.2.8,0,s,space,space,NA,NA,s,434,17810,6229,NA,NA,434,2,legacy,1024,2,48000,-16,experiment,SSSSS,3,odd,210203,226554,7637,167384,NA,227764,25447,173614,NA,214103,7634,NA,227659,227764,228199,227656,Flanker Task,99,54637,110,yes,1024
90.09009009,90.09009009,496.045045,496.045045,black,legacy,legacy,legacy,0,Congruent,uniform,1,undefined,1,s,110,110,0,0,0,110,0,0,0,110,0,0,110,110,110,110,9/28/19 21:54,600,The main experiment item,yes,FlankerTask.osexp,C:\Users\Jeanette\Desktop\Jeanette Master's\AQM&ED,no,mono,no,18,no,white,no,yes,768,legacy,30,79,C:/Users/Jeanette/Desktop/Jeanette Master's/AQM&ED/jh-subject-3.csv,legacy,Kafkaesque Koffka,3.2.8,0,s,space,space,NA,NA,s,424,17810,6229,NA,NA,424,2,legacy,1024,2,48000,-16,experiment,SSSSS,3,odd,210203,228212,7637,167384,NA,229413,25447,173614,NA,214103,7634,NA,229308,229413,229838,229306,Flanker Task,100,55061,111,yes,1024
90.17857143,90.17857143,495.4821429,495.4821429,black,legacy,legacy,legacy,0,Incongruent,uniform,1,undefined,1,h,111,111,0,0,0,111,0,0,0,111,0,0,111,111,111,111,9/28/19 21:54,600,The main experiment item,yes,FlankerTask.osexp,C:\Users\Jeanette\Desktop\Jeanette Master's\AQM&ED,no,mono,no,18,no,white,no,yes,768,legacy,31,79,C:/Users/Jeanette/Desktop/Jeanette Master's/AQM&ED/jh-subject-3.csv,legacy,Kafkaesque Koffka,3.2.8,0,h,space,space,NA,NA,h,433,17810,6229,NA,NA,433,2,legacy,1024,2,48000,-16,experiment,SSHSS,3,odd,210203,229855,7637,167384,NA,231060,25447,173614,NA,214103,7634,NA,230955,231060,231494,230952,Flanker Task,101,55494,112,yes,1024
90.26548673,90.26548673,494.4778761,494.4778761,black,legacy,legacy,legacy,0,Incongruent,uniform,1,undefined,1,s,112,112,0,0,0,112,0,0,0,112,0,0,112,112,112,112,9/28/19 21:54,600,The main experiment item,yes,FlankerTask.osexp,C:\Users\Jeanette\Desktop\Jeanette Master's\AQM&ED,no,mono,no,18,no,white,no,yes,768,legacy,32,79,C:/Users/Jeanette/Desktop/Jeanette Master's/AQM&ED/jh-subject-3.csv,legacy,Kafkaesque Koffka,3.2.8,0,s,space,space,NA,NA,s,382,17810,6229,NA,NA,382,2,legacy,1024,2,48000,-16,experiment,HHSHH,3,odd,210203,231512,7637,167384,NA,232719,25447,173614,NA,214103,7634,NA,232614,232719,233102,232611,Flanker Task,102,55876,113,yes,1024
89.47368421,89.47368421,494.4473684,494.4473684,black,legacy,legacy,legacy,0,Incongruent,uniform,0,undefined,0,h,113,113,0,0,0,113,0,0,0,113,0,0,113,113,113,113,9/28/19 21:54,600,The main experiment item,yes,FlankerTask.osexp,C:\Users\Jeanette\Desktop\Jeanette Master's\AQM&ED,no,mono,no,18,no,white,no,yes,768,legacy,33,79,C:/Users/Jeanette/Desktop/Jeanette Master's/AQM&ED/jh-subject-3.csv,legacy,Kafkaesque Koffka,3.2.8,0,s,space,space,NA,NA,s,491,17810,6229,NA,NA,491,2,legacy,1024,2,48000,-16,experiment,SSHSS,3,odd,210203,233121,7637,167384,NA,234330,25447,173614,NA,214103,7634,NA,234225,234330,234823,234222,Flanker Task,102,56367,114,yes,1024
89.56521739,89.56521739,494.1826087,494.1826087,black,legacy,legacy,legacy,0,Congruent,uniform,1,undefined,1,s,114,114,0,0,0,114,0,0,0,114,0,0,114,114,114,114,9/28/19 21:54,600,The main experiment item,yes,FlankerTask.osexp,C:\Users\Jeanette\Desktop\Jeanette Master's\AQM&ED,no,mono,no,18,no,white,no,yes,768,legacy,34,79,C:/Users/Jeanette/Desktop/Jeanette Master's/AQM&ED/jh-subject-3.csv,legacy,Kafkaesque Koffka,3.2.8,0,s,space,space,NA,NA,s,464,17810,6229,NA,NA,464,2,legacy,1024,2,48000,-16,experiment,SSSSS,3,odd,210203,235344,7637,167384,NA,236558,25447,173614,NA,234839,7634,NA,236453,236558,237023,236450,Flanker Task,103,56831,115,yes,1024
88.79310345,88.79310345,493.6206897,493.6206897,black,legacy,legacy,legacy,0,Incongruent,uniform,0,undefined,0,s,115,115,0,0,0,115,0,0,0,115,0,0,115,115,115,115,9/28/19 21:54,600,The main experiment item,yes,FlankerTask.osexp,C:\Users\Jeanette\Desktop\Jeanette Master's\AQM&ED,no,mono,no,18,no,white,no,yes,768,legacy,35,79,C:/Users/Jeanette/Desktop/Jeanette Master's/AQM&ED/jh-subject-3.csv,legacy,Kafkaesque Koffka,3.2.8,0,h,space,space,NA,NA,h,429,17810,6229,NA,NA,429,2,legacy,1024,2,48000,-16,experiment,HHSHH,3,odd,210203,237048,7637,167384,NA,238240,25447,173614,NA,234839,7634,NA,238135,238240,238670,238131,Flanker Task,103,57260,116,yes,1024
88.88888889,88.88888889,494.4957265,494.4957265,black,legacy,legacy,legacy,0,Incongruent,uniform,1,undefined,1,s,116,116,0,0,0,116,0,0,0,116,0,0,116,116,116,116,9/28/19 21:54,600,The main experiment item,yes,FlankerTask.osexp,C:\Users\Jeanette\Desktop\Jeanette Master's\AQM&ED,no,mono,no,18,no,white,no,yes,768,legacy,36,79,C:/Users/Jeanette/Desktop/Jeanette Master's/AQM&ED/jh-subject-3.csv,legacy,Kafkaesque Koffka,3.2.8,0,s,space,space,NA,NA,s,596,17810,6229,NA,NA,596,2,legacy,1024,2,48000,-16,experiment,HHSHH,3,odd,210203,239204,7637,167384,NA,240417,25447,173614,NA,238698,7634,NA,240312,240417,241014,240309,Flanker Task,104,57856,117,yes,1024
88.13559322,88.13559322,493.6610169,493.6610169,black,legacy,legacy,legacy,0,Incongruent,uniform,0,undefined,0,h,117,117,0,0,0,117,0,0,0,117,0,0,117,117,117,117,9/28/19 21:54,600,The main experiment item,yes,FlankerTask.osexp,C:\Users\Jeanette\Desktop\Jeanette Master's\AQM&ED,no,mono,no,18,no,white,no,yes,768,legacy,37,79,C:/Users/Jeanette/Desktop/Jeanette Master's/AQM&ED/jh-subject-3.csv,legacy,Kafkaesque Koffka,3.2.8,0,s,space,space,NA,NA,s,396,17810,6229,NA,NA,396,2,legacy,1024,2,48000,-16,experiment,SSHSS,3,odd,210203,241030,7637,167384,NA,242249,25447,173614,NA,238698,7634,NA,242144,242249,242646,242141,Flanker Task,104,58252,118,yes,1024
88.23529412,88.23529412,493.8403361,493.8403361,black,legacy,legacy,legacy,0,Incongruent,uniform,1,undefined,1,h,118,118,0,0,0,118,0,0,0,118,0,0,118,118,118,118,9/28/19 21:54,600,The main experiment item,yes,FlankerTask.osexp,C:\Users\Jeanette\Desktop\Jeanette Master's\AQM&ED,no,mono,no,18,no,white,no,yes,768,legacy,38,79,C:/Users/Jeanette/Desktop/Jeanette Master's/AQM&ED/jh-subject-3.csv,legacy,Kafkaesque Koffka,3.2.8,0,h,space,space,NA,NA,h,515,17810,6229,NA,NA,515,2,legacy,1024,2,48000,-16,experiment,SSHSS,3,odd,210203,243167,7637,167384,NA,244378,25447,173614,NA,242665,7634,NA,244273,244378,244895,244270,Flanker Task,105,58767,119,yes,1024
88.33333333,88.33333333,495.05,495.05,black,legacy,legacy,legacy,0,Incongruent,uniform,1,undefined,1,h,119,119,0,0,0,119,0,0,0,119,0,0,119,119,119,119,9/28/19 21:54,600,The main experiment item,yes,FlankerTask.osexp,C:\Users\Jeanette\Desktop\Jeanette Master's\AQM&ED,no,mono,no,18,no,white,no,yes,768,legacy,39,79,C:/Users/Jeanette/Desktop/Jeanette Master's/AQM&ED/jh-subject-3.csv,legacy,Kafkaesque Koffka,3.2.8,0,h,space,space,NA,NA,h,639,17810,6229,NA,NA,639,2,legacy,1024,2,48000,-16,experiment,SSHSS,3,odd,210203,244923,7637,167384,NA,246125,25447,173614,NA,242665,7634,NA,246020,246126,246766,246017,Flanker Task,106,59406,120,yes,1024
88.42975207,88.42975207,495.677686,495.677686,black,legacy,legacy,legacy,0,Incongruent,uniform,1,undefined,1,s,120,120,0,0,0,120,0,0,0,120,0,0,120,120,120,120,9/28/19 21:54,600,The main experiment item,yes,FlankerTask.osexp,C:\Users\Jeanette\Desktop\Jeanette Master's\AQM&ED,no,mono,no,18,no,white,no,yes,768,legacy,40,79,C:/Users/Jeanette/Desktop/Jeanette Master's/AQM&ED/jh-subject-3.csv,legacy,Kafkaesque Koffka,3.2.8,0,s,space,space,NA,NA,s,571,17810,6229,NA,NA,571,2,legacy,1024,2,48000,-16,experiment,HHSHH,3,odd,246780,247286,7637,167384,NA,248523,25447,173614,NA,242665,7634,NA,248418,248523,249095,248415,Flanker Task,107,59977,121,yes,1024
88.52459016,88.52459016,495.3114754,495.3114754,black,legacy,legacy,legacy,0,Incongruent,uniform,1,undefined,1,s,121,121,0,0,0,121,0,0,0,121,0,0,121,121,121,121,9/28/19 21:54,600,The main experiment item,yes,FlankerTask.osexp,C:\Users\Jeanette\Desktop\Jeanette Master's\AQM&ED,no,mono,no,18,no,white,no,yes,768,legacy,41,79,C:/Users/Jeanette/Desktop/Jeanette Master's/AQM&ED/jh-subject-3.csv,legacy,Kafkaesque Koffka,3.2.8,0,s,space,space,NA,NA,s,451,17810,6229,NA,NA,451,2,legacy,1024,2,48000,-16,experiment,HHSHH,3,odd,246780,249124,7637,167384,NA,250321,25447,173614,NA,242665,7634,NA,250216,250322,250775,250213,Flanker Task,108,60428,122,yes,1024
88.61788618,88.61788618,494.5365854,494.5365854,black,legacy,legacy,legacy,0,Congruent,uniform,1,undefined,1,h,122,122,0,0,0,122,0,0,0,122,0,0,122,122,122,122,9/28/19 21:54,600,The main experiment item,yes,FlankerTask.osexp,C:\Users\Jeanette\Desktop\Jeanette Master's\AQM&ED,no,mono,no,18,no,white,no,yes,768,legacy,42,79,C:/Users/Jeanette/Desktop/Jeanette Master's/AQM&ED/jh-subject-3.csv,legacy,Kafkaesque Koffka,3.2.8,0,h,space,space,NA,NA,h,400,17810,6229,NA,NA,400,2,legacy,1024,2,48000,-16,experiment,HHHHH,3,odd,246780,250799,7637,167384,NA,251998,25447,173614,NA,242665,7634,NA,251893,251998,252399,251890,Flanker Task,109,60828,123,yes,1024
87.90322581,87.90322581,494.4919355,494.4919355,black,legacy,legacy,legacy,0,Incongruent,uniform,0,undefined,0,h,123,123,0,0,0,123,0,0,0,123,0,0,123,123,123,123,9/28/19 21:54,600,The main experiment item,yes,FlankerTask.osexp,C:\Users\Jeanette\Desktop\Jeanette Master's\AQM&ED,no,mono,no,18,no,white,no,yes,768,legacy,43,79,C:/Users/Jeanette/Desktop/Jeanette Master's/AQM&ED/jh-subject-3.csv,legacy,Kafkaesque Koffka,3.2.8,0,s,space,space,NA,NA,s,489,17810,6229,NA,NA,489,2,legacy,1024,2,48000,-16,experiment,SSHSS,3,odd,246780,252425,7637,167384,NA,253620,25447,173614,NA,242665,7634,NA,253515,253620,254111,253512,Flanker Task,109,61317,124,yes,1024
88,88,494.192,494.192,black,legacy,legacy,legacy,0,Incongruent,uniform,1,undefined,1,h,124,124,0,0,0,124,0,0,0,124,0,0,124,124,124,124,9/28/19 21:54,600,The main experiment item,yes,FlankerTask.osexp,C:\Users\Jeanette\Desktop\Jeanette Master's\AQM&ED,no,mono,no,18,no,white,no,yes,768,legacy,44,79,C:/Users/Jeanette/Desktop/Jeanette Master's/AQM&ED/jh-subject-3.csv,legacy,Kafkaesque Koffka,3.2.8,0,h,space,space,NA,NA,h,457,17810,6229,NA,NA,457,2,legacy,1024,2,48000,-16,experiment,SSHSS,3,odd,246780,254637,7637,167384,NA,255851,25447,173614,NA,254132,7634,NA,255746,255852,256311,255743,Flanker Task,110,61774,125,yes,1024
88.0952381,88.0952381,494.0873016,494.0873016,black,legacy,legacy,legacy,0,Congruent,uniform,1,undefined,1,s,125,125,0,0,0,125,0,0,0,125,0,0,125,125,125,125,9/28/19 21:54,600,The main experiment item,yes,FlankerTask.osexp,C:\Users\Jeanette\Desktop\Jeanette Master's\AQM&ED,no,mono,no,18,no,white,no,yes,768,legacy,45,79,C:/Users/Jeanette/Desktop/Jeanette Master's/AQM&ED/jh-subject-3.csv,legacy,Kafkaesque Koffka,3.2.8,0,s,space,space,NA,NA,s,481,17810,6229,NA,NA,481,2,legacy,1024,2,48000,-16,experiment,SSSSS,3,odd,246780,256332,7637,167384,NA,257524,25447,173614,NA,254132,7634,NA,257419,257524,258006,257416,Flanker Task,111,62255,126,yes,1024
88.18897638,88.18897638,493.8267717,493.8267717,black,legacy,legacy,legacy,0,Congruent,uniform,1,undefined,1,h,126,126,0,0,0,126,0,0,0,126,0,0,126,126,126,126,9/28/19 21:54,600,The main experiment item,yes,FlankerTask.osexp,C:\Users\Jeanette\Desktop\Jeanette Master's\AQM&ED,no,mono,no,18,no,white,no,yes,768,legacy,46,79,C:/Users/Jeanette/Desktop/Jeanette Master's/AQM&ED/jh-subject-3.csv,legacy,Kafkaesque Koffka,3.2.8,0,h,space,space,NA,NA,h,461,17810,6229,NA,NA,461,2,legacy,1024,2,48000,-16,experiment,HHHHH,3,odd,246780,258023,7637,167384,NA,259232,25447,173614,NA,254132,7634,NA,259127,259232,259694,259124,Flanker Task,112,62716,127,yes,1024
88.28125,88.28125,494.4453125,494.4453125,black,legacy,legacy,legacy,0,Congruent,uniform,1,undefined,1,s,127,127,0,0,0,127,0,0,0,127,0,0,127,127,127,127,9/28/19 21:54,600,The main experiment item,yes,FlankerTask.osexp,C:\Users\Jeanette\Desktop\Jeanette Master's\AQM&ED,no,mono,no,18,no,white,no,yes,768,legacy,47,79,C:/Users/Jeanette/Desktop/Jeanette Master's/AQM&ED/jh-subject-3.csv,legacy,Kafkaesque Koffka,3.2.8,0,s,space,space,NA,NA,s,573,17810,6229,NA,NA,573,2,legacy,1024,2,48000,-16,experiment,SSSSS,3,odd,246780,259715,7637,167384,NA,260936,25447,173614,NA,254132,7634,NA,260831,260936,261511,260827,Flanker Task,113,63289,128,yes,1024
88.37209302,88.37209302,494.0542636,494.0542636,black,legacy,legacy,legacy,0,Incongruent,uniform,1,undefined,1,h,128,128,0,0,0,128,0,0,0,128,0,0,128,128,128,128,9/28/19 21:54,600,The main experiment item,yes,FlankerTask.osexp,C:\Users\Jeanette\Desktop\Jeanette Master's\AQM&ED,no,mono,no,18,no,white,no,yes,768,legacy,48,79,C:/Users/Jeanette/Desktop/Jeanette Master's/AQM&ED/jh-subject-3.csv,legacy,Kafkaesque Koffka,3.2.8,0,h,space,space,NA,NA,h,444,17810,6229,NA,NA,444,2,legacy,1024,2,48000,-16,experiment,SSHSS,3,odd,246780,261533,7637,167384,NA,262745,25447,173614,NA,254132,7634,NA,262640,262745,263191,262637,Flanker Task,114,63733,129,yes,1024
88.46153846,88.46153846,493.3307692,493.3307692,black,legacy,legacy,legacy,0,Congruent,uniform,1,undefined,1,s,129,129,0,0,0,129,0,0,0,129,0,0,129,129,129,129,9/28/19 21:54,600,The main experiment item,yes,FlankerTask.osexp,C:\Users\Jeanette\Desktop\Jeanette Master's\AQM&ED,no,mono,no,18,no,white,no,yes,768,legacy,49,79,C:/Users/Jeanette/Desktop/Jeanette Master's/AQM&ED/jh-subject-3.csv,legacy,Kafkaesque Koffka,3.2.8,0,s,space,space,NA,NA,s,400,17810,6229,NA,NA,400,2,legacy,1024,2,48000,-16,experiment,SSSSS,3,odd,246780,263217,7637,167384,NA,264405,25447,173614,NA,254132,7634,NA,264299,264405,264806,264296,Flanker Task,115,64133,130,yes,1024
88.54961832,88.54961832,492.9312977,492.9312977,black,legacy,legacy,legacy,0,Congruent,uniform,1,undefined,1,s,130,130,0,0,0,130,0,0,0,130,0,0,130,130,130,130,9/28/19 21:54,600,The main experiment item,yes,FlankerTask.osexp,C:\Users\Jeanette\Desktop\Jeanette Master's\AQM&ED,no,mono,no,18,no,white,no,yes,768,legacy,50,79,C:/Users/Jeanette/Desktop/Jeanette Master's/AQM&ED/jh-subject-3.csv,legacy,Kafkaesque Koffka,3.2.8,0,s,space,space,NA,NA,s,441,17810,6229,NA,NA,441,2,legacy,1024,2,48000,-16,experiment,SSSSS,3,odd,246780,264824,7637,167384,NA,266020,25447,173614,NA,254132,7634,NA,265915,266020,266463,265912,Flanker Task,116,64574,131,yes,1024
88.63636364,88.63636364,493.2878788,493.2878788,black,legacy,legacy,legacy,0,Incongruent,uniform,1,undefined,1,h,131,131,0,0,0,131,0,0,0,131,0,0,131,131,131,131,9/28/19 21:54,600,The main experiment item,yes,FlankerTask.osexp,C:\Users\Jeanette\Desktop\Jeanette Master's\AQM&ED,no,mono,no,18,no,white,no,yes,768,legacy,51,79,C:/Users/Jeanette/Desktop/Jeanette Master's/AQM&ED/jh-subject-3.csv,legacy,Kafkaesque Koffka,3.2.8,0,h,space,space,NA,NA,h,540,17810,6229,NA,NA,540,2,legacy,1024,2,48000,-16,experiment,SSHSS,3,odd,246780,266484,7637,167384,NA,267706,25447,173614,NA,254132,7634,NA,267601,267706,268247,267598,Flanker Task,117,65114,132,yes,1024
88.72180451,88.72180451,493.6315789,493.6315789,black,legacy,legacy,legacy,0,Incongruent,uniform,1,undefined,1,h,132,132,0,0,0,132,0,0,0,132,0,0,132,132,132,132,9/28/19 21:54,600,The main experiment item,yes,FlankerTask.osexp,C:\Users\Jeanette\Desktop\Jeanette Master's\AQM&ED,no,mono,no,18,no,white,no,yes,768,legacy,52,79,C:/Users/Jeanette/Desktop/Jeanette Master's/AQM&ED/jh-subject-3.csv,legacy,Kafkaesque Koffka,3.2.8,0,h,space,space,NA,NA,h,539,17810,6229,NA,NA,539,2,legacy,1024,2,48000,-16,experiment,SSHSS,3,odd,246780,268268,7637,167384,NA,269466,25447,173614,NA,254132,7634,NA,269360,269466,270006,269357,Flanker Task,118,65653,133,yes,1024
88.80597015,88.80597015,493.1865672,493.1865672,black,legacy,legacy,legacy,0,Congruent,uniform,1,undefined,1,s,133,133,0,0,0,133,0,0,0,133,0,0,133,133,133,133,9/28/19 21:54,600,The main experiment item,yes,FlankerTask.osexp,C:\Users\Jeanette\Desktop\Jeanette Master's\AQM&ED,no,mono,no,18,no,white,no,yes,768,legacy,53,79,C:/Users/Jeanette/Desktop/Jeanette Master's/AQM&ED/jh-subject-3.csv,legacy,Kafkaesque Koffka,3.2.8,0,s,space,space,NA,NA,s,434,17810,6229,NA,NA,434,2,legacy,1024,2,48000,-16,experiment,SSSSS,3,odd,246780,270034,7637,167384,NA,271266,25447,173614,NA,254132,7634,NA,271160,271267,271703,271157,Flanker Task,119,66087,134,yes,1024
88.88888889,88.88888889,492.2222222,492.2222222,black,legacy,legacy,legacy,0,Congruent,uniform,1,undefined,1,s,134,134,0,0,0,134,0,0,0,134,0,0,134,134,134,134,9/28/19 21:54,600,The main experiment item,yes,FlankerTask.osexp,C:\Users\Jeanette\Desktop\Jeanette Master's\AQM&ED,no,mono,no,18,no,white,no,yes,768,legacy,54,79,C:/Users/Jeanette/Desktop/Jeanette Master's/AQM&ED/jh-subject-3.csv,legacy,Kafkaesque Koffka,3.2.8,0,s,space,space,NA,NA,s,363,17810,6229,NA,NA,363,2,legacy,1024,2,48000,-16,experiment,SSSSS,3,odd,246780,271717,7637,167384,NA,272914,25447,173614,NA,254132,7634,NA,272808,272914,273278,272806,Flanker Task,120,66450,135,yes,1024
88.97058824,88.97058824,492.3970588,492.3970588,black,legacy,legacy,legacy,0,Congruent,uniform,1,undefined,1,h,135,135,0,0,0,135,0,0,0,135,0,0,135,135,135,135,9/28/19 21:54,600,The main experiment item,yes,FlankerTask.osexp,C:\Users\Jeanette\Desktop\Jeanette Master's\AQM&ED,no,mono,no,18,no,white,no,yes,768,legacy,55,79,C:/Users/Jeanette/Desktop/Jeanette Master's/AQM&ED/jh-subject-3.csv,legacy,Kafkaesque Koffka,3.2.8,0,h,space,space,NA,NA,h,516,17810,6229,NA,NA,516,2,legacy,1024,2,48000,-16,experiment,HHHHH,3,odd,246780,273300,7637,167384,NA,274537,25447,173614,NA,254132,7634,NA,274432,274537,275054,274429,Flanker Task,121,66966,136,yes,1024
89.05109489,89.05109489,492.2773723,492.2773723,black,legacy,legacy,legacy,0,Incongruent,uniform,1,undefined,1,s,136,136,0,0,0,136,0,0,0,136,0,0,136,136,136,136,9/28/19 21:54,600,The main experiment item,yes,FlankerTask.osexp,C:\Users\Jeanette\Desktop\Jeanette Master's\AQM&ED,no,mono,no,18,no,white,no,yes,768,legacy,56,79,C:/Users/Jeanette/Desktop/Jeanette Master's/AQM&ED/jh-subject-3.csv,legacy,Kafkaesque Koffka,3.2.8,0,s,space,space,NA,NA,s,476,17810,6229,NA,NA,476,2,legacy,1024,2,48000,-16,experiment,HHSHH,3,odd,246780,275076,7637,167384,NA,276273,25447,173614,NA,254132,7634,NA,276168,276273,276751,276165,Flanker Task,122,67442,137,yes,1024
89.13043478,89.13043478,492.2391304,492.2391304,black,legacy,legacy,legacy,0,Congruent,uniform,1,undefined,1,s,137,137,0,0,0,137,0,0,0,137,0,0,137,137,137,137,9/28/19 21:54,600,The main experiment item,yes,FlankerTask.osexp,C:\Users\Jeanette\Desktop\Jeanette Master's\AQM&ED,no,mono,no,18,no,white,no,yes,768,legacy,57,79,C:/Users/Jeanette/Desktop/Jeanette Master's/AQM&ED/jh-subject-3.csv,legacy,Kafkaesque Koffka,3.2.8,0,s,space,space,NA,NA,s,487,17810,6229,NA,NA,487,2,legacy,1024,2,48000,-16,experiment,SSSSS,3,odd,246780,276767,7637,167384,NA,277958,25447,173614,NA,254132,7634,NA,277853,277958,278447,277850,Flanker Task,123,67929,138,yes,1024
89.20863309,89.20863309,491.7769784,491.7769784,black,legacy,legacy,legacy,0,Congruent,uniform,1,undefined,1,h,138,138,0,0,0,138,0,0,0,138,0,0,138,138,138,138,9/28/19 21:54,600,The main experiment item,yes,FlankerTask.osexp,C:\Users\Jeanette\Desktop\Jeanette Master's\AQM&ED,no,mono,no,18,no,white,no,yes,768,legacy,58,79,C:/Users/Jeanette/Desktop/Jeanette Master's/AQM&ED/jh-subject-3.csv,legacy,Kafkaesque Koffka,3.2.8,0,h,space,space,NA,NA,h,428,17810,6229,NA,NA,428,2,legacy,1024,2,48000,-16,experiment,HHHHH,3,odd,246780,278469,7637,167384,NA,279665,25447,173614,NA,254132,7634,NA,279562,279665,280095,279559,Flanker Task,124,68357,139,yes,1024
89.28571429,89.28571429,491.6571429,491.6571429,black,legacy,legacy,legacy,0,Congruent,uniform,1,undefined,1,h,139,139,0,0,0,139,0,0,0,139,0,0,139,139,139,139,9/28/19 21:54,600,The main experiment item,yes,FlankerTask.osexp,C:\Users\Jeanette\Desktop\Jeanette Master's\AQM&ED,no,mono,no,18,no,white,no,yes,768,legacy,59,79,C:/Users/Jeanette/Desktop/Jeanette Master's/AQM&ED/jh-subject-3.csv,legacy,Kafkaesque Koffka,3.2.8,0,h,space,space,NA,NA,h,475,17810,6229,NA,NA,475,2,legacy,1024,2,48000,-16,experiment,HHHHH,3,odd,246780,280109,7637,167384,NA,281314,25447,173614,NA,254132,7634,NA,281209,281314,281790,281206,Flanker Task,125,68832,140,yes,1024
89.36170213,89.36170213,491.3120567,491.3120567,black,legacy,legacy,legacy,0,Congruent,uniform,1,undefined,1,h,140,140,0,0,0,140,0,0,0,140,0,0,140,140,140,140,9/28/19 21:54,600,The main experiment item,yes,FlankerTask.osexp,C:\Users\Jeanette\Desktop\Jeanette Master's\AQM&ED,no,mono,no,18,no,white,no,yes,768,legacy,60,79,C:/Users/Jeanette/Desktop/Jeanette Master's/AQM&ED/jh-subject-3.csv,legacy,Kafkaesque Koffka,3.2.8,0,h,space,space,NA,NA,h,443,17810,6229,NA,NA,443,2,legacy,1024,2,48000,-16,experiment,HHHHH,3,odd,246780,281810,7637,167384,NA,283002,25447,173614,NA,254132,7634,NA,282897,283002,283446,282894,Flanker Task,126,69275,141,yes,1024
89.43661972,89.43661972,491.4647887,491.4647887,black,legacy,legacy,legacy,0,Incongruent,uniform,1,undefined,1,s,141,141,0,0,0,141,0,0,0,141,0,0,141,141,141,141,9/28/19 21:54,600,The main experiment item,yes,FlankerTask.osexp,C:\Users\Jeanette\Desktop\Jeanette Master's\AQM&ED,no,mono,no,18,no,white,no,yes,768,legacy,61,79,C:/Users/Jeanette/Desktop/Jeanette Master's/AQM&ED/jh-subject-3.csv,legacy,Kafkaesque Koffka,3.2.8,0,s,space,space,NA,NA,s,513,17810,6229,NA,NA,513,2,legacy,1024,2,48000,-16,experiment,HHSHH,3,odd,246780,283459,7637,167384,NA,284676,25447,173614,NA,254132,7634,NA,284571,284676,285190,284568,Flanker Task,127,69788,142,yes,1024
88.81118881,88.81118881,491.5244755,491.5244755,black,legacy,legacy,legacy,0,Incongruent,uniform,0,undefined,0,s,142,142,0,0,0,142,0,0,0,142,0,0,142,142,142,142,9/28/19 21:54,600,The main experiment item,yes,FlankerTask.osexp,C:\Users\Jeanette\Desktop\Jeanette Master's\AQM&ED,no,mono,no,18,no,white,no,yes,768,legacy,62,79,C:/Users/Jeanette/Desktop/Jeanette Master's/AQM&ED/jh-subject-3.csv,legacy,Kafkaesque Koffka,3.2.8,0,h,space,space,NA,NA,h,500,17810,6229,NA,NA,500,2,legacy,1024,2,48000,-16,experiment,HHSHH,3,odd,246780,285219,7637,167384,NA,286434,25447,173614,NA,254132,7634,NA,286328,286434,286935,286326,Flanker Task,127,70288,143,yes,1024
88.88888889,88.88888889,491.4305556,491.4305556,black,legacy,legacy,legacy,0,Congruent,uniform,1,undefined,1,h,143,143,0,0,0,143,0,0,0,143,0,0,143,143,143,143,9/28/19 21:54,600,The main experiment item,yes,FlankerTask.osexp,C:\Users\Jeanette\Desktop\Jeanette Master's\AQM&ED,no,mono,no,18,no,white,no,yes,768,legacy,63,79,C:/Users/Jeanette/Desktop/Jeanette Master's/AQM&ED/jh-subject-3.csv,legacy,Kafkaesque Koffka,3.2.8,0,h,space,space,NA,NA,h,478,17810,6229,NA,NA,478,2,legacy,1024,2,48000,-16,experiment,HHHHH,3,odd,246780,287457,7637,167384,NA,288663,25447,173614,NA,286952,7634,NA,288558,288663,289142,288555,Flanker Task,128,70766,144,yes,1024
88.96551724,88.96551724,491.0275862,491.0275862,black,legacy,legacy,legacy,0,Incongruent,uniform,1,undefined,1,s,144,144,0,0,0,144,0,0,0,144,0,0,144,144,144,144,9/28/19 21:54,600,The main experiment item,yes,FlankerTask.osexp,C:\Users\Jeanette\Desktop\Jeanette Master's\AQM&ED,no,mono,no,18,no,white,no,yes,768,legacy,64,79,C:/Users/Jeanette/Desktop/Jeanette Master's/AQM&ED/jh-subject-3.csv,legacy,Kafkaesque Koffka,3.2.8,0,s,space,space,NA,NA,s,433,17810,6229,NA,NA,433,2,legacy,1024,2,48000,-16,experiment,HHSHH,3,odd,246780,289161,7637,167384,NA,290356,25447,173614,NA,286952,7634,NA,290251,290356,290791,290248,Flanker Task,129,71199,145,yes,1024
88.35616438,88.35616438,491.7328767,491.7328767,black,legacy,legacy,legacy,0,Incongruent,uniform,0,undefined,0,s,145,145,0,0,0,145,0,0,0,145,0,0,145,145,145,145,9/28/19 21:54,600,The main experiment item,yes,FlankerTask.osexp,C:\Users\Jeanette\Desktop\Jeanette Master's\AQM&ED,no,mono,no,18,no,white,no,yes,768,legacy,65,79,C:/Users/Jeanette/Desktop/Jeanette Master's/AQM&ED/jh-subject-3.csv,legacy,Kafkaesque Koffka,3.2.8,0,h,space,space,NA,NA,h,594,17810,6229,NA,NA,594,2,legacy,1024,2,48000,-16,experiment,HHSHH,3,odd,246780,290811,7637,167384,NA,292003,25447,173614,NA,286952,7634,NA,291898,292003,292599,291895,Flanker Task,129,71793,146,yes,1024
88.43537415,88.43537415,491.7687075,491.7687075,black,legacy,legacy,legacy,0,Congruent,uniform,1,undefined,1,h,146,146,0,0,0,146,0,0,0,146,0,0,146,146,146,146,9/28/19 21:54,600,The main experiment item,yes,FlankerTask.osexp,C:\Users\Jeanette\Desktop\Jeanette Master's\AQM&ED,no,mono,no,18,no,white,no,yes,768,legacy,66,79,C:/Users/Jeanette/Desktop/Jeanette Master's/AQM&ED/jh-subject-3.csv,legacy,Kafkaesque Koffka,3.2.8,0,h,space,space,NA,NA,h,497,17810,6229,NA,NA,497,2,legacy,1024,2,48000,-16,experiment,HHHHH,3,odd,246780,293126,7637,167384,NA,294339,25447,173614,NA,292620,7634,NA,294234,294340,294838,294231,Flanker Task,130,72290,147,yes,1024
88.51351351,88.51351351,491.9797297,491.9797297,black,legacy,legacy,legacy,0,Congruent,uniform,1,undefined,1,s,147,147,0,0,0,147,0,0,0,147,0,0,147,147,147,147,9/28/19 21:54,600,The main experiment item,yes,FlankerTask.osexp,C:\Users\Jeanette\Desktop\Jeanette Master's\AQM&ED,no,mono,no,18,no,white,no,yes,768,legacy,67,79,C:/Users/Jeanette/Desktop/Jeanette Master's/AQM&ED/jh-subject-3.csv,legacy,Kafkaesque Koffka,3.2.8,0,s,space,space,NA,NA,s,523,17810,6229,NA,NA,523,2,legacy,1024,2,48000,-16,experiment,SSSSS,3,odd,246780,294861,7637,167384,NA,296073,25447,173614,NA,292620,7634,NA,295967,296073,296598,295964,Flanker Task,131,72813,148,yes,1024
88.59060403,88.59060403,491.4563758,491.4563758,black,legacy,legacy,legacy,0,Congruent,uniform,1,undefined,1,s,148,148,0,0,0,148,0,0,0,148,0,0,148,148,148,148,9/28/19 21:54,600,The main experiment item,yes,FlankerTask.osexp,C:\Users\Jeanette\Desktop\Jeanette Master's\AQM&ED,no,mono,no,18,no,white,no,yes,768,legacy,68,79,C:/Users/Jeanette/Desktop/Jeanette Master's/AQM&ED/jh-subject-3.csv,legacy,Kafkaesque Koffka,3.2.8,0,s,space,space,NA,NA,s,414,17810,6229,NA,NA,414,2,legacy,1024,2,48000,-16,experiment,SSSSS,3,odd,246780,296619,7637,167384,NA,297815,25447,173614,NA,292620,7634,NA,297710,297815,298231,297707,Flanker Task,132,73227,149,yes,1024
88.66666667,88.66666667,490.96,490.96,black,legacy,legacy,legacy,0,Congruent,uniform,1,undefined,1,h,149,149,0,0,0,149,0,0,0,149,0,0,149,149,149,149,9/28/19 21:54,600,The main experiment item,yes,FlankerTask.osexp,C:\Users\Jeanette\Desktop\Jeanette Master's\AQM&ED,no,mono,no,18,no,white,no,yes,768,legacy,69,79,C:/Users/Jeanette/Desktop/Jeanette Master's/AQM&ED/jh-subject-3.csv,legacy,Kafkaesque Koffka,3.2.8,0,h,space,space,NA,NA,h,417,17810,6229,NA,NA,417,2,legacy,1024,2,48000,-16,experiment,HHHHH,3,odd,246780,298254,7637,167384,NA,299458,25447,173614,NA,292620,7634,NA,299353,299459,299878,299351,Flanker Task,133,73644,150,yes,1024
88.74172185,88.74172185,490.7417219,490.7417219,black,legacy,legacy,legacy,0,Congruent,uniform,1,undefined,1,s,150,150,0,0,0,150,0,0,0,150,0,0,150,150,150,150,9/28/19 21:54,600,The main experiment item,yes,FlankerTask.osexp,C:\Users\Jeanette\Desktop\Jeanette Master's\AQM&ED,no,mono,no,18,no,white,no,yes,768,legacy,70,79,C:/Users/Jeanette/Desktop/Jeanette Master's/AQM&ED/jh-subject-3.csv,legacy,Kafkaesque Koffka,3.2.8,0,s,space,space,NA,NA,s,458,17810,6229,NA,NA,458,2,legacy,1024,2,48000,-16,experiment,SSSSS,3,odd,246780,299905,7637,167384,NA,301107,25447,173614,NA,292620,7634,NA,301002,301107,301567,300999,Flanker Task,134,74102,151,yes,1024
88.81578947,88.81578947,492,492,black,legacy,legacy,legacy,0,Incongruent,uniform,1,undefined,1,h,151,151,0,0,0,151,0,0,0,151,0,0,151,151,151,151,9/28/19 21:54,600,The main experiment item,yes,FlankerTask.osexp,C:\Users\Jeanette\Desktop\Jeanette Master's\AQM&ED,no,mono,no,18,no,white,no,yes,768,legacy,71,79,C:/Users/Jeanette/Desktop/Jeanette Master's/AQM&ED/jh-subject-3.csv,legacy,Kafkaesque Koffka,3.2.8,0,h,space,space,NA,NA,h,682,17810,6229,NA,NA,682,2,legacy,1024,2,48000,-16,experiment,SSHSS,3,odd,246780,301596,7637,167384,NA,302811,25447,173614,NA,292620,7634,NA,302706,302811,303494,302703,Flanker Task,135,74784,152,yes,1024
88.88888889,88.88888889,492.2418301,492.2418301,black,legacy,legacy,legacy,0,Congruent,uniform,1,undefined,1,s,152,152,0,0,0,152,0,0,0,152,0,0,152,152,152,152,9/28/19 21:54,600,The main experiment item,yes,FlankerTask.osexp,C:\Users\Jeanette\Desktop\Jeanette Master's\AQM&ED,no,mono,no,18,no,white,no,yes,768,legacy,72,79,C:/Users/Jeanette/Desktop/Jeanette Master's/AQM&ED/jh-subject-3.csv,legacy,Kafkaesque Koffka,3.2.8,0,s,space,space,NA,NA,s,529,17810,6229,NA,NA,529,2,legacy,1024,2,48000,-16,experiment,SSSSS,3,odd,303521,304026,7637,167384,NA,305244,25447,173614,NA,292620,7634,NA,305138,305244,305774,305135,Flanker Task,136,75313,153,yes,1024
88.96103896,88.96103896,492.2662338,492.2662338,black,legacy,legacy,legacy,0,Incongruent,uniform,1,undefined,1,s,153,153,0,0,0,153,0,0,0,153,0,0,153,153,153,153,9/28/19 21:54,600,The main experiment item,yes,FlankerTask.osexp,C:\Users\Jeanette\Desktop\Jeanette Master's\AQM&ED,no,mono,no,18,no,white,no,yes,768,legacy,73,79,C:/Users/Jeanette/Desktop/Jeanette Master's/AQM&ED/jh-subject-3.csv,legacy,Kafkaesque Koffka,3.2.8,0,s,space,space,NA,NA,s,496,17810,6229,NA,NA,496,2,legacy,1024,2,48000,-16,experiment,HHSHH,3,odd,303521,305795,7637,167384,NA,306996,25447,173614,NA,292620,7634,NA,306891,306997,307495,306888,Flanker Task,137,75809,154,yes,1024
89.03225806,89.03225806,492.2516129,492.2516129,black,legacy,legacy,legacy,0,Incongruent,uniform,1,undefined,1,s,154,154,0,0,0,154,0,0,0,154,0,0,154,154,154,154,9/28/19 21:54,600,The main experiment item,yes,FlankerTask.osexp,C:\Users\Jeanette\Desktop\Jeanette Master's\AQM&ED,no,mono,no,18,no,white,no,yes,768,legacy,74,79,C:/Users/Jeanette/Desktop/Jeanette Master's/AQM&ED/jh-subject-3.csv,legacy,Kafkaesque Koffka,3.2.8,0,s,space,space,NA,NA,s,490,17810,6229,NA,NA,490,2,legacy,1024,2,48000,-16,experiment,HHSHH,3,odd,303521,307522,7637,167384,NA,308738,25447,173614,NA,292620,7634,NA,308633,308738,309230,308630,Flanker Task,138,76299,155,yes,1024
89.1025641,89.1025641,491.8974359,491.8974359,black,legacy,legacy,legacy,0,Congruent,uniform,1,undefined,1,s,155,155,0,0,0,155,0,0,0,155,0,0,155,155,155,155,9/28/19 21:54,600,The main experiment item,yes,FlankerTask.osexp,C:\Users\Jeanette\Desktop\Jeanette Master's\AQM&ED,no,mono,no,18,no,white,no,yes,768,legacy,75,79,C:/Users/Jeanette/Desktop/Jeanette Master's/AQM&ED/jh-subject-3.csv,legacy,Kafkaesque Koffka,3.2.8,0,s,space,space,NA,NA,s,437,17810,6229,NA,NA,437,2,legacy,1024,2,48000,-16,experiment,SSSSS,3,odd,303521,309245,7637,167384,NA,310439,25447,173614,NA,292620,7634,NA,310336,310440,310879,310333,Flanker Task,139,76736,156,yes,1024
