"Stimulus","acc","accuracy","average_response_time","avg_rt","background","canvas_backend","clock_backend","color_backend","compensation","condition","coordinates","correct","correct_instructions1","correct_keyboard_response","correct_response","count_Block1","count_Block2","count_Block3","count_ISI","count_errorFeedback","count_experiment","count_faster","count_finish","count_fixation","count_instructions1","count_instructions2","count_instructions3","count_keyboard_response","count_logger","count_sequence","count_stimulus","datetime","deadline","description","disable_garbage_collection","experiment_file","experiment_path","font_bold","font_family","font_italic","font_size","font_underline","foreground","form_clicks","fullscreen","height","keyboard_backend","live_row","live_row_Block1","logfile","mouse_backend","new_column_1","opensesame_codename","opensesame_version","repeat_cycle","response","response_finish","response_instructions1","response_instructions2","response_instructions3","response_keyboard_response","response_time","response_time_finish","response_time_instructions1","response_time_instructions2","response_time_instructions3","response_time_keyboard_response","round_decimals","sampler_backend","sound_buf_size","sound_channels","sound_freq","sound_sample_size","start","stimulus","subject_nr","subject_parity","time_Block1","time_Block2","time_Block3","time_ISI","time_errorFeedback","time_experiment","time_faster","time_finish","time_fixation","time_instructions1","time_instructions2","time_instructions3","time_keyboard_response","time_logger","time_sequence","time_stimulus","title","total_correct","total_response_time","total_responses","uniform_coordinates","width"
"NA","0","0","1500","1500","black","legacy","legacy","legacy","0","incongruent","uniform","0","undefined","0","s","0","0","0","0","0","0","0","0","0","0","0","0","0","0","0","0","Sat Sep 25 19:36:51 2021","1500","Flanker Task","yes","Flanker Task.osexp","C:\Users\rayra\Documents","no","mono","no","18","no","white","no","yes","768","legacy","0","0","C:/Users/rayra/Documents/subject-3.csv","legacy","NA","Lentiform Loewenfeld","3.3.9","0","None","NA","s","NA","NA","None","1500","NA","30023","NA","NA","1500","2","legacy","1024","2","48000","-16","experiment","HHSHH","3","odd","33777","NA","NA","NA","NA","3748","NA","NA","33889","3753","NA","NA","33992","35492","33886","33992","Flanker Task","0","1500","1","yes","1024"
"NA","50","50","964.5","964.5","black","legacy","legacy","legacy","0","congruent","uniform","1","undefined","1","h","0","0","0","1","1","0","1","0","1","0","0","0","1","1","1","1","Sat Sep 25 19:36:51 2021","1500","Flanker Task","yes","Flanker Task.osexp","C:\Users\rayra\Documents","no","mono","no","18","no","white","no","yes","768","legacy","1","1","C:/Users/rayra/Documents/subject-3.csv","legacy","NA","Lentiform Loewenfeld","3.3.9","0","h","NA","s","NA","NA","h","429","NA","30023","NA","NA","429","2","legacy","1024","2","48000","-16","experiment","HHHHH","3","odd","33777","NA","NA","36004","35501","3748","NA","NA","37114","3753","NA","NA","37217","37647","37111","37217","Flanker Task","1","1929","2","yes","1024"
"NA","33.333333333333336","33.333333333333336","779","779","black","legacy","legacy","legacy","0","incongruent","uniform","0","undefined","0","h","0","0","0","2","2","0","2","0","2","0","0","0","2","2","2","2","Sat Sep 25 19:36:51 2021","1500","Flanker Task","yes","Flanker Task.osexp","C:\Users\rayra\Documents","no","mono","no","18","no","white","no","yes","768","legacy","2","2","C:/Users/rayra/Documents/subject-3.csv","legacy","NA","Lentiform Loewenfeld","3.3.9","0","s","NA","s","NA","NA","s","408","NA","30023","NA","NA","408","2","legacy","1024","2","48000","-16","experiment","SSHSS","3","odd","33777","NA","NA","37653","35501","3748","NA","NA","38775","3753","NA","NA","38879","39287","38772","38878","Flanker Task","1","2337","3","yes","1024"
"NA","50","50","702.5","702.5","black","legacy","legacy","legacy","0","incongruent","uniform","1","undefined","1","h","0","0","0","3","3","0","3","0","3","0","0","0","3","3","3","3","Sat Sep 25 19:36:51 2021","1500","Flanker Task","yes","Flanker Task.osexp","C:\Users\rayra\Documents","no","mono","no","18","no","white","no","yes","768","legacy","3","3","C:/Users/rayra/Documents/subject-3.csv","legacy","NA","Lentiform Loewenfeld","3.3.9","0","h","NA","s","NA","NA","h","473","NA","30023","NA","NA","473","2","legacy","1024","2","48000","-16","experiment","SSHSS","3","odd","33777","NA","NA","39796","39293","3748","NA","NA","40939","3753","NA","NA","41043","41516","40936","41043","Flanker Task","2","2810","4","yes","1024"
"NA","60","60","641","641","black","legacy","legacy","legacy","0","congruent","uniform","1","undefined","1","h","0","0","0","4","4","0","4","0","4","0","0","0","4","4","4","4","Sat Sep 25 19:36:51 2021","1500","Flanker Task","yes","Flanker Task.osexp","C:\Users\rayra\Documents","no","mono","no","18","no","white","no","yes","768","legacy","4","4","C:/Users/rayra/Documents/subject-3.csv","legacy","NA","Lentiform Loewenfeld","3.3.9","0","h","NA","s","NA","NA","h","395","NA","30023","NA","NA","395","2","legacy","1024","2","48000","-16","experiment","HHHHH","3","odd","33777","NA","NA","41525","39293","3748","NA","NA","42680","3753","NA","NA","42784","43179","42677","42784","Flanker Task","3","3205","5","yes","1024"
"NA","50","50","605.5","605.5","black","legacy","legacy","legacy","0","incongruent","uniform","0","undefined","0","s","0","0","0","5","5","0","5","0","5","0","0","0","5","5","5","5","Sat Sep 25 19:36:51 2021","1500","Flanker Task","yes","Flanker Task.osexp","C:\Users\rayra\Documents","no","mono","no","18","no","white","no","yes","768","legacy","5","5","C:/Users/rayra/Documents/subject-3.csv","legacy","NA","Lentiform Loewenfeld","3.3.9","0","h","NA","s","NA","NA","h","428","NA","30023","NA","NA","428","2","legacy","1024","2","48000","-16","experiment","HHSHH","3","odd","33777","NA","NA","43185","39293","3748","NA","NA","44318","3753","NA","NA","44423","44852","44315","44423","Flanker Task","3","3633","6","yes","1024"
"NA","57.142857142857146","57.142857142857146","597.5714285714286","597.5714285714286","black","legacy","legacy","legacy","0","incongruent","uniform","1","undefined","1","h","0","0","0","6","6","0","6","0","6","0","0","0","6","6","6","6","Sat Sep 25 19:36:51 2021","1500","Flanker Task","yes","Flanker Task.osexp","C:\Users\rayra\Documents","no","mono","no","18","no","white","no","yes","768","legacy","6","6","C:/Users/rayra/Documents/subject-3.csv","legacy","NA","Lentiform Loewenfeld","3.3.9","0","h","NA","s","NA","NA","h","550","NA","30023","NA","NA","550","2","legacy","1024","2","48000","-16","experiment","SSHSS","3","odd","33777","NA","NA","45363","44858","3748","NA","NA","46485","3753","NA","NA","46590","47140","46483","46590","Flanker Task","4","4183","7","yes","1024"
"NA","62.5","62.5","581","581","black","legacy","legacy","legacy","0","incongruent","uniform","1","undefined","1","h","0","0","0","7","7","0","7","0","7","0","0","0","7","7","7","7","Sat Sep 25 19:36:51 2021","1500","Flanker Task","yes","Flanker Task.osexp","C:\Users\rayra\Documents","no","mono","no","18","no","white","no","yes","768","legacy","7","7","C:/Users/rayra/Documents/subject-3.csv","legacy","NA","Lentiform Loewenfeld","3.3.9","0","h","NA","s","NA","NA","h","465","NA","30023","NA","NA","465","2","legacy","1024","2","48000","-16","experiment","SSHSS","3","odd","33777","NA","NA","47146","44858","3748","NA","NA","48272","3753","NA","NA","48377","48843","48269","48377","Flanker Task","5","4648","8","yes","1024"
"NA","66.66666666666667","66.66666666666667","565.4444444444445","565.4444444444445","black","legacy","legacy","legacy","0","incongruent","uniform","1","undefined","1","h","0","0","0","8","8","0","8","0","8","0","0","0","8","8","8","8","Sat Sep 25 19:36:51 2021","1500","Flanker Task","yes","Flanker Task.osexp","C:\Users\rayra\Documents","no","mono","no","18","no","white","no","yes","768","legacy","8","8","C:/Users/rayra/Documents/subject-3.csv","legacy","NA","Lentiform Loewenfeld","3.3.9","0","h","NA","s","NA","NA","h","441","NA","30023","NA","NA","441","2","legacy","1024","2","48000","-16","experiment","SSHSS","3","odd","33777","NA","NA","48851","44858","3748","NA","NA","49979","3753","NA","NA","50083","50524","49976","50083","Flanker Task","6","5089","9","yes","1024"
"NA","60","60","553.2","553.2","black","legacy","legacy","legacy","0","incongruent","uniform","0","undefined","0","s","0","0","0","9","9","0","9","0","9","0","0","0","9","9","9","9","Sat Sep 25 19:36:51 2021","1500","Flanker Task","yes","Flanker Task.osexp","C:\Users\rayra\Documents","no","mono","no","18","no","white","no","yes","768","legacy","9","9","C:/Users/rayra/Documents/subject-3.csv","legacy","NA","Lentiform Loewenfeld","3.3.9","0","h","NA","s","NA","NA","h","443","NA","30023","NA","NA","443","2","legacy","1024","2","48000","-16","experiment","HHSHH","3","odd","33777","NA","NA","50531","44858","3748","NA","NA","51640","3753","NA","NA","51744","52187","51637","51743","Flanker Task","6","5532","10","yes","1024"
"NA","63.63636363636363","63.63636363636363","536.8181818181819","536.8181818181819","black","legacy","legacy","legacy","0","congruent","uniform","1","undefined","1","h","0","0","0","10","10","0","10","0","10","0","0","0","10","10","10","10","Sat Sep 25 19:36:51 2021","1500","Flanker Task","yes","Flanker Task.osexp","C:\Users\rayra\Documents","no","mono","no","18","no","white","no","yes","768","legacy","10","10","C:/Users/rayra/Documents/subject-3.csv","legacy","NA","Lentiform Loewenfeld","3.3.9","0","h","NA","s","NA","NA","h","373","NA","30023","NA","NA","373","2","legacy","1024","2","48000","-16","experiment","HHHHH","3","odd","33777","NA","NA","52698","52194","3748","NA","NA","53825","3753","NA","NA","53929","54302","53822","53929","Flanker Task","7","5905","11","yes","1024"
"NA","66.66666666666667","66.66666666666667","538.75","538.75","black","legacy","legacy","legacy","0","incongruent","uniform","1","undefined","1","h","0","0","0","11","11","0","11","0","11","0","0","0","11","11","11","11","Sat Sep 25 19:36:51 2021","1500","Flanker Task","yes","Flanker Task.osexp","C:\Users\rayra\Documents","no","mono","no","18","no","white","no","yes","768","legacy","11","11","C:/Users/rayra/Documents/subject-3.csv","legacy","NA","Lentiform Loewenfeld","3.3.9","0","h","NA","s","NA","NA","h","560","NA","30023","NA","NA","560","2","legacy","1024","2","48000","-16","experiment","SSHSS","3","odd","33777","NA","NA","54309","52194","3748","NA","NA","55482","3753","NA","NA","55587","56148","55478","55587","Flanker Task","8","6465","12","yes","1024"
"NA","69.23076923076923","69.23076923076923","539.9230769230769","539.9230769230769","black","legacy","legacy","legacy","0","incongruent","uniform","1","undefined","1","s","0","0","0","12","12","0","12","0","12","0","0","0","12","12","12","12","Sat Sep 25 19:36:51 2021","1500","Flanker Task","yes","Flanker Task.osexp","C:\Users\rayra\Documents","no","mono","no","18","no","white","no","yes","768","legacy","12","12","C:/Users/rayra/Documents/subject-3.csv","legacy","NA","Lentiform Loewenfeld","3.3.9","0","s","NA","s","NA","NA","s","554","NA","30023","NA","NA","554","2","legacy","1024","2","48000","-16","experiment","HHSHH","3","odd","33777","NA","NA","56155","52194","3748","NA","NA","57307","3753","NA","NA","57413","57968","57304","57412","Flanker Task","9","7019","13","yes","1024"
"NA","71.42857142857143","71.42857142857143","537.8571428571429","537.8571428571429","black","legacy","legacy","legacy","0","incongruent","uniform","1","undefined","1","s","0","0","0","13","13","0","13","0","13","0","0","0","13","13","13","13","Sat Sep 25 19:36:51 2021","1500","Flanker Task","yes","Flanker Task.osexp","C:\Users\rayra\Documents","no","mono","no","18","no","white","no","yes","768","legacy","13","13","C:/Users/rayra/Documents/subject-3.csv","legacy","NA","Lentiform Loewenfeld","3.3.9","0","s","NA","s","NA","NA","s","511","NA","30023","NA","NA","511","2","legacy","1024","2","48000","-16","experiment","HHSHH","3","odd","33777","NA","NA","57973","52194","3748","NA","NA","59155","3753","NA","NA","59260","59772","59151","59260","Flanker Task","10","7530","14","yes","1024"
"NA","73.33333333333333","73.33333333333333","535.2666666666667","535.2666666666667","black","legacy","legacy","legacy","0","congruent","uniform","1","undefined","1","s","0","0","0","14","14","0","14","0","14","0","0","0","14","14","14","14","Sat Sep 25 19:36:51 2021","1500","Flanker Task","yes","Flanker Task.osexp","C:\Users\rayra\Documents","no","mono","no","18","no","white","no","yes","768","legacy","14","14","C:/Users/rayra/Documents/subject-3.csv","legacy","NA","Lentiform Loewenfeld","3.3.9","0","s","NA","s","NA","NA","s","499","NA","30023","NA","NA","499","2","legacy","1024","2","48000","-16","experiment","SSSSS","3","odd","33777","NA","NA","59779","52194","3748","NA","NA","60909","3753","NA","NA","61013","61513","60906","61013","Flanker Task","11","8029","15","yes","1024"
"NA","75","75","531.4375","531.4375","black","legacy","legacy","legacy","0","congruent","uniform","1","undefined","1","h","0","0","0","15","15","0","15","0","15","0","0","0","15","15","15","15","Sat Sep 25 19:36:51 2021","1500","Flanker Task","yes","Flanker Task.osexp","C:\Users\rayra\Documents","no","mono","no","18","no","white","no","yes","768","legacy","15","15","C:/Users/rayra/Documents/subject-3.csv","legacy","NA","Lentiform Loewenfeld","3.3.9","0","h","NA","s","NA","NA","h","474","NA","30023","NA","NA","474","2","legacy","1024","2","48000","-16","experiment","HHHHH","3","odd","33777","NA","NA","61521","52194","3748","NA","NA","62682","3753","NA","NA","62786","63261","62680","62786","Flanker Task","12","8503","16","yes","1024"
"NA","76.47058823529412","76.47058823529412","527.4705882352941","527.4705882352941","black","legacy","legacy","legacy","0","congruent","uniform","1","undefined","1","h","0","0","0","16","16","0","16","0","16","0","0","0","16","16","16","16","Sat Sep 25 19:36:51 2021","1500","Flanker Task","yes","Flanker Task.osexp","C:\Users\rayra\Documents","no","mono","no","18","no","white","no","yes","768","legacy","16","16","C:/Users/rayra/Documents/subject-3.csv","legacy","NA","Lentiform Loewenfeld","3.3.9","0","h","NA","s","NA","NA","h","464","NA","30023","NA","NA","464","2","legacy","1024","2","48000","-16","experiment","HHHHH","3","odd","33777","NA","NA","63267","52194","3748","NA","NA","64446","3753","NA","NA","64551","65016","64442","64551","Flanker Task","13","8967","17","yes","1024"
"NA","77.77777777777777","77.77777777777777","519.8888888888889","519.8888888888889","black","legacy","legacy","legacy","0","congruent","uniform","1","undefined","1","s","0","0","0","17","17","0","17","0","17","0","0","0","17","17","17","17","Sat Sep 25 19:36:51 2021","1500","Flanker Task","yes","Flanker Task.osexp","C:\Users\rayra\Documents","no","mono","no","18","no","white","no","yes","768","legacy","17","17","C:/Users/rayra/Documents/subject-3.csv","legacy","NA","Lentiform Loewenfeld","3.3.9","0","s","NA","s","NA","NA","s","391","NA","30023","NA","NA","391","2","legacy","1024","2","48000","-16","experiment","SSSSS","3","odd","33777","NA","NA","65022","52194","3748","NA","NA","66178","3753","NA","NA","66283","66675","66175","66281","Flanker Task","14","9358","18","yes","1024"
"NA","78.94736842105263","78.94736842105263","515.3684210526316","515.3684210526316","black","legacy","legacy","legacy","0","incongruent","uniform","1","undefined","1","s","0","0","0","18","18","0","18","0","18","0","0","0","18","18","18","18","Sat Sep 25 19:36:51 2021","1500","Flanker Task","yes","Flanker Task.osexp","C:\Users\rayra\Documents","no","mono","no","18","no","white","no","yes","768","legacy","18","18","C:/Users/rayra/Documents/subject-3.csv","legacy","NA","Lentiform Loewenfeld","3.3.9","0","s","NA","s","NA","NA","s","434","NA","30023","NA","NA","434","2","legacy","1024","2","48000","-16","experiment","HHSHH","3","odd","33777","NA","NA","66681","52194","3748","NA","NA","67830","3753","NA","NA","67934","68369","67828","67934","Flanker Task","15","9792","19","yes","1024"
"NA","80","80","510.65","510.65","black","legacy","legacy","legacy","0","incongruent","uniform","1","undefined","1","s","0","0","0","19","19","0","19","0","19","0","0","0","19","19","19","19","Sat Sep 25 19:36:51 2021","1500","Flanker Task","yes","Flanker Task.osexp","C:\Users\rayra\Documents","no","mono","no","18","no","white","no","yes","768","legacy","19","19","C:/Users/rayra/Documents/subject-3.csv","legacy","NA","Lentiform Loewenfeld","3.3.9","0","s","NA","s","NA","NA","s","421","NA","30023","NA","NA","421","2","legacy","1024","2","48000","-16","experiment","HHSHH","3","odd","33777","NA","NA","68374","52194","3748","NA","NA","69524","3753","NA","NA","69628","70049","69521","69628","Flanker Task","16","10213","20","yes","1024"
"NA","80.95238095238095","80.95238095238095","505.0952380952381","505.0952380952381","black","legacy","legacy","legacy","0","congruent","uniform","1","undefined","1","s","0","0","0","20","20","0","20","0","20","0","0","0","20","20","20","20","Sat Sep 25 19:36:51 2021","1500","Flanker Task","yes","Flanker Task.osexp","C:\Users\rayra\Documents","no","mono","no","18","no","white","no","yes","768","legacy","20","20","C:/Users/rayra/Documents/subject-3.csv","legacy","NA","Lentiform Loewenfeld","3.3.9","0","s","NA","s","NA","NA","s","394","NA","30023","NA","NA","394","2","legacy","1024","2","48000","-16","experiment","SSSSS","3","odd","33777","NA","NA","70056","52194","3748","NA","NA","71176","3753","NA","NA","71281","71675","71173","71280","Flanker Task","17","10607","21","yes","1024"
"NA","81.81818181818181","81.81818181818181","500.45454545454544","500.45454545454544","black","legacy","legacy","legacy","0","congruent","uniform","1","undefined","1","s","0","0","0","21","21","0","21","0","21","0","0","0","21","21","21","21","Sat Sep 25 19:36:51 2021","1500","Flanker Task","yes","Flanker Task.osexp","C:\Users\rayra\Documents","no","mono","no","18","no","white","no","yes","768","legacy","21","21","C:/Users/rayra/Documents/subject-3.csv","legacy","NA","Lentiform Loewenfeld","3.3.9","0","s","NA","s","NA","NA","s","403","NA","30023","NA","NA","403","2","legacy","1024","2","48000","-16","experiment","SSSSS","3","odd","33777","NA","NA","71681","52194","3748","NA","NA","72807","3753","NA","NA","72911","73314","72805","72911","Flanker Task","18","11010","22","yes","1024"
"NA","82.6086956521739","82.6086956521739","497.4347826086956","497.4347826086956","black","legacy","legacy","legacy","0","incongruent","uniform","1","undefined","1","s","0","0","0","22","22","0","22","0","22","0","0","0","22","22","22","22","Sat Sep 25 19:36:51 2021","1500","Flanker Task","yes","Flanker Task.osexp","C:\Users\rayra\Documents","no","mono","no","18","no","white","no","yes","768","legacy","22","22","C:/Users/rayra/Documents/subject-3.csv","legacy","NA","Lentiform Loewenfeld","3.3.9","0","s","NA","s","NA","NA","s","431","NA","30023","NA","NA","431","2","legacy","1024","2","48000","-16","experiment","HHSHH","3","odd","33777","NA","NA","73320","52194","3748","NA","NA","74473","3753","NA","NA","74577","75008","74470","74577","Flanker Task","19","11441","23","yes","1024"
"NA","83.33333333333333","83.33333333333333","498.2916666666667","498.2916666666667","black","legacy","legacy","legacy","0","incongruent","uniform","1","undefined","1","h","0","0","0","23","23","0","23","0","23","0","0","0","23","23","23","23","Sat Sep 25 19:36:51 2021","1500","Flanker Task","yes","Flanker Task.osexp","C:\Users\rayra\Documents","no","mono","no","18","no","white","no","yes","768","legacy","23","23","C:/Users/rayra/Documents/subject-3.csv","legacy","NA","Lentiform Loewenfeld","3.3.9","0","h","NA","s","NA","NA","h","518","NA","30023","NA","NA","518","2","legacy","1024","2","48000","-16","experiment","SSHSS","3","odd","33777","NA","NA","75015","52194","3748","NA","NA","76174","3753","NA","NA","76278","76796","76170","76278","Flanker Task","20","11959","24","yes","1024"
"NA","84","84","495.72","495.72","black","legacy","legacy","legacy","0","congruent","uniform","1","undefined","1","h","0","0","0","24","24","0","24","0","24","0","0","0","24","24","24","24","Sat Sep 25 19:36:51 2021","1500","Flanker Task","yes","Flanker Task.osexp","C:\Users\rayra\Documents","no","mono","no","18","no","white","no","yes","768","legacy","24","24","C:/Users/rayra/Documents/subject-3.csv","legacy","NA","Lentiform Loewenfeld","3.3.9","0","h","NA","s","NA","NA","h","434","NA","30023","NA","NA","434","2","legacy","1024","2","48000","-16","experiment","HHHHH","3","odd","33777","NA","NA","76803","52194","3748","NA","NA","77938","3753","NA","NA","78042","78477","77935","78042","Flanker Task","21","12393","25","yes","1024"
"NA","84.61538461538461","84.61538461538461","491.11538461538464","491.11538461538464","black","legacy","legacy","legacy","0","congruent","uniform","1","undefined","1","h","0","0","0","25","25","0","25","0","25","0","0","0","25","25","25","25","Sat Sep 25 19:36:51 2021","1500","Flanker Task","yes","Flanker Task.osexp","C:\Users\rayra\Documents","no","mono","no","18","no","white","no","yes","768","legacy","25","25","C:/Users/rayra/Documents/subject-3.csv","legacy","NA","Lentiform Loewenfeld","3.3.9","0","h","NA","s","NA","NA","h","376","NA","30023","NA","NA","376","2","legacy","1024","2","48000","-16","experiment","HHHHH","3","odd","33777","NA","NA","78483","52194","3748","NA","NA","79617","3753","NA","NA","79722","80099","79615","79721","Flanker Task","22","12769","26","yes","1024"
"NA","85.18518518518519","85.18518518518519","487.037037037037","487.037037037037","black","legacy","legacy","legacy","0","incongruent","uniform","1","undefined","1","s","0","0","0","26","26","0","26","0","26","0","0","0","26","26","26","26","Sat Sep 25 19:36:51 2021","1500","Flanker Task","yes","Flanker Task.osexp","C:\Users\rayra\Documents","no","mono","no","18","no","white","no","yes","768","legacy","26","26","C:/Users/rayra/Documents/subject-3.csv","legacy","NA","Lentiform Loewenfeld","3.3.9","0","s","NA","s","NA","NA","s","381","NA","30023","NA","NA","381","2","legacy","1024","2","48000","-16","experiment","HHSHH","3","odd","33777","NA","NA","80103","52194","3748","NA","NA","81227","3753","NA","NA","81332","81713","81225","81332","Flanker Task","23","13150","27","yes","1024"
"NA","85.71428571428571","85.71428571428571","486.82142857142856","486.82142857142856","black","legacy","legacy","legacy","0","incongruent","uniform","1","undefined","1","h","0","0","0","27","27","0","27","0","27","0","0","0","27","27","27","27","Sat Sep 25 19:36:51 2021","1500","Flanker Task","yes","Flanker Task.osexp","C:\Users\rayra\Documents","no","mono","no","18","no","white","no","yes","768","legacy","27","27","C:/Users/rayra/Documents/subject-3.csv","legacy","NA","Lentiform Loewenfeld","3.3.9","0","h","NA","s","NA","NA","h","481","NA","30023","NA","NA","481","2","legacy","1024","2","48000","-16","experiment","SSHSS","3","odd","33777","NA","NA","81720","52194","3748","NA","NA","82878","3753","NA","NA","82983","83465","82875","82982","Flanker Task","24","13631","28","yes","1024"
"NA","86.20689655172414","86.20689655172414","483.55172413793105","483.55172413793105","black","legacy","legacy","legacy","0","congruent","uniform","1","undefined","1","s","0","0","0","28","28","0","28","0","28","0","0","0","28","28","28","28","Sat Sep 25 19:36:51 2021","1500","Flanker Task","yes","Flanker Task.osexp","C:\Users\rayra\Documents","no","mono","no","18","no","white","no","yes","768","legacy","28","28","C:/Users/rayra/Documents/subject-3.csv","legacy","NA","Lentiform Loewenfeld","3.3.9","0","s","NA","s","NA","NA","s","392","NA","30023","NA","NA","392","2","legacy","1024","2","48000","-16","experiment","SSSSS","3","odd","33777","NA","NA","83471","52194","3748","NA","NA","84618","3753","NA","NA","84723","85116","84616","84722","Flanker Task","25","14023","29","yes","1024"
"NA","83.33333333333333","83.33333333333333","478.96666666666664","478.96666666666664","black","legacy","legacy","legacy","0","incongruent","uniform","0","undefined","0","h","0","0","0","29","29","0","29","0","29","0","0","0","29","29","29","29","Sat Sep 25 19:36:51 2021","1500","Flanker Task","yes","Flanker Task.osexp","C:\Users\rayra\Documents","no","mono","no","18","no","white","no","yes","768","legacy","29","29","C:/Users/rayra/Documents/subject-3.csv","legacy","NA","Lentiform Loewenfeld","3.3.9","0","s","NA","s","NA","NA","s","346","NA","30023","NA","NA","346","2","legacy","1024","2","48000","-16","experiment","SSHSS","3","odd","33777","NA","NA","85124","52194","3748","NA","NA","86276","3753","NA","NA","86380","86727","86274","86380","Flanker Task","25","14369","30","yes","1024"
"NA","83.87096774193549","83.87096774193549","482.16129032258067","482.16129032258067","black","legacy","legacy","legacy","0","incongruent","uniform","1","undefined","1","h","0","0","0","30","30","0","30","0","30","0","0","0","30","30","30","30","Sat Sep 25 19:36:51 2021","1500","Flanker Task","yes","Flanker Task.osexp","C:\Users\rayra\Documents","no","mono","no","18","no","white","no","yes","768","legacy","30","30","C:/Users/rayra/Documents/subject-3.csv","legacy","NA","Lentiform Loewenfeld","3.3.9","0","h","NA","s","NA","NA","h","578","NA","30023","NA","NA","578","2","legacy","1024","2","48000","-16","experiment","SSHSS","3","odd","33777","NA","NA","87237","86733","3748","NA","NA","88356","3753","NA","NA","88460","89039","88353","88460","Flanker Task","26","14947","31","yes","1024"
"NA","84.375","84.375","480.1875","480.1875","black","legacy","legacy","legacy","0","congruent","uniform","1","undefined","1","h","0","0","0","31","31","0","31","0","31","0","0","0","31","31","31","31","Sat Sep 25 19:36:51 2021","1500","Flanker Task","yes","Flanker Task.osexp","C:\Users\rayra\Documents","no","mono","no","18","no","white","no","yes","768","legacy","31","31","C:/Users/rayra/Documents/subject-3.csv","legacy","NA","Lentiform Loewenfeld","3.3.9","0","h","NA","s","NA","NA","h","419","NA","30023","NA","NA","419","2","legacy","1024","2","48000","-16","experiment","HHHHH","3","odd","33777","NA","NA","89045","86733","3748","NA","NA","90165","3753","NA","NA","90269","90688","90162","90269","Flanker Task","27","15366","32","yes","1024"
"NA","84.84848484848484","84.84848484848484","475.8787878787879","475.8787878787879","black","legacy","legacy","legacy","0","congruent","uniform","1","undefined","1","h","0","0","0","32","32","0","32","0","32","0","0","0","32","32","32","32","Sat Sep 25 19:36:51 2021","1500","Flanker Task","yes","Flanker Task.osexp","C:\Users\rayra\Documents","no","mono","no","18","no","white","no","yes","768","legacy","32","32","C:/Users/rayra/Documents/subject-3.csv","legacy","NA","Lentiform Loewenfeld","3.3.9","0","h","NA","s","NA","NA","h","338","NA","30023","NA","NA","338","2","legacy","1024","2","48000","-16","experiment","HHHHH","3","odd","33777","NA","NA","90694","86733","3748","NA","NA","91879","3753","NA","NA","91982","92321","91875","91982","Flanker Task","28","15704","33","yes","1024"
"NA","85.29411764705883","85.29411764705883","472.2352941176471","472.2352941176471","black","legacy","legacy","legacy","0","congruent","uniform","1","undefined","1","h","0","0","0","33","33","0","33","0","33","0","0","0","33","33","33","33","Sat Sep 25 19:36:51 2021","1500","Flanker Task","yes","Flanker Task.osexp","C:\Users\rayra\Documents","no","mono","no","18","no","white","no","yes","768","legacy","33","33","C:/Users/rayra/Documents/subject-3.csv","legacy","NA","Lentiform Loewenfeld","3.3.9","0","h","NA","s","NA","NA","h","352","NA","30023","NA","NA","352","2","legacy","1024","2","48000","-16","experiment","HHHHH","3","odd","33777","NA","NA","92330","86733","3748","NA","NA","93512","3753","NA","NA","93616","93970","93508","93616","Flanker Task","29","16056","34","yes","1024"
"NA","85.71428571428571","85.71428571428571","469.8857142857143","469.8857142857143","black","legacy","legacy","legacy","0","congruent","uniform","1","undefined","1","h","0","0","0","34","34","0","34","0","34","0","0","0","34","34","34","34","Sat Sep 25 19:36:51 2021","1500","Flanker Task","yes","Flanker Task.osexp","C:\Users\rayra\Documents","no","mono","no","18","no","white","no","yes","768","legacy","34","34","C:/Users/rayra/Documents/subject-3.csv","legacy","NA","Lentiform Loewenfeld","3.3.9","0","h","NA","s","NA","NA","h","390","NA","30023","NA","NA","390","2","legacy","1024","2","48000","-16","experiment","HHHHH","3","odd","33777","NA","NA","93978","86733","3748","NA","NA","95147","3753","NA","NA","95251","95642","95144","95251","Flanker Task","30","16446","35","yes","1024"
"NA","86.11111111111111","86.11111111111111","468.8333333333333","468.8333333333333","black","legacy","legacy","legacy","0","congruent","uniform","1","undefined","1","s","0","0","0","35","35","0","35","0","35","0","0","0","35","35","35","35","Sat Sep 25 19:36:51 2021","1500","Flanker Task","yes","Flanker Task.osexp","C:\Users\rayra\Documents","no","mono","no","18","no","white","no","yes","768","legacy","35","35","C:/Users/rayra/Documents/subject-3.csv","legacy","NA","Lentiform Loewenfeld","3.3.9","0","s","NA","s","NA","NA","s","432","NA","30023","NA","NA","432","2","legacy","1024","2","48000","-16","experiment","SSSSS","3","odd","33777","NA","NA","95650","86733","3748","NA","NA","96777","3753","NA","NA","96881","97314","96775","96881","Flanker Task","31","16878","36","yes","1024"
"NA","86.48648648648648","86.48648648648648","468.5405405405405","468.5405405405405","black","legacy","legacy","legacy","0","incongruent","uniform","1","undefined","1","h","0","0","0","36","36","0","36","0","36","0","0","0","36","36","36","36","Sat Sep 25 19:36:51 2021","1500","Flanker Task","yes","Flanker Task.osexp","C:\Users\rayra\Documents","no","mono","no","18","no","white","no","yes","768","legacy","36","36","C:/Users/rayra/Documents/subject-3.csv","legacy","NA","Lentiform Loewenfeld","3.3.9","0","h","NA","s","NA","NA","h","458","NA","30023","NA","NA","458","2","legacy","1024","2","48000","-16","experiment","SSHSS","3","odd","33777","NA","NA","97320","86733","3748","NA","NA","98479","3753","NA","NA","98584","99042","98477","98583","Flanker Task","32","17336","37","yes","1024"
"NA","86.84210526315789","86.84210526315789","470.2105263157895","470.2105263157895","black","legacy","legacy","legacy","0","incongruent","uniform","1","undefined","1","s","0","0","0","37","37","0","37","0","37","0","0","0","37","37","37","37","Sat Sep 25 19:36:51 2021","1500","Flanker Task","yes","Flanker Task.osexp","C:\Users\rayra\Documents","no","mono","no","18","no","white","no","yes","768","legacy","37","37","C:/Users/rayra/Documents/subject-3.csv","legacy","NA","Lentiform Loewenfeld","3.3.9","0","s","NA","s","NA","NA","s","532","NA","30023","NA","NA","532","2","legacy","1024","2","48000","-16","experiment","HHSHH","3","odd","33777","NA","NA","99050","86733","3748","NA","NA","100223","3753","NA","NA","100327","100859","100220","100327","Flanker Task","33","17868","38","yes","1024"
"NA","87.17948717948718","87.17948717948718","470.4871794871795","470.4871794871795","black","legacy","legacy","legacy","0","congruent","uniform","1","undefined","1","s","0","0","0","38","38","0","38","0","38","0","0","0","38","38","38","38","Sat Sep 25 19:36:51 2021","1500","Flanker Task","yes","Flanker Task.osexp","C:\Users\rayra\Documents","no","mono","no","18","no","white","no","yes","768","legacy","38","38","C:/Users/rayra/Documents/subject-3.csv","legacy","NA","Lentiform Loewenfeld","3.3.9","0","s","NA","s","NA","NA","s","481","NA","30023","NA","NA","481","2","legacy","1024","2","48000","-16","experiment","SSSSS","3","odd","33777","NA","NA","100865","86733","3748","NA","NA","102039","3753","NA","NA","102144","102626","102036","102144","Flanker Task","34","18349","39","yes","1024"
"NA","87.5","87.5","469.2","469.2","black","legacy","legacy","legacy","0","congruent","uniform","1","undefined","1","h","0","0","0","39","39","0","39","0","39","0","0","0","39","39","39","39","Sat Sep 25 19:36:51 2021","1500","Flanker Task","yes","Flanker Task.osexp","C:\Users\rayra\Documents","no","mono","no","18","no","white","no","yes","768","legacy","39","39","C:/Users/rayra/Documents/subject-3.csv","legacy","NA","Lentiform Loewenfeld","3.3.9","0","h","NA","s","NA","NA","h","419","NA","30023","NA","NA","419","2","legacy","1024","2","48000","-16","experiment","HHHHH","3","odd","33777","NA","NA","102632","86733","3748","NA","NA","103755","3753","NA","NA","103859","104279","103752","103859","Flanker Task","35","18768","40","yes","1024"
"NA","87.8048780487805","87.8048780487805","468.4390243902439","468.4390243902439","black","legacy","legacy","legacy","0","incongruent","uniform","1","undefined","1","s","0","0","0","40","40","0","40","0","40","0","0","0","40","40","40","40","Sat Sep 25 19:36:51 2021","1500","Flanker Task","yes","Flanker Task.osexp","C:\Users\rayra\Documents","no","mono","no","18","no","white","no","yes","768","legacy","40","40","C:/Users/rayra/Documents/subject-3.csv","legacy","NA","Lentiform Loewenfeld","3.3.9","0","s","NA","s","NA","NA","s","438","NA","30023","NA","NA","438","2","legacy","1024","2","48000","-16","experiment","HHSHH","3","odd","33777","NA","NA","104285","86733","3748","NA","NA","105446","3753","NA","NA","105550","105988","105443","105550","Flanker Task","36","19206","41","yes","1024"
"NA","88.0952380952381","88.0952380952381","469.64285714285717","469.64285714285717","black","legacy","legacy","legacy","0","incongruent","uniform","1","undefined","1","h","0","0","0","41","41","0","41","0","41","0","0","0","41","41","41","41","Sat Sep 25 19:36:51 2021","1500","Flanker Task","yes","Flanker Task.osexp","C:\Users\rayra\Documents","no","mono","no","18","no","white","no","yes","768","legacy","41","41","C:/Users/rayra/Documents/subject-3.csv","legacy","NA","Lentiform Loewenfeld","3.3.9","0","h","NA","s","NA","NA","h","519","NA","30023","NA","NA","519","2","legacy","1024","2","48000","-16","experiment","SSHSS","3","odd","33777","NA","NA","105995","86733","3748","NA","NA","107171","3753","NA","NA","107276","107796","107167","107275","Flanker Task","37","19725","42","yes","1024"
"NA","88.37209302325581","88.37209302325581","469.5348837209302","469.5348837209302","black","legacy","legacy","legacy","0","congruent","uniform","1","undefined","1","s","0","0","0","42","42","0","42","0","42","0","0","0","42","42","42","42","Sat Sep 25 19:36:51 2021","1500","Flanker Task","yes","Flanker Task.osexp","C:\Users\rayra\Documents","no","mono","no","18","no","white","no","yes","768","legacy","42","42","C:/Users/rayra/Documents/subject-3.csv","legacy","NA","Lentiform Loewenfeld","3.3.9","0","s","NA","s","NA","NA","s","465","NA","30023","NA","NA","465","2","legacy","1024","2","48000","-16","experiment","SSSSS","3","odd","33777","NA","NA","107802","86733","3748","NA","NA","108938","3753","NA","NA","109042","109508","108935","109042","Flanker Task","38","20190","43","yes","1024"
"NA","88.63636363636364","88.63636363636364","468.72727272727275","468.72727272727275","black","legacy","legacy","legacy","0","congruent","uniform","1","undefined","1","s","0","0","0","43","43","0","43","0","43","0","0","0","43","43","43","43","Sat Sep 25 19:36:51 2021","1500","Flanker Task","yes","Flanker Task.osexp","C:\Users\rayra\Documents","no","mono","no","18","no","white","no","yes","768","legacy","43","43","C:/Users/rayra/Documents/subject-3.csv","legacy","NA","Lentiform Loewenfeld","3.3.9","0","s","NA","s","NA","NA","s","434","NA","30023","NA","NA","434","2","legacy","1024","2","48000","-16","experiment","SSSSS","3","odd","33777","NA","NA","109514","86733","3748","NA","NA","110649","3753","NA","NA","110754","111189","110646","110754","Flanker Task","39","20624","44","yes","1024"
"NA","88.88888888888889","88.88888888888889","467.6","467.6","black","legacy","legacy","legacy","0","congruent","uniform","1","undefined","1","s","0","0","0","44","44","0","44","0","44","0","0","0","44","44","44","44","Sat Sep 25 19:36:51 2021","1500","Flanker Task","yes","Flanker Task.osexp","C:\Users\rayra\Documents","no","mono","no","18","no","white","no","yes","768","legacy","44","44","C:/Users/rayra/Documents/subject-3.csv","legacy","NA","Lentiform Loewenfeld","3.3.9","0","s","NA","s","NA","NA","s","418","NA","30023","NA","NA","418","2","legacy","1024","2","48000","-16","experiment","SSSSS","3","odd","33777","NA","NA","111196","86733","3748","NA","NA","112314","3753","NA","NA","112418","112837","112311","112418","Flanker Task","40","21042","45","yes","1024"
"NA","89.1304347826087","89.1304347826087","468.89130434782606","468.89130434782606","black","legacy","legacy","legacy","0","incongruent","uniform","1","undefined","1","h","0","0","0","45","45","0","45","0","45","0","0","0","45","45","45","45","Sat Sep 25 19:36:51 2021","1500","Flanker Task","yes","Flanker Task.osexp","C:\Users\rayra\Documents","no","mono","no","18","no","white","no","yes","768","legacy","45","45","C:/Users/rayra/Documents/subject-3.csv","legacy","NA","Lentiform Loewenfeld","3.3.9","0","h","NA","s","NA","NA","h","527","NA","30023","NA","NA","527","2","legacy","1024","2","48000","-16","experiment","SSHSS","3","odd","33777","NA","NA","112843","86733","3748","NA","NA","113967","3753","NA","NA","114069","114596","113964","114069","Flanker Task","41","21569","46","yes","1024"
"NA","89.36170212765957","89.36170212765957","470.40425531914894","470.40425531914894","black","legacy","legacy","legacy","0","incongruent","uniform","1","undefined","1","s","0","0","0","46","46","0","46","0","46","0","0","0","46","46","46","46","Sat Sep 25 19:36:51 2021","1500","Flanker Task","yes","Flanker Task.osexp","C:\Users\rayra\Documents","no","mono","no","18","no","white","no","yes","768","legacy","46","46","C:/Users/rayra/Documents/subject-3.csv","legacy","NA","Lentiform Loewenfeld","3.3.9","0","s","NA","s","NA","NA","s","540","NA","30023","NA","NA","540","2","legacy","1024","2","48000","-16","experiment","HHSHH","3","odd","33777","NA","NA","114602","86733","3748","NA","NA","115752","3753","NA","NA","115855","116396","115748","115855","Flanker Task","42","22109","47","yes","1024"
"NA","89.58333333333333","89.58333333333333","471.8125","471.8125","black","legacy","legacy","legacy","0","congruent","uniform","1","undefined","1","h","0","0","0","47","47","0","47","0","47","0","0","0","47","47","47","47","Sat Sep 25 19:36:51 2021","1500","Flanker Task","yes","Flanker Task.osexp","C:\Users\rayra\Documents","no","mono","no","18","no","white","no","yes","768","legacy","47","47","C:/Users/rayra/Documents/subject-3.csv","legacy","NA","Lentiform Loewenfeld","3.3.9","0","h","NA","s","NA","NA","h","538","NA","30023","NA","NA","538","2","legacy","1024","2","48000","-16","experiment","HHHHH","3","odd","33777","NA","NA","116402","86733","3748","NA","NA","117589","3753","NA","NA","117693","118231","117586","117693","Flanker Task","43","22647","48","yes","1024"
"NA","89.79591836734694","89.79591836734694","473.2857142857143","473.2857142857143","black","legacy","legacy","legacy","0","congruent","uniform","1","undefined","1","s","0","0","0","48","48","0","48","0","48","0","0","0","48","48","48","48","Sat Sep 25 19:36:51 2021","1500","Flanker Task","yes","Flanker Task.osexp","C:\Users\rayra\Documents","no","mono","no","18","no","white","no","yes","768","legacy","48","48","C:/Users/rayra/Documents/subject-3.csv","legacy","NA","Lentiform Loewenfeld","3.3.9","0","s","NA","s","NA","NA","s","544","NA","30023","NA","NA","544","2","legacy","1024","2","48000","-16","experiment","SSSSS","3","odd","33777","NA","NA","118238","86733","3748","NA","NA","119369","3753","NA","NA","119474","120019","119367","119473","Flanker Task","44","23191","49","yes","1024"
"NA","90","90","474.68","474.68","black","legacy","legacy","legacy","0","congruent","uniform","1","undefined","1","s","0","0","0","49","49","0","49","0","49","0","0","0","49","49","49","49","Sat Sep 25 19:36:51 2021","1500","Flanker Task","yes","Flanker Task.osexp","C:\Users\rayra\Documents","no","mono","no","18","no","white","no","yes","768","legacy","49","49","C:/Users/rayra/Documents/subject-3.csv","legacy","NA","Lentiform Loewenfeld","3.3.9","0","s","NA","s","NA","NA","s","543","NA","30023","NA","NA","543","2","legacy","1024","2","48000","-16","experiment","SSSSS","3","odd","33777","NA","NA","120024","86733","3748","NA","NA","121169","3753","NA","NA","121273","121817","121165","121272","Flanker Task","45","23734","50","yes","1024"
"NA","90.19607843137256","90.19607843137256","475.03921568627453","475.03921568627453","black","legacy","legacy","legacy","0","incongruent","uniform","1","undefined","1","s","0","0","0","50","50","0","50","0","50","0","0","0","50","50","50","50","Sat Sep 25 19:36:51 2021","1500","Flanker Task","yes","Flanker Task.osexp","C:\Users\rayra\Documents","no","mono","no","18","no","white","no","yes","768","legacy","50","50","C:/Users/rayra/Documents/subject-3.csv","legacy","NA","Lentiform Loewenfeld","3.3.9","0","s","NA","s","NA","NA","s","493","NA","30023","NA","NA","493","2","legacy","1024","2","48000","-16","experiment","HHSHH","3","odd","33777","NA","NA","121824","86733","3748","NA","NA","122960","3753","NA","NA","123065","123559","122957","123065","Flanker Task","46","24227","51","yes","1024"
"NA","90.38461538461539","90.38461538461539","473.1730769230769","473.1730769230769","black","legacy","legacy","legacy","0","congruent","uniform","1","undefined","1","s","0","0","0","51","51","0","51","0","51","0","0","0","51","51","51","51","Sat Sep 25 19:36:51 2021","1500","Flanker Task","yes","Flanker Task.osexp","C:\Users\rayra\Documents","no","mono","no","18","no","white","no","yes","768","legacy","51","51","C:/Users/rayra/Documents/subject-3.csv","legacy","NA","Lentiform Loewenfeld","3.3.9","0","s","NA","s","NA","NA","s","378","NA","30023","NA","NA","378","2","legacy","1024","2","48000","-16","experiment","SSSSS","3","odd","33777","NA","NA","123566","86733","3748","NA","NA","124731","3753","NA","NA","124835","125214","124729","124835","Flanker Task","47","24605","52","yes","1024"
"NA","90.56603773584905","90.56603773584905","472.49056603773585","472.49056603773585","black","legacy","legacy","legacy","0","congruent","uniform","1","undefined","1","h","0","0","0","52","52","0","52","0","52","0","0","0","52","52","52","52","Sat Sep 25 19:36:51 2021","1500","Flanker Task","yes","Flanker Task.osexp","C:\Users\rayra\Documents","no","mono","no","18","no","white","no","yes","768","legacy","52","52","C:/Users/rayra/Documents/subject-3.csv","legacy","NA","Lentiform Loewenfeld","3.3.9","0","h","NA","s","NA","NA","h","437","NA","30023","NA","NA","437","2","legacy","1024","2","48000","-16","experiment","HHHHH","3","odd","33777","NA","NA","125220","86733","3748","NA","NA","126369","3753","NA","NA","126473","126911","126366","126473","Flanker Task","48","25042","53","yes","1024"
"NA","90.74074074074075","90.74074074074075","471.55555555555554","471.55555555555554","black","legacy","legacy","legacy","0","congruent","uniform","1","undefined","1","s","0","0","0","53","53","0","53","0","53","0","0","0","53","53","53","53","Sat Sep 25 19:36:51 2021","1500","Flanker Task","yes","Flanker Task.osexp","C:\Users\rayra\Documents","no","mono","no","18","no","white","no","yes","768","legacy","53","53","C:/Users/rayra/Documents/subject-3.csv","legacy","NA","Lentiform Loewenfeld","3.3.9","0","s","NA","s","NA","NA","s","422","NA","30023","NA","NA","422","2","legacy","1024","2","48000","-16","experiment","SSSSS","3","odd","33777","NA","NA","126917","86733","3748","NA","NA","128089","3753","NA","NA","128194","128617","128087","128194","Flanker Task","49","25464","54","yes","1024"
"NA","90.9090909090909","90.9090909090909","470.3272727272727","470.3272727272727","black","legacy","legacy","legacy","0","congruent","uniform","1","undefined","1","h","0","0","0","54","54","0","54","0","54","0","0","0","54","54","54","54","Sat Sep 25 19:36:51 2021","1500","Flanker Task","yes","Flanker Task.osexp","C:\Users\rayra\Documents","no","mono","no","18","no","white","no","yes","768","legacy","54","54","C:/Users/rayra/Documents/subject-3.csv","legacy","NA","Lentiform Loewenfeld","3.3.9","0","h","NA","s","NA","NA","h","404","NA","30023","NA","NA","404","2","legacy","1024","2","48000","-16","experiment","HHHHH","3","odd","33777","NA","NA","128623","86733","3748","NA","NA","129748","3753","NA","NA","129852","130257","129745","129852","Flanker Task","50","25868","55","yes","1024"
"NA","91.07142857142857","91.07142857142857","469.4642857142857","469.4642857142857","black","legacy","legacy","legacy","0","incongruent","uniform","1","undefined","1","s","0","0","0","55","55","0","55","0","55","0","0","0","55","55","55","55","Sat Sep 25 19:36:51 2021","1500","Flanker Task","yes","Flanker Task.osexp","C:\Users\rayra\Documents","no","mono","no","18","no","white","no","yes","768","legacy","55","55","C:/Users/rayra/Documents/subject-3.csv","legacy","NA","Lentiform Loewenfeld","3.3.9","0","s","NA","s","NA","NA","s","422","NA","30023","NA","NA","422","2","legacy","1024","2","48000","-16","experiment","HHSHH","3","odd","33777","NA","NA","130263","86733","3748","NA","NA","131387","3753","NA","NA","131492","131915","131384","131491","Flanker Task","51","26290","56","yes","1024"
"NA","91.2280701754386","91.2280701754386","469.140350877193","469.140350877193","black","legacy","legacy","legacy","0","incongruent","uniform","1","undefined","1","s","0","0","0","56","56","0","56","0","56","0","0","0","56","56","56","56","Sat Sep 25 19:36:51 2021","1500","Flanker Task","yes","Flanker Task.osexp","C:\Users\rayra\Documents","no","mono","no","18","no","white","no","yes","768","legacy","56","56","C:/Users/rayra/Documents/subject-3.csv","legacy","NA","Lentiform Loewenfeld","3.3.9","0","s","NA","s","NA","NA","s","451","NA","30023","NA","NA","451","2","legacy","1024","2","48000","-16","experiment","HHSHH","3","odd","33777","NA","NA","131921","86733","3748","NA","NA","133088","3753","NA","NA","133193","133644","133085","133193","Flanker Task","52","26741","57","yes","1024"
"NA","91.37931034482759","91.37931034482759","469.4310344827586","469.4310344827586","black","legacy","legacy","legacy","0","incongruent","uniform","1","undefined","1","h","0","0","0","57","57","0","57","0","57","0","0","0","57","57","57","57","Sat Sep 25 19:36:51 2021","1500","Flanker Task","yes","Flanker Task.osexp","C:\Users\rayra\Documents","no","mono","no","18","no","white","no","yes","768","legacy","57","57","C:/Users/rayra/Documents/subject-3.csv","legacy","NA","Lentiform Loewenfeld","3.3.9","0","h","NA","s","NA","NA","h","486","NA","30023","NA","NA","486","2","legacy","1024","2","48000","-16","experiment","SSHSS","3","odd","33777","NA","NA","133652","86733","3748","NA","NA","134780","3753","NA","NA","134885","135373","134777","134884","Flanker Task","53","27227","58","yes","1024"
"NA","91.52542372881356","91.52542372881356","469.33898305084745","469.33898305084745","black","legacy","legacy","legacy","0","congruent","uniform","1","undefined","1","h","0","0","0","58","58","0","58","0","58","0","0","0","58","58","58","58","Sat Sep 25 19:36:51 2021","1500","Flanker Task","yes","Flanker Task.osexp","C:\Users\rayra\Documents","no","mono","no","18","no","white","no","yes","768","legacy","58","58","C:/Users/rayra/Documents/subject-3.csv","legacy","NA","Lentiform Loewenfeld","3.3.9","0","h","NA","s","NA","NA","h","464","NA","30023","NA","NA","464","2","legacy","1024","2","48000","-16","experiment","HHHHH","3","odd","33777","NA","NA","135379","86733","3748","NA","NA","136544","3753","NA","NA","136648","137113","136541","136648","Flanker Task","54","27691","59","yes","1024"
"NA","91.66666666666667","91.66666666666667","469.25","469.25","black","legacy","legacy","legacy","0","congruent","uniform","1","undefined","1","h","0","0","0","59","59","0","59","0","59","0","0","0","59","59","59","59","Sat Sep 25 19:36:51 2021","1500","Flanker Task","yes","Flanker Task.osexp","C:\Users\rayra\Documents","no","mono","no","18","no","white","no","yes","768","legacy","59","59","C:/Users/rayra/Documents/subject-3.csv","legacy","NA","Lentiform Loewenfeld","3.3.9","0","h","NA","s","NA","NA","h","464","NA","30023","NA","NA","464","2","legacy","1024","2","48000","-16","experiment","HHHHH","3","odd","33777","NA","NA","137121","86733","3748","NA","NA","138245","3753","NA","NA","138349","138814","138242","138349","Flanker Task","55","28155","60","yes","1024"
"NA","91.80327868852459","91.80327868852459","468.95081967213116","468.95081967213116","black","legacy","legacy","legacy","0","incongruent","uniform","1","undefined","1","s","0","0","0","60","60","0","60","0","60","0","0","0","60","60","60","60","Sat Sep 25 19:36:51 2021","1500","Flanker Task","yes","Flanker Task.osexp","C:\Users\rayra\Documents","no","mono","no","18","no","white","no","yes","768","legacy","60","60","C:/Users/rayra/Documents/subject-3.csv","legacy","NA","Lentiform Loewenfeld","3.3.9","0","s","NA","s","NA","NA","s","451","NA","30023","NA","NA","451","2","legacy","1024","2","48000","-16","experiment","HHSHH","3","odd","33777","NA","NA","138820","86733","3748","NA","NA","139981","3753","NA","NA","140085","140537","139979","140085","Flanker Task","56","28606","61","yes","1024"
"NA","91.93548387096774","91.93548387096774","468.88709677419354","468.88709677419354","black","legacy","legacy","legacy","0","incongruent","uniform","1","undefined","1","s","0","0","0","61","61","0","61","0","61","0","0","0","61","61","61","61","Sat Sep 25 19:36:51 2021","1500","Flanker Task","yes","Flanker Task.osexp","C:\Users\rayra\Documents","no","mono","no","18","no","white","no","yes","768","legacy","61","61","C:/Users/rayra/Documents/subject-3.csv","legacy","NA","Lentiform Loewenfeld","3.3.9","0","s","NA","s","NA","NA","s","465","NA","30023","NA","NA","465","2","legacy","1024","2","48000","-16","experiment","HHSHH","3","odd","33777","NA","NA","140543","86733","3748","NA","NA","141692","3753","NA","NA","141796","142262","141689","141796","Flanker Task","57","29071","62","yes","1024"
"NA","92.06349206349206","92.06349206349206","468.5079365079365","468.5079365079365","black","legacy","legacy","legacy","0","congruent","uniform","1","undefined","1","s","0","0","0","62","62","0","62","0","62","0","0","0","62","62","62","62","Sat Sep 25 19:36:51 2021","1500","Flanker Task","yes","Flanker Task.osexp","C:\Users\rayra\Documents","no","mono","no","18","no","white","no","yes","768","legacy","62","62","C:/Users/rayra/Documents/subject-3.csv","legacy","NA","Lentiform Loewenfeld","3.3.9","0","s","NA","s","NA","NA","s","445","NA","30023","NA","NA","445","2","legacy","1024","2","48000","-16","experiment","SSSSS","3","odd","33777","NA","NA","142268","86733","3748","NA","NA","143410","3753","NA","NA","143514","143960","143407","143514","Flanker Task","58","29516","63","yes","1024"
"NA","92.1875","92.1875","470.421875","470.421875","black","legacy","legacy","legacy","0","incongruent","uniform","1","undefined","1","h","0","0","0","63","63","0","63","0","63","0","0","0","63","63","63","63","Sat Sep 25 19:36:51 2021","1500","Flanker Task","yes","Flanker Task.osexp","C:\Users\rayra\Documents","no","mono","no","18","no","white","no","yes","768","legacy","63","63","C:/Users/rayra/Documents/subject-3.csv","legacy","NA","Lentiform Loewenfeld","3.3.9","0","h","NA","s","NA","NA","h","591","NA","30023","NA","NA","591","2","legacy","1024","2","48000","-16","experiment","SSHSS","3","odd","33777","NA","NA","143966","86733","3748","NA","NA","145113","3753","NA","NA","145218","145809","145111","145218","Flanker Task","59","30107","64","yes","1024"
"NA","92.3076923076923","92.3076923076923","469.12307692307695","469.12307692307695","black","legacy","legacy","legacy","0","congruent","uniform","1","undefined","1","s","0","0","0","64","64","0","64","0","64","0","0","0","64","64","64","64","Sat Sep 25 19:36:51 2021","1500","Flanker Task","yes","Flanker Task.osexp","C:\Users\rayra\Documents","no","mono","no","18","no","white","no","yes","768","legacy","64","64","C:/Users/rayra/Documents/subject-3.csv","legacy","NA","Lentiform Loewenfeld","3.3.9","0","s","NA","s","NA","NA","s","386","NA","30023","NA","NA","386","2","legacy","1024","2","48000","-16","experiment","SSSSS","3","odd","33777","NA","NA","145815","86733","3748","NA","NA","146944","3753","NA","NA","147049","147437","146942","147049","Flanker Task","60","30493","65","yes","1024"
"NA","92.42424242424242","92.42424242424242","470.5151515151515","470.5151515151515","black","legacy","legacy","legacy","0","incongruent","uniform","1","undefined","1","s","0","0","0","65","65","0","65","0","65","0","0","0","65","65","65","65","Sat Sep 25 19:36:51 2021","1500","Flanker Task","yes","Flanker Task.osexp","C:\Users\rayra\Documents","no","mono","no","18","no","white","no","yes","768","legacy","65","65","C:/Users/rayra/Documents/subject-3.csv","legacy","NA","Lentiform Loewenfeld","3.3.9","0","s","NA","s","NA","NA","s","561","NA","30023","NA","NA","561","2","legacy","1024","2","48000","-16","experiment","HHSHH","3","odd","33777","NA","NA","147445","86733","3748","NA","NA","148626","3753","NA","NA","148730","149292","148622","148730","Flanker Task","61","31054","66","yes","1024"
"NA","92.53731343283582","92.53731343283582","471.1641791044776","471.1641791044776","black","legacy","legacy","legacy","0","incongruent","uniform","1","undefined","1","h","0","0","0","66","66","0","66","0","66","0","0","0","66","66","66","66","Sat Sep 25 19:36:51 2021","1500","Flanker Task","yes","Flanker Task.osexp","C:\Users\rayra\Documents","no","mono","no","18","no","white","no","yes","768","legacy","66","66","C:/Users/rayra/Documents/subject-3.csv","legacy","NA","Lentiform Loewenfeld","3.3.9","0","h","NA","s","NA","NA","h","514","NA","30023","NA","NA","514","2","legacy","1024","2","48000","-16","experiment","SSHSS","3","odd","33777","NA","NA","149298","86733","3748","NA","NA","150457","3753","NA","NA","150561","151075","150454","150561","Flanker Task","62","31568","67","yes","1024"
"NA","92.6470588235294","92.6470588235294","470.3970588235294","470.3970588235294","black","legacy","legacy","legacy","0","incongruent","uniform","1","undefined","1","h","0","0","0","67","67","0","67","0","67","0","0","0","67","67","67","67","Sat Sep 25 19:36:51 2021","1500","Flanker Task","yes","Flanker Task.osexp","C:\Users\rayra\Documents","no","mono","no","18","no","white","no","yes","768","legacy","67","67","C:/Users/rayra/Documents/subject-3.csv","legacy","NA","Lentiform Loewenfeld","3.3.9","0","h","NA","s","NA","NA","h","419","NA","30023","NA","NA","419","2","legacy","1024","2","48000","-16","experiment","SSHSS","3","odd","33777","NA","NA","151082","86733","3748","NA","NA","152205","3753","NA","NA","152309","152729","152202","152309","Flanker Task","63","31987","68","yes","1024"
"NA","92.7536231884058","92.7536231884058","470.8985507246377","470.8985507246377","black","legacy","legacy","legacy","0","incongruent","uniform","1","undefined","1","s","0","0","0","68","68","0","68","0","68","0","0","0","68","68","68","68","Sat Sep 25 19:36:51 2021","1500","Flanker Task","yes","Flanker Task.osexp","C:\Users\rayra\Documents","no","mono","no","18","no","white","no","yes","768","legacy","68","68","C:/Users/rayra/Documents/subject-3.csv","legacy","NA","Lentiform Loewenfeld","3.3.9","0","s","NA","s","NA","NA","s","505","NA","30023","NA","NA","505","2","legacy","1024","2","48000","-16","experiment","HHSHH","3","odd","33777","NA","NA","152735","86733","3748","NA","NA","153875","3753","NA","NA","153979","154485","153873","153979","Flanker Task","64","32492","69","yes","1024"
"NA","92.85714285714286","92.85714285714286","470.5285714285714","470.5285714285714","black","legacy","legacy","legacy","0","congruent","uniform","1","undefined","1","s","0","0","0","69","69","0","69","0","69","0","0","0","69","69","69","69","Sat Sep 25 19:36:51 2021","1500","Flanker Task","yes","Flanker Task.osexp","C:\Users\rayra\Documents","no","mono","no","18","no","white","no","yes","768","legacy","69","69","C:/Users/rayra/Documents/subject-3.csv","legacy","NA","Lentiform Loewenfeld","3.3.9","0","s","NA","s","NA","NA","s","445","NA","30023","NA","NA","445","2","legacy","1024","2","48000","-16","experiment","SSSSS","3","odd","33777","NA","NA","154492","86733","3748","NA","NA","155617","3753","NA","NA","155721","156167","155614","155721","Flanker Task","65","32937","70","yes","1024"
"NA","92.95774647887323","92.95774647887323","470.4225352112676","470.4225352112676","black","legacy","legacy","legacy","0","incongruent","uniform","1","undefined","1","s","0","0","0","70","70","0","70","0","70","0","0","0","70","70","70","70","Sat Sep 25 19:36:51 2021","1500","Flanker Task","yes","Flanker Task.osexp","C:\Users\rayra\Documents","no","mono","no","18","no","white","no","yes","768","legacy","70","70","C:/Users/rayra/Documents/subject-3.csv","legacy","NA","Lentiform Loewenfeld","3.3.9","0","s","NA","s","NA","NA","s","463","NA","30023","NA","NA","463","2","legacy","1024","2","48000","-16","experiment","HHSHH","3","odd","33777","NA","NA","156173","86733","3748","NA","NA","157341","3753","NA","NA","157445","157909","157339","157445","Flanker Task","66","33400","71","yes","1024"
"NA","93.05555555555556","93.05555555555556","470.375","470.375","black","legacy","legacy","legacy","0","congruent","uniform","1","undefined","1","h","0","0","0","71","71","0","71","0","71","0","0","0","71","71","71","71","Sat Sep 25 19:36:51 2021","1500","Flanker Task","yes","Flanker Task.osexp","C:\Users\rayra\Documents","no","mono","no","18","no","white","no","yes","768","legacy","71","71","C:/Users/rayra/Documents/subject-3.csv","legacy","NA","Lentiform Loewenfeld","3.3.9","0","h","NA","s","NA","NA","h","467","NA","30023","NA","NA","467","2","legacy","1024","2","48000","-16","experiment","HHHHH","3","odd","33777","NA","NA","157916","86733","3748","NA","NA","159089","3753","NA","NA","159193","159661","159087","159193","Flanker Task","67","33867","72","yes","1024"
"NA","93.15068493150685","93.15068493150685","470.4657534246575","470.4657534246575","black","legacy","legacy","legacy","0","congruent","uniform","1","undefined","1","s","0","0","0","72","72","0","72","0","72","0","0","0","72","72","72","72","Sat Sep 25 19:36:51 2021","1500","Flanker Task","yes","Flanker Task.osexp","C:\Users\rayra\Documents","no","mono","no","18","no","white","no","yes","768","legacy","72","72","C:/Users/rayra/Documents/subject-3.csv","legacy","NA","Lentiform Loewenfeld","3.3.9","0","s","NA","s","NA","NA","s","477","NA","30023","NA","NA","477","2","legacy","1024","2","48000","-16","experiment","SSSSS","3","odd","33777","NA","NA","159667","86733","3748","NA","NA","160802","3753","NA","NA","160906","161384","160798","160906","Flanker Task","68","34344","73","yes","1024"
"NA","93.24324324324324","93.24324324324324","470","470","black","legacy","legacy","legacy","0","congruent","uniform","1","undefined","1","h","0","0","0","73","73","0","73","0","73","0","0","0","73","73","73","73","Sat Sep 25 19:36:51 2021","1500","Flanker Task","yes","Flanker Task.osexp","C:\Users\rayra\Documents","no","mono","no","18","no","white","no","yes","768","legacy","73","73","C:/Users/rayra/Documents/subject-3.csv","legacy","NA","Lentiform Loewenfeld","3.3.9","0","h","NA","s","NA","NA","h","436","NA","30023","NA","NA","436","2","legacy","1024","2","48000","-16","experiment","HHHHH","3","odd","33777","NA","NA","161389","86733","3748","NA","NA","162569","3753","NA","NA","162674","163111","162566","162674","Flanker Task","69","34780","74","yes","1024"
"NA","93.33333333333333","93.33333333333333","469.14666666666665","469.14666666666665","black","legacy","legacy","legacy","0","congruent","uniform","1","undefined","1","s","0","0","0","74","74","0","74","0","74","0","0","0","74","74","74","74","Sat Sep 25 19:36:51 2021","1500","Flanker Task","yes","Flanker Task.osexp","C:\Users\rayra\Documents","no","mono","no","18","no","white","no","yes","768","legacy","74","74","C:/Users/rayra/Documents/subject-3.csv","legacy","NA","Lentiform Loewenfeld","3.3.9","0","s","NA","s","NA","NA","s","406","NA","30023","NA","NA","406","2","legacy","1024","2","48000","-16","experiment","SSSSS","3","odd","33777","NA","NA","163116","86733","3748","NA","NA","164290","3753","NA","NA","164393","164800","164285","164393","Flanker Task","70","35186","75","yes","1024"
"NA","92.10526315789474","92.10526315789474","468.13157894736844","468.13157894736844","black","legacy","legacy","legacy","0","incongruent","uniform","0","undefined","0","h","0","0","0","75","75","0","75","0","75","0","0","0","75","75","75","75","Sat Sep 25 19:36:51 2021","1500","Flanker Task","yes","Flanker Task.osexp","C:\Users\rayra\Documents","no","mono","no","18","no","white","no","yes","768","legacy","75","75","C:/Users/rayra/Documents/subject-3.csv","legacy","NA","Lentiform Loewenfeld","3.3.9","0","s","NA","s","NA","NA","s","392","NA","30023","NA","NA","392","2","legacy","1024","2","48000","-16","experiment","SSHSS","3","odd","33777","NA","NA","164807","86733","3748","NA","NA","165980","3753","NA","NA","166084","166477","165978","166084","Flanker Task","70","35578","76","yes","1024"
"NA","92.20779220779221","92.20779220779221","468.2857142857143","468.2857142857143","black","legacy","legacy","legacy","0","incongruent","uniform","1","undefined","1","h","0","0","0","76","76","0","76","0","76","0","0","0","76","76","76","76","Sat Sep 25 19:36:51 2021","1500","Flanker Task","yes","Flanker Task.osexp","C:\Users\rayra\Documents","no","mono","no","18","no","white","no","yes","768","legacy","76","76","C:/Users/rayra/Documents/subject-3.csv","legacy","NA","Lentiform Loewenfeld","3.3.9","0","h","NA","s","NA","NA","h","480","NA","30023","NA","NA","480","2","legacy","1024","2","48000","-16","experiment","SSHSS","3","odd","33777","NA","NA","166987","166483","3748","NA","NA","168099","3753","NA","NA","168204","168685","168096","168204","Flanker Task","71","36058","77","yes","1024"
"NA","92.3076923076923","92.3076923076923","468.6923076923077","468.6923076923077","black","legacy","legacy","legacy","0","congruent","uniform","1","undefined","1","s","0","0","0","77","77","0","77","0","77","0","0","0","77","77","77","77","Sat Sep 25 19:36:51 2021","1500","Flanker Task","yes","Flanker Task.osexp","C:\Users\rayra\Documents","no","mono","no","18","no","white","no","yes","768","legacy","77","77","C:/Users/rayra/Documents/subject-3.csv","legacy","NA","Lentiform Loewenfeld","3.3.9","0","s","NA","s","NA","NA","s","500","NA","30023","NA","NA","500","2","legacy","1024","2","48000","-16","experiment","SSSSS","3","odd","33777","NA","NA","168694","166483","3748","NA","NA","169869","3753","NA","NA","169973","170474","169865","169973","Flanker Task","72","36558","78","yes","1024"
"NA","92.40506329113924","92.40506329113924","469.126582278481","469.126582278481","black","legacy","legacy","legacy","0","congruent","uniform","1","undefined","1","h","0","0","0","78","78","0","78","0","78","0","0","0","78","78","78","78","Sat Sep 25 19:36:51 2021","1500","Flanker Task","yes","Flanker Task.osexp","C:\Users\rayra\Documents","no","mono","no","18","no","white","no","yes","768","legacy","78","78","C:/Users/rayra/Documents/subject-3.csv","legacy","NA","Lentiform Loewenfeld","3.3.9","0","h","NA","s","NA","NA","h","503","NA","30023","NA","NA","503","2","legacy","1024","2","48000","-16","experiment","HHHHH","3","odd","33777","NA","NA","170480","166483","3748","NA","NA","171631","3753","NA","NA","171735","172239","171628","171734","Flanker Task","73","37061","79","yes","1024"
"NA","92.5","92.5","470.35","470.35","black","legacy","legacy","legacy","0","incongruent","uniform","1","undefined","1","h","0","0","0","79","79","0","79","0","79","0","0","0","79","79","79","79","Sat Sep 25 19:36:51 2021","1500","Flanker Task","yes","Flanker Task.osexp","C:\Users\rayra\Documents","no","mono","no","18","no","white","no","yes","768","legacy","79","79","C:/Users/rayra/Documents/subject-3.csv","legacy","NA","Lentiform Loewenfeld","3.3.9","0","h","NA","s","NA","NA","h","567","NA","30023","NA","NA","567","2","legacy","1024","2","48000","-16","experiment","SSHSS","3","odd","33777","NA","NA","172245","166483","3748","NA","NA","173393","3753","NA","NA","173497","174065","173389","173497","Flanker Task","74","37628","80","yes","1024"
"NA","92.5925925925926","92.5925925925926","473.65432098765433","473.65432098765433","black","legacy","legacy","legacy","0","congruent","uniform","1","undefined","1","s","0","0","0","80","80","0","80","0","80","0","0","0","80","80","80","80","Sat Sep 25 19:36:51 2021","600","Flanker Task","yes","Flanker Task.osexp","C:\Users\rayra\Documents","no","mono","no","18","no","white","no","yes","768","legacy","0","79","C:/Users/rayra/Documents/subject-3.csv","legacy","NA","Lentiform Loewenfeld","3.3.9","0","s","NA","s","h","NA","s","738","NA","30023","9426","NA","738","2","legacy","1024","2","48000","-16","experiment","SSSSS","3","odd","33777","184542","NA","174071","166483","3748","NA","NA","184632","3753","175115","NA","184734","185474","184629","184734","Flanker Task","75","38366","81","yes","1024"
"NA","92.6829268292683","92.6829268292683","474.780487804878","474.780487804878","black","legacy","legacy","legacy","0","incongruent","uniform","1","undefined","1","s","0","0","0","81","81","0","81","0","81","0","0","0","81","81","81","81","Sat Sep 25 19:36:51 2021","600","Flanker Task","yes","Flanker Task.osexp","C:\Users\rayra\Documents","no","mono","no","18","no","white","no","yes","768","legacy","1","79","C:/Users/rayra/Documents/subject-3.csv","legacy","NA","Lentiform Loewenfeld","3.3.9","0","s","NA","s","h","NA","s","566","NA","30023","9426","NA","566","2","legacy","1024","2","48000","-16","experiment","HHSHH","3","odd","33777","184542","NA","185998","166483","3748","185495","NA","187129","3753","175115","NA","187232","187800","187125","187232","Flanker Task","76","38932","82","yes","1024"
"NA","92.7710843373494","92.7710843373494","473.65060240963857","473.65060240963857","black","legacy","legacy","legacy","0","congruent","uniform","1","undefined","1","h","0","0","0","82","82","0","82","0","82","0","0","0","82","82","82","82","Sat Sep 25 19:36:51 2021","600","Flanker Task","yes","Flanker Task.osexp","C:\Users\rayra\Documents","no","mono","no","18","no","white","no","yes","768","legacy","2","79","C:/Users/rayra/Documents/subject-3.csv","legacy","NA","Lentiform Loewenfeld","3.3.9","0","h","NA","s","h","NA","h","381","NA","30023","9426","NA","381","2","legacy","1024","2","48000","-16","experiment","HHHHH","3","odd","33777","184542","NA","187806","166483","3748","185495","NA","188935","3753","175115","NA","189039","189421","188932","189039","Flanker Task","77","39313","83","yes","1024"
"NA","92.85714285714286","92.85714285714286","473.42857142857144","473.42857142857144","black","legacy","legacy","legacy","0","incongruent","uniform","1","undefined","1","s","0","0","0","83","83","0","83","0","83","0","0","0","83","83","83","83","Sat Sep 25 19:36:51 2021","600","Flanker Task","yes","Flanker Task.osexp","C:\Users\rayra\Documents","no","mono","no","18","no","white","no","yes","768","legacy","3","79","C:/Users/rayra/Documents/subject-3.csv","legacy","NA","Lentiform Loewenfeld","3.3.9","0","s","NA","s","h","NA","s","455","NA","30023","9426","NA","455","2","legacy","1024","2","48000","-16","experiment","HHSHH","3","odd","33777","184542","NA","189427","166483","3748","185495","NA","190545","3753","175115","NA","190649","191105","190543","190649","Flanker Task","78","39768","84","yes","1024"
"NA","91.76470588235294","91.76470588235294","472.67058823529413","472.67058823529413","black","legacy","legacy","legacy","0","incongruent","uniform","0","undefined","0","s","0","0","0","84","84","0","84","0","84","0","0","0","84","84","84","84","Sat Sep 25 19:36:51 2021","600","Flanker Task","yes","Flanker Task.osexp","C:\Users\rayra\Documents","no","mono","no","18","no","white","no","yes","768","legacy","4","79","C:/Users/rayra/Documents/subject-3.csv","legacy","NA","Lentiform Loewenfeld","3.3.9","0","h","NA","s","h","NA","h","409","NA","30023","9426","NA","409","2","legacy","1024","2","48000","-16","experiment","HHSHH","3","odd","33777","184542","NA","191111","166483","3748","185495","NA","192215","3753","175115","NA","192319","192729","192213","192319","Flanker Task","78","40177","85","yes","1024"
"NA","91.86046511627907","91.86046511627907","472.22093023255815","472.22093023255815","black","legacy","legacy","legacy","0","incongruent","uniform","1","undefined","1","s","0","0","0","85","85","0","85","0","85","0","0","0","85","85","85","85","Sat Sep 25 19:36:51 2021","600","Flanker Task","yes","Flanker Task.osexp","C:\Users\rayra\Documents","no","mono","no","18","no","white","no","yes","768","legacy","5","79","C:/Users/rayra/Documents/subject-3.csv","legacy","NA","Lentiform Loewenfeld","3.3.9","0","s","NA","s","h","NA","s","434","NA","30023","9426","NA","434","2","legacy","1024","2","48000","-16","experiment","HHSHH","3","odd","33777","184542","NA","193239","192735","3748","185495","NA","194350","3753","175115","NA","194454","194890","194347","194454","Flanker Task","79","40611","86","yes","1024"
"NA","91.95402298850574","91.95402298850574","472.7931034482759","472.7931034482759","black","legacy","legacy","legacy","0","incongruent","uniform","1","undefined","1","h","0","0","0","86","86","0","86","0","86","0","0","0","86","86","86","86","Sat Sep 25 19:36:51 2021","600","Flanker Task","yes","Flanker Task.osexp","C:\Users\rayra\Documents","no","mono","no","18","no","white","no","yes","768","legacy","6","79","C:/Users/rayra/Documents/subject-3.csv","legacy","NA","Lentiform Loewenfeld","3.3.9","0","h","NA","s","h","NA","h","522","NA","30023","9426","NA","522","2","legacy","1024","2","48000","-16","experiment","SSHSS","3","odd","33777","184542","NA","194898","192735","3748","185495","NA","196061","3753","175115","NA","196165","196688","196058","196165","Flanker Task","80","41133","87","yes","1024"
"NA","92.04545454545455","92.04545454545455","473.1363636363636","473.1363636363636","black","legacy","legacy","legacy","0","incongruent","uniform","1","undefined","1","h","0","0","0","87","87","0","87","0","87","0","0","0","87","87","87","87","Sat Sep 25 19:36:51 2021","600","Flanker Task","yes","Flanker Task.osexp","C:\Users\rayra\Documents","no","mono","no","18","no","white","no","yes","768","legacy","7","79","C:/Users/rayra/Documents/subject-3.csv","legacy","NA","Lentiform Loewenfeld","3.3.9","0","h","NA","s","h","NA","h","503","NA","30023","9426","NA","503","2","legacy","1024","2","48000","-16","experiment","SSHSS","3","odd","33777","184542","NA","196696","192735","3748","185495","NA","197871","3753","175115","NA","197975","198480","197869","197975","Flanker Task","81","41636","88","yes","1024"
"NA","92.13483146067416","92.13483146067416","472.53932584269666","472.53932584269666","black","legacy","legacy","legacy","0","congruent","uniform","1","undefined","1","h","0","0","0","88","88","0","88","0","88","0","0","0","88","88","88","88","Sat Sep 25 19:36:51 2021","600","Flanker Task","yes","Flanker Task.osexp","C:\Users\rayra\Documents","no","mono","no","18","no","white","no","yes","768","legacy","8","79","C:/Users/rayra/Documents/subject-3.csv","legacy","NA","Lentiform Loewenfeld","3.3.9","0","h","NA","s","h","NA","h","420","NA","30023","9426","NA","420","2","legacy","1024","2","48000","-16","experiment","HHHHH","3","odd","33777","184542","NA","198486","192735","3748","185495","NA","199606","3753","175115","NA","199711","200133","199603","199710","Flanker Task","82","42056","89","yes","1024"
"NA","92.22222222222223","92.22222222222223","471.3666666666667","471.3666666666667","black","legacy","legacy","legacy","0","congruent","uniform","1","undefined","1","h","0","0","0","89","89","0","89","0","89","0","0","0","89","89","89","89","Sat Sep 25 19:36:51 2021","600","Flanker Task","yes","Flanker Task.osexp","C:\Users\rayra\Documents","no","mono","no","18","no","white","no","yes","768","legacy","9","79","C:/Users/rayra/Documents/subject-3.csv","legacy","NA","Lentiform Loewenfeld","3.3.9","0","h","NA","s","h","NA","h","367","NA","30023","9426","NA","367","2","legacy","1024","2","48000","-16","experiment","HHHHH","3","odd","33777","184542","NA","200139","192735","3748","185495","NA","201267","3753","175115","NA","201372","201740","201265","201372","Flanker Task","83","42423","90","yes","1024"
"NA","92.3076923076923","92.3076923076923","470.1098901098901","470.1098901098901","black","legacy","legacy","legacy","0","congruent","uniform","1","undefined","1","h","0","0","0","90","90","0","90","0","90","0","0","0","90","90","90","90","Sat Sep 25 19:36:51 2021","600","Flanker Task","yes","Flanker Task.osexp","C:\Users\rayra\Documents","no","mono","no","18","no","white","no","yes","768","legacy","10","79","C:/Users/rayra/Documents/subject-3.csv","legacy","NA","Lentiform Loewenfeld","3.3.9","0","h","NA","s","h","NA","h","357","NA","30023","9426","NA","357","2","legacy","1024","2","48000","-16","experiment","HHHHH","3","odd","33777","184542","NA","201745","192735","3748","185495","NA","202924","3753","175115","NA","203028","203387","202920","203028","Flanker Task","84","42780","91","yes","1024"
"NA","91.30434782608695","91.30434782608695","469.54347826086956","469.54347826086956","black","legacy","legacy","legacy","0","incongruent","uniform","0","undefined","0","h","0","0","0","91","91","0","91","0","91","0","0","0","91","91","91","91","Sat Sep 25 19:36:51 2021","600","Flanker Task","yes","Flanker Task.osexp","C:\Users\rayra\Documents","no","mono","no","18","no","white","no","yes","768","legacy","11","79","C:/Users/rayra/Documents/subject-3.csv","legacy","NA","Lentiform Loewenfeld","3.3.9","0","s","NA","s","h","NA","s","418","NA","30023","9426","NA","418","2","legacy","1024","2","48000","-16","experiment","SSHSS","3","odd","33777","184542","NA","203392","192735","3748","185495","NA","204553","3753","175115","NA","204657","205076","204550","204657","Flanker Task","84","43198","92","yes","1024"
"NA","91.39784946236558","91.39784946236558","469.0860215053763","469.0860215053763","black","legacy","legacy","legacy","0","congruent","uniform","1","undefined","1","h","0","0","0","92","92","0","92","0","92","0","0","0","92","92","92","92","Sat Sep 25 19:36:51 2021","600","Flanker Task","yes","Flanker Task.osexp","C:\Users\rayra\Documents","no","mono","no","18","no","white","no","yes","768","legacy","12","79","C:/Users/rayra/Documents/subject-3.csv","legacy","NA","Lentiform Loewenfeld","3.3.9","0","h","NA","s","h","NA","h","427","NA","30023","9426","NA","427","2","legacy","1024","2","48000","-16","experiment","HHHHH","3","odd","33777","184542","NA","205586","205082","3748","185495","NA","206704","3753","175115","NA","206808","207235","206702","206808","Flanker Task","85","43625","93","yes","1024"
"NA","91.48936170212765","91.48936170212765","469.32978723404256","469.32978723404256","black","legacy","legacy","legacy","0","congruent","uniform","1","undefined","1","s","0","0","0","93","93","0","93","0","93","0","0","0","93","93","93","93","Sat Sep 25 19:36:51 2021","600","Flanker Task","yes","Flanker Task.osexp","C:\Users\rayra\Documents","no","mono","no","18","no","white","no","yes","768","legacy","13","79","C:/Users/rayra/Documents/subject-3.csv","legacy","NA","Lentiform Loewenfeld","3.3.9","0","s","NA","s","h","NA","s","492","NA","30023","9426","NA","492","2","legacy","1024","2","48000","-16","experiment","SSSSS","3","odd","33777","184542","NA","207241","205082","3748","185495","NA","208388","3753","175115","NA","208493","208985","208384","208493","Flanker Task","86","44117","94","yes","1024"
"NA","91.57894736842105","91.57894736842105","468.7157894736842","468.7157894736842","black","legacy","legacy","legacy","0","incongruent","uniform","1","undefined","1","h","0","0","0","94","94","0","94","0","94","0","0","0","94","94","94","94","Sat Sep 25 19:36:51 2021","600","Flanker Task","yes","Flanker Task.osexp","C:\Users\rayra\Documents","no","mono","no","18","no","white","no","yes","768","legacy","14","79","C:/Users/rayra/Documents/subject-3.csv","legacy","NA","Lentiform Loewenfeld","3.3.9","0","h","NA","s","h","NA","h","411","NA","30023","9426","NA","411","2","legacy","1024","2","48000","-16","experiment","SSHSS","3","odd","33777","184542","NA","208993","205082","3748","185495","NA","210164","3753","175115","NA","210268","210680","210160","210268","Flanker Task","87","44528","95","yes","1024"
"NA","91.66666666666667","91.66666666666667","467.5729166666667","467.5729166666667","black","legacy","legacy","legacy","0","congruent","uniform","1","undefined","1","h","0","0","0","95","95","0","95","0","95","0","0","0","95","95","95","95","Sat Sep 25 19:36:51 2021","600","Flanker Task","yes","Flanker Task.osexp","C:\Users\rayra\Documents","no","mono","no","18","no","white","no","yes","768","legacy","15","79","C:/Users/rayra/Documents/subject-3.csv","legacy","NA","Lentiform Loewenfeld","3.3.9","0","h","NA","s","h","NA","h","359","NA","30023","9426","NA","359","2","legacy","1024","2","48000","-16","experiment","HHHHH","3","odd","33777","184542","NA","210687","205082","3748","185495","NA","211843","3753","175115","NA","211947","212307","211840","211947","Flanker Task","88","44887","96","yes","1024"
"NA","91.75257731958763","91.75257731958763","467.0103092783505","467.0103092783505","black","legacy","legacy","legacy","0","incongruent","uniform","1","undefined","1","s","0","0","0","96","96","0","96","0","96","0","0","0","96","96","96","96","Sat Sep 25 19:36:51 2021","600","Flanker Task","yes","Flanker Task.osexp","C:\Users\rayra\Documents","no","mono","no","18","no","white","no","yes","768","legacy","16","79","C:/Users/rayra/Documents/subject-3.csv","legacy","NA","Lentiform Loewenfeld","3.3.9","0","s","NA","s","h","NA","s","413","NA","30023","9426","NA","413","2","legacy","1024","2","48000","-16","experiment","HHSHH","3","odd","33777","184542","NA","212313","205082","3748","185495","NA","213459","3753","175115","NA","213564","213978","213457","213564","Flanker Task","89","45300","97","yes","1024"
"NA","91.83673469387755","91.83673469387755","467.11224489795916","467.11224489795916","black","legacy","legacy","legacy","0","incongruent","uniform","1","undefined","1","s","0","0","0","97","97","0","97","0","97","0","0","0","97","97","97","97","Sat Sep 25 19:36:51 2021","600","Flanker Task","yes","Flanker Task.osexp","C:\Users\rayra\Documents","no","mono","no","18","no","white","no","yes","768","legacy","17","79","C:/Users/rayra/Documents/subject-3.csv","legacy","NA","Lentiform Loewenfeld","3.3.9","0","s","NA","s","h","NA","s","477","NA","30023","9426","NA","477","2","legacy","1024","2","48000","-16","experiment","HHSHH","3","odd","33777","184542","NA","213983","205082","3748","185495","NA","215150","3753","175115","NA","215255","215733","215147","215255","Flanker Task","90","45777","98","yes","1024"
"NA","91.91919191919192","91.91919191919192","467.3333333333333","467.3333333333333","black","legacy","legacy","legacy","0","congruent","uniform","1","undefined","1","s","0","0","0","98","98","0","98","0","98","0","0","0","98","98","98","98","Sat Sep 25 19:36:51 2021","600","Flanker Task","yes","Flanker Task.osexp","C:\Users\rayra\Documents","no","mono","no","18","no","white","no","yes","768","legacy","18","79","C:/Users/rayra/Documents/subject-3.csv","legacy","NA","Lentiform Loewenfeld","3.3.9","0","s","NA","s","h","NA","s","489","NA","30023","9426","NA","489","2","legacy","1024","2","48000","-16","experiment","SSSSS","3","odd","33777","184542","NA","215739","205082","3748","185495","NA","216866","3753","175115","NA","216970","217461","216865","216970","Flanker Task","91","46266","99","yes","1024"
"NA","92","92","467.16","467.16","black","legacy","legacy","legacy","0","congruent","uniform","1","undefined","1","s","0","0","0","99","99","0","99","0","99","0","0","0","99","99","99","99","Sat Sep 25 19:36:51 2021","600","Flanker Task","yes","Flanker Task.osexp","C:\Users\rayra\Documents","no","mono","no","18","no","white","no","yes","768","legacy","19","79","C:/Users/rayra/Documents/subject-3.csv","legacy","NA","Lentiform Loewenfeld","3.3.9","0","s","NA","s","h","NA","s","450","NA","30023","9426","NA","450","2","legacy","1024","2","48000","-16","experiment","SSSSS","3","odd","33777","184542","NA","217467","205082","3748","185495","NA","218593","3753","175115","NA","218697","219149","218590","218697","Flanker Task","92","46716","100","yes","1024"
"NA","92.07920792079207","92.07920792079207","467.43564356435644","467.43564356435644","black","legacy","legacy","legacy","0","incongruent","uniform","1","undefined","1","h","0","0","0","100","100","0","100","0","100","0","0","0","100","100","100","100","Sat Sep 25 19:36:51 2021","600","Flanker Task","yes","Flanker Task.osexp","C:\Users\rayra\Documents","no","mono","no","18","no","white","no","yes","768","legacy","20","79","C:/Users/rayra/Documents/subject-3.csv","legacy","NA","Lentiform Loewenfeld","3.3.9","0","h","NA","s","h","NA","h","495","NA","30023","9426","NA","495","2","legacy","1024","2","48000","-16","experiment","SSHSS","3","odd","33777","184542","NA","219154","205082","3748","185495","NA","220313","3753","175115","NA","220417","220913","220310","220416","Flanker Task","93","47211","101","yes","1024"
"NA","92.15686274509804","92.15686274509804","467.62745098039215","467.62745098039215","black","legacy","legacy","legacy","0","incongruent","uniform","1","undefined","1","s","0","0","0","101","101","0","101","0","101","0","0","0","101","101","101","101","Sat Sep 25 19:36:51 2021","600","Flanker Task","yes","Flanker Task.osexp","C:\Users\rayra\Documents","no","mono","no","18","no","white","no","yes","768","legacy","21","79","C:/Users/rayra/Documents/subject-3.csv","legacy","NA","Lentiform Loewenfeld","3.3.9","0","s","NA","s","h","NA","s","487","NA","30023","9426","NA","487","2","legacy","1024","2","48000","-16","experiment","HHSHH","3","odd","33777","184542","NA","220918","205082","3748","185495","NA","222085","3753","175115","NA","222189","222677","222082","222189","Flanker Task","94","47698","102","yes","1024"
"NA","92.23300970873787","92.23300970873787","467.77669902912623","467.77669902912623","black","legacy","legacy","legacy","0","incongruent","uniform","1","undefined","1","s","0","0","0","102","102","0","102","0","102","0","0","0","102","102","102","102","Sat Sep 25 19:36:51 2021","600","Flanker Task","yes","Flanker Task.osexp","C:\Users\rayra\Documents","no","mono","no","18","no","white","no","yes","768","legacy","22","79","C:/Users/rayra/Documents/subject-3.csv","legacy","NA","Lentiform Loewenfeld","3.3.9","0","s","NA","s","h","NA","s","483","NA","30023","9426","NA","483","2","legacy","1024","2","48000","-16","experiment","HHSHH","3","odd","33777","184542","NA","222685","205082","3748","185495","NA","223805","3753","175115","NA","223910","224395","223802","223909","Flanker Task","95","48181","103","yes","1024"
"NA","92.3076923076923","92.3076923076923","467.0192307692308","467.0192307692308","black","legacy","legacy","legacy","0","congruent","uniform","1","undefined","1","h","0","0","0","103","103","0","103","0","103","0","0","0","103","103","103","103","Sat Sep 25 19:36:51 2021","600","Flanker Task","yes","Flanker Task.osexp","C:\Users\rayra\Documents","no","mono","no","18","no","white","no","yes","768","legacy","23","79","C:/Users/rayra/Documents/subject-3.csv","legacy","NA","Lentiform Loewenfeld","3.3.9","0","h","NA","s","h","NA","h","389","NA","30023","9426","NA","389","2","legacy","1024","2","48000","-16","experiment","HHHHH","3","odd","33777","184542","NA","224402","205082","3748","185495","NA","225536","3753","175115","NA","225640","226031","225533","225640","Flanker Task","96","48570","104","yes","1024"
"NA","92.38095238095238","92.38095238095238","466.0190476190476","466.0190476190476","black","legacy","legacy","legacy","0","congruent","uniform","1","undefined","1","h","0","0","0","104","104","0","104","0","104","0","0","0","104","104","104","104","Sat Sep 25 19:36:51 2021","600","Flanker Task","yes","Flanker Task.osexp","C:\Users\rayra\Documents","no","mono","no","18","no","white","no","yes","768","legacy","24","79","C:/Users/rayra/Documents/subject-3.csv","legacy","NA","Lentiform Loewenfeld","3.3.9","0","h","NA","s","h","NA","h","362","NA","30023","9426","NA","362","2","legacy","1024","2","48000","-16","experiment","HHHHH","3","odd","33777","184542","NA","226039","205082","3748","185495","NA","227179","3753","175115","NA","227283","227646","227176","227282","Flanker Task","97","48932","105","yes","1024"
"NA","91.50943396226415","91.50943396226415","465","465","black","legacy","legacy","legacy","0","incongruent","uniform","0","undefined","0","s","0","0","0","105","105","0","105","0","105","0","0","0","105","105","105","105","Sat Sep 25 19:36:51 2021","600","Flanker Task","yes","Flanker Task.osexp","C:\Users\rayra\Documents","no","mono","no","18","no","white","no","yes","768","legacy","25","79","C:/Users/rayra/Documents/subject-3.csv","legacy","NA","Lentiform Loewenfeld","3.3.9","0","h","NA","s","h","NA","h","358","NA","30023","9426","NA","358","2","legacy","1024","2","48000","-16","experiment","HHSHH","3","odd","33777","184542","NA","227652","205082","3748","185495","NA","228810","3753","175115","NA","228915","229275","228806","228915","Flanker Task","97","49290","106","yes","1024"
"NA","91.58878504672897","91.58878504672897","465.0841121495327","465.0841121495327","black","legacy","legacy","legacy","0","congruent","uniform","1","undefined","1","s","0","0","0","106","106","0","106","0","106","0","0","0","106","106","106","106","Sat Sep 25 19:36:51 2021","600","Flanker Task","yes","Flanker Task.osexp","C:\Users\rayra\Documents","no","mono","no","18","no","white","no","yes","768","legacy","26","79","C:/Users/rayra/Documents/subject-3.csv","legacy","NA","Lentiform Loewenfeld","3.3.9","0","s","NA","s","h","NA","s","474","NA","30023","9426","NA","474","2","legacy","1024","2","48000","-16","experiment","SSSSS","3","odd","33777","184542","NA","229785","229281","3748","185495","NA","230918","3753","175115","NA","231023","231500","230916","231023","Flanker Task","98","49764","107","yes","1024"
"NA","91.66666666666667","91.66666666666667","465.49074074074076","465.49074074074076","black","legacy","legacy","legacy","0","incongruent","uniform","1","undefined","1","h","0","0","0","107","107","0","107","0","107","0","0","0","107","107","107","107","Sat Sep 25 19:36:51 2021","600","Flanker Task","yes","Flanker Task.osexp","C:\Users\rayra\Documents","no","mono","no","18","no","white","no","yes","768","legacy","27","79","C:/Users/rayra/Documents/subject-3.csv","legacy","NA","Lentiform Loewenfeld","3.3.9","0","h","NA","s","h","NA","h","509","NA","30023","9426","NA","509","2","legacy","1024","2","48000","-16","experiment","SSHSS","3","odd","33777","184542","NA","231508","229281","3748","185495","NA","232641","3753","175115","NA","232745","233255","232638","232745","Flanker Task","99","50273","108","yes","1024"
"NA","90.8256880733945","90.8256880733945","464.74311926605503","464.74311926605503","black","legacy","legacy","legacy","0","incongruent","uniform","0","undefined","0","s","0","0","0","108","108","0","108","0","108","0","0","0","108","108","108","108","Sat Sep 25 19:36:51 2021","600","Flanker Task","yes","Flanker Task.osexp","C:\Users\rayra\Documents","no","mono","no","18","no","white","no","yes","768","legacy","28","79","C:/Users/rayra/Documents/subject-3.csv","legacy","NA","Lentiform Loewenfeld","3.3.9","0","h","NA","s","h","NA","h","384","NA","30023","9426","NA","384","2","legacy","1024","2","48000","-16","experiment","HHSHH","3","odd","33777","184542","NA","233261","229281","3748","185495","NA","234386","3753","175115","NA","234491","234876","234384","234490","Flanker Task","99","50657","109","yes","1024"
"NA","90.9090909090909","90.9090909090909","464.9","464.9","black","legacy","legacy","legacy","0","incongruent","uniform","1","undefined","1","s","0","0","0","109","109","0","109","0","109","0","0","0","109","109","109","109","Sat Sep 25 19:36:51 2021","600","Flanker Task","yes","Flanker Task.osexp","C:\Users\rayra\Documents","no","mono","no","18","no","white","no","yes","768","legacy","29","79","C:/Users/rayra/Documents/subject-3.csv","legacy","NA","Lentiform Loewenfeld","3.3.9","0","s","NA","s","h","NA","s","482","NA","30023","9426","NA","482","2","legacy","1024","2","48000","-16","experiment","HHSHH","3","odd","33777","184542","NA","235385","234882","3748","185495","NA","236499","3753","175115","NA","236604","237087","236496","236604","Flanker Task","100","51139","110","yes","1024"
"NA","90.990990990991","90.990990990991","464.5855855855856","464.5855855855856","black","legacy","legacy","legacy","0","congruent","uniform","1","undefined","1","h","0","0","0","110","110","0","110","0","110","0","0","0","110","110","110","110","Sat Sep 25 19:36:51 2021","600","Flanker Task","yes","Flanker Task.osexp","C:\Users\rayra\Documents","no","mono","no","18","no","white","no","yes","768","legacy","30","79","C:/Users/rayra/Documents/subject-3.csv","legacy","NA","Lentiform Loewenfeld","3.3.9","0","h","NA","s","h","NA","h","430","NA","30023","9426","NA","430","2","legacy","1024","2","48000","-16","experiment","HHHHH","3","odd","33777","184542","NA","237092","234882","3748","185495","NA","238227","3753","175115","NA","238331","238762","238224","238331","Flanker Task","101","51569","111","yes","1024"
"NA","91.07142857142857","91.07142857142857","464.5982142857143","464.5982142857143","black","legacy","legacy","legacy","0","incongruent","uniform","1","undefined","1","s","0","0","0","111","111","0","111","0","111","0","0","0","111","111","111","111","Sat Sep 25 19:36:51 2021","600","Flanker Task","yes","Flanker Task.osexp","C:\Users\rayra\Documents","no","mono","no","18","no","white","no","yes","768","legacy","31","79","C:/Users/rayra/Documents/subject-3.csv","legacy","NA","Lentiform Loewenfeld","3.3.9","0","s","NA","s","h","NA","s","466","NA","30023","9426","NA","466","2","legacy","1024","2","48000","-16","experiment","HHSHH","3","odd","33777","184542","NA","238768","234882","3748","185495","NA","239891","3753","175115","NA","239996","240463","239889","239996","Flanker Task","102","52035","112","yes","1024"
"NA","91.15044247787611","91.15044247787611","464.3274336283186","464.3274336283186","black","legacy","legacy","legacy","0","congruent","uniform","1","undefined","1","h","0","0","0","112","112","0","112","0","112","0","0","0","112","112","112","112","Sat Sep 25 19:36:51 2021","600","Flanker Task","yes","Flanker Task.osexp","C:\Users\rayra\Documents","no","mono","no","18","no","white","no","yes","768","legacy","32","79","C:/Users/rayra/Documents/subject-3.csv","legacy","NA","Lentiform Loewenfeld","3.3.9","0","h","NA","s","h","NA","h","434","NA","30023","9426","NA","434","2","legacy","1024","2","48000","-16","experiment","HHHHH","3","odd","33777","184542","NA","240469","234882","3748","185495","NA","241597","3753","175115","NA","241702","242137","241595","241701","Flanker Task","103","52469","113","yes","1024"
"NA","91.2280701754386","91.2280701754386","463.8070175438597","463.8070175438597","black","legacy","legacy","legacy","0","congruent","uniform","1","undefined","1","h","0","0","0","113","113","0","113","0","113","0","0","0","113","113","113","113","Sat Sep 25 19:36:51 2021","600","Flanker Task","yes","Flanker Task.osexp","C:\Users\rayra\Documents","no","mono","no","18","no","white","no","yes","768","legacy","33","79","C:/Users/rayra/Documents/subject-3.csv","legacy","NA","Lentiform Loewenfeld","3.3.9","0","h","NA","s","h","NA","h","405","NA","30023","9426","NA","405","2","legacy","1024","2","48000","-16","experiment","HHHHH","3","odd","33777","184542","NA","242143","234882","3748","185495","NA","243316","3753","175115","NA","243419","243825","243312","243419","Flanker Task","104","52874","114","yes","1024"
"NA","91.30434782608695","91.30434782608695","463.9391304347826","463.9391304347826","black","legacy","legacy","legacy","0","incongruent","uniform","1","undefined","1","s","0","0","0","114","114","0","114","0","114","0","0","0","114","114","114","114","Sat Sep 25 19:36:51 2021","600","Flanker Task","yes","Flanker Task.osexp","C:\Users\rayra\Documents","no","mono","no","18","no","white","no","yes","768","legacy","34","79","C:/Users/rayra/Documents/subject-3.csv","legacy","NA","Lentiform Loewenfeld","3.3.9","0","s","NA","s","h","NA","s","479","NA","30023","9426","NA","479","2","legacy","1024","2","48000","-16","experiment","HHSHH","3","odd","33777","184542","NA","243832","234882","3748","185495","NA","245010","3753","175115","NA","245114","245594","245008","245114","Flanker Task","105","53353","115","yes","1024"
"NA","91.37931034482759","91.37931034482759","464","464","black","legacy","legacy","legacy","0","congruent","uniform","1","undefined","1","s","0","0","0","115","115","0","115","0","115","0","0","0","115","115","115","115","Sat Sep 25 19:36:51 2021","600","Flanker Task","yes","Flanker Task.osexp","C:\Users\rayra\Documents","no","mono","no","18","no","white","no","yes","768","legacy","35","79","C:/Users/rayra/Documents/subject-3.csv","legacy","NA","Lentiform Loewenfeld","3.3.9","0","s","NA","s","h","NA","s","471","NA","30023","9426","NA","471","2","legacy","1024","2","48000","-16","experiment","SSSSS","3","odd","33777","184542","NA","245599","234882","3748","185495","NA","246743","3753","175115","NA","246847","247319","246740","246847","Flanker Task","106","53824","116","yes","1024"
"NA","91.45299145299145","91.45299145299145","464.2564102564103","464.2564102564103","black","legacy","legacy","legacy","0","incongruent","uniform","1","undefined","1","s","0","0","0","116","116","0","116","0","116","0","0","0","116","116","116","116","Sat Sep 25 19:36:51 2021","600","Flanker Task","yes","Flanker Task.osexp","C:\Users\rayra\Documents","no","mono","no","18","no","white","no","yes","768","legacy","36","79","C:/Users/rayra/Documents/subject-3.csv","legacy","NA","Lentiform Loewenfeld","3.3.9","0","s","NA","s","h","NA","s","494","NA","30023","9426","NA","494","2","legacy","1024","2","48000","-16","experiment","HHSHH","3","odd","33777","184542","NA","247325","234882","3748","185495","NA","248497","3753","175115","NA","248602","249097","248494","248601","Flanker Task","107","54318","117","yes","1024"
"NA","91.52542372881356","91.52542372881356","464.4237288135593","464.4237288135593","black","legacy","legacy","legacy","0","congruent","uniform","1","undefined","1","h","0","0","0","117","117","0","117","0","117","0","0","0","117","117","117","117","Sat Sep 25 19:36:51 2021","600","Flanker Task","yes","Flanker Task.osexp","C:\Users\rayra\Documents","no","mono","no","18","no","white","no","yes","768","legacy","37","79","C:/Users/rayra/Documents/subject-3.csv","legacy","NA","Lentiform Loewenfeld","3.3.9","0","h","NA","s","h","NA","h","484","NA","30023","9426","NA","484","2","legacy","1024","2","48000","-16","experiment","HHHHH","3","odd","33777","184542","NA","249102","234882","3748","185495","NA","250226","3753","175115","NA","250330","250815","250223","250330","Flanker Task","108","54802","118","yes","1024"
"NA","91.59663865546219","91.59663865546219","463.890756302521","463.890756302521","black","legacy","legacy","legacy","0","congruent","uniform","1","undefined","1","h","0","0","0","118","118","0","118","0","118","0","0","0","118","118","118","118","Sat Sep 25 19:36:51 2021","600","Flanker Task","yes","Flanker Task.osexp","C:\Users\rayra\Documents","no","mono","no","18","no","white","no","yes","768","legacy","38","79","C:/Users/rayra/Documents/subject-3.csv","legacy","NA","Lentiform Loewenfeld","3.3.9","0","h","NA","s","h","NA","h","401","NA","30023","9426","NA","401","2","legacy","1024","2","48000","-16","experiment","HHHHH","3","odd","33777","184542","NA","250822","234882","3748","185495","NA","251967","3753","175115","NA","252070","252472","251964","252070","Flanker Task","109","55203","119","yes","1024"
"NA","90.83333333333333","90.83333333333333","463.725","463.725","black","legacy","legacy","legacy","0","incongruent","uniform","0","undefined","0","h","0","0","0","119","119","0","119","0","119","0","0","0","119","119","119","119","Sat Sep 25 19:36:51 2021","600","Flanker Task","yes","Flanker Task.osexp","C:\Users\rayra\Documents","no","mono","no","18","no","white","no","yes","768","legacy","39","79","C:/Users/rayra/Documents/subject-3.csv","legacy","NA","Lentiform Loewenfeld","3.3.9","0","s","NA","s","h","NA","s","444","NA","30023","9426","NA","444","2","legacy","1024","2","48000","-16","experiment","SSHSS","3","odd","33777","184542","NA","252478","234882","3748","185495","NA","253645","3753","175115","NA","253749","254195","253642","253748","Flanker Task","109","55647","120","yes","1024"
"NA","90.08264462809917","90.08264462809917","462.8429752066116","462.8429752066116","black","legacy","legacy","legacy","0","incongruent","uniform","0","undefined","0","s","0","0","0","120","120","0","120","0","120","0","0","0","120","120","120","120","Sat Sep 25 19:36:51 2021","600","Flanker Task","yes","Flanker Task.osexp","C:\Users\rayra\Documents","no","mono","no","18","no","white","no","yes","768","legacy","40","79","C:/Users/rayra/Documents/subject-3.csv","legacy","NA","Lentiform Loewenfeld","3.3.9","0","h","NA","s","h","NA","h","357","NA","30023","9426","NA","357","2","legacy","1024","2","48000","-16","experiment","HHSHH","3","odd","33777","184542","NA","254704","254200","3748","185495","NA","255818","3753","175115","NA","255922","256280","255815","255922","Flanker Task","109","56004","121","yes","1024"
"NA","90.1639344262295","90.1639344262295","462.57377049180326","462.57377049180326","black","legacy","legacy","legacy","0","congruent","uniform","1","undefined","1","s","0","0","0","121","121","0","121","0","121","0","0","0","121","121","121","121","Sat Sep 25 19:36:51 2021","600","Flanker Task","yes","Flanker Task.osexp","C:\Users\rayra\Documents","no","mono","no","18","no","white","no","yes","768","legacy","41","79","C:/Users/rayra/Documents/subject-3.csv","legacy","NA","Lentiform Loewenfeld","3.3.9","0","s","NA","s","h","NA","s","430","NA","30023","9426","NA","430","2","legacy","1024","2","48000","-16","experiment","SSSSS","3","odd","33777","184542","NA","256790","256286","3748","185495","NA","257914","3753","175115","NA","258018","258450","257911","258018","Flanker Task","110","56434","122","yes","1024"
"NA","90.2439024390244","90.2439024390244","462.2276422764228","462.2276422764228","black","legacy","legacy","legacy","0","congruent","uniform","1","undefined","1","s","0","0","0","122","122","0","122","0","122","0","0","0","122","122","122","122","Sat Sep 25 19:36:51 2021","600","Flanker Task","yes","Flanker Task.osexp","C:\Users\rayra\Documents","no","mono","no","18","no","white","no","yes","768","legacy","42","79","C:/Users/rayra/Documents/subject-3.csv","legacy","NA","Lentiform Loewenfeld","3.3.9","0","s","NA","s","h","NA","s","420","NA","30023","9426","NA","420","2","legacy","1024","2","48000","-16","experiment","SSSSS","3","odd","33777","184542","NA","258456","256286","3748","185495","NA","259576","3753","175115","NA","259681","260103","259574","259681","Flanker Task","111","56854","123","yes","1024"
