"acc","accuracy","average_response_time","avg_rt","background","canvas_backend","clock_backend","color_backend","compensation","condition","coordinates","correct","correct_instructions1","correct_keyboard_response","correct_response","count_ISI","count_block1","count_block2","count_block3","count_error_feedback","count_experiment","count_faster","count_finish","count_fixation","count_instructions1","count_instructions2","count_instructions3","count_keyboard_response","count_logger","count_sequence","count_stimulus","datetime","deadline","description","disable_garbage_collection","experiment_file","experiment_path","font_bold","font_family","font_italic","font_size","font_underline","foreground","form_clicks","fullscreen","height","keyboard_backend","live_row","live_row_block1","logfile","mouse_backend","opensesame_codename","opensesame_version","repeat_cycle","response","response_finish","response_instructions1","response_instructions2","response_instructions3","response_keyboard_response","response_time","response_time_finish","response_time_instructions1","response_time_instructions2","response_time_instructions3","response_time_keyboard_response","round_decimals","sampler_backend","sound_buf_size","sound_channels","sound_freq","sound_sample_size","start","stimulus","subject_nr","subject_parity","time_ISI","time_block1","time_block2","time_block3","time_error_feedback","time_experiment","time_faster","time_finish","time_fixation","time_instructions1","time_instructions2","time_instructions3","time_keyboard_response","time_logger","time_sequence","time_stimulus","title","total_correct","total_response_time","total_responses","uniform_coordinates","width"
"100","100","700","700","black","legacy","legacy","legacy","0","congruent","uniform","1","undefined","1","s","0","0","0","0","0","0","0","0","0","0","0","0","0","0","0","0","Sun Sep 25 20:16:02 2022","1500","The main experiment item","yes","CS-Subject-1.osexp","C:/Users/cici_/Downloads","no","mono","no","18","no","white","no","yes","768","legacy","0","0","C:/Users/cici_/Downloads/M59-subject-3.csv","legacy","Lentiform Loewenfeld","3.3.12","0","s","NA","h","NA","NA","s","700","NA","25524","NA","NA","700","2","legacy","1024","2","48000","-16","experiment","SSSSS","3","odd","NA","28950","NA","NA","NA","3419","NA","NA","29055","3424","NA","NA","29157","29858","29051","29157","CS-FlankerTask","1","700","1","yes","1024"
"100","100","578","578","black","legacy","legacy","legacy","0","congruent","uniform","1","undefined","1","h","1","0","0","0","1","0","1","0","1","0","0","0","1","1","1","1","Sun Sep 25 20:16:02 2022","1500","The main experiment item","yes","CS-Subject-1.osexp","C:/Users/cici_/Downloads","no","mono","no","18","no","white","no","yes","768","legacy","1","1","C:/Users/cici_/Downloads/M59-subject-3.csv","legacy","Lentiform Loewenfeld","3.3.12","0","h","NA","h","NA","NA","h","456","NA","25524","NA","NA","456","2","legacy","1024","2","48000","-16","experiment","HHHHH","3","odd","29880","28950","NA","NA","NA","3419","NA","NA","30981","3424","NA","NA","31084","31541","30977","31084","CS-FlankerTask","2","1156","2","yes","1024"
"100","100","537.3333333333334","537.3333333333334","black","legacy","legacy","legacy","0","incongruent","uniform","1","undefined","1","s","2","0","0","0","2","0","2","0","2","0","0","0","2","2","2","2","Sun Sep 25 20:16:02 2022","1500","The main experiment item","yes","CS-Subject-1.osexp","C:/Users/cici_/Downloads","no","mono","no","18","no","white","no","yes","768","legacy","2","2","C:/Users/cici_/Downloads/M59-subject-3.csv","legacy","Lentiform Loewenfeld","3.3.12","0","s","NA","h","NA","NA","s","456","NA","25524","NA","NA","456","2","legacy","1024","2","48000","-16","experiment","HHSHH","3","odd","31547","28950","NA","NA","NA","3419","NA","NA","32649","3424","NA","NA","32751","33208","32645","32751","CS-FlankerTask","3","1612","3","yes","1024"
"100","100","515.5","515.5","black","legacy","legacy","legacy","0","congruent","uniform","1","undefined","1","h","3","0","0","0","3","0","3","0","3","0","0","0","3","3","3","3","Sun Sep 25 20:16:02 2022","1500","The main experiment item","yes","CS-Subject-1.osexp","C:/Users/cici_/Downloads","no","mono","no","18","no","white","no","yes","768","legacy","3","3","C:/Users/cici_/Downloads/M59-subject-3.csv","legacy","Lentiform Loewenfeld","3.3.12","0","h","NA","h","NA","NA","h","450","NA","25524","NA","NA","450","2","legacy","1024","2","48000","-16","experiment","HHHHH","3","odd","33225","28950","NA","NA","NA","3419","NA","NA","34324","3424","NA","NA","34426","34876","34320","34426","CS-FlankerTask","4","2062","4","yes","1024"
"80","80","499.6","499.6","black","legacy","legacy","legacy","0","congruent","uniform","0","undefined","0","h","4","0","0","0","4","0","4","0","4","0","0","0","4","4","4","4","Sun Sep 25 20:16:02 2022","1500","The main experiment item","yes","CS-Subject-1.osexp","C:/Users/cici_/Downloads","no","mono","no","18","no","white","no","yes","768","legacy","4","4","C:/Users/cici_/Downloads/M59-subject-3.csv","legacy","Lentiform Loewenfeld","3.3.12","0","s","NA","h","NA","NA","s","436","NA","25524","NA","NA","436","2","legacy","1024","2","48000","-16","experiment","HHHHH","3","odd","34894","28950","NA","NA","NA","3419","NA","NA","35991","3424","NA","NA","36093","36531","35988","36093","CS-FlankerTask","4","2498","5","yes","1024"
"83.33333333333333","83.33333333333333","496.3333333333333","496.3333333333333","black","legacy","legacy","legacy","0","congruent","uniform","1","undefined","1","h","5","0","0","0","5","0","5","0","5","0","0","0","5","5","5","5","Sun Sep 25 20:16:02 2022","1500","The main experiment item","yes","CS-Subject-1.osexp","C:/Users/cici_/Downloads","no","mono","no","18","no","white","no","yes","768","legacy","5","5","C:/Users/cici_/Downloads/M59-subject-3.csv","legacy","Lentiform Loewenfeld","3.3.12","0","h","NA","h","NA","NA","h","480","NA","25524","NA","NA","480","2","legacy","1024","2","48000","-16","experiment","HHHHH","3","odd","37050","28950","NA","NA","36548","3419","NA","NA","38149","3424","NA","NA","38251","38732","38145","38251","CS-FlankerTask","5","2978","6","yes","1024"
"85.71428571428571","85.71428571428571","493.14285714285717","493.14285714285717","black","legacy","legacy","legacy","0","congruent","uniform","1","undefined","1","h","6","0","0","0","6","0","6","0","6","0","0","0","6","6","6","6","Sun Sep 25 20:16:02 2022","1500","The main experiment item","yes","CS-Subject-1.osexp","C:/Users/cici_/Downloads","no","mono","no","18","no","white","no","yes","768","legacy","6","6","C:/Users/cici_/Downloads/M59-subject-3.csv","legacy","Lentiform Loewenfeld","3.3.12","0","h","NA","h","NA","NA","h","474","NA","25524","NA","NA","474","2","legacy","1024","2","48000","-16","experiment","HHHHH","3","odd","38749","28950","NA","NA","36548","3419","NA","NA","39846","3424","NA","NA","39948","40423","39842","39948","CS-FlankerTask","6","3452","7","yes","1024"
"75","75","482.875","482.875","black","legacy","legacy","legacy","0","incongruent","uniform","0","undefined","0","h","7","0","0","0","7","0","7","0","7","0","0","0","7","7","7","7","Sun Sep 25 20:16:02 2022","1500","The main experiment item","yes","CS-Subject-1.osexp","C:/Users/cici_/Downloads","no","mono","no","18","no","white","no","yes","768","legacy","7","7","C:/Users/cici_/Downloads/M59-subject-3.csv","legacy","Lentiform Loewenfeld","3.3.12","0","s","NA","h","NA","NA","s","411","NA","25524","NA","NA","411","2","legacy","1024","2","48000","-16","experiment","SSHSS","3","odd","40440","28950","NA","NA","36548","3419","NA","NA","41537","3424","NA","NA","41639","42051","41534","41639","CS-FlankerTask","6","3863","8","yes","1024"
"66.66666666666667","66.66666666666667","473.44444444444446","473.44444444444446","black","legacy","legacy","legacy","0","incongruent","uniform","0","undefined","0","s","8","0","0","0","8","0","8","0","8","0","0","0","8","8","8","8","Sun Sep 25 20:16:02 2022","1500","The main experiment item","yes","CS-Subject-1.osexp","C:/Users/cici_/Downloads","no","mono","no","18","no","white","no","yes","768","legacy","8","8","C:/Users/cici_/Downloads/M59-subject-3.csv","legacy","Lentiform Loewenfeld","3.3.12","0","h","NA","h","NA","NA","h","398","NA","25524","NA","NA","398","2","legacy","1024","2","48000","-16","experiment","HHSHH","3","odd","42570","28950","NA","NA","42068","3419","NA","NA","43668","3424","NA","NA","43770","44168","43664","43770","CS-FlankerTask","6","4261","9","yes","1024"
"70","70","470.6","470.6","black","legacy","legacy","legacy","0","incongruent","uniform","1","undefined","1","s","9","0","0","0","9","0","9","0","9","0","0","0","9","9","9","9","Sun Sep 25 20:16:02 2022","1500","The main experiment item","yes","CS-Subject-1.osexp","C:/Users/cici_/Downloads","no","mono","no","18","no","white","no","yes","768","legacy","9","9","C:/Users/cici_/Downloads/M59-subject-3.csv","legacy","Lentiform Loewenfeld","3.3.12","0","s","NA","h","NA","NA","s","445","NA","25524","NA","NA","445","2","legacy","1024","2","48000","-16","experiment","HHSHH","3","odd","44679","28950","NA","NA","44177","3419","NA","NA","45786","3424","NA","NA","45888","46334","45784","45888","CS-FlankerTask","7","4706","10","yes","1024"
"63.63636363636363","63.63636363636363","467.45454545454544","467.45454545454544","black","legacy","legacy","legacy","0","congruent","uniform","0","undefined","0","s","10","0","0","0","10","0","10","0","10","0","0","0","10","10","10","10","Sun Sep 25 20:16:02 2022","1500","The main experiment item","yes","CS-Subject-1.osexp","C:/Users/cici_/Downloads","no","mono","no","18","no","white","no","yes","768","legacy","10","10","C:/Users/cici_/Downloads/M59-subject-3.csv","legacy","Lentiform Loewenfeld","3.3.12","0","h","NA","h","NA","NA","h","436","NA","25524","NA","NA","436","2","legacy","1024","2","48000","-16","experiment","SSSSS","3","odd","46351","28950","NA","NA","44177","3419","NA","NA","47448","3424","NA","NA","47550","47987","47444","47550","CS-FlankerTask","7","5142","11","yes","1024"
"66.66666666666667","66.66666666666667","488.8333333333333","488.8333333333333","black","legacy","legacy","legacy","0","incongruent","uniform","1","undefined","1","h","11","0","0","0","11","0","11","0","11","0","0","0","11","11","11","11","Sun Sep 25 20:16:02 2022","1500","The main experiment item","yes","CS-Subject-1.osexp","C:/Users/cici_/Downloads","no","mono","no","18","no","white","no","yes","768","legacy","11","11","C:/Users/cici_/Downloads/M59-subject-3.csv","legacy","Lentiform Loewenfeld","3.3.12","0","h","NA","h","NA","NA","h","724","NA","25524","NA","NA","724","2","legacy","1024","2","48000","-16","experiment","SSHSS","3","odd","48496","28950","NA","NA","47994","3419","NA","NA","49593","3424","NA","NA","49695","50422","49589","49695","CS-FlankerTask","8","5866","12","yes","1024"
"69.23076923076923","69.23076923076923","480.84615384615387","480.84615384615387","black","legacy","legacy","legacy","0","congruent","uniform","1","undefined","1","s","12","0","0","0","12","0","12","0","12","0","0","0","12","12","12","12","Sun Sep 25 20:16:02 2022","1500","The main experiment item","yes","CS-Subject-1.osexp","C:/Users/cici_/Downloads","no","mono","no","18","no","white","no","yes","768","legacy","12","12","C:/Users/cici_/Downloads/M59-subject-3.csv","legacy","Lentiform Loewenfeld","3.3.12","0","s","NA","h","NA","NA","s","385","NA","25524","NA","NA","385","2","legacy","1024","2","48000","-16","experiment","SSSSS","3","odd","50438","28950","NA","NA","47994","3419","NA","NA","51537","3424","NA","NA","51640","52026","51533","51640","CS-FlankerTask","9","6251","13","yes","1024"
"71.42857142857143","71.42857142857143","493","493","black","legacy","legacy","legacy","0","incongruent","uniform","1","undefined","1","h","13","0","0","0","13","0","13","0","13","0","0","0","13","13","13","13","Sun Sep 25 20:16:02 2022","1500","The main experiment item","yes","CS-Subject-1.osexp","C:/Users/cici_/Downloads","no","mono","no","18","no","white","no","yes","768","legacy","13","13","C:/Users/cici_/Downloads/M59-subject-3.csv","legacy","Lentiform Loewenfeld","3.3.12","0","h","NA","h","NA","NA","h","651","NA","25524","NA","NA","651","2","legacy","1024","2","48000","-16","experiment","SSHSS","3","odd","52033","28950","NA","NA","47994","3419","NA","NA","53132","3424","NA","NA","53234","53885","53128","53234","CS-FlankerTask","10","6902","14","yes","1024"
"73.33333333333333","73.33333333333333","486.8666666666667","486.8666666666667","black","legacy","legacy","legacy","0","congruent","uniform","1","undefined","1","s","14","0","0","0","14","0","14","0","14","0","0","0","14","14","14","14","Sun Sep 25 20:16:02 2022","1500","The main experiment item","yes","CS-Subject-1.osexp","C:/Users/cici_/Downloads","no","mono","no","18","no","white","no","yes","768","legacy","14","14","C:/Users/cici_/Downloads/M59-subject-3.csv","legacy","Lentiform Loewenfeld","3.3.12","0","s","NA","h","NA","NA","s","401","NA","25524","NA","NA","401","2","legacy","1024","2","48000","-16","experiment","SSSSS","3","odd","53902","28950","NA","NA","47994","3419","NA","NA","55004","3424","NA","NA","55106","55508","54999","55106","CS-FlankerTask","11","7303","15","yes","1024"
"68.75","68.75","484.0625","484.0625","black","legacy","legacy","legacy","0","incongruent","uniform","0","undefined","0","h","15","0","0","0","15","0","15","0","15","0","0","0","15","15","15","15","Sun Sep 25 20:16:02 2022","1500","The main experiment item","yes","CS-Subject-1.osexp","C:/Users/cici_/Downloads","no","mono","no","18","no","white","no","yes","768","legacy","15","15","C:/Users/cici_/Downloads/M59-subject-3.csv","legacy","Lentiform Loewenfeld","3.3.12","0","s","NA","h","NA","NA","s","442","NA","25524","NA","NA","442","2","legacy","1024","2","48000","-16","experiment","SSHSS","3","odd","55524","28950","NA","NA","47994","3419","NA","NA","56625","3424","NA","NA","56727","57169","56621","56727","CS-FlankerTask","11","7745","16","yes","1024"
"70.58823529411765","70.58823529411765","489.05882352941177","489.05882352941177","black","legacy","legacy","legacy","0","incongruent","uniform","1","undefined","1","h","16","0","0","0","16","0","16","0","16","0","0","0","16","16","16","16","Sun Sep 25 20:16:02 2022","1500","The main experiment item","yes","CS-Subject-1.osexp","C:/Users/cici_/Downloads","no","mono","no","18","no","white","no","yes","768","legacy","16","16","C:/Users/cici_/Downloads/M59-subject-3.csv","legacy","Lentiform Loewenfeld","3.3.12","0","h","NA","h","NA","NA","h","569","NA","25524","NA","NA","569","2","legacy","1024","2","48000","-16","experiment","SSHSS","3","odd","57688","28950","NA","NA","57186","3419","NA","NA","58790","3424","NA","NA","58891","59461","58786","58891","CS-FlankerTask","12","8314","17","yes","1024"
"72.22222222222223","72.22222222222223","491.8333333333333","491.8333333333333","black","legacy","legacy","legacy","0","congruent","uniform","1","undefined","1","s","17","0","0","0","17","0","17","0","17","0","0","0","17","17","17","17","Sun Sep 25 20:16:02 2022","1500","The main experiment item","yes","CS-Subject-1.osexp","C:/Users/cici_/Downloads","no","mono","no","18","no","white","no","yes","768","legacy","17","17","C:/Users/cici_/Downloads/M59-subject-3.csv","legacy","Lentiform Loewenfeld","3.3.12","0","s","NA","h","NA","NA","s","539","NA","25524","NA","NA","539","2","legacy","1024","2","48000","-16","experiment","SSSSS","3","odd","59469","28950","NA","NA","57186","3419","NA","NA","60589","3424","NA","NA","60691","61231","60586","60691","CS-FlankerTask","13","8853","18","yes","1024"
"73.6842105263158","73.6842105263158","496.2631578947368","496.2631578947368","black","legacy","legacy","legacy","0","congruent","uniform","1","undefined","1","s","18","0","0","0","18","0","18","0","18","0","0","0","18","18","18","18","Sun Sep 25 20:16:02 2022","1500","The main experiment item","yes","CS-Subject-1.osexp","C:/Users/cici_/Downloads","no","mono","no","18","no","white","no","yes","768","legacy","18","18","C:/Users/cici_/Downloads/M59-subject-3.csv","legacy","Lentiform Loewenfeld","3.3.12","0","s","NA","h","NA","NA","s","576","NA","25524","NA","NA","576","2","legacy","1024","2","48000","-16","experiment","SSSSS","3","odd","61238","28950","NA","NA","57186","3419","NA","NA","62364","3424","NA","NA","62467","63044","62360","62467","CS-FlankerTask","14","9429","19","yes","1024"
"70","70","498.9","498.9","black","legacy","legacy","legacy","0","incongruent","uniform","0","undefined","0","h","19","0","0","0","19","0","19","0","19","0","0","0","19","19","19","19","Sun Sep 25 20:16:02 2022","1500","The main experiment item","yes","CS-Subject-1.osexp","C:/Users/cici_/Downloads","no","mono","no","18","no","white","no","yes","768","legacy","19","19","C:/Users/cici_/Downloads/M59-subject-3.csv","legacy","Lentiform Loewenfeld","3.3.12","0","s","NA","h","NA","NA","s","549","NA","25524","NA","NA","549","2","legacy","1024","2","48000","-16","experiment","SSHSS","3","odd","63051","28950","NA","NA","57186","3419","NA","NA","64154","3424","NA","NA","64256","64806","64150","64256","CS-FlankerTask","14","9978","20","yes","1024"
"71.42857142857143","71.42857142857143","505.5238095238095","505.5238095238095","black","legacy","legacy","legacy","0","incongruent","uniform","1","undefined","1","s","20","0","0","0","20","0","20","0","20","0","0","0","20","20","20","20","Sun Sep 25 20:16:02 2022","1500","The main experiment item","yes","CS-Subject-1.osexp","C:/Users/cici_/Downloads","no","mono","no","18","no","white","no","yes","768","legacy","20","20","C:/Users/cici_/Downloads/M59-subject-3.csv","legacy","Lentiform Loewenfeld","3.3.12","0","s","NA","h","NA","NA","s","638","NA","25524","NA","NA","638","2","legacy","1024","2","48000","-16","experiment","HHSHH","3","odd","65319","28950","NA","NA","64817","3419","NA","NA","66423","3424","NA","NA","66525","67164","66419","66525","CS-FlankerTask","15","10616","21","yes","1024"
"68.18181818181819","68.18181818181819","502.54545454545456","502.54545454545456","black","legacy","legacy","legacy","0","incongruent","uniform","0","undefined","0","s","21","0","0","0","21","0","21","0","21","0","0","0","21","21","21","21","Sun Sep 25 20:16:02 2022","1500","The main experiment item","yes","CS-Subject-1.osexp","C:/Users/cici_/Downloads","no","mono","no","18","no","white","no","yes","768","legacy","21","21","C:/Users/cici_/Downloads/M59-subject-3.csv","legacy","Lentiform Loewenfeld","3.3.12","0","h","NA","h","NA","NA","h","440","NA","25524","NA","NA","440","2","legacy","1024","2","48000","-16","experiment","HHSHH","3","odd","67180","28950","NA","NA","64817","3419","NA","NA","68286","3424","NA","NA","68389","68830","68282","68389","CS-FlankerTask","15","11056","22","yes","1024"
"69.56521739130434","69.56521739130434","503.7826086956522","503.7826086956522","black","legacy","legacy","legacy","0","incongruent","uniform","1","undefined","1","s","22","0","0","0","22","0","22","0","22","0","0","0","22","22","22","22","Sun Sep 25 20:16:02 2022","1500","The main experiment item","yes","CS-Subject-1.osexp","C:/Users/cici_/Downloads","no","mono","no","18","no","white","no","yes","768","legacy","22","22","C:/Users/cici_/Downloads/M59-subject-3.csv","legacy","Lentiform Loewenfeld","3.3.12","0","s","NA","h","NA","NA","s","531","NA","25524","NA","NA","531","2","legacy","1024","2","48000","-16","experiment","HHSHH","3","odd","69341","28950","NA","NA","68838","3419","NA","NA","70449","3424","NA","NA","70552","71084","70444","70551","CS-FlankerTask","16","11587","23","yes","1024"
"70.83333333333333","70.83333333333333","508.5833333333333","508.5833333333333","black","legacy","legacy","legacy","0","congruent","uniform","1","undefined","1","s","23","0","0","0","23","0","23","0","23","0","0","0","23","23","23","23","Sun Sep 25 20:16:02 2022","1500","The main experiment item","yes","CS-Subject-1.osexp","C:/Users/cici_/Downloads","no","mono","no","18","no","white","no","yes","768","legacy","23","23","C:/Users/cici_/Downloads/M59-subject-3.csv","legacy","Lentiform Loewenfeld","3.3.12","0","s","NA","h","NA","NA","s","619","NA","25524","NA","NA","619","2","legacy","1024","2","48000","-16","experiment","SSSSS","3","odd","71091","28950","NA","NA","68838","3419","NA","NA","72207","3424","NA","NA","72308","72928","72202","72308","CS-FlankerTask","17","12206","24","yes","1024"
"72","72","512.36","512.36","black","legacy","legacy","legacy","0","incongruent","uniform","1","undefined","1","h","24","0","0","0","24","0","24","0","24","0","0","0","24","24","24","24","Sun Sep 25 20:16:02 2022","1500","The main experiment item","yes","CS-Subject-1.osexp","C:/Users/cici_/Downloads","no","mono","no","18","no","white","no","yes","768","legacy","24","24","C:/Users/cici_/Downloads/M59-subject-3.csv","legacy","Lentiform Loewenfeld","3.3.12","0","h","NA","h","NA","NA","h","603","NA","25524","NA","NA","603","2","legacy","1024","2","48000","-16","experiment","SSHSS","3","odd","72935","28950","NA","NA","68838","3419","NA","NA","74050","3424","NA","NA","74151","74755","74047","74151","CS-FlankerTask","18","12809","25","yes","1024"
"73.07692307692308","73.07692307692308","510.65384615384613","510.65384615384613","black","legacy","legacy","legacy","0","congruent","uniform","1","undefined","1","s","25","0","0","0","25","0","25","0","25","0","0","0","25","25","25","25","Sun Sep 25 20:16:02 2022","1500","The main experiment item","yes","CS-Subject-1.osexp","C:/Users/cici_/Downloads","no","mono","no","18","no","white","no","yes","768","legacy","25","25","C:/Users/cici_/Downloads/M59-subject-3.csv","legacy","Lentiform Loewenfeld","3.3.12","0","s","NA","h","NA","NA","s","468","NA","25524","NA","NA","468","2","legacy","1024","2","48000","-16","experiment","SSSSS","3","odd","74763","28950","NA","NA","68838","3419","NA","NA","75863","3424","NA","NA","75966","76435","75859","75965","CS-FlankerTask","19","13277","26","yes","1024"
"74.07407407407408","74.07407407407408","509.44444444444446","509.44444444444446","black","legacy","legacy","legacy","0","congruent","uniform","1","undefined","1","h","26","0","0","0","26","0","26","0","26","0","0","0","26","26","26","26","Sun Sep 25 20:16:02 2022","1500","The main experiment item","yes","CS-Subject-1.osexp","C:/Users/cici_/Downloads","no","mono","no","18","no","white","no","yes","768","legacy","26","26","C:/Users/cici_/Downloads/M59-subject-3.csv","legacy","Lentiform Loewenfeld","3.3.12","0","h","NA","h","NA","NA","h","478","NA","25524","NA","NA","478","2","legacy","1024","2","48000","-16","experiment","HHHHH","3","odd","76450","28950","NA","NA","68838","3419","NA","NA","77550","3424","NA","NA","77652","78131","77546","77652","CS-FlankerTask","20","13755","27","yes","1024"
"75","75","505.39285714285717","505.39285714285717","black","legacy","legacy","legacy","0","congruent","uniform","1","undefined","1","s","27","0","0","0","27","0","27","0","27","0","0","0","27","27","27","27","Sun Sep 25 20:16:02 2022","1500","The main experiment item","yes","CS-Subject-1.osexp","C:/Users/cici_/Downloads","no","mono","no","18","no","white","no","yes","768","legacy","27","27","C:/Users/cici_/Downloads/M59-subject-3.csv","legacy","Lentiform Loewenfeld","3.3.12","0","s","NA","h","NA","NA","s","396","NA","25524","NA","NA","396","2","legacy","1024","2","48000","-16","experiment","SSSSS","3","odd","78145","28950","NA","NA","68838","3419","NA","NA","79242","3424","NA","NA","79344","79741","79238","79344","CS-FlankerTask","21","14151","28","yes","1024"
"75.86206896551724","75.86206896551724","503.0344827586207","503.0344827586207","black","legacy","legacy","legacy","0","congruent","uniform","1","undefined","1","h","28","0","0","0","28","0","28","0","28","0","0","0","28","28","28","28","Sun Sep 25 20:16:02 2022","1500","The main experiment item","yes","CS-Subject-1.osexp","C:/Users/cici_/Downloads","no","mono","no","18","no","white","no","yes","768","legacy","28","28","C:/Users/cici_/Downloads/M59-subject-3.csv","legacy","Lentiform Loewenfeld","3.3.12","0","h","NA","h","NA","NA","h","437","NA","25524","NA","NA","437","2","legacy","1024","2","48000","-16","experiment","HHHHH","3","odd","79756","28950","NA","NA","68838","3419","NA","NA","80852","3424","NA","NA","80954","81392","80850","80954","CS-FlankerTask","22","14588","29","yes","1024"
"76.66666666666667","76.66666666666667","507","507","black","legacy","legacy","legacy","0","incongruent","uniform","1","undefined","1","h","29","0","0","0","29","0","29","0","29","0","0","0","29","29","29","29","Sun Sep 25 20:16:02 2022","1500","The main experiment item","yes","CS-Subject-1.osexp","C:/Users/cici_/Downloads","no","mono","no","18","no","white","no","yes","768","legacy","29","29","C:/Users/cici_/Downloads/M59-subject-3.csv","legacy","Lentiform Loewenfeld","3.3.12","0","h","NA","h","NA","NA","h","622","NA","25524","NA","NA","622","2","legacy","1024","2","48000","-16","experiment","SSHSS","3","odd","81409","28950","NA","NA","68838","3419","NA","NA","82506","3424","NA","NA","82608","83231","82502","82608","CS-FlankerTask","23","15210","30","yes","1024"
"77.41935483870968","77.41935483870968","506.61290322580646","506.61290322580646","black","legacy","legacy","legacy","0","congruent","uniform","1","undefined","1","h","30","0","0","0","30","0","30","0","30","0","0","0","30","30","30","30","Sun Sep 25 20:16:02 2022","1500","The main experiment item","yes","CS-Subject-1.osexp","C:/Users/cici_/Downloads","no","mono","no","18","no","white","no","yes","768","legacy","30","30","C:/Users/cici_/Downloads/M59-subject-3.csv","legacy","Lentiform Loewenfeld","3.3.12","0","h","NA","h","NA","NA","h","495","NA","25524","NA","NA","495","2","legacy","1024","2","48000","-16","experiment","HHHHH","3","odd","83248","28950","NA","NA","68838","3419","NA","NA","84342","3424","NA","NA","84444","84940","84338","84444","CS-FlankerTask","24","15705","31","yes","1024"
"78.125","78.125","503.75","503.75","black","legacy","legacy","legacy","0","congruent","uniform","1","undefined","1","s","31","0","0","0","31","0","31","0","31","0","0","0","31","31","31","31","Sun Sep 25 20:16:02 2022","1500","The main experiment item","yes","CS-Subject-1.osexp","C:/Users/cici_/Downloads","no","mono","no","18","no","white","no","yes","768","legacy","31","31","C:/Users/cici_/Downloads/M59-subject-3.csv","legacy","Lentiform Loewenfeld","3.3.12","0","s","NA","h","NA","NA","s","415","NA","25524","NA","NA","415","2","legacy","1024","2","48000","-16","experiment","SSSSS","3","odd","84956","28950","NA","NA","68838","3419","NA","NA","86051","3424","NA","NA","86153","86570","86047","86153","CS-FlankerTask","25","16120","32","yes","1024"
"78.78787878787878","78.78787878787878","502.8484848484849","502.8484848484849","black","legacy","legacy","legacy","0","incongruent","uniform","1","undefined","1","h","32","0","0","0","32","0","32","0","32","0","0","0","32","32","32","32","Sun Sep 25 20:16:02 2022","1500","The main experiment item","yes","CS-Subject-1.osexp","C:/Users/cici_/Downloads","no","mono","no","18","no","white","no","yes","768","legacy","32","32","C:/Users/cici_/Downloads/M59-subject-3.csv","legacy","Lentiform Loewenfeld","3.3.12","0","h","NA","h","NA","NA","h","474","NA","25524","NA","NA","474","2","legacy","1024","2","48000","-16","experiment","SSHSS","3","odd","86576","28950","NA","NA","68838","3419","NA","NA","87676","3424","NA","NA","87778","88253","87672","87778","CS-FlankerTask","26","16594","33","yes","1024"
"79.41176470588235","79.41176470588235","506.79411764705884","506.79411764705884","black","legacy","legacy","legacy","0","incongruent","uniform","1","undefined","1","s","33","0","0","0","33","0","33","0","33","0","0","0","33","33","33","33","Sun Sep 25 20:16:02 2022","1500","The main experiment item","yes","CS-Subject-1.osexp","C:/Users/cici_/Downloads","no","mono","no","18","no","white","no","yes","768","legacy","33","33","C:/Users/cici_/Downloads/M59-subject-3.csv","legacy","Lentiform Loewenfeld","3.3.12","0","s","NA","h","NA","NA","s","637","NA","25524","NA","NA","637","2","legacy","1024","2","48000","-16","experiment","HHSHH","3","odd","88270","28950","NA","NA","68838","3419","NA","NA","89378","3424","NA","NA","89481","90119","89374","89481","CS-FlankerTask","27","17231","34","yes","1024"
"80","80","506.8","506.8","black","legacy","legacy","legacy","0","incongruent","uniform","1","undefined","1","h","34","0","0","0","34","0","34","0","34","0","0","0","34","34","34","34","Sun Sep 25 20:16:02 2022","1500","The main experiment item","yes","CS-Subject-1.osexp","C:/Users/cici_/Downloads","no","mono","no","18","no","white","no","yes","768","legacy","34","34","C:/Users/cici_/Downloads/M59-subject-3.csv","legacy","Lentiform Loewenfeld","3.3.12","0","h","NA","h","NA","NA","h","507","NA","25524","NA","NA","507","2","legacy","1024","2","48000","-16","experiment","SSHSS","3","odd","90136","28950","NA","NA","68838","3419","NA","NA","91233","3424","NA","NA","91336","91844","91230","91336","CS-FlankerTask","28","17738","35","yes","1024"
"80.55555555555556","80.55555555555556","508.55555555555554","508.55555555555554","black","legacy","legacy","legacy","0","incongruent","uniform","1","undefined","1","h","35","0","0","0","35","0","35","0","35","0","0","0","35","35","35","35","Sun Sep 25 20:16:02 2022","1500","The main experiment item","yes","CS-Subject-1.osexp","C:/Users/cici_/Downloads","no","mono","no","18","no","white","no","yes","768","legacy","35","35","C:/Users/cici_/Downloads/M59-subject-3.csv","legacy","Lentiform Loewenfeld","3.3.12","0","h","NA","h","NA","NA","h","570","NA","25524","NA","NA","570","2","legacy","1024","2","48000","-16","experiment","SSHSS","3","odd","91860","28950","NA","NA","68838","3419","NA","NA","92962","3424","NA","NA","93064","93635","92958","93064","CS-FlankerTask","29","18308","36","yes","1024"
"81.08108108108108","81.08108108108108","510.2162162162162","510.2162162162162","black","legacy","legacy","legacy","0","congruent","uniform","1","undefined","1","s","36","0","0","0","36","0","36","0","36","0","0","0","36","36","36","36","Sun Sep 25 20:16:02 2022","1500","The main experiment item","yes","CS-Subject-1.osexp","C:/Users/cici_/Downloads","no","mono","no","18","no","white","no","yes","768","legacy","36","36","C:/Users/cici_/Downloads/M59-subject-3.csv","legacy","Lentiform Loewenfeld","3.3.12","0","s","NA","h","NA","NA","s","570","NA","25524","NA","NA","570","2","legacy","1024","2","48000","-16","experiment","SSSSS","3","odd","93651","28950","NA","NA","68838","3419","NA","NA","94751","3424","NA","NA","94853","95423","94748","94853","CS-FlankerTask","30","18878","37","yes","1024"
"81.57894736842105","81.57894736842105","508.94736842105266","508.94736842105266","black","legacy","legacy","legacy","0","incongruent","uniform","1","undefined","1","h","37","0","0","0","37","0","37","0","37","0","0","0","37","37","37","37","Sun Sep 25 20:16:02 2022","1500","The main experiment item","yes","CS-Subject-1.osexp","C:/Users/cici_/Downloads","no","mono","no","18","no","white","no","yes","768","legacy","37","37","C:/Users/cici_/Downloads/M59-subject-3.csv","legacy","Lentiform Loewenfeld","3.3.12","0","h","NA","h","NA","NA","h","462","NA","25524","NA","NA","462","2","legacy","1024","2","48000","-16","experiment","SSHSS","3","odd","95434","28950","NA","NA","68838","3419","NA","NA","96537","3424","NA","NA","96639","97102","96533","96639","CS-FlankerTask","31","19340","38","yes","1024"
"82.05128205128206","82.05128205128206","510.2307692307692","510.2307692307692","black","legacy","legacy","legacy","0","incongruent","uniform","1","undefined","1","h","38","0","0","0","38","0","38","0","38","0","0","0","38","38","38","38","Sun Sep 25 20:16:02 2022","1500","The main experiment item","yes","CS-Subject-1.osexp","C:/Users/cici_/Downloads","no","mono","no","18","no","white","no","yes","768","legacy","38","38","C:/Users/cici_/Downloads/M59-subject-3.csv","legacy","Lentiform Loewenfeld","3.3.12","0","h","NA","h","NA","NA","h","559","NA","25524","NA","NA","559","2","legacy","1024","2","48000","-16","experiment","SSHSS","3","odd","97109","28950","NA","NA","68838","3419","NA","NA","98205","3424","NA","NA","98307","98868","98201","98307","CS-FlankerTask","32","19899","39","yes","1024"
"82.5","82.5","509.6","509.6","black","legacy","legacy","legacy","0","congruent","uniform","1","undefined","1","h","39","0","0","0","39","0","39","0","39","0","0","0","39","39","39","39","Sun Sep 25 20:16:02 2022","1500","The main experiment item","yes","CS-Subject-1.osexp","C:/Users/cici_/Downloads","no","mono","no","18","no","white","no","yes","768","legacy","39","39","C:/Users/cici_/Downloads/M59-subject-3.csv","legacy","Lentiform Loewenfeld","3.3.12","0","h","NA","h","NA","NA","h","485","NA","25524","NA","NA","485","2","legacy","1024","2","48000","-16","experiment","HHHHH","3","odd","98875","28950","NA","NA","68838","3419","NA","NA","99976","3424","NA","NA","100078","100564","99973","100078","CS-FlankerTask","33","20384","40","yes","1024"
"82.92682926829268","82.92682926829268","509.1219512195122","509.1219512195122","black","legacy","legacy","legacy","0","congruent","uniform","1","undefined","1","h","40","0","0","0","40","0","40","0","40","0","0","0","40","40","40","40","Sun Sep 25 20:16:02 2022","1500","The main experiment item","yes","CS-Subject-1.osexp","C:/Users/cici_/Downloads","no","mono","no","18","no","white","no","yes","768","legacy","40","40","C:/Users/cici_/Downloads/M59-subject-3.csv","legacy","Lentiform Loewenfeld","3.3.12","0","h","NA","h","NA","NA","h","490","NA","25524","NA","NA","490","2","legacy","1024","2","48000","-16","experiment","HHHHH","3","odd","100581","28950","NA","NA","68838","3419","NA","NA","101682","3424","NA","NA","101784","102275","101678","101784","CS-FlankerTask","34","20874","41","yes","1024"
"83.33333333333333","83.33333333333333","509.57142857142856","509.57142857142856","black","legacy","legacy","legacy","0","congruent","uniform","1","undefined","1","s","41","0","0","0","41","0","41","0","41","0","0","0","41","41","41","41","Sun Sep 25 20:16:02 2022","1500","The main experiment item","yes","CS-Subject-1.osexp","C:/Users/cici_/Downloads","no","mono","no","18","no","white","no","yes","768","legacy","41","41","C:/Users/cici_/Downloads/M59-subject-3.csv","legacy","Lentiform Loewenfeld","3.3.12","0","s","NA","h","NA","NA","s","528","NA","25524","NA","NA","528","2","legacy","1024","2","48000","-16","experiment","SSSSS","3","odd","102282","28950","NA","NA","68838","3419","NA","NA","103381","3424","NA","NA","103483","104012","103377","103483","CS-FlankerTask","35","21402","42","yes","1024"
"83.72093023255815","83.72093023255815","509.4418604651163","509.4418604651163","black","legacy","legacy","legacy","0","congruent","uniform","1","undefined","1","h","42","0","0","0","42","0","42","0","42","0","0","0","42","42","42","42","Sun Sep 25 20:16:02 2022","1500","The main experiment item","yes","CS-Subject-1.osexp","C:/Users/cici_/Downloads","no","mono","no","18","no","white","no","yes","768","legacy","42","42","C:/Users/cici_/Downloads/M59-subject-3.csv","legacy","Lentiform Loewenfeld","3.3.12","0","h","NA","h","NA","NA","h","504","NA","25524","NA","NA","504","2","legacy","1024","2","48000","-16","experiment","HHHHH","3","odd","104018","28950","NA","NA","68838","3419","NA","NA","105116","3424","NA","NA","105218","105723","105113","105218","CS-FlankerTask","36","21906","43","yes","1024"
"81.81818181818181","81.81818181818181","511.8863636363636","511.8863636363636","black","legacy","legacy","legacy","0","congruent","uniform","0","undefined","0","s","43","0","0","0","43","0","43","0","43","0","0","0","43","43","43","43","Sun Sep 25 20:16:02 2022","1500","The main experiment item","yes","CS-Subject-1.osexp","C:/Users/cici_/Downloads","no","mono","no","18","no","white","no","yes","768","legacy","43","43","C:/Users/cici_/Downloads/M59-subject-3.csv","legacy","Lentiform Loewenfeld","3.3.12","0","h","NA","h","NA","NA","h","617","NA","25524","NA","NA","617","2","legacy","1024","2","48000","-16","experiment","SSSSS","3","odd","105730","28950","NA","NA","68838","3419","NA","NA","106833","3424","NA","NA","106936","107554","106829","106936","CS-FlankerTask","36","22523","44","yes","1024"
"82.22222222222223","82.22222222222223","509.8666666666667","509.8666666666667","black","legacy","legacy","legacy","0","congruent","uniform","1","undefined","1","s","44","0","0","0","44","0","44","0","44","0","0","0","44","44","44","44","Sun Sep 25 20:16:02 2022","1500","The main experiment item","yes","CS-Subject-1.osexp","C:/Users/cici_/Downloads","no","mono","no","18","no","white","no","yes","768","legacy","44","44","C:/Users/cici_/Downloads/M59-subject-3.csv","legacy","Lentiform Loewenfeld","3.3.12","0","s","NA","h","NA","NA","s","421","NA","25524","NA","NA","421","2","legacy","1024","2","48000","-16","experiment","SSSSS","3","odd","108064","28950","NA","NA","107561","3419","NA","NA","109163","3424","NA","NA","109266","109689","109160","109266","CS-FlankerTask","37","22944","45","yes","1024"
"82.6086956521739","82.6086956521739","508.8478260869565","508.8478260869565","black","legacy","legacy","legacy","0","congruent","uniform","1","undefined","1","h","45","0","0","0","45","0","45","0","45","0","0","0","45","45","45","45","Sun Sep 25 20:16:02 2022","1500","The main experiment item","yes","CS-Subject-1.osexp","C:/Users/cici_/Downloads","no","mono","no","18","no","white","no","yes","768","legacy","45","45","C:/Users/cici_/Downloads/M59-subject-3.csv","legacy","Lentiform Loewenfeld","3.3.12","0","h","NA","h","NA","NA","h","463","NA","25524","NA","NA","463","2","legacy","1024","2","48000","-16","experiment","HHHHH","3","odd","109695","28950","NA","NA","107561","3419","NA","NA","110800","3424","NA","NA","110902","111366","110797","110902","CS-FlankerTask","38","23407","46","yes","1024"
"82.97872340425532","82.97872340425532","509.36170212765956","509.36170212765956","black","legacy","legacy","legacy","0","incongruent","uniform","1","undefined","1","s","46","0","0","0","46","0","46","0","46","0","0","0","46","46","46","46","Sun Sep 25 20:16:02 2022","1500","The main experiment item","yes","CS-Subject-1.osexp","C:/Users/cici_/Downloads","no","mono","no","18","no","white","no","yes","768","legacy","46","46","C:/Users/cici_/Downloads/M59-subject-3.csv","legacy","Lentiform Loewenfeld","3.3.12","0","s","NA","h","NA","NA","s","533","NA","25524","NA","NA","533","2","legacy","1024","2","48000","-16","experiment","HHSHH","3","odd","111373","28950","NA","NA","107561","3419","NA","NA","112485","3424","NA","NA","112587","113121","112481","112587","CS-FlankerTask","39","23940","47","yes","1024"
"83.33333333333333","83.33333333333333","507.1666666666667","507.1666666666667","black","legacy","legacy","legacy","0","congruent","uniform","1","undefined","1","s","47","0","0","0","47","0","47","0","47","0","0","0","47","47","47","47","Sun Sep 25 20:16:02 2022","1500","The main experiment item","yes","CS-Subject-1.osexp","C:/Users/cici_/Downloads","no","mono","no","18","no","white","no","yes","768","legacy","47","47","C:/Users/cici_/Downloads/M59-subject-3.csv","legacy","Lentiform Loewenfeld","3.3.12","0","s","NA","h","NA","NA","s","404","NA","25524","NA","NA","404","2","legacy","1024","2","48000","-16","experiment","SSSSS","3","odd","113127","28950","NA","NA","107561","3419","NA","NA","114228","3424","NA","NA","114330","114736","114224","114330","CS-FlankerTask","40","24344","48","yes","1024"
"83.6734693877551","83.6734693877551","508.2857142857143","508.2857142857143","black","legacy","legacy","legacy","0","incongruent","uniform","1","undefined","1","s","48","0","0","0","48","0","48","0","48","0","0","0","48","48","48","48","Sun Sep 25 20:16:02 2022","1500","The main experiment item","yes","CS-Subject-1.osexp","C:/Users/cici_/Downloads","no","mono","no","18","no","white","no","yes","768","legacy","48","48","C:/Users/cici_/Downloads/M59-subject-3.csv","legacy","Lentiform Loewenfeld","3.3.12","0","s","NA","h","NA","NA","s","562","NA","25524","NA","NA","562","2","legacy","1024","2","48000","-16","experiment","HHSHH","3","odd","114743","28950","NA","NA","107561","3419","NA","NA","115862","3424","NA","NA","115965","116528","115858","115965","CS-FlankerTask","41","24906","49","yes","1024"
"84","84","509.12","509.12","black","legacy","legacy","legacy","0","incongruent","uniform","1","undefined","1","s","49","0","0","0","49","0","49","0","49","0","0","0","49","49","49","49","Sun Sep 25 20:16:02 2022","1500","The main experiment item","yes","CS-Subject-1.osexp","C:/Users/cici_/Downloads","no","mono","no","18","no","white","no","yes","768","legacy","49","49","C:/Users/cici_/Downloads/M59-subject-3.csv","legacy","Lentiform Loewenfeld","3.3.12","0","s","NA","h","NA","NA","s","550","NA","25524","NA","NA","550","2","legacy","1024","2","48000","-16","experiment","HHSHH","3","odd","116534","28950","NA","NA","107561","3419","NA","NA","117628","3424","NA","NA","117730","118281","117625","117730","CS-FlankerTask","42","25456","50","yes","1024"
"84.31372549019608","84.31372549019608","509.3529411764706","509.3529411764706","black","legacy","legacy","legacy","0","congruent","uniform","1","undefined","1","h","50","0","0","0","50","0","50","0","50","0","0","0","50","50","50","50","Sun Sep 25 20:16:02 2022","1500","The main experiment item","yes","CS-Subject-1.osexp","C:/Users/cici_/Downloads","no","mono","no","18","no","white","no","yes","768","legacy","50","50","C:/Users/cici_/Downloads/M59-subject-3.csv","legacy","Lentiform Loewenfeld","3.3.12","0","h","NA","h","NA","NA","h","521","NA","25524","NA","NA","521","2","legacy","1024","2","48000","-16","experiment","HHHHH","3","odd","118288","28950","NA","NA","107561","3419","NA","NA","119387","3424","NA","NA","119489","120011","119383","119489","CS-FlankerTask","43","25977","51","yes","1024"
"84.61538461538461","84.61538461538461","509.34615384615387","509.34615384615387","black","legacy","legacy","legacy","0","congruent","uniform","1","undefined","1","s","51","0","0","0","51","0","51","0","51","0","0","0","51","51","51","51","Sun Sep 25 20:16:02 2022","1500","The main experiment item","yes","CS-Subject-1.osexp","C:/Users/cici_/Downloads","no","mono","no","18","no","white","no","yes","768","legacy","51","51","C:/Users/cici_/Downloads/M59-subject-3.csv","legacy","Lentiform Loewenfeld","3.3.12","0","s","NA","h","NA","NA","s","509","NA","25524","NA","NA","509","2","legacy","1024","2","48000","-16","experiment","SSSSS","3","odd","120017","28950","NA","NA","107561","3419","NA","NA","121128","3424","NA","NA","121230","121740","121124","121230","CS-FlankerTask","44","26486","52","yes","1024"
"84.90566037735849","84.90566037735849","510.54716981132077","510.54716981132077","black","legacy","legacy","legacy","0","incongruent","uniform","1","undefined","1","s","52","0","0","0","52","0","52","0","52","0","0","0","52","52","52","52","Sun Sep 25 20:16:02 2022","1500","The main experiment item","yes","CS-Subject-1.osexp","C:/Users/cici_/Downloads","no","mono","no","18","no","white","no","yes","768","legacy","52","52","C:/Users/cici_/Downloads/M59-subject-3.csv","legacy","Lentiform Loewenfeld","3.3.12","0","s","NA","h","NA","NA","s","573","NA","25524","NA","NA","573","2","legacy","1024","2","48000","-16","experiment","HHSHH","3","odd","121746","28950","NA","NA","107561","3419","NA","NA","122845","3424","NA","NA","122947","123521","122842","122947","CS-FlankerTask","45","27059","53","yes","1024"
"83.33333333333333","83.33333333333333","509.74074074074076","509.74074074074076","black","legacy","legacy","legacy","0","incongruent","uniform","0","undefined","0","h","53","0","0","0","53","0","53","0","53","0","0","0","53","53","53","53","Sun Sep 25 20:16:02 2022","1500","The main experiment item","yes","CS-Subject-1.osexp","C:/Users/cici_/Downloads","no","mono","no","18","no","white","no","yes","768","legacy","53","53","C:/Users/cici_/Downloads/M59-subject-3.csv","legacy","Lentiform Loewenfeld","3.3.12","0","s","NA","h","NA","NA","s","467","NA","25524","NA","NA","467","2","legacy","1024","2","48000","-16","experiment","SSHSS","3","odd","123527","28950","NA","NA","107561","3419","NA","NA","124628","3424","NA","NA","124730","125199","124625","124730","CS-FlankerTask","45","27526","54","yes","1024"
"83.63636363636364","83.63636363636364","509.58181818181816","509.58181818181816","black","legacy","legacy","legacy","0","congruent","uniform","1","undefined","1","h","54","0","0","0","54","0","54","0","54","0","0","0","54","54","54","54","Sun Sep 25 20:16:02 2022","1500","The main experiment item","yes","CS-Subject-1.osexp","C:/Users/cici_/Downloads","no","mono","no","18","no","white","no","yes","768","legacy","54","54","C:/Users/cici_/Downloads/M59-subject-3.csv","legacy","Lentiform Loewenfeld","3.3.12","0","h","NA","h","NA","NA","h","501","NA","25524","NA","NA","501","2","legacy","1024","2","48000","-16","experiment","HHHHH","3","odd","125707","28950","NA","NA","125204","3419","NA","NA","126827","3424","NA","NA","126929","127432","126824","126929","CS-FlankerTask","46","28027","55","yes","1024"
"83.92857142857143","83.92857142857143","512.0357142857143","512.0357142857143","black","legacy","legacy","legacy","0","incongruent","uniform","1","undefined","1","h","55","0","0","0","55","0","55","0","55","0","0","0","55","55","55","55","Sun Sep 25 20:16:02 2022","1500","The main experiment item","yes","CS-Subject-1.osexp","C:/Users/cici_/Downloads","no","mono","no","18","no","white","no","yes","768","legacy","55","55","C:/Users/cici_/Downloads/M59-subject-3.csv","legacy","Lentiform Loewenfeld","3.3.12","0","h","NA","h","NA","NA","h","647","NA","25524","NA","NA","647","2","legacy","1024","2","48000","-16","experiment","SSHSS","3","odd","127439","28950","NA","NA","125204","3419","NA","NA","128538","3424","NA","NA","128640","129289","128534","128640","CS-FlankerTask","47","28674","56","yes","1024"
"84.21052631578948","84.21052631578948","511.6842105263158","511.6842105263158","black","legacy","legacy","legacy","0","incongruent","uniform","1","undefined","1","s","56","0","0","0","56","0","56","0","56","0","0","0","56","56","56","56","Sun Sep 25 20:16:02 2022","1500","The main experiment item","yes","CS-Subject-1.osexp","C:/Users/cici_/Downloads","no","mono","no","18","no","white","no","yes","768","legacy","56","56","C:/Users/cici_/Downloads/M59-subject-3.csv","legacy","Lentiform Loewenfeld","3.3.12","0","s","NA","h","NA","NA","s","492","NA","25524","NA","NA","492","2","legacy","1024","2","48000","-16","experiment","HHSHH","3","odd","129296","28950","NA","NA","125204","3419","NA","NA","130393","3424","NA","NA","130495","130989","130389","130495","CS-FlankerTask","48","29166","57","yes","1024"
"84.48275862068965","84.48275862068965","511.7413793103448","511.7413793103448","black","legacy","legacy","legacy","0","congruent","uniform","1","undefined","1","h","57","0","0","0","57","0","57","0","57","0","0","0","57","57","57","57","Sun Sep 25 20:16:02 2022","1500","The main experiment item","yes","CS-Subject-1.osexp","C:/Users/cici_/Downloads","no","mono","no","18","no","white","no","yes","768","legacy","57","57","C:/Users/cici_/Downloads/M59-subject-3.csv","legacy","Lentiform Loewenfeld","3.3.12","0","h","NA","h","NA","NA","h","515","NA","25524","NA","NA","515","2","legacy","1024","2","48000","-16","experiment","HHHHH","3","odd","130996","28950","NA","NA","125204","3419","NA","NA","132092","3424","NA","NA","132194","132711","132088","132194","CS-FlankerTask","49","29681","58","yes","1024"
"84.7457627118644","84.7457627118644","515.7457627118644","515.7457627118644","black","legacy","legacy","legacy","0","incongruent","uniform","1","undefined","1","s","58","0","0","0","58","0","58","0","58","0","0","0","58","58","58","58","Sun Sep 25 20:16:02 2022","1500","The main experiment item","yes","CS-Subject-1.osexp","C:/Users/cici_/Downloads","no","mono","no","18","no","white","no","yes","768","legacy","58","58","C:/Users/cici_/Downloads/M59-subject-3.csv","legacy","Lentiform Loewenfeld","3.3.12","0","s","NA","h","NA","NA","s","748","NA","25524","NA","NA","748","2","legacy","1024","2","48000","-16","experiment","HHSHH","3","odd","132717","28950","NA","NA","125204","3419","NA","NA","133821","3424","NA","NA","133923","134672","133817","133923","CS-FlankerTask","50","30429","59","yes","1024"
"83.33333333333333","83.33333333333333","515.6","515.6","black","legacy","legacy","legacy","0","incongruent","uniform","0","undefined","0","h","59","0","0","0","59","0","59","0","59","0","0","0","59","59","59","59","Sun Sep 25 20:16:02 2022","1500","The main experiment item","yes","CS-Subject-1.osexp","C:/Users/cici_/Downloads","no","mono","no","18","no","white","no","yes","768","legacy","59","59","C:/Users/cici_/Downloads/M59-subject-3.csv","legacy","Lentiform Loewenfeld","3.3.12","0","s","NA","h","NA","NA","s","507","NA","25524","NA","NA","507","2","legacy","1024","2","48000","-16","experiment","SSHSS","3","odd","134679","28950","NA","NA","125204","3419","NA","NA","135777","3424","NA","NA","135879","136386","135774","135879","CS-FlankerTask","50","30936","60","yes","1024"
"81.9672131147541","81.9672131147541","513.7868852459017","513.7868852459017","black","legacy","legacy","legacy","0","congruent","uniform","0","undefined","0","s","60","0","0","0","60","0","60","0","60","0","0","0","60","60","60","60","Sun Sep 25 20:16:02 2022","1500","The main experiment item","yes","CS-Subject-1.osexp","C:/Users/cici_/Downloads","no","mono","no","18","no","white","no","yes","768","legacy","60","60","C:/Users/cici_/Downloads/M59-subject-3.csv","legacy","Lentiform Loewenfeld","3.3.12","0","h","NA","h","NA","NA","h","405","NA","25524","NA","NA","405","2","legacy","1024","2","48000","-16","experiment","SSSSS","3","odd","136895","28950","NA","NA","136393","3419","NA","NA","137996","3424","NA","NA","138098","138505","137992","138098","CS-FlankerTask","50","31341","61","yes","1024"
"82.25806451612904","82.25806451612904","517.9677419354839","517.9677419354839","black","legacy","legacy","legacy","0","incongruent","uniform","1","undefined","1","s","61","0","0","0","61","0","61","0","61","0","0","0","61","61","61","61","Sun Sep 25 20:16:02 2022","1500","The main experiment item","yes","CS-Subject-1.osexp","C:/Users/cici_/Downloads","no","mono","no","18","no","white","no","yes","768","legacy","61","61","C:/Users/cici_/Downloads/M59-subject-3.csv","legacy","Lentiform Loewenfeld","3.3.12","0","s","NA","h","NA","NA","s","773","NA","25524","NA","NA","773","2","legacy","1024","2","48000","-16","experiment","HHSHH","3","odd","139014","28950","NA","NA","138512","3419","NA","NA","140113","3424","NA","NA","140215","140989","140109","140215","CS-FlankerTask","51","32114","62","yes","1024"
"82.53968253968254","82.53968253968254","519.5079365079365","519.5079365079365","black","legacy","legacy","legacy","0","incongruent","uniform","1","undefined","1","s","62","0","0","0","62","0","62","0","62","0","0","0","62","62","62","62","Sun Sep 25 20:16:02 2022","1500","The main experiment item","yes","CS-Subject-1.osexp","C:/Users/cici_/Downloads","no","mono","no","18","no","white","no","yes","768","legacy","62","62","C:/Users/cici_/Downloads/M59-subject-3.csv","legacy","Lentiform Loewenfeld","3.3.12","0","s","NA","h","NA","NA","s","615","NA","25524","NA","NA","615","2","legacy","1024","2","48000","-16","experiment","HHSHH","3","odd","140995","28950","NA","NA","138512","3419","NA","NA","142108","3424","NA","NA","142210","142826","142105","142210","CS-FlankerTask","52","32729","63","yes","1024"
"81.25","81.25","520.25","520.25","black","legacy","legacy","legacy","0","incongruent","uniform","0","undefined","0","h","63","0","0","0","63","0","63","0","63","0","0","0","63","63","63","63","Sun Sep 25 20:16:02 2022","1500","The main experiment item","yes","CS-Subject-1.osexp","C:/Users/cici_/Downloads","no","mono","no","18","no","white","no","yes","768","legacy","63","63","C:/Users/cici_/Downloads/M59-subject-3.csv","legacy","Lentiform Loewenfeld","3.3.12","0","s","NA","h","NA","NA","s","567","NA","25524","NA","NA","567","2","legacy","1024","2","48000","-16","experiment","SSHSS","3","odd","142834","28950","NA","NA","138512","3419","NA","NA","143939","3424","NA","NA","144041","144609","143936","144041","CS-FlankerTask","52","33296","64","yes","1024"
"81.53846153846153","81.53846153846153","520.9846153846154","520.9846153846154","black","legacy","legacy","legacy","0","incongruent","uniform","1","undefined","1","s","64","0","0","0","64","0","64","0","64","0","0","0","64","64","64","64","Sun Sep 25 20:16:02 2022","1500","The main experiment item","yes","CS-Subject-1.osexp","C:/Users/cici_/Downloads","no","mono","no","18","no","white","no","yes","768","legacy","64","64","C:/Users/cici_/Downloads/M59-subject-3.csv","legacy","Lentiform Loewenfeld","3.3.12","0","s","NA","h","NA","NA","s","568","NA","25524","NA","NA","568","2","legacy","1024","2","48000","-16","experiment","HHSHH","3","odd","145118","28950","NA","NA","144615","3419","NA","NA","146218","3424","NA","NA","146320","146890","146214","146320","CS-FlankerTask","53","33864","65","yes","1024"
"81.81818181818181","81.81818181818181","521.8030303030303","521.8030303030303","black","legacy","legacy","legacy","0","congruent","uniform","1","undefined","1","h","65","0","0","0","65","0","65","0","65","0","0","0","65","65","65","65","Sun Sep 25 20:16:02 2022","1500","The main experiment item","yes","CS-Subject-1.osexp","C:/Users/cici_/Downloads","no","mono","no","18","no","white","no","yes","768","legacy","65","65","C:/Users/cici_/Downloads/M59-subject-3.csv","legacy","Lentiform Loewenfeld","3.3.12","0","h","NA","h","NA","NA","h","575","NA","25524","NA","NA","575","2","legacy","1024","2","48000","-16","experiment","HHHHH","3","odd","146896","28950","NA","NA","144615","3419","NA","NA","147994","3424","NA","NA","148096","148672","147990","148096","CS-FlankerTask","54","34439","66","yes","1024"
"82.08955223880596","82.08955223880596","522.6865671641791","522.6865671641791","black","legacy","legacy","legacy","0","incongruent","uniform","1","undefined","1","s","66","0","0","0","66","0","66","0","66","0","0","0","66","66","66","66","Sun Sep 25 20:16:02 2022","1500","The main experiment item","yes","CS-Subject-1.osexp","C:/Users/cici_/Downloads","no","mono","no","18","no","white","no","yes","768","legacy","66","66","C:/Users/cici_/Downloads/M59-subject-3.csv","legacy","Lentiform Loewenfeld","3.3.12","0","s","NA","h","NA","NA","s","581","NA","25524","NA","NA","581","2","legacy","1024","2","48000","-16","experiment","HHSHH","3","odd","148679","28950","NA","NA","144615","3419","NA","NA","149778","3424","NA","NA","149880","150461","149775","149880","CS-FlankerTask","55","35020","67","yes","1024"
"82.3529411764706","82.3529411764706","523.7794117647059","523.7794117647059","black","legacy","legacy","legacy","0","congruent","uniform","1","undefined","1","s","67","0","0","0","67","0","67","0","67","0","0","0","67","67","67","67","Sun Sep 25 20:16:02 2022","1500","The main experiment item","yes","CS-Subject-1.osexp","C:/Users/cici_/Downloads","no","mono","no","18","no","white","no","yes","768","legacy","67","67","C:/Users/cici_/Downloads/M59-subject-3.csv","legacy","Lentiform Loewenfeld","3.3.12","0","s","NA","h","NA","NA","s","597","NA","25524","NA","NA","597","2","legacy","1024","2","48000","-16","experiment","SSSSS","3","odd","150468","28950","NA","NA","144615","3419","NA","NA","151566","3424","NA","NA","151668","152267","151562","151668","CS-FlankerTask","56","35617","68","yes","1024"
"82.6086956521739","82.6086956521739","523.3333333333334","523.3333333333334","black","legacy","legacy","legacy","0","incongruent","uniform","1","undefined","1","s","68","0","0","0","68","0","68","0","68","0","0","0","68","68","68","68","Sun Sep 25 20:16:02 2022","1500","The main experiment item","yes","CS-Subject-1.osexp","C:/Users/cici_/Downloads","no","mono","no","18","no","white","no","yes","768","legacy","68","68","C:/Users/cici_/Downloads/M59-subject-3.csv","legacy","Lentiform Loewenfeld","3.3.12","0","s","NA","h","NA","NA","s","493","NA","25524","NA","NA","493","2","legacy","1024","2","48000","-16","experiment","HHSHH","3","odd","152273","28950","NA","NA","144615","3419","NA","NA","153369","3424","NA","NA","153471","153965","153366","153471","CS-FlankerTask","57","36110","69","yes","1024"
"82.85714285714286","82.85714285714286","522.0142857142857","522.0142857142857","black","legacy","legacy","legacy","0","incongruent","uniform","1","undefined","1","h","69","0","0","0","69","0","69","0","69","0","0","0","69","69","69","69","Sun Sep 25 20:16:02 2022","1500","The main experiment item","yes","CS-Subject-1.osexp","C:/Users/cici_/Downloads","no","mono","no","18","no","white","no","yes","768","legacy","69","69","C:/Users/cici_/Downloads/M59-subject-3.csv","legacy","Lentiform Loewenfeld","3.3.12","0","h","NA","h","NA","NA","h","431","NA","25524","NA","NA","431","2","legacy","1024","2","48000","-16","experiment","SSHSS","3","odd","153972","28950","NA","NA","144615","3419","NA","NA","155078","3424","NA","NA","155180","155612","155075","155180","CS-FlankerTask","58","36541","70","yes","1024"
"83.09859154929578","83.09859154929578","521","521","black","legacy","legacy","legacy","0","congruent","uniform","1","undefined","1","s","70","0","0","0","70","0","70","0","70","0","0","0","70","70","70","70","Sun Sep 25 20:16:02 2022","1500","The main experiment item","yes","CS-Subject-1.osexp","C:/Users/cici_/Downloads","no","mono","no","18","no","white","no","yes","768","legacy","70","70","C:/Users/cici_/Downloads/M59-subject-3.csv","legacy","Lentiform Loewenfeld","3.3.12","0","s","NA","h","NA","NA","s","450","NA","25524","NA","NA","450","2","legacy","1024","2","48000","-16","experiment","SSSSS","3","odd","155619","28950","NA","NA","144615","3419","NA","NA","156715","3424","NA","NA","156818","157269","156712","156818","CS-FlankerTask","59","36991","71","yes","1024"
"83.33333333333333","83.33333333333333","520.2777777777778","520.2777777777778","black","legacy","legacy","legacy","0","incongruent","uniform","1","undefined","1","s","71","0","0","0","71","0","71","0","71","0","0","0","71","71","71","71","Sun Sep 25 20:16:02 2022","1500","The main experiment item","yes","CS-Subject-1.osexp","C:/Users/cici_/Downloads","no","mono","no","18","no","white","no","yes","768","legacy","71","71","C:/Users/cici_/Downloads/M59-subject-3.csv","legacy","Lentiform Loewenfeld","3.3.12","0","s","NA","h","NA","NA","s","469","NA","25524","NA","NA","469","2","legacy","1024","2","48000","-16","experiment","HHSHH","3","odd","157276","28950","NA","NA","144615","3419","NA","NA","158391","3424","NA","NA","158493","158964","158386","158493","CS-FlankerTask","60","37460","72","yes","1024"
"83.56164383561644","83.56164383561644","519.8493150684932","519.8493150684932","black","legacy","legacy","legacy","0","congruent","uniform","1","undefined","1","h","72","0","0","0","72","0","72","0","72","0","0","0","72","72","72","72","Sun Sep 25 20:16:02 2022","1500","The main experiment item","yes","CS-Subject-1.osexp","C:/Users/cici_/Downloads","no","mono","no","18","no","white","no","yes","768","legacy","72","72","C:/Users/cici_/Downloads/M59-subject-3.csv","legacy","Lentiform Loewenfeld","3.3.12","0","h","NA","h","NA","NA","h","489","NA","25524","NA","NA","489","2","legacy","1024","2","48000","-16","experiment","HHHHH","3","odd","158971","28950","NA","NA","144615","3419","NA","NA","160071","3424","NA","NA","160174","160664","160067","160173","CS-FlankerTask","61","37949","73","yes","1024"
"83.78378378378379","83.78378378378379","520.1891891891892","520.1891891891892","black","legacy","legacy","legacy","0","incongruent","uniform","1","undefined","1","h","73","0","0","0","73","0","73","0","73","0","0","0","73","73","73","73","Sun Sep 25 20:16:02 2022","1500","The main experiment item","yes","CS-Subject-1.osexp","C:/Users/cici_/Downloads","no","mono","no","18","no","white","no","yes","768","legacy","73","73","C:/Users/cici_/Downloads/M59-subject-3.csv","legacy","Lentiform Loewenfeld","3.3.12","0","h","NA","h","NA","NA","h","545","NA","25524","NA","NA","545","2","legacy","1024","2","48000","-16","experiment","SSHSS","3","odd","160681","28950","NA","NA","144615","3419","NA","NA","161799","3424","NA","NA","161901","162448","161795","161901","CS-FlankerTask","62","38494","74","yes","1024"
"84","84","519.2133333333334","519.2133333333334","black","legacy","legacy","legacy","0","incongruent","uniform","1","undefined","1","s","74","0","0","0","74","0","74","0","74","0","0","0","74","74","74","74","Sun Sep 25 20:16:02 2022","1500","The main experiment item","yes","CS-Subject-1.osexp","C:/Users/cici_/Downloads","no","mono","no","18","no","white","no","yes","768","legacy","74","74","C:/Users/cici_/Downloads/M59-subject-3.csv","legacy","Lentiform Loewenfeld","3.3.12","0","s","NA","h","NA","NA","s","447","NA","25524","NA","NA","447","2","legacy","1024","2","48000","-16","experiment","HHSHH","3","odd","162454","28950","NA","NA","144615","3419","NA","NA","163554","3424","NA","NA","163656","164105","163551","163656","CS-FlankerTask","63","38941","75","yes","1024"
"84.21052631578948","84.21052631578948","518.9736842105264","518.9736842105264","black","legacy","legacy","legacy","0","congruent","uniform","1","undefined","1","s","75","0","0","0","75","0","75","0","75","0","0","0","75","75","75","75","Sun Sep 25 20:16:02 2022","1500","The main experiment item","yes","CS-Subject-1.osexp","C:/Users/cici_/Downloads","no","mono","no","18","no","white","no","yes","768","legacy","75","75","C:/Users/cici_/Downloads/M59-subject-3.csv","legacy","Lentiform Loewenfeld","3.3.12","0","s","NA","h","NA","NA","s","501","NA","25524","NA","NA","501","2","legacy","1024","2","48000","-16","experiment","SSSSS","3","odd","164112","28950","NA","NA","144615","3419","NA","NA","165206","3424","NA","NA","165309","165811","165203","165309","CS-FlankerTask","64","39442","76","yes","1024"
"84.41558441558442","84.41558441558442","517.8961038961039","517.8961038961039","black","legacy","legacy","legacy","0","congruent","uniform","1","undefined","1","h","76","0","0","0","76","0","76","0","76","0","0","0","76","76","76","76","Sun Sep 25 20:16:02 2022","1500","The main experiment item","yes","CS-Subject-1.osexp","C:/Users/cici_/Downloads","no","mono","no","18","no","white","no","yes","768","legacy","76","76","C:/Users/cici_/Downloads/M59-subject-3.csv","legacy","Lentiform Loewenfeld","3.3.12","0","h","NA","h","NA","NA","h","436","NA","25524","NA","NA","436","2","legacy","1024","2","48000","-16","experiment","HHHHH","3","odd","165819","28950","NA","NA","144615","3419","NA","NA","166915","3424","NA","NA","167017","167456","166911","167017","CS-FlankerTask","65","39878","77","yes","1024"
"84.61538461538461","84.61538461538461","517.6923076923077","517.6923076923077","black","legacy","legacy","legacy","0","congruent","uniform","1","undefined","1","h","77","0","0","0","77","0","77","0","77","0","0","0","77","77","77","77","Sun Sep 25 20:16:02 2022","1500","The main experiment item","yes","CS-Subject-1.osexp","C:/Users/cici_/Downloads","no","mono","no","18","no","white","no","yes","768","legacy","77","77","C:/Users/cici_/Downloads/M59-subject-3.csv","legacy","Lentiform Loewenfeld","3.3.12","0","h","NA","h","NA","NA","h","502","NA","25524","NA","NA","502","2","legacy","1024","2","48000","-16","experiment","HHHHH","3","odd","167473","28950","NA","NA","144615","3419","NA","NA","168575","3424","NA","NA","168677","169181","168571","168677","CS-FlankerTask","66","40380","78","yes","1024"
"84.81012658227849","84.81012658227849","518.873417721519","518.873417721519","black","legacy","legacy","legacy","0","incongruent","uniform","1","undefined","1","h","78","0","0","0","78","0","78","0","78","0","0","0","78","78","78","78","Sun Sep 25 20:16:02 2022","1500","The main experiment item","yes","CS-Subject-1.osexp","C:/Users/cici_/Downloads","no","mono","no","18","no","white","no","yes","768","legacy","78","78","C:/Users/cici_/Downloads/M59-subject-3.csv","legacy","Lentiform Loewenfeld","3.3.12","0","h","NA","h","NA","NA","h","611","NA","25524","NA","NA","611","2","legacy","1024","2","48000","-16","experiment","SSHSS","3","odd","169198","28950","NA","NA","144615","3419","NA","NA","170297","3424","NA","NA","170399","171011","170293","170399","CS-FlankerTask","67","40991","79","yes","1024"
"85","85","518.4625","518.4625","black","legacy","legacy","legacy","0","congruent","uniform","1","undefined","1","h","79","0","0","0","79","0","79","0","79","0","0","0","79","79","79","79","Sun Sep 25 20:16:02 2022","1500","The main experiment item","yes","CS-Subject-1.osexp","C:/Users/cici_/Downloads","no","mono","no","18","no","white","no","yes","768","legacy","79","79","C:/Users/cici_/Downloads/M59-subject-3.csv","legacy","Lentiform Loewenfeld","3.3.12","0","h","NA","h","NA","NA","h","486","NA","25524","NA","NA","486","2","legacy","1024","2","48000","-16","experiment","HHHHH","3","odd","171021","28950","NA","NA","144615","3419","NA","NA","172121","3424","NA","NA","172223","172710","172119","172223","CS-FlankerTask","68","41477","80","yes","1024"
"85.18518518518519","85.18518518518519","518.7530864197531","518.7530864197531","black","legacy","legacy","legacy","0","congruent","uniform","1","undefined","1","s","80","0","0","0","80","0","80","0","80","0","0","0","80","80","80","80","Sun Sep 25 20:16:02 2022","600","The main experiment item","yes","CS-Subject-1.osexp","C:/Users/cici_/Downloads","no","mono","no","18","no","white","no","yes","768","legacy","0","79","C:/Users/cici_/Downloads/M59-subject-3.csv","legacy","Lentiform Loewenfeld","3.3.12","0","s","NA","h","s","NA","s","542","NA","25524","22077","NA","542","2","legacy","1024","2","48000","-16","experiment","SSSSS","3","odd","172728","28950","195839","NA","144615","3419","NA","NA","195931","3424","173760","NA","196034","196578","195929","196033","CS-FlankerTask","69","42019","81","yes","1024"
"84.14634146341463","84.14634146341463","518.3170731707318","518.3170731707318","black","legacy","legacy","legacy","0","incongruent","uniform","0","undefined","0","s","81","0","0","0","81","0","81","0","81","0","0","0","81","81","81","81","Sun Sep 25 20:16:02 2022","600","The main experiment item","yes","CS-Subject-1.osexp","C:/Users/cici_/Downloads","no","mono","no","18","no","white","no","yes","768","legacy","1","79","C:/Users/cici_/Downloads/M59-subject-3.csv","legacy","Lentiform Loewenfeld","3.3.12","0","h","NA","h","s","NA","h","483","NA","25524","22077","NA","483","2","legacy","1024","2","48000","-16","experiment","HHSHH","3","odd","196595","28950","195839","NA","144615","3419","NA","NA","197695","3424","173760","NA","197797","198280","197691","197797","CS-FlankerTask","69","42502","82","yes","1024"
"83.13253012048193","83.13253012048193","518.4096385542168","518.4096385542168","black","legacy","legacy","legacy","0","incongruent","uniform","0","undefined","0","h","82","0","0","0","82","0","82","0","82","0","0","0","82","82","82","82","Sun Sep 25 20:16:02 2022","600","The main experiment item","yes","CS-Subject-1.osexp","C:/Users/cici_/Downloads","no","mono","no","18","no","white","no","yes","768","legacy","2","79","C:/Users/cici_/Downloads/M59-subject-3.csv","legacy","Lentiform Loewenfeld","3.3.12","0","s","NA","h","s","NA","s","526","NA","25524","22077","NA","526","2","legacy","1024","2","48000","-16","experiment","SSHSS","3","odd","198790","28950","195839","NA","198288","3419","NA","NA","199888","3424","173760","NA","199990","200518","199884","199990","CS-FlankerTask","69","43028","83","yes","1024"
"83.33333333333333","83.33333333333333","519.0952380952381","519.0952380952381","black","legacy","legacy","legacy","0","incongruent","uniform","1","undefined","1","s","83","0","0","0","83","0","83","0","83","0","0","0","83","83","83","83","Sun Sep 25 20:16:02 2022","600","The main experiment item","yes","CS-Subject-1.osexp","C:/Users/cici_/Downloads","no","mono","no","18","no","white","no","yes","768","legacy","3","79","C:/Users/cici_/Downloads/M59-subject-3.csv","legacy","Lentiform Loewenfeld","3.3.12","0","s","NA","h","s","NA","s","576","NA","25524","22077","NA","576","2","legacy","1024","2","48000","-16","experiment","HHSHH","3","odd","201037","28950","195839","NA","200535","3419","NA","NA","202136","3424","173760","NA","202238","202815","202132","202238","CS-FlankerTask","70","43604","84","yes","1024"
"83.52941176470588","83.52941176470588","519.1529411764706","519.1529411764706","black","legacy","legacy","legacy","0","congruent","uniform","1","undefined","1","s","84","0","0","0","84","0","84","0","84","0","0","0","84","84","84","84","Sun Sep 25 20:16:02 2022","600","The main experiment item","yes","CS-Subject-1.osexp","C:/Users/cici_/Downloads","no","mono","no","18","no","white","no","yes","768","legacy","4","79","C:/Users/cici_/Downloads/M59-subject-3.csv","legacy","Lentiform Loewenfeld","3.3.12","0","s","NA","h","s","NA","s","524","NA","25524","22077","NA","524","2","legacy","1024","2","48000","-16","experiment","SSSSS","3","odd","202832","28950","195839","NA","200535","3419","NA","NA","203931","3424","173760","NA","204034","204560","203928","204034","CS-FlankerTask","71","44128","85","yes","1024"
"83.72093023255815","83.72093023255815","517.5348837209302","517.5348837209302","black","legacy","legacy","legacy","0","congruent","uniform","1","undefined","1","h","85","0","0","0","85","0","85","0","85","0","0","0","85","85","85","85","Sun Sep 25 20:16:02 2022","600","The main experiment item","yes","CS-Subject-1.osexp","C:/Users/cici_/Downloads","no","mono","no","18","no","white","no","yes","768","legacy","5","79","C:/Users/cici_/Downloads/M59-subject-3.csv","legacy","Lentiform Loewenfeld","3.3.12","0","h","NA","h","s","NA","h","380","NA","25524","22077","NA","380","2","legacy","1024","2","48000","-16","experiment","HHHHH","3","odd","204577","28950","195839","NA","200535","3419","NA","NA","205688","3424","173760","NA","205791","206172","205685","205791","CS-FlankerTask","72","44508","86","yes","1024"
"83.9080459770115","83.9080459770115","516.6321839080459","516.6321839080459","black","legacy","legacy","legacy","0","congruent","uniform","1","undefined","1","h","86","0","0","0","86","0","86","0","86","0","0","0","86","86","86","86","Sun Sep 25 20:16:02 2022","600","The main experiment item","yes","CS-Subject-1.osexp","C:/Users/cici_/Downloads","no","mono","no","18","no","white","no","yes","768","legacy","6","79","C:/Users/cici_/Downloads/M59-subject-3.csv","legacy","Lentiform Loewenfeld","3.3.12","0","h","NA","h","s","NA","h","439","NA","25524","22077","NA","439","2","legacy","1024","2","48000","-16","experiment","HHHHH","3","odd","206189","28950","195839","NA","200535","3419","NA","NA","207289","3424","173760","NA","207391","207833","207285","207391","CS-FlankerTask","73","44947","87","yes","1024"
"84.0909090909091","84.0909090909091","515.6136363636364","515.6136363636364","black","legacy","legacy","legacy","0","congruent","uniform","1","undefined","1","s","87","0","0","0","87","0","87","0","87","0","0","0","87","87","87","87","Sun Sep 25 20:16:02 2022","600","The main experiment item","yes","CS-Subject-1.osexp","C:/Users/cici_/Downloads","no","mono","no","18","no","white","no","yes","768","legacy","7","79","C:/Users/cici_/Downloads/M59-subject-3.csv","legacy","Lentiform Loewenfeld","3.3.12","0","s","NA","h","s","NA","s","427","NA","25524","22077","NA","427","2","legacy","1024","2","48000","-16","experiment","SSSSS","3","odd","207840","28950","195839","NA","200535","3419","NA","NA","208947","3424","173760","NA","209050","209479","208943","209050","CS-FlankerTask","74","45374","88","yes","1024"
"84.26966292134831","84.26966292134831","514.2471910112359","514.2471910112359","black","legacy","legacy","legacy","0","congruent","uniform","1","undefined","1","s","88","0","0","0","88","0","88","0","88","0","0","0","88","88","88","88","Sun Sep 25 20:16:02 2022","600","The main experiment item","yes","CS-Subject-1.osexp","C:/Users/cici_/Downloads","no","mono","no","18","no","white","no","yes","768","legacy","8","79","C:/Users/cici_/Downloads/M59-subject-3.csv","legacy","Lentiform Loewenfeld","3.3.12","0","s","NA","h","s","NA","s","394","NA","25524","22077","NA","394","2","legacy","1024","2","48000","-16","experiment","SSSSS","3","odd","209485","28950","195839","NA","200535","3419","NA","NA","210585","3424","173760","NA","210687","211083","210581","210687","CS-FlankerTask","75","45768","89","yes","1024"
"83.33333333333333","83.33333333333333","512.9555555555555","512.9555555555555","black","legacy","legacy","legacy","0","incongruent","uniform","0","undefined","0","h","89","0","0","0","89","0","89","0","89","0","0","0","89","89","89","89","Sun Sep 25 20:16:02 2022","600","The main experiment item","yes","CS-Subject-1.osexp","C:/Users/cici_/Downloads","no","mono","no","18","no","white","no","yes","768","legacy","9","79","C:/Users/cici_/Downloads/M59-subject-3.csv","legacy","Lentiform Loewenfeld","3.3.12","0","s","NA","h","s","NA","s","398","NA","25524","22077","NA","398","2","legacy","1024","2","48000","-16","experiment","SSHSS","3","odd","211099","28950","195839","NA","200535","3419","NA","NA","212210","3424","173760","NA","212313","212713","212207","212313","CS-FlankerTask","75","46166","90","yes","1024"
"83.51648351648352","83.51648351648352","512.7912087912088","512.7912087912088","black","legacy","legacy","legacy","0","congruent","uniform","1","undefined","1","h","90","0","0","0","90","0","90","0","90","0","0","0","90","90","90","90","Sun Sep 25 20:16:02 2022","600","The main experiment item","yes","CS-Subject-1.osexp","C:/Users/cici_/Downloads","no","mono","no","18","no","white","no","yes","768","legacy","10","79","C:/Users/cici_/Downloads/M59-subject-3.csv","legacy","Lentiform Loewenfeld","3.3.12","0","h","NA","h","s","NA","h","498","NA","25524","22077","NA","498","2","legacy","1024","2","48000","-16","experiment","HHHHH","3","odd","213232","28950","195839","NA","212730","3419","NA","NA","214336","3424","173760","NA","214439","214939","214333","214439","CS-FlankerTask","76","46664","91","yes","1024"
"82.6086956521739","82.6086956521739","512.4565217391304","512.4565217391304","black","legacy","legacy","legacy","0","incongruent","uniform","0","undefined","0","h","91","0","0","0","91","0","91","0","91","0","0","0","91","91","91","91","Sun Sep 25 20:16:02 2022","600","The main experiment item","yes","CS-Subject-1.osexp","C:/Users/cici_/Downloads","no","mono","no","18","no","white","no","yes","768","legacy","11","79","C:/Users/cici_/Downloads/M59-subject-3.csv","legacy","Lentiform Loewenfeld","3.3.12","0","s","NA","h","s","NA","s","482","NA","25524","22077","NA","482","2","legacy","1024","2","48000","-16","experiment","SSHSS","3","odd","214956","28950","195839","NA","212730","3419","NA","NA","216052","3424","173760","NA","216155","216639","216048","216155","CS-FlankerTask","76","47146","92","yes","1024"
"82.79569892473118","82.79569892473118","511.752688172043","511.752688172043","black","legacy","legacy","legacy","0","congruent","uniform","1","undefined","1","h","92","0","0","0","92","0","92","0","92","0","0","0","92","92","92","92","Sun Sep 25 20:16:02 2022","600","The main experiment item","yes","CS-Subject-1.osexp","C:/Users/cici_/Downloads","no","mono","no","18","no","white","no","yes","768","legacy","12","79","C:/Users/cici_/Downloads/M59-subject-3.csv","legacy","Lentiform Loewenfeld","3.3.12","0","h","NA","h","s","NA","h","447","NA","25524","22077","NA","447","2","legacy","1024","2","48000","-16","experiment","HHHHH","3","odd","217158","28950","195839","NA","216656","3419","NA","NA","218253","3424","173760","NA","218355","218803","218249","218355","CS-FlankerTask","77","47593","93","yes","1024"
"81.91489361702128","81.91489361702128","510.5744680851064","510.5744680851064","black","legacy","legacy","legacy","0","incongruent","uniform","0","undefined","0","s","93","0","0","0","93","0","93","0","93","0","0","0","93","93","93","93","Sun Sep 25 20:16:02 2022","600","The main experiment item","yes","CS-Subject-1.osexp","C:/Users/cici_/Downloads","no","mono","no","18","no","white","no","yes","768","legacy","13","79","C:/Users/cici_/Downloads/M59-subject-3.csv","legacy","Lentiform Loewenfeld","3.3.12","0","h","NA","h","s","NA","h","401","NA","25524","22077","NA","401","2","legacy","1024","2","48000","-16","experiment","HHSHH","3","odd","218819","28950","195839","NA","216656","3419","NA","NA","219918","3424","173760","NA","220020","220422","219913","220020","CS-FlankerTask","77","47994","94","yes","1024"
"82.10526315789474","82.10526315789474","510.09473684210525","510.09473684210525","black","legacy","legacy","legacy","0","incongruent","uniform","1","undefined","1","s","94","0","0","0","94","0","94","0","94","0","0","0","94","94","94","94","Sun Sep 25 20:16:02 2022","600","The main experiment item","yes","CS-Subject-1.osexp","C:/Users/cici_/Downloads","no","mono","no","18","no","white","no","yes","768","legacy","14","79","C:/Users/cici_/Downloads/M59-subject-3.csv","legacy","Lentiform Loewenfeld","3.3.12","0","s","NA","h","s","NA","s","465","NA","25524","22077","NA","465","2","legacy","1024","2","48000","-16","experiment","HHSHH","3","odd","220942","28950","195839","NA","220440","3419","NA","NA","222037","3424","173760","NA","222139","222606","222034","222139","CS-FlankerTask","78","48459","95","yes","1024"
"82.29166666666667","82.29166666666667","510.3645833333333","510.3645833333333","black","legacy","legacy","legacy","0","incongruent","uniform","1","undefined","1","s","95","0","0","0","95","0","95","0","95","0","0","0","95","95","95","95","Sun Sep 25 20:16:02 2022","600","The main experiment item","yes","CS-Subject-1.osexp","C:/Users/cici_/Downloads","no","mono","no","18","no","white","no","yes","768","legacy","15","79","C:/Users/cici_/Downloads/M59-subject-3.csv","legacy","Lentiform Loewenfeld","3.3.12","0","s","NA","h","s","NA","s","536","NA","25524","22077","NA","536","2","legacy","1024","2","48000","-16","experiment","HHSHH","3","odd","222622","28950","195839","NA","220440","3419","NA","NA","223718","3424","173760","NA","223820","224357","223714","223820","CS-FlankerTask","79","48995","96","yes","1024"
"82.47422680412372","82.47422680412372","508.91752577319585","508.91752577319585","black","legacy","legacy","legacy","0","congruent","uniform","1","undefined","1","h","96","0","0","0","96","0","96","0","96","0","0","0","96","96","96","96","Sun Sep 25 20:16:02 2022","600","The main experiment item","yes","CS-Subject-1.osexp","C:/Users/cici_/Downloads","no","mono","no","18","no","white","no","yes","768","legacy","16","79","C:/Users/cici_/Downloads/M59-subject-3.csv","legacy","Lentiform Loewenfeld","3.3.12","0","h","NA","h","s","NA","h","370","NA","25524","22077","NA","370","2","legacy","1024","2","48000","-16","experiment","HHHHH","3","odd","224365","28950","195839","NA","220440","3419","NA","NA","225466","3424","173760","NA","225568","225941","225462","225568","CS-FlankerTask","80","49365","97","yes","1024"
"82.65306122448979","82.65306122448979","509.5816326530612","509.5816326530612","black","legacy","legacy","legacy","0","incongruent","uniform","1","undefined","1","h","97","0","0","0","97","0","97","0","97","0","0","0","97","97","97","97","Sun Sep 25 20:16:02 2022","600","The main experiment item","yes","CS-Subject-1.osexp","C:/Users/cici_/Downloads","no","mono","no","18","no","white","no","yes","768","legacy","17","79","C:/Users/cici_/Downloads/M59-subject-3.csv","legacy","Lentiform Loewenfeld","3.3.12","0","h","NA","h","s","NA","h","574","NA","25524","22077","NA","574","2","legacy","1024","2","48000","-16","experiment","SSHSS","3","odd","225956","28950","195839","NA","220440","3419","NA","NA","227051","3424","173760","NA","227153","227728","227047","227153","CS-FlankerTask","81","49939","98","yes","1024"
"81.81818181818181","81.81818181818181","509.67676767676767","509.67676767676767","black","legacy","legacy","legacy","0","incongruent","uniform","0","undefined","0","h","98","0","0","0","98","0","98","0","98","0","0","0","98","98","98","98","Sun Sep 25 20:16:02 2022","600","The main experiment item","yes","CS-Subject-1.osexp","C:/Users/cici_/Downloads","no","mono","no","18","no","white","no","yes","768","legacy","18","79","C:/Users/cici_/Downloads/M59-subject-3.csv","legacy","Lentiform Loewenfeld","3.3.12","0","s","NA","h","s","NA","s","519","NA","25524","22077","NA","519","2","legacy","1024","2","48000","-16","experiment","SSHSS","3","odd","227745","28950","195839","NA","220440","3419","NA","NA","228848","3424","173760","NA","228950","229471","228845","228950","CS-FlankerTask","81","50458","99","yes","1024"
"82","82","509.87","509.87","black","legacy","legacy","legacy","0","incongruent","uniform","1","undefined","1","s","99","0","0","0","99","0","99","0","99","0","0","0","99","99","99","99","Sun Sep 25 20:16:02 2022","600","The main experiment item","yes","CS-Subject-1.osexp","C:/Users/cici_/Downloads","no","mono","no","18","no","white","no","yes","768","legacy","19","79","C:/Users/cici_/Downloads/M59-subject-3.csv","legacy","Lentiform Loewenfeld","3.3.12","0","s","NA","h","s","NA","s","529","NA","25524","22077","NA","529","2","legacy","1024","2","48000","-16","experiment","HHSHH","3","odd","229990","28950","195839","NA","229487","3419","NA","NA","231083","3424","173760","NA","231185","231716","231079","231185","CS-FlankerTask","82","50987","100","yes","1024"
"82.17821782178218","82.17821782178218","509.5940594059406","509.5940594059406","black","legacy","legacy","legacy","0","incongruent","uniform","1","undefined","1","s","100","0","0","0","100","0","100","0","100","0","0","0","100","100","100","100","Sun Sep 25 20:16:02 2022","600","The main experiment item","yes","CS-Subject-1.osexp","C:/Users/cici_/Downloads","no","mono","no","18","no","white","no","yes","768","legacy","20","79","C:/Users/cici_/Downloads/M59-subject-3.csv","legacy","Lentiform Loewenfeld","3.3.12","0","s","NA","h","s","NA","s","482","NA","25524","22077","NA","482","2","legacy","1024","2","48000","-16","experiment","HHSHH","3","odd","231733","28950","195839","NA","229487","3419","NA","NA","232832","3424","173760","NA","232934","233417","232827","232934","CS-FlankerTask","83","51469","101","yes","1024"
"82.3529411764706","82.3529411764706","511.7647058823529","511.7647058823529","black","legacy","legacy","legacy","0","congruent","uniform","1","undefined","1","h","101","0","0","0","101","0","101","0","101","0","0","0","101","101","101","101","Sun Sep 25 20:16:02 2022","600","The main experiment item","yes","CS-Subject-1.osexp","C:/Users/cici_/Downloads","no","mono","no","18","no","white","no","yes","768","legacy","21","79","C:/Users/cici_/Downloads/M59-subject-3.csv","legacy","Lentiform Loewenfeld","3.3.12","0","h","NA","h","s","NA","h","731","NA","25524","22077","NA","731","2","legacy","1024","2","48000","-16","experiment","HHHHH","3","odd","233435","28950","195839","NA","229487","3419","NA","NA","234570","3424","173760","NA","234672","235405","234566","234672","CS-FlankerTask","84","52200","102","yes","1024"
"82.52427184466019","82.52427184466019","511.5145631067961","511.5145631067961","black","legacy","legacy","legacy","0","congruent","uniform","1","undefined","1","h","102","0","0","0","102","0","102","0","102","0","0","0","102","102","102","102","Sun Sep 25 20:16:02 2022","600","The main experiment item","yes","CS-Subject-1.osexp","C:/Users/cici_/Downloads","no","mono","no","18","no","white","no","yes","768","legacy","22","79","C:/Users/cici_/Downloads/M59-subject-3.csv","legacy","Lentiform Loewenfeld","3.3.12","0","h","NA","h","s","NA","h","486","NA","25524","22077","NA","486","2","legacy","1024","2","48000","-16","experiment","HHHHH","3","odd","235915","28950","195839","NA","229487","3419","235412","NA","237020","3424","173760","NA","237122","237611","237016","237122","CS-FlankerTask","85","52686","103","yes","1024"
"81.73076923076923","81.73076923076923","510.50961538461536","510.50961538461536","black","legacy","legacy","legacy","0","incongruent","uniform","0","undefined","0","s","103","0","0","0","103","0","103","0","103","0","0","0","103","103","103","103","Sun Sep 25 20:16:02 2022","600","The main experiment item","yes","CS-Subject-1.osexp","C:/Users/cici_/Downloads","no","mono","no","18","no","white","no","yes","768","legacy","23","79","C:/Users/cici_/Downloads/M59-subject-3.csv","legacy","Lentiform Loewenfeld","3.3.12","0","h","NA","h","s","NA","h","407","NA","25524","22077","NA","407","2","legacy","1024","2","48000","-16","experiment","HHSHH","3","odd","237617","28950","195839","NA","229487","3419","235412","NA","238731","3424","173760","NA","238832","239241","238727","238832","CS-FlankerTask","85","53093","104","yes","1024"
"81.9047619047619","81.9047619047619","510.0761904761905","510.0761904761905","black","legacy","legacy","legacy","0","congruent","uniform","1","undefined","1","h","104","0","0","0","104","0","104","0","104","0","0","0","104","104","104","104","Sun Sep 25 20:16:02 2022","600","The main experiment item","yes","CS-Subject-1.osexp","C:/Users/cici_/Downloads","no","mono","no","18","no","white","no","yes","768","legacy","24","79","C:/Users/cici_/Downloads/M59-subject-3.csv","legacy","Lentiform Loewenfeld","3.3.12","0","h","NA","h","s","NA","h","465","NA","25524","22077","NA","465","2","legacy","1024","2","48000","-16","experiment","HHHHH","3","odd","239750","28950","195839","NA","239248","3419","235412","NA","240860","3424","173760","NA","240962","241430","240857","240962","CS-FlankerTask","86","53558","105","yes","1024"
"82.0754716981132","82.0754716981132","510.10377358490564","510.10377358490564","black","legacy","legacy","legacy","0","congruent","uniform","1","undefined","1","s","105","0","0","0","105","0","105","0","105","0","0","0","105","105","105","105","Sun Sep 25 20:16:02 2022","600","The main experiment item","yes","CS-Subject-1.osexp","C:/Users/cici_/Downloads","no","mono","no","18","no","white","no","yes","768","legacy","25","79","C:/Users/cici_/Downloads/M59-subject-3.csv","legacy","Lentiform Loewenfeld","3.3.12","0","s","NA","h","s","NA","s","513","NA","25524","22077","NA","513","2","legacy","1024","2","48000","-16","experiment","SSSSS","3","odd","241446","28950","195839","NA","239248","3419","235412","NA","242549","3424","173760","NA","242651","243166","242546","242651","CS-FlankerTask","87","54071","106","yes","1024"
"82.24299065420561","82.24299065420561","509.50467289719626","509.50467289719626","black","legacy","legacy","legacy","0","incongruent","uniform","1","undefined","1","h","106","0","0","0","106","0","106","0","106","0","0","0","106","106","106","106","Sun Sep 25 20:16:02 2022","600","The main experiment item","yes","CS-Subject-1.osexp","C:/Users/cici_/Downloads","no","mono","no","18","no","white","no","yes","768","legacy","26","79","C:/Users/cici_/Downloads/M59-subject-3.csv","legacy","Lentiform Loewenfeld","3.3.12","0","h","NA","h","s","NA","h","446","NA","25524","22077","NA","446","2","legacy","1024","2","48000","-16","experiment","SSHSS","3","odd","243180","28950","195839","NA","239248","3419","235412","NA","244283","3424","173760","NA","244385","244833","244280","244385","CS-FlankerTask","88","54517","107","yes","1024"
"82.4074074074074","82.4074074074074","510.037037037037","510.037037037037","black","legacy","legacy","legacy","0","incongruent","uniform","1","undefined","1","h","107","0","0","0","107","0","107","0","107","0","0","0","107","107","107","107","Sun Sep 25 20:16:02 2022","600","The main experiment item","yes","CS-Subject-1.osexp","C:/Users/cici_/Downloads","no","mono","no","18","no","white","no","yes","768","legacy","27","79","C:/Users/cici_/Downloads/M59-subject-3.csv","legacy","Lentiform Loewenfeld","3.3.12","0","h","NA","h","s","NA","h","567","NA","25524","22077","NA","567","2","legacy","1024","2","48000","-16","experiment","SSHSS","3","odd","244843","28950","195839","NA","239248","3419","235412","NA","245944","3424","173760","NA","246047","246615","245941","246047","CS-FlankerTask","89","55084","108","yes","1024"
"82.56880733944953","82.56880733944953","508.95412844036696","508.95412844036696","black","legacy","legacy","legacy","0","congruent","uniform","1","undefined","1","s","108","0","0","0","108","0","108","0","108","0","0","0","108","108","108","108","Sun Sep 25 20:16:02 2022","600","The main experiment item","yes","CS-Subject-1.osexp","C:/Users/cici_/Downloads","no","mono","no","18","no","white","no","yes","768","legacy","28","79","C:/Users/cici_/Downloads/M59-subject-3.csv","legacy","Lentiform Loewenfeld","3.3.12","0","s","NA","h","s","NA","s","392","NA","25524","22077","NA","392","2","legacy","1024","2","48000","-16","experiment","SSSSS","3","odd","246621","28950","195839","NA","239248","3419","235412","NA","247728","3424","173760","NA","247830","248225","247724","247830","CS-FlankerTask","90","55476","109","yes","1024"
"82.72727272727273","82.72727272727273","508.3909090909091","508.3909090909091","black","legacy","legacy","legacy","0","congruent","uniform","1","undefined","1","s","109","0","0","0","109","0","109","0","109","0","0","0","109","109","109","109","Sun Sep 25 20:16:02 2022","600","The main experiment item","yes","CS-Subject-1.osexp","C:/Users/cici_/Downloads","no","mono","no","18","no","white","no","yes","768","legacy","29","79","C:/Users/cici_/Downloads/M59-subject-3.csv","legacy","Lentiform Loewenfeld","3.3.12","0","s","NA","h","s","NA","s","447","NA","25524","22077","NA","447","2","legacy","1024","2","48000","-16","experiment","SSSSS","3","odd","248243","28950","195839","NA","239248","3419","235412","NA","249344","3424","173760","NA","249445","249894","249340","249445","CS-FlankerTask","91","55923","110","yes","1024"
"82.88288288288288","82.88288288288288","509.7477477477477","509.7477477477477","black","legacy","legacy","legacy","0","incongruent","uniform","1","undefined","1","s","110","0","0","0","110","0","110","0","110","0","0","0","110","110","110","110","Sun Sep 25 20:16:02 2022","600","The main experiment item","yes","CS-Subject-1.osexp","C:/Users/cici_/Downloads","no","mono","no","18","no","white","no","yes","768","legacy","30","79","C:/Users/cici_/Downloads/M59-subject-3.csv","legacy","Lentiform Loewenfeld","3.3.12","0","s","NA","h","s","NA","s","659","NA","25524","22077","NA","659","2","legacy","1024","2","48000","-16","experiment","HHSHH","3","odd","249911","28950","195839","NA","239248","3419","235412","NA","251012","3424","173760","NA","251114","251775","251007","251114","CS-FlankerTask","92","56582","111","yes","1024"
"82.14285714285714","82.14285714285714","509.5892857142857","509.5892857142857","black","legacy","legacy","legacy","0","incongruent","uniform","0","undefined","0","s","111","0","0","0","111","0","111","0","111","0","0","0","111","111","111","111","Sun Sep 25 20:16:02 2022","600","The main experiment item","yes","CS-Subject-1.osexp","C:/Users/cici_/Downloads","no","mono","no","18","no","white","no","yes","768","legacy","31","79","C:/Users/cici_/Downloads/M59-subject-3.csv","legacy","Lentiform Loewenfeld","3.3.12","0","h","NA","h","s","NA","h","492","NA","25524","22077","NA","492","2","legacy","1024","2","48000","-16","experiment","HHSHH","3","odd","252294","28950","195839","NA","239248","3419","251792","NA","253391","3424","173760","NA","253493","253987","253387","253493","CS-FlankerTask","92","57074","112","yes","1024"
"82.30088495575221","82.30088495575221","510.23893805309734","510.23893805309734","black","legacy","legacy","legacy","0","incongruent","uniform","1","undefined","1","h","112","0","0","0","112","0","112","0","112","0","0","0","112","112","112","112","Sun Sep 25 20:16:02 2022","600","The main experiment item","yes","CS-Subject-1.osexp","C:/Users/cici_/Downloads","no","mono","no","18","no","white","no","yes","768","legacy","32","79","C:/Users/cici_/Downloads/M59-subject-3.csv","legacy","Lentiform Loewenfeld","3.3.12","0","h","NA","h","s","NA","h","583","NA","25524","22077","NA","583","2","legacy","1024","2","48000","-16","experiment","SSHSS","3","odd","254496","28950","195839","NA","253994","3419","251792","NA","255614","3424","173760","NA","255717","256302","255611","255717","CS-FlankerTask","93","57657","113","yes","1024"
"82.45614035087719","82.45614035087719","510.67543859649123","510.67543859649123","black","legacy","legacy","legacy","0","incongruent","uniform","1","undefined","1","s","113","0","0","0","113","0","113","0","113","0","0","0","113","113","113","113","Sun Sep 25 20:16:02 2022","600","The main experiment item","yes","CS-Subject-1.osexp","C:/Users/cici_/Downloads","no","mono","no","18","no","white","no","yes","768","legacy","33","79","C:/Users/cici_/Downloads/M59-subject-3.csv","legacy","Lentiform Loewenfeld","3.3.12","0","s","NA","h","s","NA","s","560","NA","25524","22077","NA","560","2","legacy","1024","2","48000","-16","experiment","HHSHH","3","odd","256308","28950","195839","NA","253994","3419","251792","NA","257408","3424","173760","NA","257510","258072","257404","257510","CS-FlankerTask","94","58217","114","yes","1024"
"82.6086956521739","82.6086956521739","510.37391304347824","510.37391304347824","black","legacy","legacy","legacy","0","incongruent","uniform","1","undefined","1","h","114","0","0","0","114","0","114","0","114","0","0","0","114","114","114","114","Sun Sep 25 20:16:02 2022","600","The main experiment item","yes","CS-Subject-1.osexp","C:/Users/cici_/Downloads","no","mono","no","18","no","white","no","yes","768","legacy","34","79","C:/Users/cici_/Downloads/M59-subject-3.csv","legacy","Lentiform Loewenfeld","3.3.12","0","h","NA","h","s","NA","h","476","NA","25524","22077","NA","476","2","legacy","1024","2","48000","-16","experiment","SSHSS","3","odd","258080","28950","195839","NA","253994","3419","251792","NA","259193","3424","173760","NA","259295","259773","259190","259294","CS-FlankerTask","95","58693","115","yes","1024"
"82.75862068965517","82.75862068965517","510.0086206896552","510.0086206896552","black","legacy","legacy","legacy","0","congruent","uniform","1","undefined","1","s","115","0","0","0","115","0","115","0","115","0","0","0","115","115","115","115","Sun Sep 25 20:16:02 2022","600","The main experiment item","yes","CS-Subject-1.osexp","C:/Users/cici_/Downloads","no","mono","no","18","no","white","no","yes","768","legacy","35","79","C:/Users/cici_/Downloads/M59-subject-3.csv","legacy","Lentiform Loewenfeld","3.3.12","0","s","NA","h","s","NA","s","468","NA","25524","22077","NA","468","2","legacy","1024","2","48000","-16","experiment","SSSSS","3","odd","259786","28950","195839","NA","253994","3419","251792","NA","260898","3424","173760","NA","261000","261470","260895","261000","CS-FlankerTask","96","59161","116","yes","1024"
"82.90598290598291","82.90598290598291","509.6837606837607","509.6837606837607","black","legacy","legacy","legacy","0","congruent","uniform","1","undefined","1","h","116","0","0","0","116","0","116","0","116","0","0","0","116","116","116","116","Sun Sep 25 20:16:02 2022","600","The main experiment item","yes","CS-Subject-1.osexp","C:/Users/cici_/Downloads","no","mono","no","18","no","white","no","yes","768","legacy","36","79","C:/Users/cici_/Downloads/M59-subject-3.csv","legacy","Lentiform Loewenfeld","3.3.12","0","h","NA","h","s","NA","h","472","NA","25524","22077","NA","472","2","legacy","1024","2","48000","-16","experiment","HHHHH","3","odd","261488","28950","195839","NA","253994","3419","251792","NA","262608","3424","173760","NA","262710","263185","262605","262710","CS-FlankerTask","97","59633","117","yes","1024"
"83.05084745762711","83.05084745762711","510.46610169491527","510.46610169491527","black","legacy","legacy","legacy","0","incongruent","uniform","1","undefined","1","h","117","0","0","0","117","0","117","0","117","0","0","0","117","117","117","117","Sun Sep 25 20:16:02 2022","600","The main experiment item","yes","CS-Subject-1.osexp","C:/Users/cici_/Downloads","no","mono","no","18","no","white","no","yes","768","legacy","37","79","C:/Users/cici_/Downloads/M59-subject-3.csv","legacy","Lentiform Loewenfeld","3.3.12","0","h","NA","h","s","NA","h","602","NA","25524","22077","NA","602","2","legacy","1024","2","48000","-16","experiment","SSHSS","3","odd","263192","28950","195839","NA","253994","3419","251792","NA","264294","3424","173760","NA","264396","265001","264291","264396","CS-FlankerTask","98","60235","118","yes","1024"
"83.19327731092437","83.19327731092437","509.2857142857143","509.2857142857143","black","legacy","legacy","legacy","0","congruent","uniform","1","undefined","1","s","118","0","0","0","118","0","118","0","118","0","0","0","118","118","118","118","Sun Sep 25 20:16:02 2022","600","The main experiment item","yes","CS-Subject-1.osexp","C:/Users/cici_/Downloads","no","mono","no","18","no","white","no","yes","768","legacy","38","79","C:/Users/cici_/Downloads/M59-subject-3.csv","legacy","Lentiform Loewenfeld","3.3.12","0","s","NA","h","s","NA","s","370","NA","25524","22077","NA","370","2","legacy","1024","2","48000","-16","experiment","SSSSS","3","odd","265521","28950","195839","NA","253994","3419","265018","NA","266616","3424","173760","NA","266718","267089","266613","266718","CS-FlankerTask","99","60605","119","yes","1024"
"83.33333333333333","83.33333333333333","509.19166666666666","509.19166666666666","black","legacy","legacy","legacy","0","congruent","uniform","1","undefined","1","s","119","0","0","0","119","0","119","0","119","0","0","0","119","119","119","119","Sun Sep 25 20:16:02 2022","600","The main experiment item","yes","CS-Subject-1.osexp","C:/Users/cici_/Downloads","no","mono","no","18","no","white","no","yes","768","legacy","39","79","C:/Users/cici_/Downloads/M59-subject-3.csv","legacy","Lentiform Loewenfeld","3.3.12","0","s","NA","h","s","NA","s","498","NA","25524","22077","NA","498","2","legacy","1024","2","48000","-16","experiment","SSSSS","3","odd","267107","28950","195839","NA","253994","3419","265018","NA","268208","3424","173760","NA","268310","268810","268204","268310","CS-FlankerTask","100","61103","120","yes","1024"
"83.47107438016529","83.47107438016529","509.0495867768595","509.0495867768595","black","legacy","legacy","legacy","0","congruent","uniform","1","undefined","1","h","120","0","0","0","120","0","120","0","120","0","0","0","120","120","120","120","Sun Sep 25 20:16:02 2022","600","The main experiment item","yes","CS-Subject-1.osexp","C:/Users/cici_/Downloads","no","mono","no","18","no","white","no","yes","768","legacy","40","79","C:/Users/cici_/Downloads/M59-subject-3.csv","legacy","Lentiform Loewenfeld","3.3.12","0","h","NA","h","s","NA","h","492","NA","25524","22077","NA","492","2","legacy","1024","2","48000","-16","experiment","HHHHH","3","odd","268816","28950","195839","NA","253994","3419","265018","NA","269916","3424","173760","NA","270018","270511","269913","270018","CS-FlankerTask","101","61595","121","yes","1024"
"83.60655737704919","83.60655737704919","508.04918032786884","508.04918032786884","black","legacy","legacy","legacy","0","congruent","uniform","1","undefined","1","s","121","0","0","0","121","0","121","0","121","0","0","0","121","121","121","121","Sun Sep 25 20:16:02 2022","600","The main experiment item","yes","CS-Subject-1.osexp","C:/Users/cici_/Downloads","no","mono","no","18","no","white","no","yes","768","legacy","41","79","C:/Users/cici_/Downloads/M59-subject-3.csv","legacy","Lentiform Loewenfeld","3.3.12","0","s","NA","h","s","NA","s","387","NA","25524","22077","NA","387","2","legacy","1024","2","48000","-16","experiment","SSSSS","3","odd","270528","28950","195839","NA","253994","3419","265018","NA","271627","3424","173760","NA","271729","272118","271623","271729","CS-FlankerTask","102","61982","122","yes","1024"
