acc,accuracy,average_response_time,avg_rt,background,canvas_backend,clock_backend,color_backend,compensation,condition,coordinates,correct,correct_instruction1,correct_keybordresponse,correct_response,count_Block1,count_Block2,count_Block3,count_errorfeedback,count_experiment,count_faster,count_finish,count_fixation,count_instruction1,count_instructions2,count_instructions3,count_isi,count_keybordresponse,count_logger,count_sequence,count_stimulus,datetime,deadline,description,disable_garbage_collection,experiment_file,experiment_path,font_bold,font_family,font_italic,font_size,font_underline,foreground,form_clicks,fullscreen,height,keyboard_backend,live_row,live_row_Block1,logfile,mouse_backend,opensesame_codename,opensesame_version,repeat_cycle,response,response_finish,response_instruction1,response_instructions2,response_instructions3,response_keybordresponse,response_time,response_time_finish,response_time_instruction1,response_time_instructions2,response_time_instructions3,response_time_keybordresponse,round_decimals,sampler_backend,sound_buf_size,sound_channels,sound_freq,sound_sample_size,start,stimulus,subject_nr,subject_parity,time_Block1,time_Block2,time_Block3,time_errorfeedback,time_experiment,time_faster,time_finish,time_fixation,time_instruction1,time_instructions2,time_instructions3,time_isi,time_keybordresponse,time_logger,time_sequence,time_stimulus,title,total_correct,total_response_time,total_responses,uniform_coordinates,width
100,100,1181,1181,black,legacy,legacy,legacy,0,congruent,uniform,1,undefined,1,s,0,0,0,0,0,0,0,0,0,0,0,0,0,0,0,0,Fri Sep 25 23:35:07 2020,1500,The main experiment item,yes,FlankerTask.osexp,C:\Users\katri\OneDrive\Documents\Fall 2020\Flanker Test,no,mono,no,18,no,white,no,yes,768,legacy,0,0,C:/Users/katri/OneDrive/Documents/Fall 2020/Flanker Test/subject-3.csv,legacy,Lentiform Loewenfeld,3.3.3,0,s,NA,s,NA,NA,s,1181,NA,2939,NA,NA,1181,2,legacy,1024,2,48000,-16,experiment,SSSSS,3,odd,4760,NA,NA,NA,1812,NA,NA,4817,1820,NA,NA,NA,4922,6104,4815,4922,Flanker Task,1,1181,1,yes,1024
100,100,860.5,860.5,black,legacy,legacy,legacy,0,incongrunet,uniform,1,undefined,1,h,0,0,0,1,0,1,0,1,0,0,0,1,1,1,1,1,Fri Sep 25 23:35:07 2020,1500,The main experiment item,yes,FlankerTask.osexp,C:\Users\katri\OneDrive\Documents\Fall 2020\Flanker Test,no,mono,no,18,no,white,no,yes,768,legacy,1,1,C:/Users/katri/OneDrive/Documents/Fall 2020/Flanker Test/subject-3.csv,legacy,Lentiform Loewenfeld,3.3.3,0,h,NA,s,NA,NA,h,540,NA,2939,NA,NA,540,2,legacy,1024,2,48000,-16,experiment,SSHSS,3,odd,4760,NA,NA,NA,1812,NA,NA,7191,1820,NA,NA,6129,7296,7836,7189,7295,Flanker Task,2,1721,2,yes,1024
100,100,787.6666667,787.6666667,black,legacy,legacy,legacy,0,incongruent,uniform,1,undefined,1,s,0,0,0,2,0,2,0,2,0,0,0,2,2,2,2,2,Fri Sep 25 23:35:07 2020,1500,The main experiment item,yes,FlankerTask.osexp,C:\Users\katri\OneDrive\Documents\Fall 2020\Flanker Test,no,mono,no,18,no,white,no,yes,768,legacy,2,2,C:/Users/katri/OneDrive/Documents/Fall 2020/Flanker Test/subject-3.csv,legacy,Lentiform Loewenfeld,3.3.3,0,s,NA,s,NA,NA,s,642,NA,2939,NA,NA,642,2,legacy,1024,2,48000,-16,experiment,HHSHH,3,odd,4760,NA,NA,NA,1812,NA,NA,8912,1820,NA,NA,7844,9016,9659,8910,9016,Flanker Task,3,2363,3,yes,1024
100,100,737,737,black,legacy,legacy,legacy,0,incongrunet,uniform,1,undefined,1,h,0,0,0,3,0,3,0,3,0,0,0,3,3,3,3,3,Fri Sep 25 23:35:07 2020,1500,The main experiment item,yes,FlankerTask.osexp,C:\Users\katri\OneDrive\Documents\Fall 2020\Flanker Test,no,mono,no,18,no,white,no,yes,768,legacy,3,3,C:/Users/katri/OneDrive/Documents/Fall 2020/Flanker Test/subject-3.csv,legacy,Lentiform Loewenfeld,3.3.3,0,h,NA,s,NA,NA,h,585,NA,2939,NA,NA,585,2,legacy,1024,2,48000,-16,experiment,SSHSS,3,odd,4760,NA,NA,NA,1812,NA,NA,10745,1820,NA,NA,9683,10850,11435,10743,10849,Flanker Task,4,2948,4,yes,1024
100,100,693.8,693.8,black,legacy,legacy,legacy,0,incongrunet,uniform,1,undefined,1,h,0,0,0,4,0,4,0,4,0,0,0,4,4,4,4,4,Fri Sep 25 23:35:07 2020,1500,The main experiment item,yes,FlankerTask.osexp,C:\Users\katri\OneDrive\Documents\Fall 2020\Flanker Test,no,mono,no,18,no,white,no,yes,768,legacy,4,4,C:/Users/katri/OneDrive/Documents/Fall 2020/Flanker Test/subject-3.csv,legacy,Lentiform Loewenfeld,3.3.3,0,h,NA,s,NA,NA,h,521,NA,2939,NA,NA,521,2,legacy,1024,2,48000,-16,experiment,SSHSS,3,odd,4760,NA,NA,NA,1812,NA,NA,12504,1820,NA,NA,11442,12609,13130,12502,12608,Flanker Task,5,3469,5,yes,1024
100,100,661.1666667,661.1666667,black,legacy,legacy,legacy,0,congruent,uniform,1,undefined,1,h,0,0,0,5,0,5,0,5,0,0,0,5,5,5,5,5,Fri Sep 25 23:35:07 2020,1500,The main experiment item,yes,FlankerTask.osexp,C:\Users\katri\OneDrive\Documents\Fall 2020\Flanker Test,no,mono,no,18,no,white,no,yes,768,legacy,5,5,C:/Users/katri/OneDrive/Documents/Fall 2020/Flanker Test/subject-3.csv,legacy,Lentiform Loewenfeld,3.3.3,0,h,NA,s,NA,NA,h,498,NA,2939,NA,NA,498,2,legacy,1024,2,48000,-16,experiment,HHHHH,3,odd,4760,NA,NA,NA,1812,NA,NA,14216,1820,NA,NA,13154,14321,14820,14214,14320,Flanker Task,6,3967,6,yes,1024
100,100,643.7142857,643.7142857,black,legacy,legacy,legacy,0,congruent,uniform,1,undefined,1,s,0,0,0,6,0,6,0,6,0,0,0,6,6,6,6,6,Fri Sep 25 23:35:07 2020,1500,The main experiment item,yes,FlankerTask.osexp,C:\Users\katri\OneDrive\Documents\Fall 2020\Flanker Test,no,mono,no,18,no,white,no,yes,768,legacy,6,6,C:/Users/katri/OneDrive/Documents/Fall 2020/Flanker Test/subject-3.csv,legacy,Lentiform Loewenfeld,3.3.3,0,s,NA,s,NA,NA,s,539,NA,2939,NA,NA,539,2,legacy,1024,2,48000,-16,experiment,SSSSS,3,odd,4760,NA,NA,NA,1812,NA,NA,15889,1820,NA,NA,14827,15990,16530,15887,15990,Flanker Task,7,4506,7,yes,1024
100,100,618.875,618.875,black,legacy,legacy,legacy,0,congruent,uniform,1,undefined,1,h,0,0,0,7,0,7,0,7,0,0,0,7,7,7,7,7,Fri Sep 25 23:35:07 2020,1500,The main experiment item,yes,FlankerTask.osexp,C:\Users\katri\OneDrive\Documents\Fall 2020\Flanker Test,no,mono,no,18,no,white,no,yes,768,legacy,7,7,C:/Users/katri/OneDrive/Documents/Fall 2020/Flanker Test/subject-3.csv,legacy,Lentiform Loewenfeld,3.3.3,0,h,NA,s,NA,NA,h,445,NA,2939,NA,NA,445,2,legacy,1024,2,48000,-16,experiment,HHHHH,3,odd,4760,NA,NA,NA,1812,NA,NA,17601,1820,NA,NA,16537,17706,18151,17599,17705,Flanker Task,8,4951,8,yes,1024
100,100,607.2222222,607.2222222,black,legacy,legacy,legacy,0,incongrunet,uniform,1,undefined,1,h,0,0,0,8,0,8,0,8,0,0,0,8,8,8,8,8,Fri Sep 25 23:35:07 2020,1500,The main experiment item,yes,FlankerTask.osexp,C:\Users\katri\OneDrive\Documents\Fall 2020\Flanker Test,no,mono,no,18,no,white,no,yes,768,legacy,8,8,C:/Users/katri/OneDrive/Documents/Fall 2020/Flanker Test/subject-3.csv,legacy,Lentiform Loewenfeld,3.3.3,0,h,NA,s,NA,NA,h,514,NA,2939,NA,NA,514,2,legacy,1024,2,48000,-16,experiment,SSHSS,3,odd,4760,NA,NA,NA,1812,NA,NA,19237,1820,NA,NA,18176,19342,19856,19235,19341,Flanker Task,9,5465,9,yes,1024
100,100,591.3,591.3,black,legacy,legacy,legacy,0,congruent,uniform,1,undefined,1,h,0,0,0,9,0,9,0,9,0,0,0,9,9,9,9,9,Fri Sep 25 23:35:07 2020,1500,The main experiment item,yes,FlankerTask.osexp,C:\Users\katri\OneDrive\Documents\Fall 2020\Flanker Test,no,mono,no,18,no,white,no,yes,768,legacy,9,9,C:/Users/katri/OneDrive/Documents/Fall 2020/Flanker Test/subject-3.csv,legacy,Lentiform Loewenfeld,3.3.3,0,h,NA,s,NA,NA,h,448,NA,2939,NA,NA,448,2,legacy,1024,2,48000,-16,experiment,HHHHH,3,odd,4760,NA,NA,NA,1812,NA,NA,20923,1820,NA,NA,19863,21027,21476,20921,21027,Flanker Task,10,5913,10,yes,1024
100,100,575,575,black,legacy,legacy,legacy,0,congruent,uniform,1,undefined,1,h,0,0,0,10,0,10,0,10,0,0,0,10,10,10,10,10,Fri Sep 25 23:35:07 2020,1500,The main experiment item,yes,FlankerTask.osexp,C:\Users\katri\OneDrive\Documents\Fall 2020\Flanker Test,no,mono,no,18,no,white,no,yes,768,legacy,10,10,C:/Users/katri/OneDrive/Documents/Fall 2020/Flanker Test/subject-3.csv,legacy,Lentiform Loewenfeld,3.3.3,0,h,NA,s,NA,NA,h,412,NA,2939,NA,NA,412,2,legacy,1024,2,48000,-16,experiment,HHHHH,3,odd,4760,NA,NA,NA,1812,NA,NA,22550,1820,NA,NA,21486,22655,23067,22548,22654,Flanker Task,11,6325,11,yes,1024
100,100,567.5,567.5,black,legacy,legacy,legacy,0,congruent,uniform,1,undefined,1,s,0,0,0,11,0,11,0,11,0,0,0,11,11,11,11,11,Fri Sep 25 23:35:07 2020,1500,The main experiment item,yes,FlankerTask.osexp,C:\Users\katri\OneDrive\Documents\Fall 2020\Flanker Test,no,mono,no,18,no,white,no,yes,768,legacy,11,11,C:/Users/katri/OneDrive/Documents/Fall 2020/Flanker Test/subject-3.csv,legacy,Lentiform Loewenfeld,3.3.3,0,s,NA,s,NA,NA,s,485,NA,2939,NA,NA,485,2,legacy,1024,2,48000,-16,experiment,SSSSS,3,odd,4760,NA,NA,NA,1812,NA,NA,24154,1820,NA,NA,23092,24255,24740,24152,24255,Flanker Task,12,6810,12,yes,1024
100,100,556.0769231,556.0769231,black,legacy,legacy,legacy,0,congruent,uniform,1,undefined,1,s,0,0,0,12,0,12,0,12,0,0,0,12,12,12,12,12,Fri Sep 25 23:35:07 2020,1500,The main experiment item,yes,FlankerTask.osexp,C:\Users\katri\OneDrive\Documents\Fall 2020\Flanker Test,no,mono,no,18,no,white,no,yes,768,legacy,12,12,C:/Users/katri/OneDrive/Documents/Fall 2020/Flanker Test/subject-3.csv,legacy,Lentiform Loewenfeld,3.3.3,0,s,NA,s,NA,NA,s,419,NA,2939,NA,NA,419,2,legacy,1024,2,48000,-16,experiment,SSSSS,3,odd,4760,NA,NA,NA,1812,NA,NA,25810,1820,NA,NA,24747,25911,26331,25807,25911,Flanker Task,13,7229,13,yes,1024
100,100,546.6428571,546.6428571,black,legacy,legacy,legacy,0,congruent,uniform,1,undefined,1,h,0,0,0,13,0,13,0,13,0,0,0,13,13,13,13,13,Fri Sep 25 23:35:07 2020,1500,The main experiment item,yes,FlankerTask.osexp,C:\Users\katri\OneDrive\Documents\Fall 2020\Flanker Test,no,mono,no,18,no,white,no,yes,768,legacy,13,13,C:/Users/katri/OneDrive/Documents/Fall 2020/Flanker Test/subject-3.csv,legacy,Lentiform Loewenfeld,3.3.3,0,h,NA,s,NA,NA,h,424,NA,2939,NA,NA,424,2,legacy,1024,2,48000,-16,experiment,HHHHH,3,odd,4760,NA,NA,NA,1812,NA,NA,27398,1820,NA,NA,26335,27503,27927,27395,27502,Flanker Task,14,7653,14,yes,1024
100,100,552.6666667,552.6666667,black,legacy,legacy,legacy,0,incongruent,uniform,1,undefined,1,s,0,0,0,14,0,14,0,14,0,0,0,14,14,14,14,14,Fri Sep 25 23:35:07 2020,1500,The main experiment item,yes,FlankerTask.osexp,C:\Users\katri\OneDrive\Documents\Fall 2020\Flanker Test,no,mono,no,18,no,white,no,yes,768,legacy,14,14,C:/Users/katri/OneDrive/Documents/Fall 2020/Flanker Test/subject-3.csv,legacy,Lentiform Loewenfeld,3.3.3,0,s,NA,s,NA,NA,s,637,NA,2939,NA,NA,637,2,legacy,1024,2,48000,-16,experiment,HHSHH,3,odd,4760,NA,NA,NA,1812,NA,NA,28998,1820,NA,NA,27934,29099,29737,28996,29099,Flanker Task,15,8290,15,yes,1024
100,100,556.1875,556.1875,black,legacy,legacy,legacy,0,incongruent,uniform,1,undefined,1,s,0,0,0,15,0,15,0,15,0,0,0,15,15,15,15,15,Fri Sep 25 23:35:07 2020,1500,The main experiment item,yes,FlankerTask.osexp,C:\Users\katri\OneDrive\Documents\Fall 2020\Flanker Test,no,mono,no,18,no,white,no,yes,768,legacy,15,15,C:/Users/katri/OneDrive/Documents/Fall 2020/Flanker Test/subject-3.csv,legacy,Lentiform Loewenfeld,3.3.3,0,s,NA,s,NA,NA,s,609,NA,2939,NA,NA,609,2,legacy,1024,2,48000,-16,experiment,HHSHH,3,odd,4760,NA,NA,NA,1812,NA,NA,30807,1820,NA,NA,29744,30912,31522,30804,30911,Flanker Task,16,8899,16,yes,1024
100,100,552.5294118,552.5294118,black,legacy,legacy,legacy,0,congruent,uniform,1,undefined,1,s,0,0,0,16,0,16,0,16,0,0,0,16,16,16,16,16,Fri Sep 25 23:35:07 2020,1500,The main experiment item,yes,FlankerTask.osexp,C:\Users\katri\OneDrive\Documents\Fall 2020\Flanker Test,no,mono,no,18,no,white,no,yes,768,legacy,16,16,C:/Users/katri/OneDrive/Documents/Fall 2020/Flanker Test/subject-3.csv,legacy,Lentiform Loewenfeld,3.3.3,0,s,NA,s,NA,NA,s,494,NA,2939,NA,NA,494,2,legacy,1024,2,48000,-16,experiment,SSSSS,3,odd,4760,NA,NA,NA,1812,NA,NA,32592,1820,NA,NA,31529,32696,33190,32590,32696,Flanker Task,17,9393,17,yes,1024
100,100,553.5,553.5,black,legacy,legacy,legacy,0,incongrunet,uniform,1,undefined,1,h,0,0,0,17,0,17,0,17,0,0,0,17,17,17,17,17,Fri Sep 25 23:35:07 2020,1500,The main experiment item,yes,FlankerTask.osexp,C:\Users\katri\OneDrive\Documents\Fall 2020\Flanker Test,no,mono,no,18,no,white,no,yes,768,legacy,17,17,C:/Users/katri/OneDrive/Documents/Fall 2020/Flanker Test/subject-3.csv,legacy,Lentiform Loewenfeld,3.3.3,0,h,NA,s,NA,NA,h,570,NA,2939,NA,NA,570,2,legacy,1024,2,48000,-16,experiment,SSHSS,3,odd,4760,NA,NA,NA,1812,NA,NA,34279,1820,NA,NA,33215,34384,34955,34277,34383,Flanker Task,18,9963,18,yes,1024
100,100,581.8947368,581.8947368,black,legacy,legacy,legacy,0,congruent,uniform,1,undefined,1,s,0,0,0,18,0,18,0,18,0,0,0,18,18,18,18,18,Fri Sep 25 23:35:07 2020,1500,The main experiment item,yes,FlankerTask.osexp,C:\Users\katri\OneDrive\Documents\Fall 2020\Flanker Test,no,mono,no,18,no,white,no,yes,768,legacy,18,18,C:/Users/katri/OneDrive/Documents/Fall 2020/Flanker Test/subject-3.csv,legacy,Lentiform Loewenfeld,3.3.3,0,s,NA,s,NA,NA,s,1093,NA,2939,NA,NA,1093,2,legacy,1024,2,48000,-16,experiment,SSSSS,3,odd,4760,NA,NA,NA,1812,NA,NA,36040,1820,NA,NA,34977,36145,37239,36038,36145,Flanker Task,19,11056,19,yes,1024
100,100,577.5,577.5,black,legacy,legacy,legacy,0,incongrunet,uniform,1,undefined,1,h,0,0,0,19,0,19,0,19,0,0,0,19,19,19,19,19,Fri Sep 25 23:35:07 2020,1500,The main experiment item,yes,FlankerTask.osexp,C:\Users\katri\OneDrive\Documents\Fall 2020\Flanker Test,no,mono,no,18,no,white,no,yes,768,legacy,19,19,C:/Users/katri/OneDrive/Documents/Fall 2020/Flanker Test/subject-3.csv,legacy,Lentiform Loewenfeld,3.3.3,0,h,NA,s,NA,NA,h,494,NA,2939,NA,NA,494,2,legacy,1024,2,48000,-16,experiment,SSHSS,3,odd,4760,NA,NA,NA,1812,NA,NA,38334,1820,NA,NA,37263,38439,38933,38332,38439,Flanker Task,20,11550,20,yes,1024
100,100,571.3333333,571.3333333,black,legacy,legacy,legacy,0,congruent,uniform,1,undefined,1,s,0,0,0,20,0,20,0,20,0,0,0,20,20,20,20,20,Fri Sep 25 23:35:07 2020,1500,The main experiment item,yes,FlankerTask.osexp,C:\Users\katri\OneDrive\Documents\Fall 2020\Flanker Test,no,mono,no,18,no,white,no,yes,768,legacy,20,20,C:/Users/katri/OneDrive/Documents/Fall 2020/Flanker Test/subject-3.csv,legacy,Lentiform Loewenfeld,3.3.3,0,s,NA,s,NA,NA,s,448,NA,2939,NA,NA,448,2,legacy,1024,2,48000,-16,experiment,SSSSS,3,odd,4760,NA,NA,NA,1812,NA,NA,40003,1820,NA,NA,38940,40104,40553,40000,40104,Flanker Task,21,11998,21,yes,1024
100,100,568,568,black,legacy,legacy,legacy,0,congruent,uniform,1,undefined,1,s,0,0,0,21,0,21,0,21,0,0,0,21,21,21,21,21,Fri Sep 25 23:35:07 2020,1500,The main experiment item,yes,FlankerTask.osexp,C:\Users\katri\OneDrive\Documents\Fall 2020\Flanker Test,no,mono,no,18,no,white,no,yes,768,legacy,21,21,C:/Users/katri/OneDrive/Documents/Fall 2020/Flanker Test/subject-3.csv,legacy,Lentiform Loewenfeld,3.3.3,0,s,NA,s,NA,NA,s,498,NA,2939,NA,NA,498,2,legacy,1024,2,48000,-16,experiment,SSSSS,3,odd,4760,NA,NA,NA,1812,NA,NA,41636,1820,NA,NA,40575,41741,42239,41633,41740,Flanker Task,22,12496,22,yes,1024
100,100,563.3913043,563.3913043,black,legacy,legacy,legacy,0,incongrunet,uniform,1,undefined,1,h,0,0,0,22,0,22,0,22,0,0,0,22,22,22,22,22,Fri Sep 25 23:35:07 2020,1500,The main experiment item,yes,FlankerTask.osexp,C:\Users\katri\OneDrive\Documents\Fall 2020\Flanker Test,no,mono,no,18,no,white,no,yes,768,legacy,22,22,C:/Users/katri/OneDrive/Documents/Fall 2020/Flanker Test/subject-3.csv,legacy,Lentiform Loewenfeld,3.3.3,0,h,NA,s,NA,NA,h,462,NA,2939,NA,NA,462,2,legacy,1024,2,48000,-16,experiment,SSHSS,3,odd,4760,NA,NA,NA,1812,NA,NA,43326,1820,NA,NA,42264,43431,43893,43324,43430,Flanker Task,23,12958,23,yes,1024
100,100,561.7916667,561.7916667,black,legacy,legacy,legacy,0,incongruent,uniform,1,undefined,1,s,0,0,0,23,0,23,0,23,0,0,0,23,23,23,23,23,Fri Sep 25 23:35:07 2020,1500,The main experiment item,yes,FlankerTask.osexp,C:\Users\katri\OneDrive\Documents\Fall 2020\Flanker Test,no,mono,no,18,no,white,no,yes,768,legacy,23,23,C:/Users/katri/OneDrive/Documents/Fall 2020/Flanker Test/subject-3.csv,legacy,Lentiform Loewenfeld,3.3.3,0,s,NA,s,NA,NA,s,525,NA,2939,NA,NA,525,2,legacy,1024,2,48000,-16,experiment,HHSHH,3,odd,4760,NA,NA,NA,1812,NA,NA,44977,1820,NA,NA,43916,45081,45607,44975,45081,Flanker Task,24,13483,24,yes,1024
100,100,562.52,562.52,black,legacy,legacy,legacy,0,congruent,uniform,1,undefined,1,h,0,0,0,24,0,24,0,24,0,0,0,24,24,24,24,24,Fri Sep 25 23:35:07 2020,1500,The main experiment item,yes,FlankerTask.osexp,C:\Users\katri\OneDrive\Documents\Fall 2020\Flanker Test,no,mono,no,18,no,white,no,yes,768,legacy,24,24,C:/Users/katri/OneDrive/Documents/Fall 2020/Flanker Test/subject-3.csv,legacy,Lentiform Loewenfeld,3.3.3,0,h,NA,s,NA,NA,h,580,NA,2939,NA,NA,580,2,legacy,1024,2,48000,-16,experiment,HHHHH,3,odd,4760,NA,NA,NA,1812,NA,NA,46673,1820,NA,NA,45610,46778,47358,46669,46777,Flanker Task,25,14063,25,yes,1024
100,100,565.1538462,565.1538462,black,legacy,legacy,legacy,0,congruent,uniform,1,undefined,1,s,0,0,0,25,0,25,0,25,0,0,0,25,25,25,25,25,Fri Sep 25 23:35:07 2020,1500,The main experiment item,yes,FlankerTask.osexp,C:\Users\katri\OneDrive\Documents\Fall 2020\Flanker Test,no,mono,no,18,no,white,no,yes,768,legacy,25,25,C:/Users/katri/OneDrive/Documents/Fall 2020/Flanker Test/subject-3.csv,legacy,Lentiform Loewenfeld,3.3.3,0,s,NA,s,NA,NA,s,631,NA,2939,NA,NA,631,2,legacy,1024,2,48000,-16,experiment,SSSSS,3,odd,4760,NA,NA,NA,1812,NA,NA,48453,1820,NA,NA,47380,48557,49188,48451,48557,Flanker Task,26,14694,26,yes,1024
100,100,571.8518519,571.8518519,black,legacy,legacy,legacy,0,incongruent,uniform,1,undefined,1,s,0,0,0,26,0,26,0,26,0,0,0,26,26,26,26,26,Fri Sep 25 23:35:07 2020,1500,The main experiment item,yes,FlankerTask.osexp,C:\Users\katri\OneDrive\Documents\Fall 2020\Flanker Test,no,mono,no,18,no,white,no,yes,768,legacy,26,26,C:/Users/katri/OneDrive/Documents/Fall 2020/Flanker Test/subject-3.csv,legacy,Lentiform Loewenfeld,3.3.3,0,s,NA,s,NA,NA,s,746,NA,2939,NA,NA,746,2,legacy,1024,2,48000,-16,experiment,HHSHH,3,odd,4760,NA,NA,NA,1812,NA,NA,50253,1820,NA,NA,49191,50357,51104,50251,50357,Flanker Task,27,15440,27,yes,1024
100,100,569.8928571,569.8928571,black,legacy,legacy,legacy,0,congruent,uniform,1,undefined,1,s,0,0,0,27,0,27,0,27,0,0,0,27,27,27,27,27,Fri Sep 25 23:35:07 2020,1500,The main experiment item,yes,FlankerTask.osexp,C:\Users\katri\OneDrive\Documents\Fall 2020\Flanker Test,no,mono,no,18,no,white,no,yes,768,legacy,27,27,C:/Users/katri/OneDrive/Documents/Fall 2020/Flanker Test/subject-3.csv,legacy,Lentiform Loewenfeld,3.3.3,0,s,NA,s,NA,NA,s,517,NA,2939,NA,NA,517,2,legacy,1024,2,48000,-16,experiment,SSSSS,3,odd,4760,NA,NA,NA,1812,NA,NA,52204,1820,NA,NA,51126,52305,52822,52202,52305,Flanker Task,28,15957,28,yes,1024
100,100,572.5172414,572.5172414,black,legacy,legacy,legacy,0,incongruent,uniform,1,undefined,1,s,0,0,0,28,0,28,0,28,0,0,0,28,28,28,28,28,Fri Sep 25 23:35:07 2020,1500,The main experiment item,yes,FlankerTask.osexp,C:\Users\katri\OneDrive\Documents\Fall 2020\Flanker Test,no,mono,no,18,no,white,no,yes,768,legacy,28,28,C:/Users/katri/OneDrive/Documents/Fall 2020/Flanker Test/subject-3.csv,legacy,Lentiform Loewenfeld,3.3.3,0,s,NA,s,NA,NA,s,646,NA,2939,NA,NA,646,2,legacy,1024,2,48000,-16,experiment,HHSHH,3,odd,4760,NA,NA,NA,1812,NA,NA,53907,1820,NA,NA,52845,54012,54658,53905,54011,Flanker Task,29,16603,29,yes,1024
100,100,571.1666667,571.1666667,black,legacy,legacy,legacy,0,incongruent,uniform,1,undefined,1,s,0,0,0,29,0,29,0,29,0,0,0,29,29,29,29,29,Fri Sep 25 23:35:07 2020,1500,The main experiment item,yes,FlankerTask.osexp,C:\Users\katri\OneDrive\Documents\Fall 2020\Flanker Test,no,mono,no,18,no,white,no,yes,768,legacy,29,29,C:/Users/katri/OneDrive/Documents/Fall 2020/Flanker Test/subject-3.csv,legacy,Lentiform Loewenfeld,3.3.3,0,s,NA,s,NA,NA,s,532,NA,2939,NA,NA,532,2,legacy,1024,2,48000,-16,experiment,HHSHH,3,odd,4760,NA,NA,NA,1812,NA,NA,55735,1820,NA,NA,54666,55840,56373,55733,55839,Flanker Task,30,17135,30,yes,1024
100,100,569.0645161,569.0645161,black,legacy,legacy,legacy,0,congruent,uniform,1,undefined,1,h,0,0,0,30,0,30,0,30,0,0,0,30,30,30,30,30,Fri Sep 25 23:35:07 2020,1500,The main experiment item,yes,FlankerTask.osexp,C:\Users\katri\OneDrive\Documents\Fall 2020\Flanker Test,no,mono,no,18,no,white,no,yes,768,legacy,30,30,C:/Users/katri/OneDrive/Documents/Fall 2020/Flanker Test/subject-3.csv,legacy,Lentiform Loewenfeld,3.3.3,0,h,NA,s,NA,NA,h,506,NA,2939,NA,NA,506,2,legacy,1024,2,48000,-16,experiment,HHHHH,3,odd,4760,NA,NA,NA,1812,NA,NA,57443,1820,NA,NA,56380,57548,58054,57441,57547,Flanker Task,31,17641,31,yes,1024
100,100,567.75,567.75,black,legacy,legacy,legacy,0,incongrunet,uniform,1,undefined,1,h,0,0,0,31,0,31,0,31,0,0,0,31,31,31,31,31,Fri Sep 25 23:35:07 2020,1500,The main experiment item,yes,FlankerTask.osexp,C:\Users\katri\OneDrive\Documents\Fall 2020\Flanker Test,no,mono,no,18,no,white,no,yes,768,legacy,31,31,C:/Users/katri/OneDrive/Documents/Fall 2020/Flanker Test/subject-3.csv,legacy,Lentiform Loewenfeld,3.3.3,0,h,NA,s,NA,NA,h,527,NA,2939,NA,NA,527,2,legacy,1024,2,48000,-16,experiment,SSHSS,3,odd,4760,NA,NA,NA,1812,NA,NA,59140,1820,NA,NA,58076,59241,59768,59137,59241,Flanker Task,32,18168,32,yes,1024
100,100,574.4848485,574.4848485,black,legacy,legacy,legacy,0,incongrunet,uniform,1,undefined,1,h,0,0,0,32,0,32,0,32,0,0,0,32,32,32,32,32,Fri Sep 25 23:35:07 2020,1500,The main experiment item,yes,FlankerTask.osexp,C:\Users\katri\OneDrive\Documents\Fall 2020\Flanker Test,no,mono,no,18,no,white,no,yes,768,legacy,32,32,C:/Users/katri/OneDrive/Documents/Fall 2020/Flanker Test/subject-3.csv,legacy,Lentiform Loewenfeld,3.3.3,0,h,NA,s,NA,NA,h,790,NA,2939,NA,NA,790,2,legacy,1024,2,48000,-16,experiment,SSHSS,3,odd,4760,NA,NA,NA,1812,NA,NA,60858,1820,NA,NA,59793,60963,61753,60855,60962,Flanker Task,33,18958,33,yes,1024
100,100,569.3823529,569.3823529,black,legacy,legacy,legacy,0,congruent,uniform,1,undefined,1,s,0,0,0,33,0,33,0,33,0,0,0,33,33,33,33,33,Fri Sep 25 23:35:07 2020,1500,The main experiment item,yes,FlankerTask.osexp,C:\Users\katri\OneDrive\Documents\Fall 2020\Flanker Test,no,mono,no,18,no,white,no,yes,768,legacy,33,33,C:/Users/katri/OneDrive/Documents/Fall 2020/Flanker Test/subject-3.csv,legacy,Lentiform Loewenfeld,3.3.3,0,s,NA,s,NA,NA,s,401,NA,2939,NA,NA,401,2,legacy,1024,2,48000,-16,experiment,SSSSS,3,odd,4760,NA,NA,NA,1812,NA,NA,62822,1820,NA,NA,61760,62927,63329,62820,62926,Flanker Task,34,19359,34,yes,1024
100,100,565.3714286,565.3714286,black,legacy,legacy,legacy,0,incongrunet,uniform,1,undefined,1,h,0,0,0,34,0,34,0,34,0,0,0,34,34,34,34,34,Fri Sep 25 23:35:07 2020,1500,The main experiment item,yes,FlankerTask.osexp,C:\Users\katri\OneDrive\Documents\Fall 2020\Flanker Test,no,mono,no,18,no,white,no,yes,768,legacy,34,34,C:/Users/katri/OneDrive/Documents/Fall 2020/Flanker Test/subject-3.csv,legacy,Lentiform Loewenfeld,3.3.3,0,h,NA,s,NA,NA,h,429,NA,2939,NA,NA,429,2,legacy,1024,2,48000,-16,experiment,SSHSS,3,odd,4760,NA,NA,NA,1812,NA,NA,64392,1820,NA,NA,63332,64497,64927,64390,64496,Flanker Task,35,19788,35,yes,1024
100,100,565.0277778,565.0277778,black,legacy,legacy,legacy,0,congruent,uniform,1,undefined,1,h,0,0,0,35,0,35,0,35,0,0,0,35,35,35,35,35,Fri Sep 25 23:35:07 2020,1500,The main experiment item,yes,FlankerTask.osexp,C:\Users\katri\OneDrive\Documents\Fall 2020\Flanker Test,no,mono,no,18,no,white,no,yes,768,legacy,35,35,C:/Users/katri/OneDrive/Documents/Fall 2020/Flanker Test/subject-3.csv,legacy,Lentiform Loewenfeld,3.3.3,0,h,NA,s,NA,NA,h,553,NA,2939,NA,NA,553,2,legacy,1024,2,48000,-16,experiment,HHHHH,3,odd,4760,NA,NA,NA,1812,NA,NA,66011,1820,NA,NA,64949,66115,66668,66009,66114,Flanker Task,36,20341,36,yes,1024
100,100,563.1081081,563.1081081,black,legacy,legacy,legacy,0,congruent,uniform,1,undefined,1,h,0,0,0,36,0,36,0,36,0,0,0,36,36,36,36,36,Fri Sep 25 23:35:07 2020,1500,The main experiment item,yes,FlankerTask.osexp,C:\Users\katri\OneDrive\Documents\Fall 2020\Flanker Test,no,mono,no,18,no,white,no,yes,768,legacy,36,36,C:/Users/katri/OneDrive/Documents/Fall 2020/Flanker Test/subject-3.csv,legacy,Lentiform Loewenfeld,3.3.3,0,h,NA,s,NA,NA,h,494,NA,2939,NA,NA,494,2,legacy,1024,2,48000,-16,experiment,HHHHH,3,odd,4760,NA,NA,NA,1812,NA,NA,67751,1820,NA,NA,66690,67852,68346,67749,67852,Flanker Task,37,20835,37,yes,1024
100,100,558.9210526,558.9210526,black,legacy,legacy,legacy,0,incongruent,uniform,1,undefined,1,s,0,0,0,37,0,37,0,37,0,0,0,37,37,37,37,37,Fri Sep 25 23:35:07 2020,1500,The main experiment item,yes,FlankerTask.osexp,C:\Users\katri\OneDrive\Documents\Fall 2020\Flanker Test,no,mono,no,18,no,white,no,yes,768,legacy,37,37,C:/Users/katri/OneDrive/Documents/Fall 2020/Flanker Test/subject-3.csv,legacy,Lentiform Loewenfeld,3.3.3,0,s,NA,s,NA,NA,s,404,NA,2939,NA,NA,404,2,legacy,1024,2,48000,-16,experiment,HHSHH,3,odd,4760,NA,NA,NA,1812,NA,NA,69445,1820,NA,NA,68370,69550,69955,69443,69549,Flanker Task,38,21239,38,yes,1024
100,100,558.8205128,558.8205128,black,legacy,legacy,legacy,0,incongrunet,uniform,1,undefined,1,h,0,0,0,38,0,38,0,38,0,0,0,38,38,38,38,38,Fri Sep 25 23:35:07 2020,1500,The main experiment item,yes,FlankerTask.osexp,C:\Users\katri\OneDrive\Documents\Fall 2020\Flanker Test,no,mono,no,18,no,white,no,yes,768,legacy,38,38,C:/Users/katri/OneDrive/Documents/Fall 2020/Flanker Test/subject-3.csv,legacy,Lentiform Loewenfeld,3.3.3,0,h,NA,s,NA,NA,h,555,NA,2939,NA,NA,555,2,legacy,1024,2,48000,-16,experiment,SSHSS,3,odd,4760,NA,NA,NA,1812,NA,NA,71041,1820,NA,NA,69979,71146,71701,71039,71145,Flanker Task,39,21794,39,yes,1024
100,100,559.95,559.95,black,legacy,legacy,legacy,0,incongruent,uniform,1,undefined,1,s,0,0,0,39,0,39,0,39,0,0,0,39,39,39,39,39,Fri Sep 25 23:35:07 2020,1500,The main experiment item,yes,FlankerTask.osexp,C:\Users\katri\OneDrive\Documents\Fall 2020\Flanker Test,no,mono,no,18,no,white,no,yes,768,legacy,39,39,C:/Users/katri/OneDrive/Documents/Fall 2020/Flanker Test/subject-3.csv,legacy,Lentiform Loewenfeld,3.3.3,0,s,NA,s,NA,NA,s,604,NA,2939,NA,NA,604,2,legacy,1024,2,48000,-16,experiment,HHSHH,3,odd,4760,NA,NA,NA,1812,NA,NA,72788,1820,NA,NA,71725,72892,73496,72786,72892,Flanker Task,40,22398,40,yes,1024
100,100,557.5365854,557.5365854,black,legacy,legacy,legacy,0,congruent,uniform,1,undefined,1,h,0,0,0,40,0,40,0,40,0,0,0,40,40,40,40,40,Fri Sep 25 23:35:07 2020,1500,The main experiment item,yes,FlankerTask.osexp,C:\Users\katri\OneDrive\Documents\Fall 2020\Flanker Test,no,mono,no,18,no,white,no,yes,768,legacy,40,40,C:/Users/katri/OneDrive/Documents/Fall 2020/Flanker Test/subject-3.csv,legacy,Lentiform Loewenfeld,3.3.3,0,h,NA,s,NA,NA,h,461,NA,2939,NA,NA,461,2,legacy,1024,2,48000,-16,experiment,HHHHH,3,odd,4760,NA,NA,NA,1812,NA,NA,74583,1820,NA,NA,73521,74687,75148,74582,74686,Flanker Task,41,22859,41,yes,1024
100,100,556.7857143,556.7857143,black,legacy,legacy,legacy,0,incongrunet,uniform,1,undefined,1,h,0,0,0,41,0,41,0,41,0,0,0,41,41,41,41,41,Fri Sep 25 23:35:07 2020,1500,The main experiment item,yes,FlankerTask.osexp,C:\Users\katri\OneDrive\Documents\Fall 2020\Flanker Test,no,mono,no,18,no,white,no,yes,768,legacy,41,41,C:/Users/katri/OneDrive/Documents/Fall 2020/Flanker Test/subject-3.csv,legacy,Lentiform Loewenfeld,3.3.3,0,h,NA,s,NA,NA,h,526,NA,2939,NA,NA,526,2,legacy,1024,2,48000,-16,experiment,SSHSS,3,odd,4760,NA,NA,NA,1812,NA,NA,76233,1820,NA,NA,75170,76337,76864,76231,76337,Flanker Task,42,23385,42,yes,1024
100,100,554.3255814,554.3255814,black,legacy,legacy,legacy,0,congruent,uniform,1,undefined,1,s,0,0,0,42,0,42,0,42,0,0,0,42,42,42,42,42,Fri Sep 25 23:35:07 2020,1500,The main experiment item,yes,FlankerTask.osexp,C:\Users\katri\OneDrive\Documents\Fall 2020\Flanker Test,no,mono,no,18,no,white,no,yes,768,legacy,42,42,C:/Users/katri/OneDrive/Documents/Fall 2020/Flanker Test/subject-3.csv,legacy,Lentiform Loewenfeld,3.3.3,0,s,NA,s,NA,NA,s,451,NA,2939,NA,NA,451,2,legacy,1024,2,48000,-16,experiment,SSSSS,3,odd,4760,NA,NA,NA,1812,NA,NA,77952,1820,NA,NA,76888,78056,78508,77950,78055,Flanker Task,43,23836,43,yes,1024
100,100,553.9090909,553.9090909,black,legacy,legacy,legacy,0,congruent,uniform,1,undefined,1,h,0,0,0,43,0,43,0,43,0,0,0,43,43,43,43,43,Fri Sep 25 23:35:07 2020,1500,The main experiment item,yes,FlankerTask.osexp,C:\Users\katri\OneDrive\Documents\Fall 2020\Flanker Test,no,mono,no,18,no,white,no,yes,768,legacy,43,43,C:/Users/katri/OneDrive/Documents/Fall 2020/Flanker Test/subject-3.csv,legacy,Lentiform Loewenfeld,3.3.3,0,h,NA,s,NA,NA,h,536,NA,2939,NA,NA,536,2,legacy,1024,2,48000,-16,experiment,HHHHH,3,odd,4760,NA,NA,NA,1812,NA,NA,79587,1820,NA,NA,78516,79689,80226,79584,79689,Flanker Task,44,24372,44,yes,1024
100,100,554.5555556,554.5555556,black,legacy,legacy,legacy,0,incongrunet,uniform,1,undefined,1,h,0,0,0,44,0,44,0,44,0,0,0,44,44,44,44,44,Fri Sep 25 23:35:07 2020,1500,The main experiment item,yes,FlankerTask.osexp,C:\Users\katri\OneDrive\Documents\Fall 2020\Flanker Test,no,mono,no,18,no,white,no,yes,768,legacy,44,44,C:/Users/katri/OneDrive/Documents/Fall 2020/Flanker Test/subject-3.csv,legacy,Lentiform Loewenfeld,3.3.3,0,h,NA,s,NA,NA,h,583,NA,2939,NA,NA,583,2,legacy,1024,2,48000,-16,experiment,SSHSS,3,odd,4760,NA,NA,NA,1812,NA,NA,81298,1820,NA,NA,80229,81399,81983,81296,81399,Flanker Task,45,24955,45,yes,1024
100,100,553.2391304,553.2391304,black,legacy,legacy,legacy,0,congruent,uniform,1,undefined,1,h,0,0,0,45,0,45,0,45,0,0,0,45,45,45,45,45,Fri Sep 25 23:35:07 2020,1500,The main experiment item,yes,FlankerTask.osexp,C:\Users\katri\OneDrive\Documents\Fall 2020\Flanker Test,no,mono,no,18,no,white,no,yes,768,legacy,45,45,C:/Users/katri/OneDrive/Documents/Fall 2020/Flanker Test/subject-3.csv,legacy,Lentiform Loewenfeld,3.3.3,0,h,NA,s,NA,NA,h,494,NA,2939,NA,NA,494,2,legacy,1024,2,48000,-16,experiment,HHHHH,3,odd,4760,NA,NA,NA,1812,NA,NA,83059,1820,NA,NA,81986,83160,83654,83055,83160,Flanker Task,46,25449,46,yes,1024
100,100,551.9361702,551.9361702,black,legacy,legacy,legacy,0,incongruent,uniform,1,undefined,1,s,0,0,0,46,0,46,0,46,0,0,0,46,46,46,46,46,Fri Sep 25 23:35:07 2020,1500,The main experiment item,yes,FlankerTask.osexp,C:\Users\katri\OneDrive\Documents\Fall 2020\Flanker Test,no,mono,no,18,no,white,no,yes,768,legacy,46,46,C:/Users/katri/OneDrive/Documents/Fall 2020/Flanker Test/subject-3.csv,legacy,Lentiform Loewenfeld,3.3.3,0,s,NA,s,NA,NA,s,492,NA,2939,NA,NA,492,2,legacy,1024,2,48000,-16,experiment,HHSHH,3,odd,4760,NA,NA,NA,1812,NA,NA,84726,1820,NA,NA,83658,84827,85319,84724,84827,Flanker Task,47,25941,47,yes,1024
100,100,553.4583333,553.4583333,black,legacy,legacy,legacy,0,incongrunet,uniform,1,undefined,1,h,0,0,0,47,0,47,0,47,0,0,0,47,47,47,47,47,Fri Sep 25 23:35:07 2020,1500,The main experiment item,yes,FlankerTask.osexp,C:\Users\katri\OneDrive\Documents\Fall 2020\Flanker Test,no,mono,no,18,no,white,no,yes,768,legacy,47,47,C:/Users/katri/OneDrive/Documents/Fall 2020/Flanker Test/subject-3.csv,legacy,Lentiform Loewenfeld,3.3.3,0,h,NA,s,NA,NA,h,625,NA,2939,NA,NA,625,2,legacy,1024,2,48000,-16,experiment,SSHSS,3,odd,4760,NA,NA,NA,1812,NA,NA,86410,1820,NA,NA,85341,86511,87136,86408,86511,Flanker Task,48,26566,48,yes,1024
100,100,554.2857143,554.2857143,black,legacy,legacy,legacy,0,congruent,uniform,1,undefined,1,h,0,0,0,48,0,48,0,48,0,0,0,48,48,48,48,48,Fri Sep 25 23:35:07 2020,1500,The main experiment item,yes,FlankerTask.osexp,C:\Users\katri\OneDrive\Documents\Fall 2020\Flanker Test,no,mono,no,18,no,white,no,yes,768,legacy,48,48,C:/Users/katri/OneDrive/Documents/Fall 2020/Flanker Test/subject-3.csv,legacy,Lentiform Loewenfeld,3.3.3,0,h,NA,s,NA,NA,h,594,NA,2939,NA,NA,594,2,legacy,1024,2,48000,-16,experiment,HHHHH,3,odd,4760,NA,NA,NA,1812,NA,NA,88227,1820,NA,NA,87142,88329,88923,88224,88329,Flanker Task,49,27160,49,yes,1024
100,100,551.18,551.18,black,legacy,legacy,legacy,0,incongruent,uniform,1,undefined,1,s,0,0,0,49,0,49,0,49,0,0,0,49,49,49,49,49,Fri Sep 25 23:35:07 2020,1500,The main experiment item,yes,FlankerTask.osexp,C:\Users\katri\OneDrive\Documents\Fall 2020\Flanker Test,no,mono,no,18,no,white,no,yes,768,legacy,49,49,C:/Users/katri/OneDrive/Documents/Fall 2020/Flanker Test/subject-3.csv,legacy,Lentiform Loewenfeld,3.3.3,0,s,NA,s,NA,NA,s,399,NA,2939,NA,NA,399,2,legacy,1024,2,48000,-16,experiment,HHSHH,3,odd,4760,NA,NA,NA,1812,NA,NA,89991,1820,NA,NA,88929,90096,90496,89989,90095,Flanker Task,50,27559,50,yes,1024
100,100,550.0784314,550.0784314,black,legacy,legacy,legacy,0,incongrunet,uniform,1,undefined,1,h,0,0,0,50,0,50,0,50,0,0,0,50,50,50,50,50,Fri Sep 25 23:35:07 2020,1500,The main experiment item,yes,FlankerTask.osexp,C:\Users\katri\OneDrive\Documents\Fall 2020\Flanker Test,no,mono,no,18,no,white,no,yes,768,legacy,50,50,C:/Users/katri/OneDrive/Documents/Fall 2020/Flanker Test/subject-3.csv,legacy,Lentiform Loewenfeld,3.3.3,0,h,NA,s,NA,NA,h,495,NA,2939,NA,NA,495,2,legacy,1024,2,48000,-16,experiment,SSHSS,3,odd,4760,NA,NA,NA,1812,NA,NA,91581,1820,NA,NA,90519,91685,92181,91579,91685,Flanker Task,51,28054,51,yes,1024
100,100,548.4807692,548.4807692,black,legacy,legacy,legacy,0,congruent,uniform,1,undefined,1,s,0,0,0,51,0,51,0,51,0,0,0,51,51,51,51,51,Fri Sep 25 23:35:07 2020,1500,The main experiment item,yes,FlankerTask.osexp,C:\Users\katri\OneDrive\Documents\Fall 2020\Flanker Test,no,mono,no,18,no,white,no,yes,768,legacy,51,51,C:/Users/katri/OneDrive/Documents/Fall 2020/Flanker Test/subject-3.csv,legacy,Lentiform Loewenfeld,3.3.3,0,s,NA,s,NA,NA,s,467,NA,2939,NA,NA,467,2,legacy,1024,2,48000,-16,experiment,SSSSS,3,odd,4760,NA,NA,NA,1812,NA,NA,93274,1820,NA,NA,92203,93379,93846,93272,93378,Flanker Task,52,28521,52,yes,1024
100,100,547.2075472,547.2075472,black,legacy,legacy,legacy,0,congruent,uniform,1,undefined,1,s,0,0,0,52,0,52,0,52,0,0,0,52,52,52,52,52,Fri Sep 25 23:35:07 2020,1500,The main experiment item,yes,FlankerTask.osexp,C:\Users\katri\OneDrive\Documents\Fall 2020\Flanker Test,no,mono,no,18,no,white,no,yes,768,legacy,52,52,C:/Users/katri/OneDrive/Documents/Fall 2020/Flanker Test/subject-3.csv,legacy,Lentiform Loewenfeld,3.3.3,0,s,NA,s,NA,NA,s,481,NA,2939,NA,NA,481,2,legacy,1024,2,48000,-16,experiment,SSSSS,3,odd,4760,NA,NA,NA,1812,NA,NA,94933,1820,NA,NA,93870,95037,95518,94931,95037,Flanker Task,53,29002,53,yes,1024
100,100,544.9814815,544.9814815,black,legacy,legacy,legacy,0,incongrunet,uniform,1,undefined,1,h,0,0,0,53,0,53,0,53,0,0,0,53,53,53,53,53,Fri Sep 25 23:35:07 2020,1500,The main experiment item,yes,FlankerTask.osexp,C:\Users\katri\OneDrive\Documents\Fall 2020\Flanker Test,no,mono,no,18,no,white,no,yes,768,legacy,53,53,C:/Users/katri/OneDrive/Documents/Fall 2020/Flanker Test/subject-3.csv,legacy,Lentiform Loewenfeld,3.3.3,0,h,NA,s,NA,NA,h,427,NA,2939,NA,NA,427,2,legacy,1024,2,48000,-16,experiment,SSHSS,3,odd,4760,NA,NA,NA,1812,NA,NA,96604,1820,NA,NA,95540,96709,97137,96601,96708,Flanker Task,54,29429,54,yes,1024
100,100,543.5090909,543.5090909,black,legacy,legacy,legacy,0,congruent,uniform,1,undefined,1,s,0,0,0,54,0,54,0,54,0,0,0,54,54,54,54,54,Fri Sep 25 23:35:07 2020,1500,The main experiment item,yes,FlankerTask.osexp,C:\Users\katri\OneDrive\Documents\Fall 2020\Flanker Test,no,mono,no,18,no,white,no,yes,768,legacy,54,54,C:/Users/katri/OneDrive/Documents/Fall 2020/Flanker Test/subject-3.csv,legacy,Lentiform Loewenfeld,3.3.3,0,s,NA,s,NA,NA,s,464,NA,2939,NA,NA,464,2,legacy,1024,2,48000,-16,experiment,SSSSS,3,odd,4760,NA,NA,NA,1812,NA,NA,98226,1820,NA,NA,97161,98327,98792,98224,98327,Flanker Task,55,29893,55,yes,1024
100,100,543.7142857,543.7142857,black,legacy,legacy,legacy,0,congruent,uniform,1,undefined,1,s,0,0,0,55,0,55,0,55,0,0,0,55,55,55,55,55,Fri Sep 25 23:35:07 2020,1500,The main experiment item,yes,FlankerTask.osexp,C:\Users\katri\OneDrive\Documents\Fall 2020\Flanker Test,no,mono,no,18,no,white,no,yes,768,legacy,55,55,C:/Users/katri/OneDrive/Documents/Fall 2020/Flanker Test/subject-3.csv,legacy,Lentiform Loewenfeld,3.3.3,0,s,NA,s,NA,NA,s,555,NA,2939,NA,NA,555,2,legacy,1024,2,48000,-16,experiment,SSSSS,3,odd,4760,NA,NA,NA,1812,NA,NA,99876,1820,NA,NA,98814,99977,100533,99874,99977,Flanker Task,56,30448,56,yes,1024
100,100,545.4912281,545.4912281,black,legacy,legacy,legacy,0,incongruent,uniform,1,undefined,1,s,0,0,0,56,0,56,0,56,0,0,0,56,56,56,56,56,Fri Sep 25 23:35:07 2020,1500,The main experiment item,yes,FlankerTask.osexp,C:\Users\katri\OneDrive\Documents\Fall 2020\Flanker Test,no,mono,no,18,no,white,no,yes,768,legacy,56,56,C:/Users/katri/OneDrive/Documents/Fall 2020/Flanker Test/subject-3.csv,legacy,Lentiform Loewenfeld,3.3.3,0,s,NA,s,NA,NA,s,645,NA,2939,NA,NA,645,2,legacy,1024,2,48000,-16,experiment,HHSHH,3,odd,4760,NA,NA,NA,1812,NA,NA,101622,1820,NA,NA,100556,101727,102372,101619,101726,Flanker Task,57,31093,57,yes,1024
100,100,544.7413793,544.7413793,black,legacy,legacy,legacy,0,congruent,uniform,1,undefined,1,s,0,0,0,57,0,57,0,57,0,0,0,57,57,57,57,57,Fri Sep 25 23:35:07 2020,1500,The main experiment item,yes,FlankerTask.osexp,C:\Users\katri\OneDrive\Documents\Fall 2020\Flanker Test,no,mono,no,18,no,white,no,yes,768,legacy,57,57,C:/Users/katri/OneDrive/Documents/Fall 2020/Flanker Test/subject-3.csv,legacy,Lentiform Loewenfeld,3.3.3,0,s,NA,s,NA,NA,s,502,NA,2939,NA,NA,502,2,legacy,1024,2,48000,-16,experiment,SSSSS,3,odd,4760,NA,NA,NA,1812,NA,NA,103458,1820,NA,NA,102395,103563,104065,103456,103562,Flanker Task,58,31595,58,yes,1024
100,100,543.4745763,543.4745763,black,legacy,legacy,legacy,0,congruent,uniform,1,undefined,1,s,0,0,0,58,0,58,0,58,0,0,0,58,58,58,58,58,Fri Sep 25 23:35:07 2020,1500,The main experiment item,yes,FlankerTask.osexp,C:\Users\katri\OneDrive\Documents\Fall 2020\Flanker Test,no,mono,no,18,no,white,no,yes,768,legacy,58,58,C:/Users/katri/OneDrive/Documents/Fall 2020/Flanker Test/subject-3.csv,legacy,Lentiform Loewenfeld,3.3.3,0,s,NA,s,NA,NA,s,470,NA,2939,NA,NA,470,2,legacy,1024,2,48000,-16,experiment,SSSSS,3,odd,4760,NA,NA,NA,1812,NA,NA,105151,1820,NA,NA,104087,105256,105727,105148,105255,Flanker Task,59,32065,59,yes,1024
100,100,546.5333333,546.5333333,black,legacy,legacy,legacy,0,incongruent,uniform,1,undefined,1,s,0,0,0,59,0,59,0,59,0,0,0,59,59,59,59,59,Fri Sep 25 23:35:07 2020,1500,The main experiment item,yes,FlankerTask.osexp,C:\Users\katri\OneDrive\Documents\Fall 2020\Flanker Test,no,mono,no,18,no,white,no,yes,768,legacy,59,59,C:/Users/katri/OneDrive/Documents/Fall 2020/Flanker Test/subject-3.csv,legacy,Lentiform Loewenfeld,3.3.3,0,s,NA,s,NA,NA,s,727,NA,2939,NA,NA,727,2,legacy,1024,2,48000,-16,experiment,HHSHH,3,odd,4760,NA,NA,NA,1812,NA,NA,106810,1820,NA,NA,105749,106911,107639,106808,106911,Flanker Task,60,32792,60,yes,1024
100,100,546.5081967,546.5081967,black,legacy,legacy,legacy,0,congruent,uniform,1,undefined,1,h,0,0,0,60,0,60,0,60,0,0,0,60,60,60,60,60,Fri Sep 25 23:35:07 2020,1500,The main experiment item,yes,FlankerTask.osexp,C:\Users\katri\OneDrive\Documents\Fall 2020\Flanker Test,no,mono,no,18,no,white,no,yes,768,legacy,60,60,C:/Users/katri/OneDrive/Documents/Fall 2020/Flanker Test/subject-3.csv,legacy,Lentiform Loewenfeld,3.3.3,0,h,NA,s,NA,NA,h,545,NA,2939,NA,NA,545,2,legacy,1024,2,48000,-16,experiment,HHHHH,3,odd,4760,NA,NA,NA,1812,NA,NA,108726,1820,NA,NA,107663,108831,109377,108724,108830,Flanker Task,61,33337,61,yes,1024
100,100,546.0806452,546.0806452,black,legacy,legacy,legacy,0,incongrunet,uniform,1,undefined,1,h,0,0,0,61,0,61,0,61,0,0,0,61,61,61,61,61,Fri Sep 25 23:35:07 2020,1500,The main experiment item,yes,FlankerTask.osexp,C:\Users\katri\OneDrive\Documents\Fall 2020\Flanker Test,no,mono,no,18,no,white,no,yes,768,legacy,61,61,C:/Users/katri/OneDrive/Documents/Fall 2020/Flanker Test/subject-3.csv,legacy,Lentiform Loewenfeld,3.3.3,0,h,NA,s,NA,NA,h,520,NA,2939,NA,NA,520,2,legacy,1024,2,48000,-16,experiment,SSHSS,3,odd,4760,NA,NA,NA,1812,NA,NA,110446,1820,NA,NA,109384,110547,111068,110444,110547,Flanker Task,62,33857,62,yes,1024
100,100,545.015873,545.015873,black,legacy,legacy,legacy,0,incongruent,uniform,1,undefined,1,s,0,0,0,62,0,62,0,62,0,0,0,62,62,62,62,62,Fri Sep 25 23:35:07 2020,1500,The main experiment item,yes,FlankerTask.osexp,C:\Users\katri\OneDrive\Documents\Fall 2020\Flanker Test,no,mono,no,18,no,white,no,yes,768,legacy,62,62,C:/Users/katri/OneDrive/Documents/Fall 2020/Flanker Test/subject-3.csv,legacy,Lentiform Loewenfeld,3.3.3,0,s,NA,s,NA,NA,s,479,NA,2939,NA,NA,479,2,legacy,1024,2,48000,-16,experiment,HHSHH,3,odd,4760,NA,NA,NA,1812,NA,NA,112134,1820,NA,NA,111071,112235,112714,112132,112235,Flanker Task,63,34336,63,yes,1024
100,100,544.28125,544.28125,black,legacy,legacy,legacy,0,incongrunet,uniform,1,undefined,1,h,0,0,0,63,0,63,0,63,0,0,0,63,63,63,63,63,Fri Sep 25 23:35:07 2020,1500,The main experiment item,yes,FlankerTask.osexp,C:\Users\katri\OneDrive\Documents\Fall 2020\Flanker Test,no,mono,no,18,no,white,no,yes,768,legacy,63,63,C:/Users/katri/OneDrive/Documents/Fall 2020/Flanker Test/subject-3.csv,legacy,Lentiform Loewenfeld,3.3.3,0,h,NA,s,NA,NA,h,498,NA,2939,NA,NA,498,2,legacy,1024,2,48000,-16,experiment,SSHSS,3,odd,4760,NA,NA,NA,1812,NA,NA,113783,1820,NA,NA,112721,113887,114386,113781,113887,Flanker Task,64,34834,64,yes,1024
100,100,542.3076923,542.3076923,black,legacy,legacy,legacy,0,incongruent,uniform,1,undefined,1,s,0,0,0,64,0,64,0,64,0,0,0,64,64,64,64,64,Fri Sep 25 23:35:07 2020,1500,The main experiment item,yes,FlankerTask.osexp,C:\Users\katri\OneDrive\Documents\Fall 2020\Flanker Test,no,mono,no,18,no,white,no,yes,768,legacy,64,64,C:/Users/katri/OneDrive/Documents/Fall 2020/Flanker Test/subject-3.csv,legacy,Lentiform Loewenfeld,3.3.3,0,s,NA,s,NA,NA,s,416,NA,2939,NA,NA,416,2,legacy,1024,2,48000,-16,experiment,HHSHH,3,odd,4760,NA,NA,NA,1812,NA,NA,115459,1820,NA,NA,114390,115560,115977,115457,115560,Flanker Task,65,35250,65,yes,1024
100,100,541.9848485,541.9848485,black,legacy,legacy,legacy,0,incongrunet,uniform,1,undefined,1,h,0,0,0,65,0,65,0,65,0,0,0,65,65,65,65,65,Fri Sep 25 23:35:07 2020,1500,The main experiment item,yes,FlankerTask.osexp,C:\Users\katri\OneDrive\Documents\Fall 2020\Flanker Test,no,mono,no,18,no,white,no,yes,768,legacy,65,65,C:/Users/katri/OneDrive/Documents/Fall 2020/Flanker Test/subject-3.csv,legacy,Lentiform Loewenfeld,3.3.3,0,h,NA,s,NA,NA,h,521,NA,2939,NA,NA,521,2,legacy,1024,2,48000,-16,experiment,SSHSS,3,odd,4760,NA,NA,NA,1812,NA,NA,117048,1820,NA,NA,115980,117149,117671,117045,117149,Flanker Task,66,35771,66,yes,1024
100,100,541.8208955,541.8208955,black,legacy,legacy,legacy,0,congruent,uniform,1,undefined,1,h,0,0,0,66,0,66,0,66,0,0,0,66,66,66,66,66,Fri Sep 25 23:35:07 2020,1500,The main experiment item,yes,FlankerTask.osexp,C:\Users\katri\OneDrive\Documents\Fall 2020\Flanker Test,no,mono,no,18,no,white,no,yes,768,legacy,66,66,C:/Users/katri/OneDrive/Documents/Fall 2020/Flanker Test/subject-3.csv,legacy,Lentiform Loewenfeld,3.3.3,0,h,NA,s,NA,NA,h,531,NA,2939,NA,NA,531,2,legacy,1024,2,48000,-16,experiment,HHHHH,3,odd,4760,NA,NA,NA,1812,NA,NA,118743,1820,NA,NA,117681,118844,119375,118741,118844,Flanker Task,67,36302,67,yes,1024
100,100,541.7794118,541.7794118,black,legacy,legacy,legacy,0,congruent,uniform,1,undefined,1,h,0,0,0,67,0,67,0,67,0,0,0,67,67,67,67,67,Fri Sep 25 23:35:07 2020,1500,The main experiment item,yes,FlankerTask.osexp,C:\Users\katri\OneDrive\Documents\Fall 2020\Flanker Test,no,mono,no,18,no,white,no,yes,768,legacy,67,67,C:/Users/katri/OneDrive/Documents/Fall 2020/Flanker Test/subject-3.csv,legacy,Lentiform Loewenfeld,3.3.3,0,h,NA,s,NA,NA,h,539,NA,2939,NA,NA,539,2,legacy,1024,2,48000,-16,experiment,HHHHH,3,odd,4760,NA,NA,NA,1812,NA,NA,120440,1820,NA,NA,119380,120543,121083,120437,120543,Flanker Task,68,36841,68,yes,1024
100,100,543.173913,543.173913,black,legacy,legacy,legacy,0,incongrunet,uniform,1,undefined,1,h,0,0,0,68,0,68,0,68,0,0,0,68,68,68,68,68,Fri Sep 25 23:35:07 2020,1500,The main experiment item,yes,FlankerTask.osexp,C:\Users\katri\OneDrive\Documents\Fall 2020\Flanker Test,no,mono,no,18,no,white,no,yes,768,legacy,68,68,C:/Users/katri/OneDrive/Documents/Fall 2020/Flanker Test/subject-3.csv,legacy,Lentiform Loewenfeld,3.3.3,0,h,NA,s,NA,NA,h,638,NA,2939,NA,NA,638,2,legacy,1024,2,48000,-16,experiment,SSHSS,3,odd,4760,NA,NA,NA,1812,NA,NA,122170,1820,NA,NA,121105,122274,122912,122167,122274,Flanker Task,69,37479,69,yes,1024
100,100,544.6142857,544.6142857,black,legacy,legacy,legacy,0,congruent,uniform,1,undefined,1,h,0,0,0,69,0,69,0,69,0,0,0,69,69,69,69,69,Fri Sep 25 23:35:07 2020,1500,The main experiment item,yes,FlankerTask.osexp,C:\Users\katri\OneDrive\Documents\Fall 2020\Flanker Test,no,mono,no,18,no,white,no,yes,768,legacy,69,69,C:/Users/katri/OneDrive/Documents/Fall 2020/Flanker Test/subject-3.csv,legacy,Lentiform Loewenfeld,3.3.3,0,h,NA,s,NA,NA,h,644,NA,2939,NA,NA,644,2,legacy,1024,2,48000,-16,experiment,HHHHH,3,odd,4760,NA,NA,NA,1812,NA,NA,123998,1820,NA,NA,122935,124099,124743,123995,124099,Flanker Task,70,38123,70,yes,1024
100,100,547.2394366,547.2394366,black,legacy,legacy,legacy,0,incongruent,uniform,1,undefined,1,s,0,0,0,70,0,70,0,70,0,0,0,70,70,70,70,70,Fri Sep 25 23:35:07 2020,1500,The main experiment item,yes,FlankerTask.osexp,C:\Users\katri\OneDrive\Documents\Fall 2020\Flanker Test,no,mono,no,18,no,white,no,yes,768,legacy,70,70,C:/Users/katri/OneDrive/Documents/Fall 2020/Flanker Test/subject-3.csv,legacy,Lentiform Loewenfeld,3.3.3,0,s,NA,s,NA,NA,s,731,NA,2939,NA,NA,731,2,legacy,1024,2,48000,-16,experiment,HHSHH,3,odd,4760,NA,NA,NA,1812,NA,NA,125813,1820,NA,NA,124751,125918,126649,125811,125918,Flanker Task,71,38854,71,yes,1024
100,100,546.2222222,546.2222222,black,legacy,legacy,legacy,0,incongruent,uniform,1,undefined,1,s,0,0,0,71,0,71,0,71,0,0,0,71,71,71,71,71,Fri Sep 25 23:35:07 2020,1500,The main experiment item,yes,FlankerTask.osexp,C:\Users\katri\OneDrive\Documents\Fall 2020\Flanker Test,no,mono,no,18,no,white,no,yes,768,legacy,71,71,C:/Users/katri/OneDrive/Documents/Fall 2020/Flanker Test/subject-3.csv,legacy,Lentiform Loewenfeld,3.3.3,0,s,NA,s,NA,NA,s,474,NA,2939,NA,NA,474,2,legacy,1024,2,48000,-16,experiment,HHSHH,3,odd,4760,NA,NA,NA,1812,NA,NA,127721,1820,NA,NA,126660,127824,128299,127719,127824,Flanker Task,72,39328,72,yes,1024
100,100,545.7808219,545.7808219,black,legacy,legacy,legacy,0,congruent,uniform,1,undefined,1,s,0,0,0,72,0,72,0,72,0,0,0,72,72,72,72,72,Fri Sep 25 23:35:07 2020,1500,The main experiment item,yes,FlankerTask.osexp,C:\Users\katri\OneDrive\Documents\Fall 2020\Flanker Test,no,mono,no,18,no,white,no,yes,768,legacy,72,72,C:/Users/katri/OneDrive/Documents/Fall 2020/Flanker Test/subject-3.csv,legacy,Lentiform Loewenfeld,3.3.3,0,s,NA,s,NA,NA,s,514,NA,2939,NA,NA,514,2,legacy,1024,2,48000,-16,experiment,SSSSS,3,odd,4760,NA,NA,NA,1812,NA,NA,129366,1820,NA,NA,128306,129471,129985,129364,129470,Flanker Task,73,39842,73,yes,1024
100,100,545.0405405,545.0405405,black,legacy,legacy,legacy,0,congruent,uniform,1,undefined,1,s,0,0,0,73,0,73,0,73,0,0,0,73,73,73,73,73,Fri Sep 25 23:35:07 2020,1500,The main experiment item,yes,FlankerTask.osexp,C:\Users\katri\OneDrive\Documents\Fall 2020\Flanker Test,no,mono,no,18,no,white,no,yes,768,legacy,73,73,C:/Users/katri/OneDrive/Documents/Fall 2020/Flanker Test/subject-3.csv,legacy,Lentiform Loewenfeld,3.3.3,0,s,NA,s,NA,NA,s,491,NA,2939,NA,NA,491,2,legacy,1024,2,48000,-16,experiment,SSSSS,3,odd,4760,NA,NA,NA,1812,NA,NA,131076,1820,NA,NA,130010,131181,131673,131074,131180,Flanker Task,74,40333,74,yes,1024
100,100,544.2,544.2,black,legacy,legacy,legacy,0,congruent,uniform,1,undefined,1,h,0,0,0,74,0,74,0,74,0,0,0,74,74,74,74,74,Fri Sep 25 23:35:07 2020,1500,The main experiment item,yes,FlankerTask.osexp,C:\Users\katri\OneDrive\Documents\Fall 2020\Flanker Test,no,mono,no,18,no,white,no,yes,768,legacy,74,74,C:/Users/katri/OneDrive/Documents/Fall 2020/Flanker Test/subject-3.csv,legacy,Lentiform Loewenfeld,3.3.3,0,h,NA,s,NA,NA,h,482,NA,2939,NA,NA,482,2,legacy,1024,2,48000,-16,experiment,HHHHH,3,odd,4760,NA,NA,NA,1812,NA,NA,132743,1820,NA,NA,131680,132844,133326,132741,132844,Flanker Task,75,40815,75,yes,1024
100,100,542.4078947,542.4078947,black,legacy,legacy,legacy,0,congruent,uniform,1,undefined,1,h,0,0,0,75,0,75,0,75,0,0,0,75,75,75,75,75,Fri Sep 25 23:35:07 2020,1500,The main experiment item,yes,FlankerTask.osexp,C:\Users\katri\OneDrive\Documents\Fall 2020\Flanker Test,no,mono,no,18,no,white,no,yes,768,legacy,75,75,C:/Users/katri/OneDrive/Documents/Fall 2020/Flanker Test/subject-3.csv,legacy,Lentiform Loewenfeld,3.3.3,0,h,NA,s,NA,NA,h,408,NA,2939,NA,NA,408,2,legacy,1024,2,48000,-16,experiment,HHHHH,3,odd,4760,NA,NA,NA,1812,NA,NA,134396,1820,NA,NA,133333,134501,134910,134394,134500,Flanker Task,76,41223,76,yes,1024
100,100,541.3636364,541.3636364,black,legacy,legacy,legacy,0,incongruent,uniform,1,undefined,1,s,0,0,0,76,0,76,0,76,0,0,0,76,76,76,76,76,Fri Sep 25 23:35:07 2020,1500,The main experiment item,yes,FlankerTask.osexp,C:\Users\katri\OneDrive\Documents\Fall 2020\Flanker Test,no,mono,no,18,no,white,no,yes,768,legacy,76,76,C:/Users/katri/OneDrive/Documents/Fall 2020/Flanker Test/subject-3.csv,legacy,Lentiform Loewenfeld,3.3.3,0,s,NA,s,NA,NA,s,462,NA,2939,NA,NA,462,2,legacy,1024,2,48000,-16,experiment,HHSHH,3,odd,4760,NA,NA,NA,1812,NA,NA,135977,1820,NA,NA,134917,136082,136545,135975,136081,Flanker Task,77,41685,77,yes,1024
100,100,539.9487179,539.9487179,black,legacy,legacy,legacy,0,incongruent,uniform,1,undefined,1,s,0,0,0,77,0,77,0,77,0,0,0,77,77,77,77,77,Fri Sep 25 23:35:07 2020,1500,The main experiment item,yes,FlankerTask.osexp,C:\Users\katri\OneDrive\Documents\Fall 2020\Flanker Test,no,mono,no,18,no,white,no,yes,768,legacy,77,77,C:/Users/katri/OneDrive/Documents/Fall 2020/Flanker Test/subject-3.csv,legacy,Lentiform Loewenfeld,3.3.3,0,s,NA,s,NA,NA,s,431,NA,2939,NA,NA,431,2,legacy,1024,2,48000,-16,experiment,HHSHH,3,odd,4760,NA,NA,NA,1812,NA,NA,137614,1820,NA,NA,136552,137716,138147,137613,137715,Flanker Task,78,42116,78,yes,1024
100,100,539.278481,539.278481,black,legacy,legacy,legacy,0,congruent,uniform,1,undefined,1,h,0,0,0,78,0,78,0,78,0,0,0,78,78,78,78,78,Fri Sep 25 23:35:07 2020,1500,The main experiment item,yes,FlankerTask.osexp,C:\Users\katri\OneDrive\Documents\Fall 2020\Flanker Test,no,mono,no,18,no,white,no,yes,768,legacy,78,78,C:/Users/katri/OneDrive/Documents/Fall 2020/Flanker Test/subject-3.csv,legacy,Lentiform Loewenfeld,3.3.3,0,h,NA,s,NA,NA,h,487,NA,2939,NA,NA,487,2,legacy,1024,2,48000,-16,experiment,HHHHH,3,odd,4760,NA,NA,NA,1812,NA,NA,139230,1820,NA,NA,138169,139331,139818,139228,139331,Flanker Task,79,42603,79,yes,1024
100,100,538.4375,538.4375,black,legacy,legacy,legacy,0,incongruent,uniform,1,undefined,1,s,0,0,0,79,0,79,0,79,0,0,0,79,79,79,79,79,Fri Sep 25 23:35:07 2020,1500,The main experiment item,yes,FlankerTask.osexp,C:\Users\katri\OneDrive\Documents\Fall 2020\Flanker Test,no,mono,no,18,no,white,no,yes,768,legacy,79,79,C:/Users/katri/OneDrive/Documents/Fall 2020/Flanker Test/subject-3.csv,legacy,Lentiform Loewenfeld,3.3.3,0,s,NA,s,NA,NA,s,472,NA,2939,NA,NA,472,2,legacy,1024,2,48000,-16,experiment,HHSHH,3,odd,4760,NA,NA,NA,1812,NA,NA,140887,1820,NA,NA,139826,140988,141460,140885,140988,Flanker Task,80,43075,80,yes,1024
100,100,538.4691358,538.4691358,black,legacy,legacy,legacy,0,congruent,uniform,1,undefined,1,h,0,0,0,80,0,80,0,80,0,0,0,80,80,80,80,80,Fri Sep 25 23:35:07 2020,600,The main experiment item,yes,FlankerTask.osexp,C:\Users\katri\OneDrive\Documents\Fall 2020\Flanker Test,no,mono,no,18,no,white,no,yes,768,legacy,0,79,C:/Users/katri/OneDrive/Documents/Fall 2020/Flanker Test/subject-3.csv,legacy,Lentiform Loewenfeld,3.3.3,0,h,NA,s,h,NA,h,541,NA,2939,7925,NA,541,2,legacy,1024,2,48000,-16,experiment,HHHHH,3,odd,4760,150410,NA,NA,1812,NA,NA,150454,1820,142485,NA,141466,150555,151097,150452,150555,Flanker Task,81,43616,81,yes,1024
100,100,537.4268293,537.4268293,black,legacy,legacy,legacy,0,congruent,uniform,1,undefined,1,h,0,0,0,81,0,81,0,81,0,0,0,81,81,81,81,81,Fri Sep 25 23:35:07 2020,600,The main experiment item,yes,FlankerTask.osexp,C:\Users\katri\OneDrive\Documents\Fall 2020\Flanker Test,no,mono,no,18,no,white,no,yes,768,legacy,1,79,C:/Users/katri/OneDrive/Documents/Fall 2020/Flanker Test/subject-3.csv,legacy,Lentiform Loewenfeld,3.3.3,0,h,NA,s,h,NA,h,453,NA,2939,7925,NA,453,2,legacy,1024,2,48000,-16,experiment,HHHHH,3,odd,4760,150410,NA,NA,1812,NA,NA,152183,1820,142485,NA,151120,152287,152741,152181,152287,Flanker Task,82,44069,82,yes,1024
100,100,534.3493976,534.3493976,black,legacy,legacy,legacy,0,congruent,uniform,1,undefined,1,s,0,0,0,82,0,82,0,82,0,0,0,82,82,82,82,82,Fri Sep 25 23:35:07 2020,600,The main experiment item,yes,FlankerTask.osexp,C:\Users\katri\OneDrive\Documents\Fall 2020\Flanker Test,no,mono,no,18,no,white,no,yes,768,legacy,2,79,C:/Users/katri/OneDrive/Documents/Fall 2020/Flanker Test/subject-3.csv,legacy,Lentiform Loewenfeld,3.3.3,0,s,NA,s,h,NA,s,282,NA,2939,7925,NA,282,2,legacy,1024,2,48000,-16,experiment,SSSSS,3,odd,4760,150410,NA,NA,1812,NA,NA,153824,1820,142485,NA,152763,153929,154211,153823,153928,Flanker Task,83,44351,83,yes,1024
100,100,532.9880952,532.9880952,black,legacy,legacy,legacy,0,congruent,uniform,1,undefined,1,h,0,0,0,83,0,83,0,83,0,0,0,83,83,83,83,83,Fri Sep 25 23:35:07 2020,600,The main experiment item,yes,FlankerTask.osexp,C:\Users\katri\OneDrive\Documents\Fall 2020\Flanker Test,no,mono,no,18,no,white,no,yes,768,legacy,3,79,C:/Users/katri/OneDrive/Documents/Fall 2020/Flanker Test/subject-3.csv,legacy,Lentiform Loewenfeld,3.3.3,0,h,NA,s,h,NA,h,420,NA,2939,7925,NA,420,2,legacy,1024,2,48000,-16,experiment,HHHHH,3,odd,4760,150410,NA,NA,1812,NA,NA,155294,1820,142485,NA,154233,155399,155819,155292,155398,Flanker Task,84,44771,84,yes,1024
100,100,531.0941176,531.0941176,black,legacy,legacy,legacy,0,incongrunet,uniform,1,undefined,1,h,0,0,0,84,0,84,0,84,0,0,0,84,84,84,84,84,Fri Sep 25 23:35:07 2020,600,The main experiment item,yes,FlankerTask.osexp,C:\Users\katri\OneDrive\Documents\Fall 2020\Flanker Test,no,mono,no,18,no,white,no,yes,768,legacy,4,79,C:/Users/katri/OneDrive/Documents/Fall 2020/Flanker Test/subject-3.csv,legacy,Lentiform Loewenfeld,3.3.3,0,h,NA,s,h,NA,h,372,NA,2939,7925,NA,372,2,legacy,1024,2,48000,-16,experiment,SSHSS,3,odd,4760,150410,NA,NA,1812,NA,NA,156904,1820,142485,NA,155842,157009,157381,156902,157008,Flanker Task,85,45143,85,yes,1024
100,100,529.0813953,529.0813953,black,legacy,legacy,legacy,0,congruent,uniform,1,undefined,1,s,0,0,0,85,0,85,0,85,0,0,0,85,85,85,85,85,Fri Sep 25 23:35:07 2020,600,The main experiment item,yes,FlankerTask.osexp,C:\Users\katri\OneDrive\Documents\Fall 2020\Flanker Test,no,mono,no,18,no,white,no,yes,768,legacy,5,79,C:/Users/katri/OneDrive/Documents/Fall 2020/Flanker Test/subject-3.csv,legacy,Lentiform Loewenfeld,3.3.3,0,s,NA,s,h,NA,s,358,NA,2939,7925,NA,358,2,legacy,1024,2,48000,-16,experiment,SSSSS,3,odd,4760,150410,NA,NA,1812,NA,NA,158446,1820,142485,NA,157384,158551,158910,158444,158550,Flanker Task,86,45501,86,yes,1024
100,100,526.8045977,526.8045977,black,legacy,legacy,legacy,0,incongrunet,uniform,1,undefined,1,h,0,0,0,86,0,86,0,86,0,0,0,86,86,86,86,86,Fri Sep 25 23:35:07 2020,600,The main experiment item,yes,FlankerTask.osexp,C:\Users\katri\OneDrive\Documents\Fall 2020\Flanker Test,no,mono,no,18,no,white,no,yes,768,legacy,6,79,C:/Users/katri/OneDrive/Documents/Fall 2020/Flanker Test/subject-3.csv,legacy,Lentiform Loewenfeld,3.3.3,0,h,NA,s,h,NA,h,331,NA,2939,7925,NA,331,2,legacy,1024,2,48000,-16,experiment,SSHSS,3,odd,4760,150410,NA,NA,1812,NA,NA,159998,1820,142485,NA,158932,160099,160431,159996,160099,Flanker Task,87,45832,87,yes,1024
100,100,526.25,526.25,black,legacy,legacy,legacy,0,incongrunet,uniform,1,undefined,1,h,0,0,0,87,0,87,0,87,0,0,0,87,87,87,87,87,Fri Sep 25 23:35:07 2020,600,The main experiment item,yes,FlankerTask.osexp,C:\Users\katri\OneDrive\Documents\Fall 2020\Flanker Test,no,mono,no,18,no,white,no,yes,768,legacy,7,79,C:/Users/katri/OneDrive/Documents/Fall 2020/Flanker Test/subject-3.csv,legacy,Lentiform Loewenfeld,3.3.3,0,h,NA,s,h,NA,h,478,NA,2939,7925,NA,478,2,legacy,1024,2,48000,-16,experiment,SSHSS,3,odd,4760,150410,NA,NA,1812,NA,NA,161516,1820,142485,NA,160455,161621,162100,161514,161620,Flanker Task,88,46310,88,yes,1024
100,100,524.8651685,524.8651685,black,legacy,legacy,legacy,0,congruent,uniform,1,undefined,1,s,0,0,0,88,0,88,0,88,0,0,0,88,88,88,88,88,Fri Sep 25 23:35:07 2020,600,The main experiment item,yes,FlankerTask.osexp,C:\Users\katri\OneDrive\Documents\Fall 2020\Flanker Test,no,mono,no,18,no,white,no,yes,768,legacy,8,79,C:/Users/katri/OneDrive/Documents/Fall 2020/Flanker Test/subject-3.csv,legacy,Lentiform Loewenfeld,3.3.3,0,s,NA,s,h,NA,s,403,NA,2939,7925,NA,403,2,legacy,1024,2,48000,-16,experiment,SSSSS,3,odd,4760,150410,NA,NA,1812,NA,NA,163170,1820,142485,NA,162107,163275,163679,163167,163274,Flanker Task,89,46713,89,yes,1024
100,100,523.5444444,523.5444444,black,legacy,legacy,legacy,0,congruent,uniform,1,undefined,1,h,0,0,0,89,0,89,0,89,0,0,0,89,89,89,89,89,Fri Sep 25 23:35:07 2020,600,The main experiment item,yes,FlankerTask.osexp,C:\Users\katri\OneDrive\Documents\Fall 2020\Flanker Test,no,mono,no,18,no,white,no,yes,768,legacy,9,79,C:/Users/katri/OneDrive/Documents/Fall 2020/Flanker Test/subject-3.csv,legacy,Lentiform Loewenfeld,3.3.3,0,h,NA,s,h,NA,h,406,NA,2939,7925,NA,406,2,legacy,1024,2,48000,-16,experiment,HHHHH,3,odd,4760,150410,NA,NA,1812,NA,NA,164749,1820,142485,NA,163686,164854,165261,164747,164853,Flanker Task,90,47119,90,yes,1024
100,100,522,522,black,legacy,legacy,legacy,0,incongrunet,uniform,1,undefined,1,h,0,0,0,90,0,90,0,90,0,0,0,90,90,90,90,90,Fri Sep 25 23:35:07 2020,600,The main experiment item,yes,FlankerTask.osexp,C:\Users\katri\OneDrive\Documents\Fall 2020\Flanker Test,no,mono,no,18,no,white,no,yes,768,legacy,10,79,C:/Users/katri/OneDrive/Documents/Fall 2020/Flanker Test/subject-3.csv,legacy,Lentiform Loewenfeld,3.3.3,0,h,NA,s,h,NA,h,383,NA,2939,7925,NA,383,2,legacy,1024,2,48000,-16,experiment,SSHSS,3,odd,4760,150410,NA,NA,1812,NA,NA,166331,1820,142485,NA,165268,166437,166821,166329,166436,Flanker Task,91,47502,91,yes,1024
100,100,520.2717391,520.2717391,black,legacy,legacy,legacy,0,congruent,uniform,1,undefined,1,s,0,0,0,91,0,91,0,91,0,0,0,91,91,91,91,91,Fri Sep 25 23:35:07 2020,600,The main experiment item,yes,FlankerTask.osexp,C:\Users\katri\OneDrive\Documents\Fall 2020\Flanker Test,no,mono,no,18,no,white,no,yes,768,legacy,11,79,C:/Users/katri/OneDrive/Documents/Fall 2020/Flanker Test/subject-3.csv,legacy,Lentiform Loewenfeld,3.3.3,0,s,NA,s,h,NA,s,363,NA,2939,7925,NA,363,2,legacy,1024,2,48000,-16,experiment,SSSSS,3,odd,4760,150410,NA,NA,1812,NA,NA,167902,1820,142485,NA,166843,168006,168370,167900,168006,Flanker Task,92,47865,92,yes,1024
100,100,519.5806452,519.5806452,black,legacy,legacy,legacy,0,congruent,uniform,1,undefined,1,h,0,0,0,92,0,92,0,92,0,0,0,92,92,92,92,92,Fri Sep 25 23:35:07 2020,600,The main experiment item,yes,FlankerTask.osexp,C:\Users\katri\OneDrive\Documents\Fall 2020\Flanker Test,no,mono,no,18,no,white,no,yes,768,legacy,12,79,C:/Users/katri/OneDrive/Documents/Fall 2020/Flanker Test/subject-3.csv,legacy,Lentiform Loewenfeld,3.3.3,0,h,NA,s,h,NA,h,456,NA,2939,7925,NA,456,2,legacy,1024,2,48000,-16,experiment,HHHHH,3,odd,4760,150410,NA,NA,1812,NA,NA,169453,1820,142485,NA,168377,169558,170015,169451,169558,Flanker Task,93,48321,93,yes,1024
100,100,518.6702128,518.6702128,black,legacy,legacy,legacy,0,incongruent,uniform,1,undefined,1,s,0,0,0,93,0,93,0,93,0,0,0,93,93,93,93,93,Fri Sep 25 23:35:07 2020,600,The main experiment item,yes,FlankerTask.osexp,C:\Users\katri\OneDrive\Documents\Fall 2020\Flanker Test,no,mono,no,18,no,white,no,yes,768,legacy,13,79,C:/Users/katri/OneDrive/Documents/Fall 2020/Flanker Test/subject-3.csv,legacy,Lentiform Loewenfeld,3.3.3,0,s,NA,s,h,NA,s,434,NA,2939,7925,NA,434,2,legacy,1024,2,48000,-16,experiment,HHSHH,3,odd,4760,150410,NA,NA,1812,NA,NA,171100,1820,142485,NA,170039,171205,171640,171098,171204,Flanker Task,94,48755,94,yes,1024
100,100,518.1263158,518.1263158,black,legacy,legacy,legacy,0,incongrunet,uniform,1,undefined,1,h,0,0,0,94,0,94,0,94,0,0,0,94,94,94,94,94,Fri Sep 25 23:35:07 2020,600,The main experiment item,yes,FlankerTask.osexp,C:\Users\katri\OneDrive\Documents\Fall 2020\Flanker Test,no,mono,no,18,no,white,no,yes,768,legacy,14,79,C:/Users/katri/OneDrive/Documents/Fall 2020/Flanker Test/subject-3.csv,legacy,Lentiform Loewenfeld,3.3.3,0,h,NA,s,h,NA,h,467,NA,2939,7925,NA,467,2,legacy,1024,2,48000,-16,experiment,SSHSS,3,odd,4760,150410,NA,NA,1812,NA,NA,172724,1820,142485,NA,171662,172829,173297,172722,172828,Flanker Task,95,49222,95,yes,1024
100,100,518.1354167,518.1354167,black,legacy,legacy,legacy,0,congruent,uniform,1,undefined,1,s,0,0,0,95,0,95,0,95,0,0,0,95,95,95,95,95,Fri Sep 25 23:35:07 2020,600,The main experiment item,yes,FlankerTask.osexp,C:\Users\katri\OneDrive\Documents\Fall 2020\Flanker Test,no,mono,no,18,no,white,no,yes,768,legacy,15,79,C:/Users/katri/OneDrive/Documents/Fall 2020/Flanker Test/subject-3.csv,legacy,Lentiform Loewenfeld,3.3.3,0,s,NA,s,h,NA,s,519,NA,2939,7925,NA,519,2,legacy,1024,2,48000,-16,experiment,SSSSS,3,odd,4760,150410,NA,NA,1812,NA,NA,174380,1820,142485,NA,173321,174484,175003,174378,174484,Flanker Task,96,49741,96,yes,1024
100,100,517.1340206,517.1340206,black,legacy,legacy,legacy,0,congruent,uniform,1,undefined,1,s,0,0,0,96,0,96,0,96,0,0,0,96,96,96,96,96,Fri Sep 25 23:35:07 2020,600,The main experiment item,yes,FlankerTask.osexp,C:\Users\katri\OneDrive\Documents\Fall 2020\Flanker Test,no,mono,no,18,no,white,no,yes,768,legacy,16,79,C:/Users/katri/OneDrive/Documents/Fall 2020/Flanker Test/subject-3.csv,legacy,Lentiform Loewenfeld,3.3.3,0,s,NA,s,h,NA,s,421,NA,2939,7925,NA,421,2,legacy,1024,2,48000,-16,experiment,SSSSS,3,odd,4760,150410,NA,NA,1812,NA,NA,176072,1820,142485,NA,175010,176177,176599,176070,176176,Flanker Task,97,50162,97,yes,1024
100,100,516.0510204,516.0510204,black,legacy,legacy,legacy,0,congruent,uniform,1,undefined,1,h,0,0,0,97,0,97,0,97,0,0,0,97,97,97,97,97,Fri Sep 25 23:35:07 2020,600,The main experiment item,yes,FlankerTask.osexp,C:\Users\katri\OneDrive\Documents\Fall 2020\Flanker Test,no,mono,no,18,no,white,no,yes,768,legacy,17,79,C:/Users/katri/OneDrive/Documents/Fall 2020/Flanker Test/subject-3.csv,legacy,Lentiform Loewenfeld,3.3.3,0,h,NA,s,h,NA,h,411,NA,2939,7925,NA,411,2,legacy,1024,2,48000,-16,experiment,HHHHH,3,odd,4760,150410,NA,NA,1812,NA,NA,177668,1820,142485,NA,176606,177773,178185,177666,177772,Flanker Task,98,50573,98,yes,1024
100,100,515.1515152,515.1515152,black,legacy,legacy,legacy,0,congruent,uniform,1,undefined,1,s,0,0,0,98,0,98,0,98,0,0,0,98,98,98,98,98,Fri Sep 25 23:35:07 2020,600,The main experiment item,yes,FlankerTask.osexp,C:\Users\katri\OneDrive\Documents\Fall 2020\Flanker Test,no,mono,no,18,no,white,no,yes,768,legacy,18,79,C:/Users/katri/OneDrive/Documents/Fall 2020/Flanker Test/subject-3.csv,legacy,Lentiform Loewenfeld,3.3.3,0,s,NA,s,h,NA,s,427,NA,2939,7925,NA,427,2,legacy,1024,2,48000,-16,experiment,SSSSS,3,odd,4760,150410,NA,NA,1812,NA,NA,179271,1820,142485,NA,178209,179373,179801,179269,179373,Flanker Task,99,51000,99,yes,1024
100,100,513.75,513.75,black,legacy,legacy,legacy,0,congruent,uniform,1,undefined,1,h,0,0,0,99,0,99,0,99,0,0,0,99,99,99,99,99,Fri Sep 25 23:35:07 2020,600,The main experiment item,yes,FlankerTask.osexp,C:\Users\katri\OneDrive\Documents\Fall 2020\Flanker Test,no,mono,no,18,no,white,no,yes,768,legacy,19,79,C:/Users/katri/OneDrive/Documents/Fall 2020/Flanker Test/subject-3.csv,legacy,Lentiform Loewenfeld,3.3.3,0,h,NA,s,h,NA,h,375,NA,2939,7925,NA,375,2,legacy,1024,2,48000,-16,experiment,HHHHH,3,odd,4760,150410,NA,NA,1812,NA,NA,180887,1820,142485,NA,179825,180991,181366,180885,180990,Flanker Task,100,51375,100,yes,1024
100,100,512.3960396,512.3960396,black,legacy,legacy,legacy,0,incongruent,uniform,1,undefined,1,s,0,0,0,100,0,100,0,100,0,0,0,100,100,100,100,100,Fri Sep 25 23:35:07 2020,600,The main experiment item,yes,FlankerTask.osexp,C:\Users\katri\OneDrive\Documents\Fall 2020\Flanker Test,no,mono,no,18,no,white,no,yes,768,legacy,20,79,C:/Users/katri/OneDrive/Documents/Fall 2020/Flanker Test/subject-3.csv,legacy,Lentiform Loewenfeld,3.3.3,0,s,NA,s,h,NA,s,377,NA,2939,7925,NA,377,2,legacy,1024,2,48000,-16,experiment,HHSHH,3,odd,4760,150410,NA,NA,1812,NA,NA,182451,1820,142485,NA,181389,182556,182933,182449,182556,Flanker Task,101,51752,101,yes,1024
100,100,510.4705882,510.4705882,black,legacy,legacy,legacy,0,incongrunet,uniform,1,undefined,1,h,0,0,0,101,0,101,0,101,0,0,0,101,101,101,101,101,Fri Sep 25 23:35:07 2020,600,The main experiment item,yes,FlankerTask.osexp,C:\Users\katri\OneDrive\Documents\Fall 2020\Flanker Test,no,mono,no,18,no,white,no,yes,768,legacy,21,79,C:/Users/katri/OneDrive/Documents/Fall 2020/Flanker Test/subject-3.csv,legacy,Lentiform Loewenfeld,3.3.3,0,h,NA,s,h,NA,h,316,NA,2939,7925,NA,316,2,legacy,1024,2,48000,-16,experiment,SSHSS,3,odd,4760,150410,NA,NA,1812,NA,NA,184020,1820,142485,NA,182957,184125,184442,184018,184124,Flanker Task,102,52068,102,yes,1024
100,100,509.184466,509.184466,black,legacy,legacy,legacy,0,congruent,uniform,1,undefined,1,h,0,0,0,102,0,102,0,102,0,0,0,102,102,102,102,102,Fri Sep 25 23:35:07 2020,600,The main experiment item,yes,FlankerTask.osexp,C:\Users\katri\OneDrive\Documents\Fall 2020\Flanker Test,no,mono,no,18,no,white,no,yes,768,legacy,22,79,C:/Users/katri/OneDrive/Documents/Fall 2020/Flanker Test/subject-3.csv,legacy,Lentiform Loewenfeld,3.3.3,0,h,NA,s,h,NA,h,378,NA,2939,7925,NA,378,2,legacy,1024,2,48000,-16,experiment,HHHHH,3,odd,4760,150410,NA,NA,1812,NA,NA,185510,1820,142485,NA,184449,185614,185993,185509,185614,Flanker Task,103,52446,103,yes,1024
100,100,507.5865385,507.5865385,black,legacy,legacy,legacy,0,incongruent,uniform,1,undefined,1,s,0,0,0,103,0,103,0,103,0,0,0,103,103,103,103,103,Fri Sep 25 23:35:07 2020,600,The main experiment item,yes,FlankerTask.osexp,C:\Users\katri\OneDrive\Documents\Fall 2020\Flanker Test,no,mono,no,18,no,white,no,yes,768,legacy,23,79,C:/Users/katri/OneDrive/Documents/Fall 2020/Flanker Test/subject-3.csv,legacy,Lentiform Loewenfeld,3.3.3,0,s,NA,s,h,NA,s,343,NA,2939,7925,NA,343,2,legacy,1024,2,48000,-16,experiment,HHSHH,3,odd,4760,150410,NA,NA,1812,NA,NA,187080,1820,142485,NA,186017,187185,187529,187078,187184,Flanker Task,104,52789,104,yes,1024
100,100,505.9619048,505.9619048,black,legacy,legacy,legacy,0,congruent,uniform,1,undefined,1,s,0,0,0,104,0,104,0,104,0,0,0,104,104,104,104,104,Fri Sep 25 23:35:07 2020,600,The main experiment item,yes,FlankerTask.osexp,C:\Users\katri\OneDrive\Documents\Fall 2020\Flanker Test,no,mono,no,18,no,white,no,yes,768,legacy,24,79,C:/Users/katri/OneDrive/Documents/Fall 2020/Flanker Test/subject-3.csv,legacy,Lentiform Loewenfeld,3.3.3,0,s,NA,s,h,NA,s,337,NA,2939,7925,NA,337,2,legacy,1024,2,48000,-16,experiment,SSSSS,3,odd,4760,150410,NA,NA,1812,NA,NA,188615,1820,142485,NA,187554,188716,189054,188613,188716,Flanker Task,105,53126,105,yes,1024
100,100,505.0188679,505.0188679,black,legacy,legacy,legacy,0,congruent,uniform,1,undefined,1,h,0,0,0,105,0,105,0,105,0,0,0,105,105,105,105,105,Fri Sep 25 23:35:07 2020,600,The main experiment item,yes,FlankerTask.osexp,C:\Users\katri\OneDrive\Documents\Fall 2020\Flanker Test,no,mono,no,18,no,white,no,yes,768,legacy,25,79,C:/Users/katri/OneDrive/Documents/Fall 2020/Flanker Test/subject-3.csv,legacy,Lentiform Loewenfeld,3.3.3,0,h,NA,s,h,NA,h,406,NA,2939,7925,NA,406,2,legacy,1024,2,48000,-16,experiment,HHHHH,3,odd,4760,150410,NA,NA,1812,NA,NA,190136,1820,142485,NA,189076,190241,190648,190134,190240,Flanker Task,106,53532,106,yes,1024
100,100,504.3551402,504.3551402,black,legacy,legacy,legacy,0,incongruent,uniform,1,undefined,1,s,0,0,0,106,0,106,0,106,0,0,0,106,106,106,106,106,Fri Sep 25 23:35:07 2020,600,The main experiment item,yes,FlankerTask.osexp,C:\Users\katri\OneDrive\Documents\Fall 2020\Flanker Test,no,mono,no,18,no,white,no,yes,768,legacy,26,79,C:/Users/katri/OneDrive/Documents/Fall 2020/Flanker Test/subject-3.csv,legacy,Lentiform Loewenfeld,3.3.3,0,s,NA,s,h,NA,s,434,NA,2939,7925,NA,434,2,legacy,1024,2,48000,-16,experiment,HHSHH,3,odd,4760,150410,NA,NA,1812,NA,NA,191732,1820,142485,NA,190670,191837,192272,191729,191835,Flanker Task,107,53966,107,yes,1024
100,100,505.1203704,505.1203704,black,legacy,legacy,legacy,0,incongruent,uniform,1,undefined,1,s,0,0,0,107,0,107,0,107,0,0,0,107,107,107,107,107,Fri Sep 25 23:35:07 2020,600,The main experiment item,yes,FlankerTask.osexp,C:\Users\katri\OneDrive\Documents\Fall 2020\Flanker Test,no,mono,no,18,no,white,no,yes,768,legacy,27,79,C:/Users/katri/OneDrive/Documents/Fall 2020/Flanker Test/subject-3.csv,legacy,Lentiform Loewenfeld,3.3.3,0,s,NA,s,h,NA,s,587,NA,2939,7925,NA,587,2,legacy,1024,2,48000,-16,experiment,HHSHH,3,odd,4760,150410,NA,NA,1812,NA,NA,193341,1820,142485,NA,192279,193442,194030,193339,193442,Flanker Task,108,54553,108,yes,1024
100,100,504.0091743,504.0091743,black,legacy,legacy,legacy,0,congruent,uniform,1,undefined,1,h,0,0,0,108,0,108,0,108,0,0,0,108,108,108,108,108,Fri Sep 25 23:35:07 2020,600,The main experiment item,yes,FlankerTask.osexp,C:\Users\katri\OneDrive\Documents\Fall 2020\Flanker Test,no,mono,no,18,no,white,no,yes,768,legacy,28,79,C:/Users/katri/OneDrive/Documents/Fall 2020/Flanker Test/subject-3.csv,legacy,Lentiform Loewenfeld,3.3.3,0,h,NA,s,h,NA,h,384,NA,2939,7925,NA,384,2,legacy,1024,2,48000,-16,experiment,HHHHH,3,odd,4760,150410,NA,NA,1812,NA,NA,195115,1820,142485,NA,194053,195220,195605,195113,195219,Flanker Task,109,54937,109,yes,1024
100,100,503.2363636,503.2363636,black,legacy,legacy,legacy,0,incongrunet,uniform,1,undefined,1,h,0,0,0,109,0,109,0,109,0,0,0,109,109,109,109,109,Fri Sep 25 23:35:07 2020,600,The main experiment item,yes,FlankerTask.osexp,C:\Users\katri\OneDrive\Documents\Fall 2020\Flanker Test,no,mono,no,18,no,white,no,yes,768,legacy,29,79,C:/Users/katri/OneDrive/Documents/Fall 2020/Flanker Test/subject-3.csv,legacy,Lentiform Loewenfeld,3.3.3,0,h,NA,s,h,NA,h,419,NA,2939,7925,NA,419,2,legacy,1024,2,48000,-16,experiment,SSHSS,3,odd,4760,150410,NA,NA,1812,NA,NA,196693,1820,142485,NA,195630,196797,197216,196690,196797,Flanker Task,110,55356,110,yes,1024
100,100,501.8648649,501.8648649,black,legacy,legacy,legacy,0,congruent,uniform,1,undefined,1,s,0,0,0,110,0,110,0,110,0,0,0,110,110,110,110,110,Fri Sep 25 23:35:07 2020,600,The main experiment item,yes,FlankerTask.osexp,C:\Users\katri\OneDrive\Documents\Fall 2020\Flanker Test,no,mono,no,18,no,white,no,yes,768,legacy,30,79,C:/Users/katri/OneDrive/Documents/Fall 2020/Flanker Test/subject-3.csv,legacy,Lentiform Loewenfeld,3.3.3,0,s,NA,s,h,NA,s,351,NA,2939,7925,NA,351,2,legacy,1024,2,48000,-16,experiment,SSSSS,3,odd,4760,150410,NA,NA,1812,NA,NA,198301,1820,142485,NA,197241,198406,198758,198299,198405,Flanker Task,111,55707,111,yes,1024
100,100,501.375,501.375,black,legacy,legacy,legacy,0,incongrunet,uniform,1,undefined,1,h,0,0,0,111,0,111,0,111,0,0,0,111,111,111,111,111,Fri Sep 25 23:35:07 2020,600,The main experiment item,yes,FlankerTask.osexp,C:\Users\katri\OneDrive\Documents\Fall 2020\Flanker Test,no,mono,no,18,no,white,no,yes,768,legacy,31,79,C:/Users/katri/OneDrive/Documents/Fall 2020/Flanker Test/subject-3.csv,legacy,Lentiform Loewenfeld,3.3.3,0,h,NA,s,h,NA,h,447,NA,2939,7925,NA,447,2,legacy,1024,2,48000,-16,experiment,SSHSS,3,odd,4760,150410,NA,NA,1812,NA,NA,199842,1820,142485,NA,198779,199947,200395,199840,199946,Flanker Task,112,56154,112,yes,1024
100,100,501.1150442,501.1150442,black,legacy,legacy,legacy,0,congruent,uniform,1,undefined,1,h,0,0,0,112,0,112,0,112,0,0,0,112,112,112,112,112,Fri Sep 25 23:35:07 2020,600,The main experiment item,yes,FlankerTask.osexp,C:\Users\katri\OneDrive\Documents\Fall 2020\Flanker Test,no,mono,no,18,no,white,no,yes,768,legacy,32,79,C:/Users/katri/OneDrive/Documents/Fall 2020/Flanker Test/subject-3.csv,legacy,Lentiform Loewenfeld,3.3.3,0,h,NA,s,h,NA,h,472,NA,2939,7925,NA,472,2,legacy,1024,2,48000,-16,experiment,HHHHH,3,odd,4760,150410,NA,NA,1812,NA,NA,201478,1820,142485,NA,200417,201583,202056,201476,201582,Flanker Task,113,56626,113,yes,1024
100,100,499.6666667,499.6666667,black,legacy,legacy,legacy,0,incongruent,uniform,1,undefined,1,s,0,0,0,113,0,113,0,113,0,0,0,113,113,113,113,113,Fri Sep 25 23:35:07 2020,600,The main experiment item,yes,FlankerTask.osexp,C:\Users\katri\OneDrive\Documents\Fall 2020\Flanker Test,no,mono,no,18,no,white,no,yes,768,legacy,33,79,C:/Users/katri/OneDrive/Documents/Fall 2020/Flanker Test/subject-3.csv,legacy,Lentiform Loewenfeld,3.3.3,0,s,NA,s,h,NA,s,336,NA,2939,7925,NA,336,2,legacy,1024,2,48000,-16,experiment,HHSHH,3,odd,4760,150410,NA,NA,1812,NA,NA,203143,1820,142485,NA,202081,203247,203584,203141,203247,Flanker Task,114,56962,114,yes,1024
100,100,499.2521739,499.2521739,black,legacy,legacy,legacy,0,incongruent,uniform,1,undefined,1,s,0,0,0,114,0,114,0,114,0,0,0,114,114,114,114,114,Fri Sep 25 23:35:07 2020,600,The main experiment item,yes,FlankerTask.osexp,C:\Users\katri\OneDrive\Documents\Fall 2020\Flanker Test,no,mono,no,18,no,white,no,yes,768,legacy,34,79,C:/Users/katri/OneDrive/Documents/Fall 2020/Flanker Test/subject-3.csv,legacy,Lentiform Loewenfeld,3.3.3,0,s,NA,s,h,NA,s,452,NA,2939,7925,NA,452,2,legacy,1024,2,48000,-16,experiment,HHSHH,3,odd,4760,150410,NA,NA,1812,NA,NA,204670,1820,142485,NA,203608,204775,205228,204668,204774,Flanker Task,115,57414,115,yes,1024
100,100,497.7758621,497.7758621,black,legacy,legacy,legacy,0,congruent,uniform,1,undefined,1,h,0,0,0,115,0,115,0,115,0,0,0,115,115,115,115,115,Fri Sep 25 23:35:07 2020,600,The main experiment item,yes,FlankerTask.osexp,C:\Users\katri\OneDrive\Documents\Fall 2020\Flanker Test,no,mono,no,18,no,white,no,yes,768,legacy,35,79,C:/Users/katri/OneDrive/Documents/Fall 2020/Flanker Test/subject-3.csv,legacy,Lentiform Loewenfeld,3.3.3,0,h,NA,s,h,NA,h,328,NA,2939,7925,NA,328,2,legacy,1024,2,48000,-16,experiment,HHHHH,3,odd,4760,150410,NA,NA,1812,NA,NA,206299,1820,142485,NA,205238,206403,206732,206297,206403,Flanker Task,116,57742,116,yes,1024
100,100,496.9059829,496.9059829,black,legacy,legacy,legacy,0,congruent,uniform,1,undefined,1,s,0,0,0,116,0,116,0,116,0,0,0,116,116,116,116,116,Fri Sep 25 23:35:07 2020,600,The main experiment item,yes,FlankerTask.osexp,C:\Users\katri\OneDrive\Documents\Fall 2020\Flanker Test,no,mono,no,18,no,white,no,yes,768,legacy,36,79,C:/Users/katri/OneDrive/Documents/Fall 2020/Flanker Test/subject-3.csv,legacy,Lentiform Loewenfeld,3.3.3,0,s,NA,s,h,NA,s,396,NA,2939,7925,NA,396,2,legacy,1024,2,48000,-16,experiment,SSSSS,3,odd,4760,150410,NA,NA,1812,NA,NA,207814,1820,142485,NA,206754,207919,208316,207812,207919,Flanker Task,117,58138,117,yes,1024
100,100,495.7118644,495.7118644,black,legacy,legacy,legacy,0,congruent,uniform,1,undefined,1,h,0,0,0,117,0,117,0,117,0,0,0,117,117,117,117,117,Fri Sep 25 23:35:07 2020,600,The main experiment item,yes,FlankerTask.osexp,C:\Users\katri\OneDrive\Documents\Fall 2020\Flanker Test,no,mono,no,18,no,white,no,yes,768,legacy,37,79,C:/Users/katri/OneDrive/Documents/Fall 2020/Flanker Test/subject-3.csv,legacy,Lentiform Loewenfeld,3.3.3,0,h,NA,s,h,NA,h,356,NA,2939,7925,NA,356,2,legacy,1024,2,48000,-16,experiment,HHHHH,3,odd,4760,150410,NA,NA,1812,NA,NA,209385,1820,142485,NA,208324,209490,209847,209383,209490,Flanker Task,118,58494,118,yes,1024
100,100,494.2016807,494.2016807,black,legacy,legacy,legacy,0,congruent,uniform,1,undefined,1,s,0,0,0,118,0,118,0,118,0,0,0,118,118,118,118,118,Fri Sep 25 23:35:07 2020,600,The main experiment item,yes,FlankerTask.osexp,C:\Users\katri\OneDrive\Documents\Fall 2020\Flanker Test,no,mono,no,18,no,white,no,yes,768,legacy,38,79,C:/Users/katri/OneDrive/Documents/Fall 2020/Flanker Test/subject-3.csv,legacy,Lentiform Loewenfeld,3.3.3,0,s,NA,s,h,NA,s,316,NA,2939,7925,NA,316,2,legacy,1024,2,48000,-16,experiment,SSSSS,3,odd,4760,150410,NA,NA,1812,NA,NA,210915,1820,142485,NA,209854,211020,211337,210913,211019,Flanker Task,119,58810,119,yes,1024
100,100,492.8666667,492.8666667,black,legacy,legacy,legacy,0,incongrunet,uniform,1,undefined,1,h,0,0,0,119,0,119,0,119,0,0,0,119,119,119,119,119,Fri Sep 25 23:35:07 2020,600,The main experiment item,yes,FlankerTask.osexp,C:\Users\katri\OneDrive\Documents\Fall 2020\Flanker Test,no,mono,no,18,no,white,no,yes,768,legacy,39,79,C:/Users/katri/OneDrive/Documents/Fall 2020/Flanker Test/subject-3.csv,legacy,Lentiform Loewenfeld,3.3.3,0,h,NA,s,h,NA,h,334,NA,2939,7925,NA,334,2,legacy,1024,2,48000,-16,experiment,SSHSS,3,odd,4760,150410,NA,NA,1812,NA,NA,212424,1820,142485,NA,211362,212529,212864,212422,212528,Flanker Task,120,59144,120,yes,1024
99.17355372,99.17355372,491.9008264,491.9008264,black,legacy,legacy,legacy,0,incongruent,uniform,0,undefined,0,s,0,0,0,120,0,120,0,120,0,0,0,120,120,120,120,120,Fri Sep 25 23:35:07 2020,600,The main experiment item,yes,FlankerTask.osexp,C:\Users\katri\OneDrive\Documents\Fall 2020\Flanker Test,no,mono,no,18,no,white,no,yes,768,legacy,40,79,C:/Users/katri/OneDrive/Documents/Fall 2020/Flanker Test/subject-3.csv,legacy,Lentiform Loewenfeld,3.3.3,0,h,NA,s,h,NA,h,376,NA,2939,7925,NA,376,2,legacy,1024,2,48000,-16,experiment,HHSHH,3,odd,4760,150410,NA,NA,1812,NA,NA,213951,1820,142485,NA,212888,214056,214433,213949,214055,Flanker Task,120,59520,121,yes,1024
99.18032787,99.18032787,494.147541,494.147541,black,legacy,legacy,legacy,0,congruent,uniform,1,undefined,1,h,0,0,0,121,0,121,0,121,0,0,0,121,121,121,121,121,Fri Sep 25 23:35:07 2020,600,The main experiment item,yes,FlankerTask.osexp,C:\Users\katri\OneDrive\Documents\Fall 2020\Flanker Test,no,mono,no,18,no,white,no,yes,768,legacy,41,79,C:/Users/katri/OneDrive/Documents/Fall 2020/Flanker Test/subject-3.csv,legacy,Lentiform Loewenfeld,3.3.3,0,h,NA,s,h,NA,h,766,NA,2939,7925,NA,766,2,legacy,1024,2,48000,-16,experiment,HHHHH,3,odd,4760,150410,NA,215442,1812,NA,NA,216003,1820,142485,NA,214440,216108,216875,216001,216107,Flanker Task,121,60286,122,yes,1024
99.18699187,99.18699187,495.8943089,495.8943089,black,legacy,legacy,legacy,0,incongruent,uniform,1,undefined,1,s,0,0,0,122,0,122,0,122,0,0,0,122,122,122,122,122,Fri Sep 25 23:35:07 2020,600,The main experiment item,yes,FlankerTask.osexp,C:\Users\katri\OneDrive\Documents\Fall 2020\Flanker Test,no,mono,no,18,no,white,no,yes,768,legacy,42,79,C:/Users/katri/OneDrive/Documents/Fall 2020/Flanker Test/subject-3.csv,legacy,Lentiform Loewenfeld,3.3.3,0,s,NA,s,h,NA,s,709,NA,2939,7925,NA,709,2,legacy,1024,2,48000,-16,experiment,HHSHH,3,odd,4760,150410,NA,215442,1812,217880,NA,218441,1820,142485,NA,216879,218545,219255,218439,218545,Flanker Task,122,60995,123,yes,1024
99.19354839,99.19354839,496.6290323,496.6290323,black,legacy,legacy,legacy,0,incongruent,uniform,1,undefined,1,s,0,0,0,123,0,123,0,123,0,0,0,123,123,123,123,123,Fri Sep 25 23:35:07 2020,600,The main experiment item,yes,FlankerTask.osexp,C:\Users\katri\OneDrive\Documents\Fall 2020\Flanker Test,no,mono,no,18,no,white,no,yes,768,legacy,43,79,C:/Users/katri/OneDrive/Documents/Fall 2020/Flanker Test/subject-3.csv,legacy,Lentiform Loewenfeld,3.3.3,0,s,NA,s,h,NA,s,587,NA,2939,7925,NA,587,2,legacy,1024,2,48000,-16,experiment,HHSHH,3,odd,4760,150410,NA,215442,1812,220281,NA,220840,1820,142485,NA,219280,220945,221532,220838,220944,Flanker Task,123,61582,124,yes,1024
99.2,99.2,495.8,495.8,black,legacy,legacy,legacy,0,congruent,uniform,1,undefined,1,s,0,0,0,124,0,124,0,124,0,0,0,124,124,124,124,124,Fri Sep 25 23:35:07 2020,600,The main experiment item,yes,FlankerTask.osexp,C:\Users\katri\OneDrive\Documents\Fall 2020\Flanker Test,no,mono,no,18,no,white,no,yes,768,legacy,44,79,C:/Users/katri/OneDrive/Documents/Fall 2020/Flanker Test/subject-3.csv,legacy,Lentiform Loewenfeld,3.3.3,0,s,NA,s,h,NA,s,393,NA,2939,7925,NA,393,2,legacy,1024,2,48000,-16,experiment,SSSSS,3,odd,4760,150410,NA,215442,1812,220281,NA,222601,1820,142485,NA,221540,222706,223100,222599,222705,Flanker Task,124,61975,125,yes,1024
99.20634921,99.20634921,494.6825397,494.6825397,black,legacy,legacy,legacy,0,congruent,uniform,1,undefined,1,s,0,0,0,125,0,125,0,125,0,0,0,125,125,125,125,125,Fri Sep 25 23:35:07 2020,600,The main experiment item,yes,FlankerTask.osexp,C:\Users\katri\OneDrive\Documents\Fall 2020\Flanker Test,no,mono,no,18,no,white,no,yes,768,legacy,45,79,C:/Users/katri/OneDrive/Documents/Fall 2020/Flanker Test/subject-3.csv,legacy,Lentiform Loewenfeld,3.3.3,0,s,NA,s,h,NA,s,355,NA,2939,7925,NA,355,2,legacy,1024,2,48000,-16,experiment,SSSSS,3,odd,4760,150410,NA,215442,1812,220281,NA,224168,1820,142485,NA,223107,224273,224628,224166,224273,Flanker Task,125,62330,126,yes,1024
99.21259843,99.21259843,493.3779528,493.3779528,black,legacy,legacy,legacy,0,congruent,uniform,1,undefined,1,s,0,0,0,126,0,126,0,126,0,0,0,126,126,126,126,126,Fri Sep 25 23:35:07 2020,600,The main experiment item,yes,FlankerTask.osexp,C:\Users\katri\OneDrive\Documents\Fall 2020\Flanker Test,no,mono,no,18,no,white,no,yes,768,legacy,46,79,C:/Users/katri/OneDrive/Documents/Fall 2020/Flanker Test/subject-3.csv,legacy,Lentiform Loewenfeld,3.3.3,0,s,NA,s,h,NA,s,329,NA,2939,7925,NA,329,2,legacy,1024,2,48000,-16,experiment,SSSSS,3,odd,4760,150410,NA,215442,1812,220281,NA,225698,1820,142485,NA,224635,225799,226128,225696,225799,Flanker Task,126,62659,127,yes,1024
99.21875,99.21875,492.1171875,492.1171875,black,legacy,legacy,legacy,0,incongrunet,uniform,1,undefined,1,h,0,0,0,127,0,127,0,127,0,0,0,127,127,127,127,127,Fri Sep 25 23:35:07 2020,600,The main experiment item,yes,FlankerTask.osexp,C:\Users\katri\OneDrive\Documents\Fall 2020\Flanker Test,no,mono,no,18,no,white,no,yes,768,legacy,47,79,C:/Users/katri/OneDrive/Documents/Fall 2020/Flanker Test/subject-3.csv,legacy,Lentiform Loewenfeld,3.3.3,0,h,NA,s,h,NA,h,332,NA,2939,7925,NA,332,2,legacy,1024,2,48000,-16,experiment,SSHSS,3,odd,4760,150410,NA,215442,1812,220281,NA,227216,1820,142485,NA,226153,227321,227654,227214,227320,Flanker Task,127,62991,128,yes,1024
98.4496124,98.4496124,490.5736434,490.5736434,black,legacy,legacy,legacy,0,congruent,uniform,0,undefined,0,h,0,0,0,128,0,128,0,128,0,0,0,128,128,128,128,128,Fri Sep 25 23:35:07 2020,600,The main experiment item,yes,FlankerTask.osexp,C:\Users\katri\OneDrive\Documents\Fall 2020\Flanker Test,no,mono,no,18,no,white,no,yes,768,legacy,48,79,C:/Users/katri/OneDrive/Documents/Fall 2020/Flanker Test/subject-3.csv,legacy,Lentiform Loewenfeld,3.3.3,0,s,NA,s,h,NA,s,293,NA,2939,7925,NA,293,2,legacy,1024,2,48000,-16,experiment,HHHHH,3,odd,4760,150410,NA,215442,1812,220281,NA,228753,1820,142485,NA,227676,228854,229148,228751,228854,Flanker Task,127,63284,129,yes,1024
98.46153846,98.46153846,490.6846154,490.6846154,black,legacy,legacy,legacy,0,congruent,uniform,1,undefined,1,h,0,0,0,129,0,129,0,129,0,0,0,129,129,129,129,129,Fri Sep 25 23:35:07 2020,600,The main experiment item,yes,FlankerTask.osexp,C:\Users\katri\OneDrive\Documents\Fall 2020\Flanker Test,no,mono,no,18,no,white,no,yes,768,legacy,49,79,C:/Users/katri/OneDrive/Documents/Fall 2020/Flanker Test/subject-3.csv,legacy,Lentiform Loewenfeld,3.3.3,0,h,NA,s,h,NA,h,505,NA,2939,7925,NA,505,2,legacy,1024,2,48000,-16,experiment,HHHHH,3,odd,4760,150410,NA,230171,1812,220281,NA,230746,1820,142485,NA,229170,230851,231357,230744,230850,Flanker Task,128,63789,130,yes,1024
98.47328244,98.47328244,490.2519084,490.2519084,black,legacy,legacy,legacy,0,congruent,uniform,1,undefined,1,s,0,0,0,130,0,130,0,130,0,0,0,130,130,130,130,130,Fri Sep 25 23:35:07 2020,600,The main experiment item,yes,FlankerTask.osexp,C:\Users\katri\OneDrive\Documents\Fall 2020\Flanker Test,no,mono,no,18,no,white,no,yes,768,legacy,50,79,C:/Users/katri/OneDrive/Documents/Fall 2020/Flanker Test/subject-3.csv,legacy,Lentiform Loewenfeld,3.3.3,0,s,NA,s,h,NA,s,434,NA,2939,7925,NA,434,2,legacy,1024,2,48000,-16,experiment,SSSSS,3,odd,4760,150410,NA,230171,1812,220281,NA,232445,1820,142485,NA,231381,232550,232984,232443,232549,Flanker Task,129,64223,131,yes,1024
98.48484848,98.48484848,489.7121212,489.7121212,black,legacy,legacy,legacy,0,incongruent,uniform,1,undefined,1,s,0,0,0,131,0,131,0,131,0,0,0,131,131,131,131,131,Fri Sep 25 23:35:07 2020,600,The main experiment item,yes,FlankerTask.osexp,C:\Users\katri\OneDrive\Documents\Fall 2020\Flanker Test,no,mono,no,18,no,white,no,yes,768,legacy,51,79,C:/Users/katri/OneDrive/Documents/Fall 2020/Flanker Test/subject-3.csv,legacy,Lentiform Loewenfeld,3.3.3,0,s,NA,s,h,NA,s,419,NA,2939,7925,NA,419,2,legacy,1024,2,48000,-16,experiment,HHSHH,3,odd,4760,150410,NA,230171,1812,220281,NA,234071,1820,142485,NA,233008,234175,234595,234069,234175,Flanker Task,130,64642,132,yes,1024
98.4962406,98.4962406,489.2631579,489.2631579,black,legacy,legacy,legacy,0,incongrunet,uniform,1,undefined,1,h,0,0,0,132,0,132,0,132,0,0,0,132,132,132,132,132,Fri Sep 25 23:35:07 2020,600,The main experiment item,yes,FlankerTask.osexp,C:\Users\katri\OneDrive\Documents\Fall 2020\Flanker Test,no,mono,no,18,no,white,no,yes,768,legacy,52,79,C:/Users/katri/OneDrive/Documents/Fall 2020/Flanker Test/subject-3.csv,legacy,Lentiform Loewenfeld,3.3.3,0,h,NA,s,h,NA,h,430,NA,2939,7925,NA,430,2,legacy,1024,2,48000,-16,experiment,SSHSS,3,odd,4760,150410,NA,230171,1812,220281,NA,235664,1820,142485,NA,234602,235769,236200,235662,235768,Flanker Task,131,65072,133,yes,1024
98.50746269,98.50746269,488.9552239,488.9552239,black,legacy,legacy,legacy,0,incongruent,uniform,1,undefined,1,s,0,0,0,133,0,133,0,133,0,0,0,133,133,133,133,133,Fri Sep 25 23:35:07 2020,600,The main experiment item,yes,FlankerTask.osexp,C:\Users\katri\OneDrive\Documents\Fall 2020\Flanker Test,no,mono,no,18,no,white,no,yes,768,legacy,53,79,C:/Users/katri/OneDrive/Documents/Fall 2020/Flanker Test/subject-3.csv,legacy,Lentiform Loewenfeld,3.3.3,0,s,NA,s,h,NA,s,448,NA,2939,7925,NA,448,2,legacy,1024,2,48000,-16,experiment,HHSHH,3,odd,4760,150410,NA,230171,1812,220281,NA,237284,1820,142485,NA,236221,237390,237839,237282,237389,Flanker Task,132,65520,134,yes,1024
98.51851852,98.51851852,488.1407407,488.1407407,black,legacy,legacy,legacy,0,incongrunet,uniform,1,undefined,1,h,0,0,0,134,0,134,0,134,0,0,0,134,134,134,134,134,Fri Sep 25 23:35:07 2020,600,The main experiment item,yes,FlankerTask.osexp,C:\Users\katri\OneDrive\Documents\Fall 2020\Flanker Test,no,mono,no,18,no,white,no,yes,768,legacy,54,79,C:/Users/katri/OneDrive/Documents/Fall 2020/Flanker Test/subject-3.csv,legacy,Lentiform Loewenfeld,3.3.3,0,h,NA,s,h,NA,h,379,NA,2939,7925,NA,379,2,legacy,1024,2,48000,-16,experiment,SSHSS,3,odd,4760,150410,NA,230171,1812,220281,NA,238910,1820,142485,NA,237849,239012,239391,238908,239012,Flanker Task,133,65899,135,yes,1024
97.79411765,97.79411765,486.8823529,486.8823529,black,legacy,legacy,legacy,0,incongrunet,uniform,0,undefined,0,h,0,0,0,135,0,135,0,135,0,0,0,135,135,135,135,135,Fri Sep 25 23:35:07 2020,600,The main experiment item,yes,FlankerTask.osexp,C:\Users\katri\OneDrive\Documents\Fall 2020\Flanker Test,no,mono,no,18,no,white,no,yes,768,legacy,55,79,C:/Users/katri/OneDrive/Documents/Fall 2020/Flanker Test/subject-3.csv,legacy,Lentiform Loewenfeld,3.3.3,0,s,NA,s,h,NA,s,317,NA,2939,7925,NA,317,2,legacy,1024,2,48000,-16,experiment,SSHSS,3,odd,4760,150410,NA,230171,1812,220281,NA,240479,1820,142485,NA,239417,240581,240898,240477,240581,Flanker Task,133,66216,136,yes,1024
97.81021898,97.81021898,486.4233577,486.4233577,black,legacy,legacy,legacy,0,congruent,uniform,1,undefined,1,h,0,0,0,136,0,136,0,136,0,0,0,136,136,136,136,136,Fri Sep 25 23:35:07 2020,600,The main experiment item,yes,FlankerTask.osexp,C:\Users\katri\OneDrive\Documents\Fall 2020\Flanker Test,no,mono,no,18,no,white,no,yes,768,legacy,56,79,C:/Users/katri/OneDrive/Documents/Fall 2020/Flanker Test/subject-3.csv,legacy,Lentiform Loewenfeld,3.3.3,0,h,NA,s,h,NA,h,424,NA,2939,7925,NA,424,2,legacy,1024,2,48000,-16,experiment,HHHHH,3,odd,4760,150410,NA,241922,1812,220281,NA,242482,1820,142485,NA,240921,242587,243012,242480,242586,Flanker Task,134,66640,137,yes,1024
97.82608696,97.82608696,485.615942,485.615942,black,legacy,legacy,legacy,0,congruent,uniform,1,undefined,1,s,0,0,0,137,0,137,0,137,0,0,0,137,137,137,137,137,Fri Sep 25 23:35:07 2020,600,The main experiment item,yes,FlankerTask.osexp,C:\Users\katri\OneDrive\Documents\Fall 2020\Flanker Test,no,mono,no,18,no,white,no,yes,768,legacy,57,79,C:/Users/katri/OneDrive/Documents/Fall 2020/Flanker Test/subject-3.csv,legacy,Lentiform Loewenfeld,3.3.3,0,s,NA,s,h,NA,s,375,NA,2939,7925,NA,375,2,legacy,1024,2,48000,-16,experiment,SSSSS,3,odd,4760,150410,NA,241922,1812,220281,NA,244097,1820,142485,NA,243036,244201,244576,244095,244201,Flanker Task,135,67015,138,yes,1024
97.84172662,97.84172662,484.8992806,484.8992806,black,legacy,legacy,legacy,0,congruent,uniform,1,undefined,1,s,0,0,0,138,0,138,0,138,0,0,0,138,138,138,138,138,Fri Sep 25 23:35:07 2020,600,The main experiment item,yes,FlankerTask.osexp,C:\Users\katri\OneDrive\Documents\Fall 2020\Flanker Test,no,mono,no,18,no,white,no,yes,768,legacy,58,79,C:/Users/katri/OneDrive/Documents/Fall 2020/Flanker Test/subject-3.csv,legacy,Lentiform Loewenfeld,3.3.3,0,s,NA,s,h,NA,s,386,NA,2939,7925,NA,386,2,legacy,1024,2,48000,-16,experiment,SSSSS,3,odd,4760,150410,NA,241922,1812,220281,NA,245677,1820,142485,NA,244600,245782,246168,245674,245781,Flanker Task,136,67401,139,yes,1024
97.85714286,97.85714286,484.3857143,484.3857143,black,legacy,legacy,legacy,0,incongruent,uniform,1,undefined,1,s,0,0,0,139,0,139,0,139,0,0,0,139,139,139,139,139,Fri Sep 25 23:35:07 2020,600,The main experiment item,yes,FlankerTask.osexp,C:\Users\katri\OneDrive\Documents\Fall 2020\Flanker Test,no,mono,no,18,no,white,no,yes,768,legacy,59,79,C:/Users/katri/OneDrive/Documents/Fall 2020/Flanker Test/subject-3.csv,legacy,Lentiform Loewenfeld,3.3.3,0,s,NA,s,h,NA,s,413,NA,2939,7925,NA,413,2,legacy,1024,2,48000,-16,experiment,HHSHH,3,odd,4760,150410,NA,241922,1812,220281,NA,247255,1820,142485,NA,246193,247356,247770,247253,247356,Flanker Task,137,67814,140,yes,1024
97.87234043,97.87234043,484.1205674,484.1205674,black,legacy,legacy,legacy,0,congruent,uniform,1,undefined,1,s,0,0,0,140,0,140,0,140,0,0,0,140,140,140,140,140,Fri Sep 25 23:35:07 2020,600,The main experiment item,yes,FlankerTask.osexp,C:\Users\katri\OneDrive\Documents\Fall 2020\Flanker Test,no,mono,no,18,no,white,no,yes,768,legacy,60,79,C:/Users/katri/OneDrive/Documents/Fall 2020/Flanker Test/subject-3.csv,legacy,Lentiform Loewenfeld,3.3.3,0,s,NA,s,h,NA,s,447,NA,2939,7925,NA,447,2,legacy,1024,2,48000,-16,experiment,SSSSS,3,odd,4760,150410,NA,241922,1812,220281,NA,248855,1820,142485,NA,247794,248956,249404,248853,248956,Flanker Task,138,68261,141,yes,1024
97.88732394,97.88732394,483.7394366,483.7394366,black,legacy,legacy,legacy,0,incongruent,uniform,1,undefined,1,s,0,0,0,141,0,141,0,141,0,0,0,141,141,141,141,141,Fri Sep 25 23:35:07 2020,600,The main experiment item,yes,FlankerTask.osexp,C:\Users\katri\OneDrive\Documents\Fall 2020\Flanker Test,no,mono,no,18,no,white,no,yes,768,legacy,61,79,C:/Users/katri/OneDrive/Documents/Fall 2020/Flanker Test/subject-3.csv,legacy,Lentiform Loewenfeld,3.3.3,0,s,NA,s,h,NA,s,430,NA,2939,7925,NA,430,2,legacy,1024,2,48000,-16,experiment,HHSHH,3,odd,4760,150410,NA,241922,1812,220281,NA,250490,1820,142485,NA,249426,250595,251026,250486,250594,Flanker Task,139,68691,142,yes,1024
97.9020979,97.9020979,483.1118881,483.1118881,black,legacy,legacy,legacy,0,congruent,uniform,1,undefined,1,h,0,0,0,142,0,142,0,142,0,0,0,142,142,142,142,142,Fri Sep 25 23:35:07 2020,600,The main experiment item,yes,FlankerTask.osexp,C:\Users\katri\OneDrive\Documents\Fall 2020\Flanker Test,no,mono,no,18,no,white,no,yes,768,legacy,62,79,C:/Users/katri/OneDrive/Documents/Fall 2020/Flanker Test/subject-3.csv,legacy,Lentiform Loewenfeld,3.3.3,0,h,NA,s,h,NA,h,394,NA,2939,7925,NA,394,2,legacy,1024,2,48000,-16,experiment,HHHHH,3,odd,4760,150410,NA,241922,1812,220281,NA,252110,1820,142485,NA,251047,252215,252610,252108,252214,Flanker Task,140,69085,143,yes,1024
97.91666667,97.91666667,482.3472222,482.3472222,black,legacy,legacy,legacy,0,incongrunet,uniform,1,undefined,1,h,0,0,0,143,0,143,0,143,0,0,0,143,143,143,143,143,Fri Sep 25 23:35:07 2020,600,The main experiment item,yes,FlankerTask.osexp,C:\Users\katri\OneDrive\Documents\Fall 2020\Flanker Test,no,mono,no,18,no,white,no,yes,768,legacy,63,79,C:/Users/katri/OneDrive/Documents/Fall 2020/Flanker Test/subject-3.csv,legacy,Lentiform Loewenfeld,3.3.3,0,h,NA,s,h,NA,h,373,NA,2939,7925,NA,373,2,legacy,1024,2,48000,-16,experiment,SSHSS,3,odd,4760,150410,NA,241922,1812,220281,NA,253694,1820,142485,NA,252632,253799,254173,253692,253798,Flanker Task,141,69458,144,yes,1024
97.93103448,97.93103448,482.8413793,482.8413793,black,legacy,legacy,legacy,0,incongrunet,uniform,1,undefined,1,h,0,0,0,144,0,144,0,144,0,0,0,144,144,144,144,144,Fri Sep 25 23:35:07 2020,600,The main experiment item,yes,FlankerTask.osexp,C:\Users\katri\OneDrive\Documents\Fall 2020\Flanker Test,no,mono,no,18,no,white,no,yes,768,legacy,64,79,C:/Users/katri/OneDrive/Documents/Fall 2020/Flanker Test/subject-3.csv,legacy,Lentiform Loewenfeld,3.3.3,0,h,NA,s,h,NA,h,554,NA,2939,7925,NA,554,2,legacy,1024,2,48000,-16,experiment,SSHSS,3,odd,4760,150410,NA,241922,1812,220281,NA,255238,1820,142485,NA,254176,255339,255893,255234,255339,Flanker Task,142,70012,145,yes,1024
97.94520548,97.94520548,482.0136986,482.0136986,black,legacy,legacy,legacy,0,congruent,uniform,1,undefined,1,s,0,0,0,145,0,145,0,145,0,0,0,145,145,145,145,145,Fri Sep 25 23:35:07 2020,600,The main experiment item,yes,FlankerTask.osexp,C:\Users\katri\OneDrive\Documents\Fall 2020\Flanker Test,no,mono,no,18,no,white,no,yes,768,legacy,65,79,C:/Users/katri/OneDrive/Documents/Fall 2020/Flanker Test/subject-3.csv,legacy,Lentiform Loewenfeld,3.3.3,0,s,NA,s,h,NA,s,362,NA,2939,7925,NA,362,2,legacy,1024,2,48000,-16,experiment,SSSSS,3,odd,4760,150410,NA,241922,1812,220281,NA,256960,1820,142485,NA,255901,257065,257428,256957,257064,Flanker Task,143,70374,146,yes,1024
97.95918367,97.95918367,481.1768707,481.1768707,black,legacy,legacy,legacy,0,congruent,uniform,1,undefined,1,s,0,0,0,146,0,146,0,146,0,0,0,146,146,146,146,146,Fri Sep 25 23:35:07 2020,600,The main experiment item,yes,FlankerTask.osexp,C:\Users\katri\OneDrive\Documents\Fall 2020\Flanker Test,no,mono,no,18,no,white,no,yes,768,legacy,66,79,C:/Users/katri/OneDrive/Documents/Fall 2020/Flanker Test/subject-3.csv,legacy,Lentiform Loewenfeld,3.3.3,0,s,NA,s,h,NA,s,359,NA,2939,7925,NA,359,2,legacy,1024,2,48000,-16,experiment,SSSSS,3,odd,4760,150410,NA,241922,1812,220281,NA,258514,1820,142485,NA,257451,258619,258979,258511,258618,Flanker Task,144,70733,147,yes,1024
97.97297297,97.97297297,480.7702703,480.7702703,black,legacy,legacy,legacy,0,incongruent,uniform,1,undefined,1,s,0,0,0,147,0,147,0,147,0,0,0,147,147,147,147,147,Fri Sep 25 23:35:07 2020,600,The main experiment item,yes,FlankerTask.osexp,C:\Users\katri\OneDrive\Documents\Fall 2020\Flanker Test,no,mono,no,18,no,white,no,yes,768,legacy,67,79,C:/Users/katri/OneDrive/Documents/Fall 2020/Flanker Test/subject-3.csv,legacy,Lentiform Loewenfeld,3.3.3,0,s,NA,s,h,NA,s,421,NA,2939,7925,NA,421,2,legacy,1024,2,48000,-16,experiment,HHSHH,3,odd,4760,150410,NA,241922,1812,220281,NA,260062,1820,142485,NA,259001,260167,260589,260060,260166,Flanker Task,145,71154,148,yes,1024
97.98657718,97.98657718,480.7651007,480.7651007,black,legacy,legacy,legacy,0,incongrunet,uniform,1,undefined,1,h,0,0,0,148,0,148,0,148,0,0,0,148,148,148,148,148,Fri Sep 25 23:35:07 2020,600,The main experiment item,yes,FlankerTask.osexp,C:\Users\katri\OneDrive\Documents\Fall 2020\Flanker Test,no,mono,no,18,no,white,no,yes,768,legacy,68,79,C:/Users/katri/OneDrive/Documents/Fall 2020/Flanker Test/subject-3.csv,legacy,Lentiform Loewenfeld,3.3.3,0,h,NA,s,h,NA,h,480,NA,2939,7925,NA,480,2,legacy,1024,2,48000,-16,experiment,SSHSS,3,odd,4760,150410,NA,241922,1812,220281,NA,261672,1820,142485,NA,260611,261777,262258,261670,261776,Flanker Task,146,71634,149,yes,1024
98,98,480.6466667,480.6466667,black,legacy,legacy,legacy,0,incongrunet,uniform,1,undefined,1,h,0,0,0,149,0,149,0,149,0,0,0,149,149,149,149,149,Fri Sep 25 23:35:07 2020,600,The main experiment item,yes,FlankerTask.osexp,C:\Users\katri\OneDrive\Documents\Fall 2020\Flanker Test,no,mono,no,18,no,white,no,yes,768,legacy,69,79,C:/Users/katri/OneDrive/Documents/Fall 2020/Flanker Test/subject-3.csv,legacy,Lentiform Loewenfeld,3.3.3,0,h,NA,s,h,NA,h,463,NA,2939,7925,NA,463,2,legacy,1024,2,48000,-16,experiment,SSHSS,3,odd,4760,150410,NA,241922,1812,220281,NA,263342,1820,142485,NA,262280,263443,263907,263339,263443,Flanker Task,147,72097,150,yes,1024
98.01324503,98.01324503,480.9933775,480.9933775,black,legacy,legacy,legacy,0,congruent,uniform,1,undefined,1,h,0,0,0,150,0,150,0,150,0,0,0,150,150,150,150,150,Fri Sep 25 23:35:07 2020,600,The main experiment item,yes,FlankerTask.osexp,C:\Users\katri\OneDrive\Documents\Fall 2020\Flanker Test,no,mono,no,18,no,white,no,yes,768,legacy,70,79,C:/Users/katri/OneDrive/Documents/Fall 2020/Flanker Test/subject-3.csv,legacy,Lentiform Loewenfeld,3.3.3,0,h,NA,s,h,NA,h,533,NA,2939,7925,NA,533,2,legacy,1024,2,48000,-16,experiment,HHHHH,3,odd,4760,150410,NA,241922,1812,220281,NA,264997,1820,142485,NA,263932,265098,265632,264994,265098,Flanker Task,148,72630,151,yes,1024
98.02631579,98.02631579,480.7631579,480.7631579,black,legacy,legacy,legacy,0,incongruent,uniform,1,undefined,1,s,0,0,0,151,0,151,0,151,0,0,0,151,151,151,151,151,Fri Sep 25 23:35:07 2020,600,The main experiment item,yes,FlankerTask.osexp,C:\Users\katri\OneDrive\Documents\Fall 2020\Flanker Test,no,mono,no,18,no,white,no,yes,768,legacy,71,79,C:/Users/katri/OneDrive/Documents/Fall 2020/Flanker Test/subject-3.csv,legacy,Lentiform Loewenfeld,3.3.3,0,s,NA,s,h,NA,s,446,NA,2939,7925,NA,446,2,legacy,1024,2,48000,-16,experiment,HHSHH,3,odd,4760,150410,NA,241922,1812,220281,NA,266704,1820,142485,NA,265642,266810,267257,266702,266809,Flanker Task,149,73076,152,yes,1024
98.03921569,98.03921569,480.4379085,480.4379085,black,legacy,legacy,legacy,0,incongruent,uniform,1,undefined,1,s,0,0,0,152,0,152,0,152,0,0,0,152,152,152,152,152,Fri Sep 25 23:35:07 2020,600,The main experiment item,yes,FlankerTask.osexp,C:\Users\katri\OneDrive\Documents\Fall 2020\Flanker Test,no,mono,no,18,no,white,no,yes,768,legacy,72,79,C:/Users/katri/OneDrive/Documents/Fall 2020/Flanker Test/subject-3.csv,legacy,Lentiform Loewenfeld,3.3.3,0,s,NA,s,h,NA,s,431,NA,2939,7925,NA,431,2,legacy,1024,2,48000,-16,experiment,HHSHH,3,odd,4760,150410,NA,241922,1812,220281,NA,268341,1820,142485,NA,267279,268446,268878,268339,268445,Flanker Task,150,73507,153,yes,1024
98.05194805,98.05194805,480.0194805,480.0194805,black,legacy,legacy,legacy,0,incongruent,uniform,1,undefined,1,s,0,0,0,153,0,153,0,153,0,0,0,153,153,153,153,153,Fri Sep 25 23:35:07 2020,600,The main experiment item,yes,FlankerTask.osexp,C:\Users\katri\OneDrive\Documents\Fall 2020\Flanker Test,no,mono,no,18,no,white,no,yes,768,legacy,73,79,C:/Users/katri/OneDrive/Documents/Fall 2020/Flanker Test/subject-3.csv,legacy,Lentiform Loewenfeld,3.3.3,0,s,NA,s,h,NA,s,416,NA,2939,7925,NA,416,2,legacy,1024,2,48000,-16,experiment,HHSHH,3,odd,4760,150410,NA,241922,1812,220281,NA,269964,1820,142485,NA,268901,270065,270482,269962,270065,Flanker Task,151,73923,154,yes,1024
98.06451613,98.06451613,479.6903226,479.6903226,black,legacy,legacy,legacy,0,incongrunet,uniform,1,undefined,1,h,0,0,0,154,0,154,0,154,0,0,0,154,154,154,154,154,Fri Sep 25 23:35:07 2020,600,The main experiment item,yes,FlankerTask.osexp,C:\Users\katri\OneDrive\Documents\Fall 2020\Flanker Test,no,mono,no,18,no,white,no,yes,768,legacy,74,79,C:/Users/katri/OneDrive/Documents/Fall 2020/Flanker Test/subject-3.csv,legacy,Lentiform Loewenfeld,3.3.3,0,h,NA,s,h,NA,h,429,NA,2939,7925,NA,429,2,legacy,1024,2,48000,-16,experiment,SSHSS,3,odd,4760,150410,NA,241922,1812,220281,NA,271550,1820,142485,NA,270487,271655,272085,271548,271654,Flanker Task,152,74352,155,yes,1024
98.07692308,98.07692308,478.8846154,478.8846154,black,legacy,legacy,legacy,0,incongrunet,uniform,1,undefined,1,h,0,0,0,155,0,155,0,155,0,0,0,155,155,155,155,155,Fri Sep 25 23:35:07 2020,600,The main experiment item,yes,FlankerTask.osexp,C:\Users\katri\OneDrive\Documents\Fall 2020\Flanker Test,no,mono,no,18,no,white,no,yes,768,legacy,75,79,C:/Users/katri/OneDrive/Documents/Fall 2020/Flanker Test/subject-3.csv,legacy,Lentiform Loewenfeld,3.3.3,0,h,NA,s,h,NA,h,354,NA,2939,7925,NA,354,2,legacy,1024,2,48000,-16,experiment,SSHSS,3,odd,4760,150410,NA,241922,1812,220281,NA,273154,1820,142485,NA,272093,273255,273610,273152,273255,Flanker Task,153,74706,156,yes,1024
