"acc","accuracy","average_response_time","avg_rt","background","canvas_backend","clock_backend","color_backend","condition","correct","correct_instruction1_sketchpad","correct_keyboard_response","correct_response","count_Block1_loop","count_Block3_loop","count_block2_loop","count_errorfeedback_sketchpad","count_experiment","count_faster_sketchpad","count_finish_sketchpad","count_fixation_sketchpad","count_instruction1_sketchpad","count_instructions2_sketchpad","count_instructions3_sketchpad","count_isi_sketchpad","count_keyboard_response","count_logger_logger","count_sequence","count_stimulus_sketchpad","datetime","deadline","description","disable_garbage_collection","experiment_file","experiment_path","font_bold","font_family","font_italic","font_size","font_underline","foreground","form_clicks","fullscreen","height","keyboard_backend","live_row","live_row_Block1_loop","logfile","mouse_backend","opensesame_codename","opensesame_version","repeat_cycle","response","response_finish_sketchpad","response_instruction1_sketchpad","response_instructions2_sketchpad","response_instructions3_sketchpad","response_keyboard_response","response_time","response_time_finish_sketchpad","response_time_instruction1_sketchpad","response_time_instructions2_sketchpad","response_time_instructions3_sketchpad","response_time_keyboard_response","round_decimals","sampler_backend","sound_buf_size","sound_channels","sound_freq","sound_sample_size","start","stimulus","subject_nr","subject_parity","time_Block1_loop","time_Block3_loop","time_block2_loop","time_errorfeedback_sketchpad","time_experiment","time_faster_sketchpad","time_finish_sketchpad","time_fixation_sketchpad","time_instruction1_sketchpad","time_instructions2_sketchpad","time_instructions3_sketchpad","time_isi_sketchpad","time_keyboard_response","time_logger_logger","time_sequence","time_stimulus_sketchpad","title","total_correct","total_response_time","total_responses","width"
"0","0","1500","1500","#3d3846","legacy","legacy","legacy","congruent","0","undefined","0","h","0","0","0","0","0","0","0","0","0","0","0","0","0","0","0","0","Sun Sep 24 13:18:06 2023","1500","The main experiment item","False","Flankertask fixed.osexp","C:\Users\User","False","mono","False","18","no","white","no","yes","768","legacy","0","0","C:/Users/User/Desktop/data files/subject-3.csv","legacy","Melodramatic Milgram","4.0.5","0","None","NA","s","NA","NA","None","1500.0","NA","71614","NA","NA","1500","2","legacy","1024","2","48000","-16","experiment","HHHHH","3","odd","72581","NA","NA","NA","959","NA","NA","72628","966","NA","NA","NA","72729","74229","72627","72729","Flankertask","0","1500.0","1","1024"
"50","50","1082","1082","#3d3846","legacy","legacy","legacy","congruent","1","undefined","1","h","0","0","0","1","0","1","0","1","0","0","0","1","1","1","1","1","Sun Sep 24 13:18:06 2023","1500","The main experiment item","False","Flankertask fixed.osexp","C:\Users\User","False","mono","False","18","no","white","no","yes","768","legacy","1","1","C:/Users/User/Desktop/data files/subject-3.csv","legacy","Melodramatic Milgram","4.0.5","0","h","NA","s","NA","NA","h","665.0","NA","71614","NA","NA","665","2","legacy","1024","2","48000","-16","experiment","HHHHH","3","odd","72581","NA","NA","74238","959","NA","NA","75781","966","NA","NA","74739","75882","76547","75780","75881","Flankertask","1","2165.0","2","1024"
"33","33","967","967","#3d3846","legacy","legacy","legacy","incongruent","0","undefined","0","h","0","0","0","2","0","2","0","2","0","0","0","2","2","2","2","2","Sun Sep 24 13:18:06 2023","1500","The main experiment item","False","Flankertask fixed.osexp","C:\Users\User","False","mono","False","18","no","white","no","yes","768","legacy","2","2","C:/Users/User/Desktop/data files/subject-3.csv","legacy","Melodramatic Milgram","4.0.5","0","s","NA","s","NA","NA","s","737.0","NA","71614","NA","NA","737","2","legacy","1024","2","48000","-16","experiment","SSHSS","3","odd","72581","NA","NA","74238","959","NA","NA","77596","966","NA","NA","76553","77697","78434","77595","77697","Flankertask","1","2902.0","3","1024"
"50","50","926","926","#3d3846","legacy","legacy","legacy","congruent","1","undefined","1","s","0","0","0","3","0","3","0","3","0","0","0","3","3","3","3","3","Sun Sep 24 13:18:06 2023","1500","The main experiment item","False","Flankertask fixed.osexp","C:\Users\User","False","mono","False","18","no","white","no","yes","768","legacy","3","3","C:/Users/User/Desktop/data files/subject-3.csv","legacy","Melodramatic Milgram","4.0.5","0","s","NA","s","NA","NA","s","803.0","NA","71614","NA","NA","803","2","legacy","1024","2","48000","-16","experiment","SSSSS","3","odd","72581","NA","NA","78442","959","NA","NA","79984","966","NA","NA","78943","80085","80888","79983","80085","Flankertask","2","3705.0","4","1024"
"60","60","863","863","#3d3846","legacy","legacy","legacy","congruent","1","undefined","1","h","0","0","0","4","0","4","0","4","0","0","0","4","4","4","4","4","Sun Sep 24 13:18:06 2023","1500","The main experiment item","False","Flankertask fixed.osexp","C:\Users\User","False","mono","False","18","no","white","no","yes","768","legacy","4","4","C:/Users/User/Desktop/data files/subject-3.csv","legacy","Melodramatic Milgram","4.0.5","0","h","NA","s","NA","NA","h","610.0","NA","71614","NA","NA","610","2","legacy","1024","2","48000","-16","experiment","HHHHH","3","odd","72581","NA","NA","78442","959","NA","NA","81940","966","NA","NA","80894","82041","82652","81939","82041","Flankertask","3","4315.0","5","1024"
"66","66","851","851","#3d3846","legacy","legacy","legacy","incongruent","1","undefined","1","h","0","0","0","5","0","5","0","5","0","0","0","5","5","5","5","5","Sun Sep 24 13:18:06 2023","1500","The main experiment item","False","Flankertask fixed.osexp","C:\Users\User","False","mono","False","18","no","white","no","yes","768","legacy","5","5","C:/Users/User/Desktop/data files/subject-3.csv","legacy","Melodramatic Milgram","4.0.5","0","h","NA","s","NA","NA","h","792.0","NA","71614","NA","NA","792","2","legacy","1024","2","48000","-16","experiment","SSHSS","3","odd","72581","NA","NA","78442","959","NA","NA","83684","966","NA","NA","82658","83785","84577","83683","83785","Flankertask","4","5107.0","6","1024"
"71","71","833","833","#3d3846","legacy","legacy","legacy","incongruent","1","undefined","1","s","0","0","0","6","0","6","0","6","0","0","0","6","6","6","6","6","Sun Sep 24 13:18:06 2023","1500","The main experiment item","False","Flankertask fixed.osexp","C:\Users\User","False","mono","False","18","no","white","no","yes","768","legacy","6","6","C:/Users/User/Desktop/data files/subject-3.csv","legacy","Melodramatic Milgram","4.0.5","0","s","NA","s","NA","NA","s","727.0","NA","71614","NA","NA","727","2","legacy","1024","2","48000","-16","experiment","HHSHH","3","odd","72581","NA","NA","78442","959","NA","NA","85610","966","NA","NA","84583","85711","86439","85608","85711","Flankertask","5","5834.0","7","1024"
"75","75","834","834","#3d3846","legacy","legacy","legacy","incongruent","1","undefined","1","h","0","0","0","7","0","7","0","7","0","0","0","7","7","7","7","7","Sun Sep 24 13:18:06 2023","1500","The main experiment item","False","Flankertask fixed.osexp","C:\Users\User","False","mono","False","18","no","white","no","yes","768","legacy","7","7","C:/Users/User/Desktop/data files/subject-3.csv","legacy","Melodramatic Milgram","4.0.5","0","h","NA","s","NA","NA","h","841.0","NA","71614","NA","NA","841","2","legacy","1024","2","48000","-16","experiment","SSHSS","3","odd","72581","NA","NA","78442","959","NA","NA","87472","966","NA","NA","86445","87573","88414","87470","87573","Flankertask","6","6675.0","8","1024"
"77","77","809","809","#3d3846","legacy","legacy","legacy","congruent","1","undefined","1","s","0","0","0","8","0","8","0","8","0","0","0","8","8","8","8","8","Sun Sep 24 13:18:06 2023","1500","The main experiment item","False","Flankertask fixed.osexp","C:\Users\User","False","mono","False","18","no","white","no","yes","768","legacy","8","8","C:/Users/User/Desktop/data files/subject-3.csv","legacy","Melodramatic Milgram","4.0.5","0","s","NA","s","NA","NA","s","609.0","NA","71614","NA","NA","609","2","legacy","1024","2","48000","-16","experiment","SSSSS","3","odd","72581","NA","NA","78442","959","NA","NA","89462","966","NA","NA","88421","89563","90172","89461","89563","Flankertask","7","7284.0","9","1024"
"80","80","806","806","#3d3846","legacy","legacy","legacy","congruent","1","undefined","1","s","0","0","0","9","0","9","0","9","0","0","0","9","9","9","9","9","Sun Sep 24 13:18:06 2023","1500","The main experiment item","False","Flankertask fixed.osexp","C:\Users\User","False","mono","False","18","no","white","no","yes","768","legacy","9","9","C:/Users/User/Desktop/data files/subject-3.csv","legacy","Melodramatic Milgram","4.0.5","0","s","NA","s","NA","NA","s","784.0","NA","71614","NA","NA","784","2","legacy","1024","2","48000","-16","experiment","SSSSS","3","odd","72581","NA","NA","78442","959","NA","NA","91217","966","NA","NA","90178","91318","92102","91215","91318","Flankertask","8","8068.0","10","1024"
"81","81","792","792","#3d3846","legacy","legacy","legacy","congruent","1","undefined","1","s","0","0","0","10","0","10","0","10","0","0","0","10","10","10","10","10","Sun Sep 24 13:18:06 2023","1500","The main experiment item","False","Flankertask fixed.osexp","C:\Users\User","False","mono","False","18","no","white","no","yes","768","legacy","10","10","C:/Users/User/Desktop/data files/subject-3.csv","legacy","Melodramatic Milgram","4.0.5","0","s","NA","s","NA","NA","s","644.0","NA","71614","NA","NA","644","2","legacy","1024","2","48000","-16","experiment","SSSSS","3","odd","72581","NA","NA","78442","959","NA","NA","93146","966","NA","NA","92108","93247","93891","93145","93247","Flankertask","9","8712.0","11","1024"
"83","83","778","778","#3d3846","legacy","legacy","legacy","congruent","1","undefined","1","h","0","0","0","11","0","11","0","11","0","0","0","11","11","11","11","11","Sun Sep 24 13:18:06 2023","1500","The main experiment item","False","Flankertask fixed.osexp","C:\Users\User","False","mono","False","18","no","white","no","yes","768","legacy","11","11","C:/Users/User/Desktop/data files/subject-3.csv","legacy","Melodramatic Milgram","4.0.5","0","h","NA","s","NA","NA","h","634.0","NA","71614","NA","NA","634","2","legacy","1024","2","48000","-16","experiment","HHHHH","3","odd","72581","NA","NA","78442","959","NA","NA","94938","966","NA","NA","93897","95039","95673","94937","95039","Flankertask","10","9346.0","12","1024"
"84","84","765","765","#3d3846","legacy","legacy","legacy","incongruent","1","undefined","1","s","0","0","0","12","0","12","0","12","0","0","0","12","12","12","12","12","Sun Sep 24 13:18:06 2023","1500","The main experiment item","False","Flankertask fixed.osexp","C:\Users\User","False","mono","False","18","no","white","no","yes","768","legacy","12","12","C:/Users/User/Desktop/data files/subject-3.csv","legacy","Melodramatic Milgram","4.0.5","0","s","NA","s","NA","NA","s","599.0","NA","71614","NA","NA","599","2","legacy","1024","2","48000","-16","experiment","HHSHH","3","odd","72581","NA","NA","78442","959","NA","NA","96714","966","NA","NA","95679","96815","97414","96713","96815","Flankertask","11","9945.0","13","1024"
"85","85","756","756","#3d3846","legacy","legacy","legacy","incongruent","1","undefined","1","h","0","0","0","13","0","13","0","13","0","0","0","13","13","13","13","13","Sun Sep 24 13:18:06 2023","1500","The main experiment item","False","Flankertask fixed.osexp","C:\Users\User","False","mono","False","18","no","white","no","yes","768","legacy","13","13","C:/Users/User/Desktop/data files/subject-3.csv","legacy","Melodramatic Milgram","4.0.5","0","h","NA","s","NA","NA","h","645.0","NA","71614","NA","NA","645","2","legacy","1024","2","48000","-16","experiment","SSHSS","3","odd","72581","NA","NA","78442","959","NA","NA","98447","966","NA","NA","97420","98548","99193","98446","98548","Flankertask","12","10590.0","14","1024"
"86","86","750","750","#3d3846","legacy","legacy","legacy","congruent","1","undefined","1","h","0","0","0","14","0","14","0","14","0","0","0","14","14","14","14","14","Sun Sep 24 13:18:06 2023","1500","The main experiment item","False","Flankertask fixed.osexp","C:\Users\User","False","mono","False","18","no","white","no","yes","768","legacy","14","14","C:/Users/User/Desktop/data files/subject-3.csv","legacy","Melodramatic Milgram","4.0.5","0","h","NA","s","NA","NA","h","660.0","NA","71614","NA","NA","660","2","legacy","1024","2","48000","-16","experiment","HHHHH","3","odd","72581","NA","NA","78442","959","NA","NA","100234","966","NA","NA","99199","100335","100995","100233","100335","Flankertask","13","11250.0","15","1024"
"87","87","747","747","#3d3846","legacy","legacy","legacy","incongruent","1","undefined","1","s","0","0","0","15","0","15","0","15","0","0","0","15","15","15","15","15","Sun Sep 24 13:18:06 2023","1500","The main experiment item","False","Flankertask fixed.osexp","C:\Users\User","False","mono","False","18","no","white","no","yes","768","legacy","15","15","C:/Users/User/Desktop/data files/subject-3.csv","legacy","Melodramatic Milgram","4.0.5","0","s","NA","s","NA","NA","s","707.0","NA","71614","NA","NA","707","2","legacy","1024","2","48000","-16","experiment","HHSHH","3","odd","72581","NA","NA","78442","959","NA","NA","102026","966","NA","NA","101001","102127","102834","102025","102127","Flankertask","14","11957.0","16","1024"
"82","82","733","733","#3d3846","legacy","legacy","legacy","incongruent","0","undefined","0","s","0","0","0","16","0","16","0","16","0","0","0","16","16","16","16","16","Sun Sep 24 13:18:06 2023","1500","The main experiment item","False","Flankertask fixed.osexp","C:\Users\User","False","mono","False","18","no","white","no","yes","768","legacy","16","16","C:/Users/User/Desktop/data files/subject-3.csv","legacy","Melodramatic Milgram","4.0.5","0","h","NA","s","NA","NA","h","513.0","NA","71614","NA","NA","513","2","legacy","1024","2","48000","-16","experiment","HHSHH","3","odd","72581","NA","NA","78442","959","NA","NA","103867","966","NA","NA","102840","103967","104480","103866","103967","Flankertask","14","12470.0","17","1024"
"83","83","730","730","#3d3846","legacy","legacy","legacy","incongruent","1","undefined","1","s","0","0","0","17","0","17","0","17","0","0","0","17","17","17","17","17","Sun Sep 24 13:18:06 2023","1500","The main experiment item","False","Flankertask fixed.osexp","C:\Users\User","False","mono","False","18","no","white","no","yes","768","legacy","17","17","C:/Users/User/Desktop/data files/subject-3.csv","legacy","Melodramatic Milgram","4.0.5","0","s","NA","s","NA","NA","s","677.0","NA","71614","NA","NA","677","2","legacy","1024","2","48000","-16","experiment","HHSHH","3","odd","72581","NA","NA","104486","959","NA","NA","106019","966","NA","NA","104986","106120","106797","106018","106120","Flankertask","15","13147.0","18","1024"
"84","84","731","731","#3d3846","legacy","legacy","legacy","incongruent","1","undefined","1","s","0","0","0","18","0","18","0","18","0","0","0","18","18","18","18","18","Sun Sep 24 13:18:06 2023","1500","The main experiment item","False","Flankertask fixed.osexp","C:\Users\User","False","mono","False","18","no","white","no","yes","768","legacy","18","18","C:/Users/User/Desktop/data files/subject-3.csv","legacy","Melodramatic Milgram","4.0.5","0","s","NA","s","NA","NA","s","753.0","NA","71614","NA","NA","753","2","legacy","1024","2","48000","-16","experiment","HHSHH","3","odd","72581","NA","NA","104486","959","NA","NA","107831","966","NA","NA","106803","107932","108686","107829","107932","Flankertask","16","13900.0","19","1024"
"85","85","725","725","#3d3846","legacy","legacy","legacy","congruent","1","undefined","1","s","0","0","0","19","0","19","0","19","0","0","0","19","19","19","19","19","Sun Sep 24 13:18:06 2023","1500","The main experiment item","False","Flankertask fixed.osexp","C:\Users\User","False","mono","False","18","no","white","no","yes","768","legacy","19","19","C:/Users/User/Desktop/data files/subject-3.csv","legacy","Melodramatic Milgram","4.0.5","0","s","NA","s","NA","NA","s","614.0","NA","71614","NA","NA","614","2","legacy","1024","2","48000","-16","experiment","SSSSS","3","odd","72581","NA","NA","104486","959","NA","NA","109733","966","NA","NA","108692","109835","110449","109732","109835","Flankertask","17","14514.0","20","1024"
"85","85","725","725","#3d3846","legacy","legacy","legacy","incongruent","1","undefined","1","h","0","0","0","20","0","20","0","20","0","0","0","20","20","20","20","20","Sun Sep 24 13:18:06 2023","1500","The main experiment item","False","Flankertask fixed.osexp","C:\Users\User","False","mono","False","18","no","white","no","yes","768","legacy","20","20","C:/Users/User/Desktop/data files/subject-3.csv","legacy","Melodramatic Milgram","4.0.5","0","h","NA","s","NA","NA","h","711.0","NA","71614","NA","NA","711","2","legacy","1024","2","48000","-16","experiment","SSHSS","3","odd","72581","NA","NA","104486","959","NA","NA","111500","966","NA","NA","110456","111600","112311","111499","111600","Flankertask","18","15225.0","21","1024"
"86","86","725","725","#3d3846","legacy","legacy","legacy","congruent","1","undefined","1","s","0","0","0","21","0","21","0","21","0","0","0","21","21","21","21","21","Sun Sep 24 13:18:06 2023","1500","The main experiment item","False","Flankertask fixed.osexp","C:\Users\User","False","mono","False","18","no","white","no","yes","768","legacy","21","21","C:/Users/User/Desktop/data files/subject-3.csv","legacy","Melodramatic Milgram","4.0.5","0","s","NA","s","NA","NA","s","725.0","NA","71614","NA","NA","725","2","legacy","1024","2","48000","-16","experiment","SSSSS","3","odd","72581","NA","NA","104486","959","NA","NA","113360","966","NA","NA","112317","113461","114186","113358","113461","Flankertask","19","15950.0","22","1024"
"86","86","728","728","#3d3846","legacy","legacy","legacy","incongruent","1","undefined","1","s","0","0","0","22","0","22","0","22","0","0","0","22","22","22","22","22","Sun Sep 24 13:18:06 2023","1500","The main experiment item","False","Flankertask fixed.osexp","C:\Users\User","False","mono","False","18","no","white","no","yes","768","legacy","22","22","C:/Users/User/Desktop/data files/subject-3.csv","legacy","Melodramatic Milgram","4.0.5","0","s","NA","s","NA","NA","s","806.0","NA","71614","NA","NA","806","2","legacy","1024","2","48000","-16","experiment","HHSHH","3","odd","72581","NA","NA","104486","959","NA","NA","115233","966","NA","NA","114192","115334","116140","115232","115334","Flankertask","20","16756.0","23","1024"
"87","87","723","723","#3d3846","legacy","legacy","legacy","incongruent","1","undefined","1","h","0","0","0","23","0","23","0","23","0","0","0","23","23","23","23","23","Sun Sep 24 13:18:06 2023","1500","The main experiment item","False","Flankertask fixed.osexp","C:\Users\User","False","mono","False","18","no","white","no","yes","768","legacy","23","23","C:/Users/User/Desktop/data files/subject-3.csv","legacy","Melodramatic Milgram","4.0.5","0","h","NA","s","NA","NA","h","612.0","NA","71614","NA","NA","612","2","legacy","1024","2","48000","-16","experiment","SSHSS","3","odd","72581","NA","NA","104486","959","NA","NA","117193","966","NA","NA","116146","117294","117906","117192","117294","Flankertask","21","17368.0","24","1024"
"88","88","729","729","#3d3846","legacy","legacy","legacy","incongruent","1","undefined","1","h","0","0","0","24","0","24","0","24","0","0","0","24","24","24","24","24","Sun Sep 24 13:18:06 2023","1500","The main experiment item","False","Flankertask fixed.osexp","C:\Users\User","False","mono","False","18","no","white","no","yes","768","legacy","24","24","C:/Users/User/Desktop/data files/subject-3.csv","legacy","Melodramatic Milgram","4.0.5","0","h","NA","s","NA","NA","h","865.0","NA","71614","NA","NA","865","2","legacy","1024","2","48000","-16","experiment","SSHSS","3","odd","72581","NA","NA","104486","959","NA","NA","118956","966","NA","NA","117912","119057","119923","118954","119057","Flankertask","22","18233.0","25","1024"
"88","88","724","724","#3d3846","legacy","legacy","legacy","congruent","1","undefined","1","s","0","0","0","25","0","25","0","25","0","0","0","25","25","25","25","25","Sun Sep 24 13:18:06 2023","1500","The main experiment item","False","Flankertask fixed.osexp","C:\Users\User","False","mono","False","18","no","white","no","yes","768","legacy","25","25","C:/Users/User/Desktop/data files/subject-3.csv","legacy","Melodramatic Milgram","4.0.5","0","s","NA","s","NA","NA","s","597.0","NA","71614","NA","NA","597","2","legacy","1024","2","48000","-16","experiment","SSSSS","3","odd","72581","NA","NA","104486","959","NA","NA","120970","966","NA","NA","119929","121072","121670","120969","121072","Flankertask","23","18830.0","26","1024"
"88","88","723","723","#3d3846","legacy","legacy","legacy","congruent","1","undefined","1","s","0","0","0","26","0","26","0","26","0","0","0","26","26","26","26","26","Sun Sep 24 13:18:06 2023","1500","The main experiment item","False","Flankertask fixed.osexp","C:\Users\User","False","mono","False","18","no","white","no","yes","768","legacy","26","26","C:/Users/User/Desktop/data files/subject-3.csv","legacy","Melodramatic Milgram","4.0.5","0","s","NA","s","NA","NA","s","695.0","NA","71614","NA","NA","695","2","legacy","1024","2","48000","-16","experiment","SSSSS","3","odd","72581","NA","NA","104486","959","NA","NA","122722","966","NA","NA","121676","122823","123519","122720","122823","Flankertask","24","19525.0","27","1024"
"89","89","720","720","#3d3846","legacy","legacy","legacy","incongruent","1","undefined","1","h","0","0","0","27","0","27","0","27","0","0","0","27","27","27","27","27","Sun Sep 24 13:18:06 2023","1500","The main experiment item","False","Flankertask fixed.osexp","C:\Users\User","False","mono","False","18","no","white","no","yes","768","legacy","27","27","C:/Users/User/Desktop/data files/subject-3.csv","legacy","Melodramatic Milgram","4.0.5","0","h","NA","s","NA","NA","h","642.0","NA","71614","NA","NA","642","2","legacy","1024","2","48000","-16","experiment","SSHSS","3","odd","72581","NA","NA","104486","959","NA","NA","124568","966","NA","NA","123525","124669","125312","124566","124669","Flankertask","25","20167.0","28","1024"
"89","89","721","721","#3d3846","legacy","legacy","legacy","incongruent","1","undefined","1","h","0","0","0","28","0","28","0","28","0","0","0","28","28","28","28","28","Sun Sep 24 13:18:06 2023","1500","The main experiment item","False","Flankertask fixed.osexp","C:\Users\User","False","mono","False","18","no","white","no","yes","768","legacy","28","28","C:/Users/User/Desktop/data files/subject-3.csv","legacy","Melodramatic Milgram","4.0.5","0","h","NA","s","NA","NA","h","757.0","NA","71614","NA","NA","757","2","legacy","1024","2","48000","-16","experiment","SSHSS","3","odd","72581","NA","NA","104486","959","NA","NA","126356","966","NA","NA","125314","126457","127214","126354","126457","Flankertask","26","20924.0","29","1024"
"90","90","720","720","#3d3846","legacy","legacy","legacy","congruent","1","undefined","1","h","0","0","0","29","0","29","0","29","0","0","0","29","29","29","29","29","Sun Sep 24 13:18:06 2023","1500","The main experiment item","False","Flankertask fixed.osexp","C:\Users\User","False","mono","False","18","no","white","no","yes","768","legacy","29","29","C:/Users/User/Desktop/data files/subject-3.csv","legacy","Melodramatic Milgram","4.0.5","0","h","NA","s","NA","NA","h","680.0","NA","71614","NA","NA","680","2","legacy","1024","2","48000","-16","experiment","HHHHH","3","odd","72581","NA","NA","104486","959","NA","NA","128265","966","NA","NA","127221","128366","129047","128264","128366","Flankertask","27","21604.0","30","1024"
"90","90","720","720","#3d3846","legacy","legacy","legacy","congruent","1","undefined","1","h","0","0","0","30","0","30","0","30","0","0","0","30","30","30","30","30","Sun Sep 24 13:18:06 2023","1500","The main experiment item","False","Flankertask fixed.osexp","C:\Users\User","False","mono","False","18","no","white","no","yes","768","legacy","30","30","C:/Users/User/Desktop/data files/subject-3.csv","legacy","Melodramatic Milgram","4.0.5","0","h","NA","s","NA","NA","h","724.0","NA","71614","NA","NA","724","2","legacy","1024","2","48000","-16","experiment","HHHHH","3","odd","72581","NA","NA","104486","959","NA","NA","130095","966","NA","NA","129053","130196","130920","130094","130196","Flankertask","28","22328.0","31","1024"
"90","90","716","716","#3d3846","legacy","legacy","legacy","congruent","1","undefined","1","h","0","0","0","31","0","31","0","31","0","0","0","31","31","31","31","31","Sun Sep 24 13:18:06 2023","1500","The main experiment item","False","Flankertask fixed.osexp","C:\Users\User","False","mono","False","18","no","white","no","yes","768","legacy","31","31","C:/Users/User/Desktop/data files/subject-3.csv","legacy","Melodramatic Milgram","4.0.5","0","h","NA","s","NA","NA","h","591.0","NA","71614","NA","NA","591","2","legacy","1024","2","48000","-16","experiment","HHHHH","3","odd","72581","NA","NA","104486","959","NA","NA","131966","966","NA","NA","130923","132067","132658","131965","132067","Flankertask","29","22919.0","32","1024"
"90","90","720","720","#3d3846","legacy","legacy","legacy","congruent","1","undefined","1","s","0","0","0","32","0","32","0","32","0","0","0","32","32","32","32","32","Sun Sep 24 13:18:06 2023","1500","The main experiment item","False","Flankertask fixed.osexp","C:\Users\User","False","mono","False","18","no","white","no","yes","768","legacy","32","32","C:/Users/User/Desktop/data files/subject-3.csv","legacy","Melodramatic Milgram","4.0.5","0","s","NA","s","NA","NA","s","847.0","NA","71614","NA","NA","847","2","legacy","1024","2","48000","-16","experiment","SSSSS","3","odd","72581","NA","NA","104486","959","NA","NA","133704","966","NA","NA","132664","133804","134652","133703","133804","Flankertask","30","23766.0","33","1024"
"91","91","717","717","#3d3846","legacy","legacy","legacy","congruent","1","undefined","1","h","0","0","0","33","0","33","0","33","0","0","0","33","33","33","33","33","Sun Sep 24 13:18:06 2023","1500","The main experiment item","False","Flankertask fixed.osexp","C:\Users\User","False","mono","False","18","no","white","no","yes","768","legacy","33","33","C:/Users/User/Desktop/data files/subject-3.csv","legacy","Melodramatic Milgram","4.0.5","0","h","NA","s","NA","NA","h","626.0","NA","71614","NA","NA","626","2","legacy","1024","2","48000","-16","experiment","HHHHH","3","odd","72581","NA","NA","104486","959","NA","NA","135701","966","NA","NA","134658","135801","136427","135700","135801","Flankertask","31","24392.0","34","1024"
"91","91","717","717","#3d3846","legacy","legacy","legacy","incongruent","1","undefined","1","h","0","0","0","34","0","34","0","34","0","0","0","34","34","34","34","34","Sun Sep 24 13:18:06 2023","1500","The main experiment item","False","Flankertask fixed.osexp","C:\Users\User","False","mono","False","18","no","white","no","yes","768","legacy","34","34","C:/Users/User/Desktop/data files/subject-3.csv","legacy","Melodramatic Milgram","4.0.5","0","h","NA","s","NA","NA","h","716.0","NA","71614","NA","NA","716","2","legacy","1024","2","48000","-16","experiment","SSHSS","3","odd","72581","NA","NA","104486","959","NA","NA","137475","966","NA","NA","136433","137576","138292","137473","137576","Flankertask","32","25108.0","35","1024"
"91","91","717","717","#3d3846","legacy","legacy","legacy","congruent","1","undefined","1","s","0","0","0","35","0","35","0","35","0","0","0","35","35","35","35","35","Sun Sep 24 13:18:06 2023","1500","The main experiment item","False","Flankertask fixed.osexp","C:\Users\User","False","mono","False","18","no","white","no","yes","768","legacy","35","35","C:/Users/User/Desktop/data files/subject-3.csv","legacy","Melodramatic Milgram","4.0.5","0","s","NA","s","NA","NA","s","734.0","NA","71614","NA","NA","734","2","legacy","1024","2","48000","-16","experiment","SSSSS","3","odd","72581","NA","NA","104486","959","NA","NA","139343","966","NA","NA","138298","139444","140178","139342","139444","Flankertask","33","25842.0","36","1024"
"91","91","710","710","#3d3846","legacy","legacy","legacy","congruent","1","undefined","1","h","0","0","0","36","0","36","0","36","0","0","0","36","36","36","36","36","Sun Sep 24 13:18:06 2023","1500","The main experiment item","False","Flankertask fixed.osexp","C:\Users\User","False","mono","False","18","no","white","no","yes","768","legacy","36","36","C:/Users/User/Desktop/data files/subject-3.csv","legacy","Melodramatic Milgram","4.0.5","0","h","NA","s","NA","NA","h","455.0","NA","71614","NA","NA","455","2","legacy","1024","2","48000","-16","experiment","HHHHH","3","odd","72581","NA","NA","104486","959","NA","NA","141226","966","NA","NA","140184","141327","141783","141224","141327","Flankertask","34","26297.0","37","1024"
"92","92","708","708","#3d3846","legacy","legacy","legacy","congruent","1","undefined","1","s","0","0","0","37","0","37","0","37","0","0","0","37","37","37","37","37","Sun Sep 24 13:18:06 2023","1500","The main experiment item","False","Flankertask fixed.osexp","C:\Users\User","False","mono","False","18","no","white","no","yes","768","legacy","37","37","C:/Users/User/Desktop/data files/subject-3.csv","legacy","Melodramatic Milgram","4.0.5","0","s","NA","s","NA","NA","s","614.0","NA","71614","NA","NA","614","2","legacy","1024","2","48000","-16","experiment","SSSSS","3","odd","72581","NA","NA","104486","959","NA","NA","142834","966","NA","NA","141789","142935","143549","142833","142934","Flankertask","35","26911.0","38","1024"
"92","92","715","715","#3d3846","legacy","legacy","legacy","incongruent","1","undefined","1","s","0","0","0","38","0","38","0","38","0","0","0","38","38","38","38","38","Sun Sep 24 13:18:06 2023","1500","The main experiment item","False","Flankertask fixed.osexp","C:\Users\User","False","mono","False","18","no","white","no","yes","768","legacy","38","38","C:/Users/User/Desktop/data files/subject-3.csv","legacy","Melodramatic Milgram","4.0.5","0","s","NA","s","NA","NA","s","979.0","NA","71614","NA","NA","979","2","legacy","1024","2","48000","-16","experiment","HHSHH","3","odd","72581","NA","NA","104486","959","NA","NA","144598","966","NA","NA","143556","144700","145680","144597","144699","Flankertask","36","27890.0","39","1024"
"92","92","717","717","#3d3846","legacy","legacy","legacy","incongruent","1","undefined","1","s","0","0","0","39","0","39","0","39","0","0","0","39","39","39","39","39","Sun Sep 24 13:18:06 2023","1500","The main experiment item","False","Flankertask fixed.osexp","C:\Users\User","False","mono","False","18","no","white","no","yes","768","legacy","39","39","C:/Users/User/Desktop/data files/subject-3.csv","legacy","Melodramatic Milgram","4.0.5","0","s","NA","s","NA","NA","s","799.0","NA","71614","NA","NA","799","2","legacy","1024","2","48000","-16","experiment","HHSHH","3","odd","72581","NA","NA","104486","959","NA","NA","146729","966","NA","NA","145685","146830","147630","146728","146830","Flankertask","37","28689.0","40","1024"
"92","92","718","718","#3d3846","legacy","legacy","legacy","incongruent","1","undefined","1","s","0","0","0","40","0","40","0","40","0","0","0","40","40","40","40","40","Sun Sep 24 13:18:06 2023","1500","The main experiment item","False","Flankertask fixed.osexp","C:\Users\User","False","mono","False","18","no","white","no","yes","768","legacy","40","40","C:/Users/User/Desktop/data files/subject-3.csv","legacy","Melodramatic Milgram","4.0.5","0","s","NA","s","NA","NA","s","753.0","NA","71614","NA","NA","753","2","legacy","1024","2","48000","-16","experiment","HHSHH","3","odd","72581","NA","NA","104486","959","NA","NA","148679","966","NA","NA","147636","148780","149533","148678","148780","Flankertask","38","29442.0","41","1024"
"92","92","713","713","#3d3846","legacy","legacy","legacy","congruent","1","undefined","1","h","0","0","0","41","0","41","0","41","0","0","0","41","41","41","41","41","Sun Sep 24 13:18:06 2023","1500","The main experiment item","False","Flankertask fixed.osexp","C:\Users\User","False","mono","False","18","no","white","no","yes","768","legacy","41","41","C:/Users/User/Desktop/data files/subject-3.csv","legacy","Melodramatic Milgram","4.0.5","0","h","NA","s","NA","NA","h","507.0","NA","71614","NA","NA","507","2","legacy","1024","2","48000","-16","experiment","HHHHH","3","odd","72581","NA","NA","104486","959","NA","NA","150582","966","NA","NA","149539","150684","151191","150581","150684","Flankertask","39","29949.0","42","1024"
"93","93","713","713","#3d3846","legacy","legacy","legacy","incongruent","1","undefined","1","h","0","0","0","42","0","42","0","42","0","0","0","42","42","42","42","42","Sun Sep 24 13:18:06 2023","1500","The main experiment item","False","Flankertask fixed.osexp","C:\Users\User","False","mono","False","18","no","white","no","yes","768","legacy","42","42","C:/Users/User/Desktop/data files/subject-3.csv","legacy","Melodramatic Milgram","4.0.5","0","h","NA","s","NA","NA","h","728.0","NA","71614","NA","NA","728","2","legacy","1024","2","48000","-16","experiment","SSHSS","3","odd","72581","NA","NA","104486","959","NA","NA","152244","966","NA","NA","151197","152345","153073","152243","152345","Flankertask","40","30677.0","43","1024"
"93","93","712","712","#3d3846","legacy","legacy","legacy","incongruent","1","undefined","1","h","0","0","0","43","0","43","0","43","0","0","0","43","43","43","43","43","Sun Sep 24 13:18:06 2023","1500","The main experiment item","False","Flankertask fixed.osexp","C:\Users\User","False","mono","False","18","no","white","no","yes","768","legacy","43","43","C:/Users/User/Desktop/data files/subject-3.csv","legacy","Melodramatic Milgram","4.0.5","0","h","NA","s","NA","NA","h","680.0","NA","71614","NA","NA","680","2","legacy","1024","2","48000","-16","experiment","SSHSS","3","odd","72581","NA","NA","104486","959","NA","NA","154123","966","NA","NA","153080","154224","154904","154122","154224","Flankertask","41","31357.0","44","1024"
"93","93","713","713","#3d3846","legacy","legacy","legacy","incongruent","1","undefined","1","h","0","0","0","44","0","44","0","44","0","0","0","44","44","44","44","44","Sun Sep 24 13:18:06 2023","1500","The main experiment item","False","Flankertask fixed.osexp","C:\Users\User","False","mono","False","18","no","white","no","yes","768","legacy","44","44","C:/Users/User/Desktop/data files/subject-3.csv","legacy","Melodramatic Milgram","4.0.5","0","h","NA","s","NA","NA","h","748.0","NA","71614","NA","NA","748","2","legacy","1024","2","48000","-16","experiment","SSHSS","3","odd","72581","NA","NA","104486","959","NA","NA","155957","966","NA","NA","154910","156059","156808","155956","156059","Flankertask","42","32105.0","45","1024"
"93","93","709","709","#3d3846","legacy","legacy","legacy","incongruent","1","undefined","1","h","0","0","0","45","0","45","0","45","0","0","0","45","45","45","45","45","Sun Sep 24 13:18:06 2023","1500","The main experiment item","False","Flankertask fixed.osexp","C:\Users\User","False","mono","False","18","no","white","no","yes","768","legacy","45","45","C:/Users/User/Desktop/data files/subject-3.csv","legacy","Melodramatic Milgram","4.0.5","0","h","NA","s","NA","NA","h","522.0","NA","71614","NA","NA","522","2","legacy","1024","2","48000","-16","experiment","SSHSS","3","odd","72581","NA","NA","104486","959","NA","NA","157858","966","NA","NA","156814","157959","158482","157856","157959","Flankertask","43","32627.0","46","1024"
"93","93","707","707","#3d3846","legacy","legacy","legacy","congruent","1","undefined","1","s","0","0","0","46","0","46","0","46","0","0","0","46","46","46","46","46","Sun Sep 24 13:18:06 2023","1500","The main experiment item","False","Flankertask fixed.osexp","C:\Users\User","False","mono","False","18","no","white","no","yes","768","legacy","46","46","C:/Users/User/Desktop/data files/subject-3.csv","legacy","Melodramatic Milgram","4.0.5","0","s","NA","s","NA","NA","s","604.0","NA","71614","NA","NA","604","2","legacy","1024","2","48000","-16","experiment","SSSSS","3","odd","72581","NA","NA","104486","959","NA","NA","159530","966","NA","NA","158488","159631","160235","159529","159631","Flankertask","44","33231.0","47","1024"
"93","93","714","714","#3d3846","legacy","legacy","legacy","incongruent","1","undefined","1","s","0","0","0","47","0","47","0","47","0","0","0","47","47","47","47","47","Sun Sep 24 13:18:06 2023","1500","The main experiment item","False","Flankertask fixed.osexp","C:\Users\User","False","mono","False","18","no","white","no","yes","768","legacy","47","47","C:/Users/User/Desktop/data files/subject-3.csv","legacy","Melodramatic Milgram","4.0.5","0","s","NA","s","NA","NA","s","1055.0","NA","71614","NA","NA","1055","2","legacy","1024","2","48000","-16","experiment","HHSHH","3","odd","72581","NA","NA","104486","959","NA","NA","161284","966","NA","NA","160242","161385","162440","161283","161385","Flankertask","45","34286.0","48","1024"
"93","93","714","714","#3d3846","legacy","legacy","legacy","congruent","1","undefined","1","s","0","0","0","48","0","48","0","48","0","0","0","48","48","48","48","48","Sun Sep 24 13:18:06 2023","1500","The main experiment item","False","Flankertask fixed.osexp","C:\Users\User","False","mono","False","18","no","white","no","yes","768","legacy","48","48","C:/Users/User/Desktop/data files/subject-3.csv","legacy","Melodramatic Milgram","4.0.5","0","s","NA","s","NA","NA","s","719.0","NA","71614","NA","NA","719","2","legacy","1024","2","48000","-16","experiment","SSSSS","3","odd","72581","NA","NA","104486","959","NA","NA","163488","966","NA","NA","162446","163589","164309","163486","163588","Flankertask","46","35005.0","49","1024"
"94","94","716","716","#3d3846","legacy","legacy","legacy","incongruent","1","undefined","1","s","0","0","0","49","0","49","0","49","0","0","0","49","49","49","49","49","Sun Sep 24 13:18:06 2023","1500","The main experiment item","False","Flankertask fixed.osexp","C:\Users\User","False","mono","False","18","no","white","no","yes","768","legacy","49","49","C:/Users/User/Desktop/data files/subject-3.csv","legacy","Melodramatic Milgram","4.0.5","0","s","NA","s","NA","NA","s","828.0","NA","71614","NA","NA","828","2","legacy","1024","2","48000","-16","experiment","HHSHH","3","odd","72581","NA","NA","104486","959","NA","NA","165359","966","NA","NA","164315","165460","166288","165357","165460","Flankertask","47","35833.0","50","1024"
"94","94","713","713","#3d3846","legacy","legacy","legacy","incongruent","1","undefined","1","s","0","0","0","50","0","50","0","50","0","0","0","50","50","50","50","50","Sun Sep 24 13:18:06 2023","1500","The main experiment item","False","Flankertask fixed.osexp","C:\Users\User","False","mono","False","18","no","white","no","yes","768","legacy","50","50","C:/Users/User/Desktop/data files/subject-3.csv","legacy","Melodramatic Milgram","4.0.5","0","s","NA","s","NA","NA","s","578.0","NA","71614","NA","NA","578","2","legacy","1024","2","48000","-16","experiment","HHSHH","3","odd","72581","NA","NA","104486","959","NA","NA","167333","966","NA","NA","166294","167434","168013","167332","167434","Flankertask","48","36411.0","51","1024"
"94","94","709","709","#3d3846","legacy","legacy","legacy","congruent","1","undefined","1","s","0","0","0","51","0","51","0","51","0","0","0","51","51","51","51","51","Sun Sep 24 13:18:06 2023","1500","The main experiment item","False","Flankertask fixed.osexp","C:\Users\User","False","mono","False","18","no","white","no","yes","768","legacy","51","51","C:/Users/User/Desktop/data files/subject-3.csv","legacy","Melodramatic Milgram","4.0.5","0","s","NA","s","NA","NA","s","501.0","NA","71614","NA","NA","501","2","legacy","1024","2","48000","-16","experiment","SSSSS","3","odd","72581","NA","NA","104486","959","NA","NA","169067","966","NA","NA","168019","169167","169668","169066","169167","Flankertask","49","36912.0","52","1024"
"94","94","707","707","#3d3846","legacy","legacy","legacy","congruent","1","undefined","1","h","0","0","0","52","0","52","0","52","0","0","0","52","52","52","52","52","Sun Sep 24 13:18:06 2023","1500","The main experiment item","False","Flankertask fixed.osexp","C:\Users\User","False","mono","False","18","no","white","no","yes","768","legacy","52","52","C:/Users/User/Desktop/data files/subject-3.csv","legacy","Melodramatic Milgram","4.0.5","0","h","NA","s","NA","NA","h","598.0","NA","71614","NA","NA","598","2","legacy","1024","2","48000","-16","experiment","HHHHH","3","odd","72581","NA","NA","104486","959","NA","NA","170720","966","NA","NA","169675","170821","171420","170718","170821","Flankertask","50","37510.0","53","1024"
"94","94","703","703","#3d3846","legacy","legacy","legacy","incongruent","1","undefined","1","s","0","0","0","53","0","53","0","53","0","0","0","53","53","53","53","53","Sun Sep 24 13:18:06 2023","1500","The main experiment item","False","Flankertask fixed.osexp","C:\Users\User","False","mono","False","18","no","white","no","yes","768","legacy","53","53","C:/Users/User/Desktop/data files/subject-3.csv","legacy","Melodramatic Milgram","4.0.5","0","s","NA","s","NA","NA","s","458.0","NA","71614","NA","NA","458","2","legacy","1024","2","48000","-16","experiment","HHSHH","3","odd","72581","NA","NA","104486","959","NA","NA","172477","966","NA","NA","171426","172578","173036","172475","172578","Flankertask","51","37968.0","54","1024"
"94","94","701","701","#3d3846","legacy","legacy","legacy","congruent","1","undefined","1","h","0","0","0","54","0","54","0","54","0","0","0","54","54","54","54","54","Sun Sep 24 13:18:06 2023","1500","The main experiment item","False","Flankertask fixed.osexp","C:\Users\User","False","mono","False","18","no","white","no","yes","768","legacy","54","54","C:/Users/User/Desktop/data files/subject-3.csv","legacy","Melodramatic Milgram","4.0.5","0","h","NA","s","NA","NA","h","624.0","NA","71614","NA","NA","624","2","legacy","1024","2","48000","-16","experiment","HHHHH","3","odd","72581","NA","NA","104486","959","NA","NA","174087","966","NA","NA","173043","174187","174812","174086","174187","Flankertask","52","38592.0","55","1024"
"94","94","701","701","#3d3846","legacy","legacy","legacy","incongruent","1","undefined","1","s","0","0","0","55","0","55","0","55","0","0","0","55","55","55","55","55","Sun Sep 24 13:18:06 2023","1500","The main experiment item","False","Flankertask fixed.osexp","C:\Users\User","False","mono","False","18","no","white","no","yes","768","legacy","55","55","C:/Users/User/Desktop/data files/subject-3.csv","legacy","Melodramatic Milgram","4.0.5","0","s","NA","s","NA","NA","s","673.0","NA","71614","NA","NA","673","2","legacy","1024","2","48000","-16","experiment","HHSHH","3","odd","72581","NA","NA","104486","959","NA","NA","175860","966","NA","NA","174818","175960","176634","175859","175960","Flankertask","53","39265.0","56","1024"
"94","94","701","701","#3d3846","legacy","legacy","legacy","congruent","1","undefined","1","s","0","0","0","56","0","56","0","56","0","0","0","56","56","56","56","56","Sun Sep 24 13:18:06 2023","1500","The main experiment item","False","Flankertask fixed.osexp","C:\Users\User","False","mono","False","18","no","white","no","yes","768","legacy","56","56","C:/Users/User/Desktop/data files/subject-3.csv","legacy","Melodramatic Milgram","4.0.5","0","s","NA","s","NA","NA","s","710.0","NA","71614","NA","NA","710","2","legacy","1024","2","48000","-16","experiment","SSSSS","3","odd","72581","NA","NA","104486","959","NA","NA","177681","966","NA","NA","176640","177782","178492","177680","177782","Flankertask","54","39975.0","57","1024"
"94","94","698","698","#3d3846","legacy","legacy","legacy","congruent","1","undefined","1","h","0","0","0","57","0","57","0","57","0","0","0","57","57","57","57","57","Sun Sep 24 13:18:06 2023","1500","The main experiment item","False","Flankertask fixed.osexp","C:\Users\User","False","mono","False","18","no","white","no","yes","768","legacy","57","57","C:/Users/User/Desktop/data files/subject-3.csv","legacy","Melodramatic Milgram","4.0.5","0","h","NA","s","NA","NA","h","551.0","NA","71614","NA","NA","551","2","legacy","1024","2","48000","-16","experiment","HHHHH","3","odd","72581","NA","NA","104486","959","NA","NA","179543","966","NA","NA","178499","179644","180195","179542","179643","Flankertask","55","40526.0","58","1024"
"94","94","699","699","#3d3846","legacy","legacy","legacy","congruent","1","undefined","1","h","0","0","0","58","0","58","0","58","0","0","0","58","58","58","58","58","Sun Sep 24 13:18:06 2023","1500","The main experiment item","False","Flankertask fixed.osexp","C:\Users\User","False","mono","False","18","no","white","no","yes","768","legacy","58","58","C:/Users/User/Desktop/data files/subject-3.csv","legacy","Melodramatic Milgram","4.0.5","0","h","NA","s","NA","NA","h","717.0","NA","71614","NA","NA","717","2","legacy","1024","2","48000","-16","experiment","HHHHH","3","odd","72581","NA","NA","104486","959","NA","NA","181242","966","NA","NA","180201","181343","182060","181241","181343","Flankertask","56","41243.0","59","1024"
"95","95","696","696","#3d3846","legacy","legacy","legacy","congruent","1","undefined","1","s","0","0","0","59","0","59","0","59","0","0","0","59","59","59","59","59","Sun Sep 24 13:18:06 2023","1500","The main experiment item","False","Flankertask fixed.osexp","C:\Users\User","False","mono","False","18","no","white","no","yes","768","legacy","59","59","C:/Users/User/Desktop/data files/subject-3.csv","legacy","Melodramatic Milgram","4.0.5","0","s","NA","s","NA","NA","s","518.0","NA","71614","NA","NA","518","2","legacy","1024","2","48000","-16","experiment","SSSSS","3","odd","72581","NA","NA","104486","959","NA","NA","183114","966","NA","NA","182066","183215","183734","183113","183214","Flankertask","57","41761.0","60","1024"
"95","95","694","694","#3d3846","legacy","legacy","legacy","congruent","1","undefined","1","s","0","0","0","60","0","60","0","60","0","0","0","60","60","60","60","60","Sun Sep 24 13:18:06 2023","1500","The main experiment item","False","Flankertask fixed.osexp","C:\Users\User","False","mono","False","18","no","white","no","yes","768","legacy","60","60","C:/Users/User/Desktop/data files/subject-3.csv","legacy","Melodramatic Milgram","4.0.5","0","s","NA","s","NA","NA","s","622.0","NA","71614","NA","NA","622","2","legacy","1024","2","48000","-16","experiment","SSSSS","3","odd","72581","NA","NA","104486","959","NA","NA","184779","966","NA","NA","183740","184880","185502","184778","184880","Flankertask","58","42383.0","61","1024"
"95","95","691","691","#3d3846","legacy","legacy","legacy","congruent","1","undefined","1","h","0","0","0","61","0","61","0","61","0","0","0","61","61","61","61","61","Sun Sep 24 13:18:06 2023","1500","The main experiment item","False","Flankertask fixed.osexp","C:\Users\User","False","mono","False","18","no","white","no","yes","768","legacy","61","61","C:/Users/User/Desktop/data files/subject-3.csv","legacy","Melodramatic Milgram","4.0.5","0","h","NA","s","NA","NA","h","462.0","NA","71614","NA","NA","462","2","legacy","1024","2","48000","-16","experiment","HHHHH","3","odd","72581","NA","NA","104486","959","NA","NA","186555","966","NA","NA","185508","186655","187117","186554","186655","Flankertask","59","42845.0","62","1024"
"95","95","687","687","#3d3846","legacy","legacy","legacy","incongruent","1","undefined","1","s","0","0","0","62","0","62","0","62","0","0","0","62","62","62","62","62","Sun Sep 24 13:18:06 2023","1500","The main experiment item","False","Flankertask fixed.osexp","C:\Users\User","False","mono","False","18","no","white","no","yes","768","legacy","62","62","C:/Users/User/Desktop/data files/subject-3.csv","legacy","Melodramatic Milgram","4.0.5","0","s","NA","s","NA","NA","s","484.0","NA","71614","NA","NA","484","2","legacy","1024","2","48000","-16","experiment","HHSHH","3","odd","72581","NA","NA","104486","959","NA","NA","188175","966","NA","NA","187123","188276","188760","188174","188276","Flankertask","60","43329.0","63","1024"
"93","93","684","684","#3d3846","legacy","legacy","legacy","incongruent","0","undefined","0","s","0","0","0","63","0","63","0","63","0","0","0","63","63","63","63","63","Sun Sep 24 13:18:06 2023","1500","The main experiment item","False","Flankertask fixed.osexp","C:\Users\User","False","mono","False","18","no","white","no","yes","768","legacy","63","63","C:/Users/User/Desktop/data files/subject-3.csv","legacy","Melodramatic Milgram","4.0.5","0","h","NA","s","NA","NA","h","452.0","NA","71614","NA","NA","452","2","legacy","1024","2","48000","-16","experiment","HHSHH","3","odd","72581","NA","NA","104486","959","NA","NA","189808","966","NA","NA","188766","189909","190361","189807","189909","Flankertask","60","43781.0","64","1024"
"93","93","682","682","#3d3846","legacy","legacy","legacy","incongruent","1","undefined","1","s","0","0","0","64","0","64","0","64","0","0","0","64","64","64","64","64","Sun Sep 24 13:18:06 2023","1500","The main experiment item","False","Flankertask fixed.osexp","C:\Users\User","False","mono","False","18","no","white","no","yes","768","legacy","64","64","C:/Users/User/Desktop/data files/subject-3.csv","legacy","Melodramatic Milgram","4.0.5","0","s","NA","s","NA","NA","s","556.0","NA","71614","NA","NA","556","2","legacy","1024","2","48000","-16","experiment","HHSHH","3","odd","72581","NA","NA","190367","959","NA","NA","191911","966","NA","NA","190868","192011","192567","191909","192011","Flankertask","61","44337.0","65","1024"
"93","93","683","683","#3d3846","legacy","legacy","legacy","incongruent","1","undefined","1","s","0","0","0","65","0","65","0","65","0","0","0","65","65","65","65","65","Sun Sep 24 13:18:06 2023","1500","The main experiment item","False","Flankertask fixed.osexp","C:\Users\User","False","mono","False","18","no","white","no","yes","768","legacy","65","65","C:/Users/User/Desktop/data files/subject-3.csv","legacy","Melodramatic Milgram","4.0.5","0","s","NA","s","NA","NA","s","769.0","NA","71614","NA","NA","769","2","legacy","1024","2","48000","-16","experiment","HHSHH","3","odd","72581","NA","NA","190367","959","NA","NA","193617","966","NA","NA","192574","193718","194488","193616","193718","Flankertask","62","45106.0","66","1024"
"94","94","685","685","#3d3846","legacy","legacy","legacy","incongruent","1","undefined","1","h","0","0","0","66","0","66","0","66","0","0","0","66","66","66","66","66","Sun Sep 24 13:18:06 2023","1500","The main experiment item","False","Flankertask fixed.osexp","C:\Users\User","False","mono","False","18","no","white","no","yes","768","legacy","66","66","C:/Users/User/Desktop/data files/subject-3.csv","legacy","Melodramatic Milgram","4.0.5","0","h","NA","s","NA","NA","h","827.0","NA","71614","NA","NA","827","2","legacy","1024","2","48000","-16","experiment","SSHSS","3","odd","72581","NA","NA","190367","959","NA","NA","195537","966","NA","NA","194494","195638","196465","195536","195638","Flankertask","63","45933.0","67","1024"
"94","94","685","685","#3d3846","legacy","legacy","legacy","congruent","1","undefined","1","h","0","0","0","67","0","67","0","67","0","0","0","67","67","67","67","67","Sun Sep 24 13:18:06 2023","1500","The main experiment item","False","Flankertask fixed.osexp","C:\Users\User","False","mono","False","18","no","white","no","yes","768","legacy","67","67","C:/Users/User/Desktop/data files/subject-3.csv","legacy","Melodramatic Milgram","4.0.5","0","h","NA","s","NA","NA","h","685.0","NA","71614","NA","NA","685","2","legacy","1024","2","48000","-16","experiment","HHHHH","3","odd","72581","NA","NA","190367","959","NA","NA","197513","966","NA","NA","196471","197614","198300","197511","197614","Flankertask","64","46618.0","68","1024"
"94","94","686","686","#3d3846","legacy","legacy","legacy","incongruent","1","undefined","1","h","0","0","0","68","0","68","0","68","0","0","0","68","68","68","68","68","Sun Sep 24 13:18:06 2023","1500","The main experiment item","False","Flankertask fixed.osexp","C:\Users\User","False","mono","False","18","no","white","no","yes","768","legacy","68","68","C:/Users/User/Desktop/data files/subject-3.csv","legacy","Melodramatic Milgram","4.0.5","0","h","NA","s","NA","NA","h","738.0","NA","71614","NA","NA","738","2","legacy","1024","2","48000","-16","experiment","SSHSS","3","odd","72581","NA","NA","190367","959","NA","NA","199348","966","NA","NA","198306","199449","200187","199346","199449","Flankertask","65","47356.0","69","1024"
"94","94","683","683","#3d3846","legacy","legacy","legacy","congruent","1","undefined","1","s","0","0","0","69","0","69","0","69","0","0","0","69","69","69","69","69","Sun Sep 24 13:18:06 2023","1500","The main experiment item","False","Flankertask fixed.osexp","C:\Users\User","False","mono","False","18","no","white","no","yes","768","legacy","69","69","C:/Users/User/Desktop/data files/subject-3.csv","legacy","Melodramatic Milgram","4.0.5","0","s","NA","s","NA","NA","s","482.0","NA","71614","NA","NA","482","2","legacy","1024","2","48000","-16","experiment","SSSSS","3","odd","72581","NA","NA","190367","959","NA","NA","201230","966","NA","NA","200190","201331","201813","201229","201331","Flankertask","66","47838.0","70","1024"
"94","94","681","681","#3d3846","legacy","legacy","legacy","incongruent","1","undefined","1","h","0","0","0","70","0","70","0","70","0","0","0","70","70","70","70","70","Sun Sep 24 13:18:06 2023","1500","The main experiment item","False","Flankertask fixed.osexp","C:\Users\User","False","mono","False","18","no","white","no","yes","768","legacy","70","70","C:/Users/User/Desktop/data files/subject-3.csv","legacy","Melodramatic Milgram","4.0.5","0","h","NA","s","NA","NA","h","582.0","NA","71614","NA","NA","582","2","legacy","1024","2","48000","-16","experiment","SSHSS","3","odd","72581","NA","NA","190367","959","NA","NA","202862","966","NA","NA","201819","202963","203546","202861","202963","Flankertask","67","48420.0","71","1024"
"93","93","676","676","#3d3846","legacy","legacy","legacy","incongruent","0","undefined","0","h","0","0","0","71","0","71","0","71","0","0","0","71","71","71","71","71","Sun Sep 24 13:18:06 2023","1500","The main experiment item","False","Flankertask fixed.osexp","C:\Users\User","False","mono","False","18","no","white","no","yes","768","legacy","71","71","C:/Users/User/Desktop/data files/subject-3.csv","legacy","Melodramatic Milgram","4.0.5","0","s","NA","s","NA","NA","s","274.0","NA","71614","NA","NA","274","2","legacy","1024","2","48000","-16","experiment","SSHSS","3","odd","72581","NA","NA","190367","959","NA","NA","204601","966","NA","NA","203552","204702","204977","204600","204702","Flankertask","67","48694.0","72","1024"
"93","93","673","673","#3d3846","legacy","legacy","legacy","congruent","1","undefined","1","h","0","0","0","72","0","72","0","72","0","0","0","72","72","72","72","72","Sun Sep 24 13:18:06 2023","1500","The main experiment item","False","Flankertask fixed.osexp","C:\Users\User","False","mono","False","18","no","white","no","yes","768","legacy","72","72","C:/Users/User/Desktop/data files/subject-3.csv","legacy","Melodramatic Milgram","4.0.5","0","h","NA","s","NA","NA","h","484.0","NA","71614","NA","NA","484","2","legacy","1024","2","48000","-16","experiment","HHHHH","3","odd","72581","NA","NA","204983","959","NA","NA","206525","966","NA","NA","205484","206626","207111","206524","206626","Flankertask","68","49178.0","73","1024"
"93","93","675","675","#3d3846","legacy","legacy","legacy","congruent","1","undefined","1","h","0","0","0","73","0","73","0","73","0","0","0","73","73","73","73","73","Sun Sep 24 13:18:06 2023","1500","The main experiment item","False","Flankertask fixed.osexp","C:\Users\User","False","mono","False","18","no","white","no","yes","768","legacy","73","73","C:/Users/User/Desktop/data files/subject-3.csv","legacy","Melodramatic Milgram","4.0.5","0","h","NA","s","NA","NA","h","826.0","NA","71614","NA","NA","826","2","legacy","1024","2","48000","-16","experiment","HHHHH","3","odd","72581","NA","NA","204983","959","NA","NA","208158","966","NA","NA","207117","208259","209086","208157","208259","Flankertask","69","50004.0","74","1024"
"93","93","674","674","#3d3846","legacy","legacy","legacy","congruent","1","undefined","1","s","0","0","0","74","0","74","0","74","0","0","0","74","74","74","74","74","Sun Sep 24 13:18:06 2023","1500","The main experiment item","False","Flankertask fixed.osexp","C:\Users\User","False","mono","False","18","no","white","no","yes","768","legacy","74","74","C:/Users/User/Desktop/data files/subject-3.csv","legacy","Melodramatic Milgram","4.0.5","0","s","NA","s","NA","NA","s","599.0","NA","71614","NA","NA","599","2","legacy","1024","2","48000","-16","experiment","SSSSS","3","odd","72581","NA","NA","204983","959","NA","NA","210134","966","NA","NA","209092","210235","210835","210132","210235","Flankertask","70","50603.0","75","1024"
"93","93","672","672","#3d3846","legacy","legacy","legacy","congruent","1","undefined","1","h","0","0","0","75","0","75","0","75","0","0","0","75","75","75","75","75","Sun Sep 24 13:18:06 2023","1500","The main experiment item","False","Flankertask fixed.osexp","C:\Users\User","False","mono","False","18","no","white","no","yes","768","legacy","75","75","C:/Users/User/Desktop/data files/subject-3.csv","legacy","Melodramatic Milgram","4.0.5","0","h","NA","s","NA","NA","h","479.0","NA","71614","NA","NA","479","2","legacy","1024","2","48000","-16","experiment","HHHHH","3","odd","72581","NA","NA","204983","959","NA","NA","211886","966","NA","NA","210841","211987","212467","211885","211987","Flankertask","71","51082.0","76","1024"
"93","93","673","673","#3d3846","legacy","legacy","legacy","incongruent","1","undefined","1","s","0","0","0","76","0","76","0","76","0","0","0","76","76","76","76","76","Sun Sep 24 13:18:06 2023","1500","The main experiment item","False","Flankertask fixed.osexp","C:\Users\User","False","mono","False","18","no","white","no","yes","768","legacy","76","76","C:/Users/User/Desktop/data files/subject-3.csv","legacy","Melodramatic Milgram","4.0.5","0","s","NA","s","NA","NA","s","814.0","NA","71614","NA","NA","814","2","legacy","1024","2","48000","-16","experiment","HHSHH","3","odd","72581","NA","NA","204983","959","NA","NA","213518","966","NA","NA","212474","213619","214433","213517","213619","Flankertask","72","51896.0","77","1024"
"93","93","670","670","#3d3846","legacy","legacy","legacy","incongruent","1","undefined","1","h","0","0","0","77","0","77","0","77","0","0","0","77","77","77","77","77","Sun Sep 24 13:18:06 2023","1500","The main experiment item","False","Flankertask fixed.osexp","C:\Users\User","False","mono","False","18","no","white","no","yes","768","legacy","77","77","C:/Users/User/Desktop/data files/subject-3.csv","legacy","Melodramatic Milgram","4.0.5","0","h","NA","s","NA","NA","h","421.0","NA","71614","NA","NA","421","2","legacy","1024","2","48000","-16","experiment","SSHSS","3","odd","72581","NA","NA","204983","959","NA","NA","215480","966","NA","NA","214439","215581","216003","215479","215581","Flankertask","73","52317.0","78","1024"
"93","93","674","674","#3d3846","legacy","legacy","legacy","incongruent","1","undefined","1","h","0","0","0","78","0","78","0","78","0","0","0","78","78","78","78","78","Sun Sep 24 13:18:06 2023","1500","The main experiment item","False","Flankertask fixed.osexp","C:\Users\User","False","mono","False","18","no","white","no","yes","768","legacy","78","78","C:/Users/User/Desktop/data files/subject-3.csv","legacy","Melodramatic Milgram","4.0.5","0","h","NA","s","NA","NA","h","959.0","NA","71614","NA","NA","959","2","legacy","1024","2","48000","-16","experiment","SSHSS","3","odd","72581","NA","NA","204983","959","NA","NA","217056","966","NA","NA","216009","217158","218118","217055","217157","Flankertask","74","53276.0","79","1024"
"93","93","674","674","#3d3846","legacy","legacy","legacy","congruent","1","undefined","1","s","0","0","0","79","0","79","0","79","0","0","0","79","79","79","79","79","Sun Sep 24 13:18:06 2023","1500","The main experiment item","False","Flankertask fixed.osexp","C:\Users\User","False","mono","False","18","no","white","no","yes","768","legacy","79","79","C:/Users/User/Desktop/data files/subject-3.csv","legacy","Melodramatic Milgram","4.0.5","0","s","NA","s","NA","NA","s","658.0","NA","71614","NA","NA","658","2","legacy","1024","2","48000","-16","experiment","SSSSS","3","odd","72581","NA","NA","204983","959","NA","NA","219162","966","NA","NA","218124","219263","219922","219161","219262","Flankertask","75","53934.0","80","1024"
"93","93","675","675","#3d3846","legacy","legacy","legacy","congruent","1","undefined","1","h","0","0","0","80","0","80","0","80","0","0","0","80","80","80","80","80","Sun Sep 24 13:18:06 2023","600","The main experiment item","False","Flankertask fixed.osexp","C:\Users\User","False","mono","False","18","no","white","no","yes","768","legacy","0","79","C:/Users/User/Desktop/data files/subject-3.csv","legacy","Melodramatic Milgram","4.0.5","0","h","NA","s","s","NA","h","757.0","NA","71614","12744","NA","757","2","legacy","1024","2","48000","-16","experiment","HHHHH","3","odd","72581","NA","233674","204983","959","NA","NA","233716","966","220929","NA","219928","233817","234574","233715","233817","Flankertask","76","54691.0","81","1024"
"93","93","675","675","#3d3846","legacy","legacy","legacy","congruent","1","undefined","1","s","0","0","0","81","0","81","0","81","0","0","0","81","81","81","81","81","Sun Sep 24 13:18:06 2023","600","The main experiment item","False","Flankertask fixed.osexp","C:\Users\User","False","mono","False","18","no","white","no","yes","768","legacy","1","79","C:/Users/User/Desktop/data files/subject-3.csv","legacy","Melodramatic Milgram","4.0.5","0","s","NA","s","s","NA","s","686.0","NA","71614","12744","NA","686","2","legacy","1024","2","48000","-16","experiment","SSSSS","3","odd","72581","NA","233674","204983","959","234581","NA","236123","966","220929","NA","235082","236224","236910","236122","236224","Flankertask","77","55377.0","82","1024"
"93","93","677","677","#3d3846","legacy","legacy","legacy","congruent","1","undefined","1","s","0","0","0","82","0","82","0","82","0","0","0","82","82","82","82","82","Sun Sep 24 13:18:06 2023","600","The main experiment item","False","Flankertask fixed.osexp","C:\Users\User","False","mono","False","18","no","white","no","yes","768","legacy","2","79","C:/Users/User/Desktop/data files/subject-3.csv","legacy","Melodramatic Milgram","4.0.5","0","s","NA","s","s","NA","s","889.0","NA","71614","12744","NA","889","2","legacy","1024","2","48000","-16","experiment","SSSSS","3","odd","72581","NA","233674","204983","959","236917","NA","238462","966","220929","NA","237417","238563","239452","238461","238563","Flankertask","78","56266.0","83","1024"
"92","92","687","687","#3d3846","legacy","legacy","legacy","incongruent","0","undefined","0","h","0","0","0","83","0","83","0","83","0","0","0","83","83","83","83","83","Sun Sep 24 13:18:06 2023","600","The main experiment item","False","Flankertask fixed.osexp","C:\Users\User","False","mono","False","18","no","white","no","yes","768","legacy","3","79","C:/Users/User/Desktop/data files/subject-3.csv","legacy","Melodramatic Milgram","4.0.5","0","None","NA","s","s","NA","None","1500.0","NA","71614","12744","NA","1500","2","legacy","1024","2","48000","-16","experiment","SSHSS","3","odd","72581","NA","233674","204983","959","239459","NA","241003","966","220929","NA","239960","241104","242604","241002","241104","Flankertask","78","57766.0","84","1024"
"91","91","697","697","#3d3846","legacy","legacy","legacy","incongruent","0","undefined","0","s","0","0","0","84","0","84","0","84","0","0","0","84","84","84","84","84","Sun Sep 24 13:18:06 2023","600","The main experiment item","False","Flankertask fixed.osexp","C:\Users\User","False","mono","False","18","no","white","no","yes","768","legacy","4","79","C:/Users/User/Desktop/data files/subject-3.csv","legacy","Melodramatic Milgram","4.0.5","0","None","NA","s","s","NA","None","1500.0","NA","71614","12744","NA","1500","2","legacy","1024","2","48000","-16","experiment","HHSHH","3","odd","72581","NA","233674","242610","959","243111","NA","244655","966","220929","NA","243612","244756","246256","244651","244755","Flankertask","78","59266.0","85","1024"
"90","90","706","706","#3d3846","legacy","legacy","legacy","incongruent","0","undefined","0","h","0","0","0","85","0","85","0","85","0","0","0","85","85","85","85","85","Sun Sep 24 13:18:06 2023","600","The main experiment item","False","Flankertask fixed.osexp","C:\Users\User","False","mono","False","18","no","white","no","yes","768","legacy","5","79","C:/Users/User/Desktop/data files/subject-3.csv","legacy","Melodramatic Milgram","4.0.5","0","None","NA","s","s","NA","None","1500.0","NA","71614","12744","NA","1500","2","legacy","1024","2","48000","-16","experiment","SSHSS","3","odd","72581","NA","233674","246262","959","246763","NA","248303","966","220929","NA","247263","248403","249903","248302","248403","Flankertask","78","60766.0","86","1024"
"90","90","708","708","#3d3846","legacy","legacy","legacy","incongruent","1","undefined","1","h","0","0","0","86","0","86","0","86","0","0","0","86","86","86","86","86","Sun Sep 24 13:18:06 2023","600","The main experiment item","False","Flankertask fixed.osexp","C:\Users\User","False","mono","False","18","no","white","no","yes","768","legacy","6","79","C:/Users/User/Desktop/data files/subject-3.csv","legacy","Melodramatic Milgram","4.0.5","0","h","NA","s","s","NA","h","845.0","NA","71614","12744","NA","845","2","legacy","1024","2","48000","-16","experiment","SSHSS","3","odd","72581","NA","233674","249909","959","250410","NA","287555","966","220929","NA","250911","287655","288501","251935","287655","Flankertask","79","61611.0","87","1024"
"90","90","706","706","#3d3846","legacy","legacy","legacy","incongruent","1","undefined","1","s","0","0","0","87","0","87","0","87","0","0","0","87","87","87","87","87","Sun Sep 24 13:18:06 2023","600","The main experiment item","False","Flankertask fixed.osexp","C:\Users\User","False","mono","False","18","no","white","no","yes","768","legacy","7","79","C:/Users/User/Desktop/data files/subject-3.csv","legacy","Melodramatic Milgram","4.0.5","0","s","NA","s","s","NA","s","589.0","NA","71614","12744","NA","589","2","legacy","1024","2","48000","-16","experiment","HHSHH","3","odd","72581","NA","233674","249909","959","288507","NA","290057","966","220929","NA","289008","290158","290748","290056","290158","Flankertask","80","62200.0","88","1024"
"91","91","705","705","#3d3846","legacy","legacy","legacy","congruent","1","undefined","1","s","0","0","0","88","0","88","0","88","0","0","0","88","88","88","88","88","Sun Sep 24 13:18:06 2023","600","The main experiment item","False","Flankertask fixed.osexp","C:\Users\User","False","mono","False","18","no","white","no","yes","768","legacy","8","79","C:/Users/User/Desktop/data files/subject-3.csv","legacy","Melodramatic Milgram","4.0.5","0","s","NA","s","s","NA","s","596.0","NA","71614","12744","NA","596","2","legacy","1024","2","48000","-16","experiment","SSSSS","3","odd","72581","NA","233674","249909","959","288507","NA","291783","966","220929","NA","290754","291884","292480","291782","291884","Flankertask","81","62796.0","89","1024"
"91","91","701","701","#3d3846","legacy","legacy","legacy","incongruent","1","undefined","1","h","0","0","0","89","0","89","0","89","0","0","0","89","89","89","89","89","Sun Sep 24 13:18:06 2023","600","The main experiment item","False","Flankertask fixed.osexp","C:\Users\User","False","mono","False","18","no","white","no","yes","768","legacy","9","79","C:/Users/User/Desktop/data files/subject-3.csv","legacy","Melodramatic Milgram","4.0.5","0","h","NA","s","s","NA","h","370.0","NA","71614","12744","NA","370","2","legacy","1024","2","48000","-16","experiment","SSHSS","3","odd","72581","NA","233674","249909","959","288507","NA","293530","966","220929","NA","292487","293631","294002","293529","293631","Flankertask","82","63166.0","90","1024"
"91","91","700","700","#3d3846","legacy","legacy","legacy","congruent","1","undefined","1","h","0","0","0","90","0","90","0","90","0","0","0","90","90","90","90","90","Sun Sep 24 13:18:06 2023","600","The main experiment item","False","Flankertask fixed.osexp","C:\Users\User","False","mono","False","18","no","white","no","yes","768","legacy","10","79","C:/Users/User/Desktop/data files/subject-3.csv","legacy","Melodramatic Milgram","4.0.5","0","h","NA","s","s","NA","h","586.0","NA","71614","12744","NA","586","2","legacy","1024","2","48000","-16","experiment","HHHHH","3","odd","72581","NA","233674","249909","959","288507","NA","295051","966","220929","NA","294008","295152","295739","295050","295152","Flankertask","83","63752.0","91","1024"
"91","91","699","699","#3d3846","legacy","legacy","legacy","congruent","1","undefined","1","h","0","0","0","91","0","91","0","91","0","0","0","91","91","91","91","91","Sun Sep 24 13:18:06 2023","600","The main experiment item","False","Flankertask fixed.osexp","C:\Users\User","False","mono","False","18","no","white","no","yes","768","legacy","11","79","C:/Users/User/Desktop/data files/subject-3.csv","legacy","Melodramatic Milgram","4.0.5","0","h","NA","s","s","NA","h","562.0","NA","71614","12744","NA","562","2","legacy","1024","2","48000","-16","experiment","HHHHH","3","odd","72581","NA","233674","249909","959","288507","NA","296770","966","220929","NA","295745","296872","297434","296769","296872","Flankertask","84","64314.0","92","1024"
"90","90","696","696","#3d3846","legacy","legacy","legacy","incongruent","0","undefined","0","h","0","0","0","92","0","92","0","92","0","0","0","92","92","92","92","92","Sun Sep 24 13:18:06 2023","600","The main experiment item","False","Flankertask fixed.osexp","C:\Users\User","False","mono","False","18","no","white","no","yes","768","legacy","12","79","C:/Users/User/Desktop/data files/subject-3.csv","legacy","Melodramatic Milgram","4.0.5","0","s","NA","s","s","NA","s","476.0","NA","71614","12744","NA","476","2","legacy","1024","2","48000","-16","experiment","SSHSS","3","odd","72581","NA","233674","249909","959","288507","NA","298467","966","220929","NA","297441","298568","299045","298466","298568","Flankertask","84","64790.0","93","1024"
"90","90","694","694","#3d3846","legacy","legacy","legacy","congruent","1","undefined","1","h","0","0","0","93","0","93","0","93","0","0","0","93","93","93","93","93","Sun Sep 24 13:18:06 2023","600","The main experiment item","False","Flankertask fixed.osexp","C:\Users\User","False","mono","False","18","no","white","no","yes","768","legacy","13","79","C:/Users/User/Desktop/data files/subject-3.csv","legacy","Melodramatic Milgram","4.0.5","0","h","NA","s","s","NA","h","527.0","NA","71614","12744","NA","527","2","legacy","1024","2","48000","-16","experiment","HHHHH","3","odd","72581","NA","233674","299051","959","288507","NA","300595","966","220929","NA","299552","300696","301224","300594","300696","Flankertask","85","65317.0","94","1024"
"90","90","693","693","#3d3846","legacy","legacy","legacy","congruent","1","undefined","1","s","0","0","0","94","0","94","0","94","0","0","0","94","94","94","94","94","Sun Sep 24 13:18:06 2023","600","The main experiment item","False","Flankertask fixed.osexp","C:\Users\User","False","mono","False","18","no","white","no","yes","768","legacy","14","79","C:/Users/User/Desktop/data files/subject-3.csv","legacy","Melodramatic Milgram","4.0.5","0","s","NA","s","s","NA","s","534.0","NA","71614","12744","NA","534","2","legacy","1024","2","48000","-16","experiment","SSSSS","3","odd","72581","NA","233674","299051","959","288507","NA","302263","966","220929","NA","301230","302364","302899","302261","302364","Flankertask","86","65851.0","95","1024"
"90","90","692","692","#3d3846","legacy","legacy","legacy","incongruent","1","undefined","1","s","0","0","0","95","0","95","0","95","0","0","0","95","95","95","95","95","Sun Sep 24 13:18:06 2023","600","The main experiment item","False","Flankertask fixed.osexp","C:\Users\User","False","mono","False","18","no","white","no","yes","768","legacy","15","79","C:/Users/User/Desktop/data files/subject-3.csv","legacy","Melodramatic Milgram","4.0.5","0","s","NA","s","s","NA","s","587.0","NA","71614","12744","NA","587","2","legacy","1024","2","48000","-16","experiment","HHSHH","3","odd","72581","NA","233674","299051","959","288507","NA","303936","966","220929","NA","302905","304036","304624","303935","304036","Flankertask","87","66438.0","96","1024"
"90","90","690","690","#3d3846","legacy","legacy","legacy","congruent","1","undefined","1","h","0","0","0","96","0","96","0","96","0","0","0","96","96","96","96","96","Sun Sep 24 13:18:06 2023","600","The main experiment item","False","Flankertask fixed.osexp","C:\Users\User","False","mono","False","18","no","white","no","yes","768","legacy","16","79","C:/Users/User/Desktop/data files/subject-3.csv","legacy","Melodramatic Milgram","4.0.5","0","h","NA","s","s","NA","h","552.0","NA","71614","12744","NA","552","2","legacy","1024","2","48000","-16","experiment","HHHHH","3","odd","72581","NA","233674","299051","959","288507","NA","305656","966","220929","NA","304630","305756","306308","305655","305756","Flankertask","88","66990.0","97","1024"
"90","90","685","685","#3d3846","legacy","legacy","legacy","congruent","1","undefined","1","s","0","0","0","97","0","97","0","97","0","0","0","97","97","97","97","97","Sun Sep 24 13:18:06 2023","600","The main experiment item","False","Flankertask fixed.osexp","C:\Users\User","False","mono","False","18","no","white","no","yes","768","legacy","17","79","C:/Users/User/Desktop/data files/subject-3.csv","legacy","Melodramatic Milgram","4.0.5","0","s","NA","s","s","NA","s","216.0","NA","71614","12744","NA","216","2","legacy","1024","2","48000","-16","experiment","SSSSS","3","odd","72581","NA","233674","299051","959","288507","NA","307360","966","220929","NA","306314","307461","307678","307358","307461","Flankertask","89","67206.0","98","1024"
"90","90","683","683","#3d3846","legacy","legacy","legacy","congruent","1","undefined","1","h","0","0","0","98","0","98","0","98","0","0","0","98","98","98","98","98","Sun Sep 24 13:18:06 2023","600","The main experiment item","False","Flankertask fixed.osexp","C:\Users\User","False","mono","False","18","no","white","no","yes","768","legacy","18","79","C:/Users/User/Desktop/data files/subject-3.csv","legacy","Melodramatic Milgram","4.0.5","0","h","NA","s","s","NA","h","456.0","NA","71614","12744","NA","456","2","legacy","1024","2","48000","-16","experiment","HHHHH","3","odd","72581","NA","233674","299051","959","288507","NA","308727","966","220929","NA","307684","308828","309285","308725","308828","Flankertask","90","67662.0","99","1024"
"91","91","678","678","#3d3846","legacy","legacy","legacy","congruent","1","undefined","1","s","0","0","0","99","0","99","0","99","0","0","0","99","99","99","99","99","Sun Sep 24 13:18:06 2023","600","The main experiment item","False","Flankertask fixed.osexp","C:\Users\User","False","mono","False","18","no","white","no","yes","768","legacy","19","79","C:/Users/User/Desktop/data files/subject-3.csv","legacy","Melodramatic Milgram","4.0.5","0","s","NA","s","s","NA","s","218.0","NA","71614","12744","NA","218","2","legacy","1024","2","48000","-16","experiment","SSSSS","3","odd","72581","NA","233674","299051","959","288507","NA","310317","966","220929","NA","309291","310417","310635","310316","310417","Flankertask","91","67880.0","100","1024"
"90","90","674","674","#3d3846","legacy","legacy","legacy","incongruent","0","undefined","0","s","0","0","0","100","0","100","0","100","0","0","0","100","100","100","100","100","Sun Sep 24 13:18:06 2023","600","The main experiment item","False","Flankertask fixed.osexp","C:\Users\User","False","mono","False","18","no","white","no","yes","768","legacy","20","79","C:/Users/User/Desktop/data files/subject-3.csv","legacy","Melodramatic Milgram","4.0.5","0","h","NA","s","s","NA","h","284.0","NA","71614","12744","NA","284","2","legacy","1024","2","48000","-16","experiment","HHSHH","3","odd","72581","NA","233674","299051","959","288507","NA","311684","966","220929","NA","310642","311785","312070","311683","311785","Flankertask","91","68164.0","101","1024"
"90","90","676","676","#3d3846","legacy","legacy","legacy","incongruent","1","undefined","1","h","0","0","0","101","0","101","0","101","0","0","0","101","101","101","101","101","Sun Sep 24 13:18:06 2023","600","The main experiment item","False","Flankertask fixed.osexp","C:\Users\User","False","mono","False","18","no","white","no","yes","768","legacy","21","79","C:/Users/User/Desktop/data files/subject-3.csv","legacy","Melodramatic Milgram","4.0.5","0","h","NA","s","s","NA","h","789.0","NA","71614","12744","NA","789","2","legacy","1024","2","48000","-16","experiment","SSHSS","3","odd","72581","NA","233674","312076","959","288507","NA","313621","966","220929","NA","312577","313722","314512","313620","313722","Flankertask","92","68953.0","102","1024"
"90","90","675","675","#3d3846","legacy","legacy","legacy","congruent","1","undefined","1","s","0","0","0","102","0","102","0","102","0","0","0","102","102","102","102","102","Sun Sep 24 13:18:06 2023","600","The main experiment item","False","Flankertask fixed.osexp","C:\Users\User","False","mono","False","18","no","white","no","yes","768","legacy","22","79","C:/Users/User/Desktop/data files/subject-3.csv","legacy","Melodramatic Milgram","4.0.5","0","s","NA","s","s","NA","s","624.0","NA","71614","12744","NA","624","2","legacy","1024","2","48000","-16","experiment","SSSSS","3","odd","72581","NA","233674","312076","959","314518","NA","316063","966","220929","NA","315019","316164","316789","316062","316163","Flankertask","93","69577.0","103","1024"
"90","90","673","673","#3d3846","legacy","legacy","legacy","congruent","1","undefined","1","s","0","0","0","103","0","103","0","103","0","0","0","103","103","103","103","103","Sun Sep 24 13:18:06 2023","600","The main experiment item","False","Flankertask fixed.osexp","C:\Users\User","False","mono","False","18","no","white","no","yes","768","legacy","23","79","C:/Users/User/Desktop/data files/subject-3.csv","legacy","Melodramatic Milgram","4.0.5","0","s","NA","s","s","NA","s","452.0","NA","71614","12744","NA","452","2","legacy","1024","2","48000","-16","experiment","SSSSS","3","odd","72581","NA","233674","312076","959","316795","NA","318336","966","220929","NA","317296","318437","318889","318335","318437","Flankertask","94","70029.0","104","1024"
"89","89","670","670","#3d3846","legacy","legacy","legacy","incongruent","0","undefined","0","s","0","0","0","104","0","104","0","104","0","0","0","104","104","104","104","104","Sun Sep 24 13:18:06 2023","600","The main experiment item","False","Flankertask fixed.osexp","C:\Users\User","False","mono","False","18","no","white","no","yes","768","legacy","24","79","C:/Users/User/Desktop/data files/subject-3.csv","legacy","Melodramatic Milgram","4.0.5","0","h","NA","s","s","NA","h","337.0","NA","71614","12744","NA","337","2","legacy","1024","2","48000","-16","experiment","HHSHH","3","odd","72581","NA","233674","312076","959","316795","NA","319946","966","220929","NA","318892","320047","320385","319945","320047","Flankertask","94","70366.0","105","1024"
"89","89","668","668","#3d3846","legacy","legacy","legacy","congruent","1","undefined","1","s","0","0","0","105","0","105","0","105","0","0","0","105","105","105","105","105","Sun Sep 24 13:18:06 2023","600","The main experiment item","False","Flankertask fixed.osexp","C:\Users\User","False","mono","False","18","no","white","no","yes","768","legacy","25","79","C:/Users/User/Desktop/data files/subject-3.csv","legacy","Melodramatic Milgram","4.0.5","0","s","NA","s","s","NA","s","501.0","NA","71614","12744","NA","501","2","legacy","1024","2","48000","-16","experiment","SSSSS","3","odd","72581","NA","233674","320391","959","316795","NA","321920","966","220929","NA","320892","322021","322523","321919","322021","Flankertask","95","70867.0","106","1024"
"89","89","667","667","#3d3846","legacy","legacy","legacy","congruent","1","undefined","1","h","0","0","0","106","0","106","0","106","0","0","0","106","106","106","106","106","Sun Sep 24 13:18:06 2023","600","The main experiment item","False","Flankertask fixed.osexp","C:\Users\User","False","mono","False","18","no","white","no","yes","768","legacy","26","79","C:/Users/User/Desktop/data files/subject-3.csv","legacy","Melodramatic Milgram","4.0.5","0","h","NA","s","s","NA","h","549.0","NA","71614","12744","NA","549","2","legacy","1024","2","48000","-16","experiment","HHHHH","3","odd","72581","NA","233674","320391","959","316795","NA","323558","966","220929","NA","322529","323659","324209","323557","323659","Flankertask","96","71416.0","107","1024"
"89","89","666","666","#3d3846","legacy","legacy","legacy","congruent","1","undefined","1","h","0","0","0","107","0","107","0","107","0","0","0","107","107","107","107","107","Sun Sep 24 13:18:06 2023","600","The main experiment item","False","Flankertask fixed.osexp","C:\Users\User","False","mono","False","18","no","white","no","yes","768","legacy","27","79","C:/Users/User/Desktop/data files/subject-3.csv","legacy","Melodramatic Milgram","4.0.5","0","h","NA","s","s","NA","h","586.0","NA","71614","12744","NA","586","2","legacy","1024","2","48000","-16","experiment","HHHHH","3","odd","72581","NA","233674","320391","959","316795","NA","325241","966","220929","NA","324215","325342","325929","325239","325342","Flankertask","97","72002.0","108","1024"
"88","88","664","664","#3d3846","legacy","legacy","legacy","congruent","0","undefined","0","h","0","0","0","108","0","108","0","108","0","0","0","108","108","108","108","108","Sun Sep 24 13:18:06 2023","600","The main experiment item","False","Flankertask fixed.osexp","C:\Users\User","False","mono","False","18","no","white","no","yes","768","legacy","28","79","C:/Users/User/Desktop/data files/subject-3.csv","legacy","Melodramatic Milgram","4.0.5","0","s","NA","s","s","NA","s","444.0","NA","71614","12744","NA","444","2","legacy","1024","2","48000","-16","experiment","HHHHH","3","odd","72581","NA","233674","320391","959","316795","NA","326960","966","220929","NA","325935","327061","327506","326959","327061","Flankertask","97","72446.0","109","1024"
"89","89","664","664","#3d3846","legacy","legacy","legacy","incongruent","1","undefined","1","s","0","0","0","109","0","109","0","109","0","0","0","109","109","109","109","109","Sun Sep 24 13:18:06 2023","600","The main experiment item","False","Flankertask fixed.osexp","C:\Users\User","False","mono","False","18","no","white","no","yes","768","legacy","29","79","C:/Users/User/Desktop/data files/subject-3.csv","legacy","Melodramatic Milgram","4.0.5","0","s","NA","s","s","NA","s","690.0","NA","71614","12744","NA","690","2","legacy","1024","2","48000","-16","experiment","HHSHH","3","odd","72581","NA","233674","327512","959","316795","NA","329057","966","220929","NA","328013","329158","329849","329055","329158","Flankertask","98","73136.0","110","1024"
"88","88","662","662","#3d3846","legacy","legacy","legacy","congruent","0","undefined","0","h","0","0","0","110","0","110","0","110","0","0","0","110","110","110","110","110","Sun Sep 24 13:18:06 2023","600","The main experiment item","False","Flankertask fixed.osexp","C:\Users\User","False","mono","False","18","no","white","no","yes","768","legacy","30","79","C:/Users/User/Desktop/data files/subject-3.csv","legacy","Melodramatic Milgram","4.0.5","0","s","NA","s","s","NA","s","372.0","NA","71614","12744","NA","372","2","legacy","1024","2","48000","-16","experiment","HHHHH","3","odd","72581","NA","233674","327512","959","329855","NA","331398","966","220929","NA","330355","331499","331872","331397","331499","Flankertask","98","73508.0","111","1024"
"87","87","690","690","#3d3846","legacy","legacy","legacy","incongruent","0","undefined","0","s","0","0","0","111","0","111","0","111","0","0","0","111","111","111","111","111","Sun Sep 24 13:18:06 2023","600","The main experiment item","False","Flankertask fixed.osexp","C:\Users\User","False","mono","False","18","no","white","no","yes","768","legacy","31","79","C:/Users/User/Desktop/data files/subject-3.csv","legacy","Melodramatic Milgram","4.0.5","0","None","NA","s","s","NA","None","3841.0","NA","71614","12744","NA","3841","2","legacy","1024","2","48000","-16","experiment","HHSHH","3","odd","72581","NA","233674","331878","959","329855","NA","333410","966","220929","NA","332379","333511","337352","333408","333511","Flankertask","98","77349.0","112","1024"
"87","87","689","689","#3d3846","legacy","legacy","legacy","congruent","1","undefined","1","s","0","0","0","112","0","112","0","112","0","0","0","112","112","112","112","112","Sun Sep 24 13:18:06 2023","600","The main experiment item","False","Flankertask fixed.osexp","C:\Users\User","False","mono","False","18","no","white","no","yes","768","legacy","32","79","C:/Users/User/Desktop/data files/subject-3.csv","legacy","Melodramatic Milgram","4.0.5","0","s","NA","s","s","NA","s","561.0","NA","71614","12744","NA","561","2","legacy","1024","2","48000","-16","experiment","SSSSS","3","odd","72581","NA","233674","337359","959","337859","NA","339402","966","220929","NA","338360","339502","340064","339401","339502","Flankertask","99","77910.0","113","1024"
"87","87","688","688","#3d3846","legacy","legacy","legacy","congruent","1","undefined","1","s","0","0","0","113","0","113","0","113","0","0","0","113","113","113","113","113","Sun Sep 24 13:18:06 2023","600","The main experiment item","False","Flankertask fixed.osexp","C:\Users\User","False","mono","False","18","no","white","no","yes","768","legacy","33","79","C:/Users/User/Desktop/data files/subject-3.csv","legacy","Melodramatic Milgram","4.0.5","0","s","NA","s","s","NA","s","567.0","NA","71614","12744","NA","567","2","legacy","1024","2","48000","-16","experiment","SSSSS","3","odd","72581","NA","233674","337359","959","337859","NA","341102","966","220929","NA","340070","341203","341770","341101","341203","Flankertask","100","78477.0","114","1024"
"87","87","686","686","#3d3846","legacy","legacy","legacy","incongruent","1","undefined","1","h","0","0","0","114","0","114","0","114","0","0","0","114","114","114","114","114","Sun Sep 24 13:18:06 2023","600","The main experiment item","False","Flankertask fixed.osexp","C:\Users\User","False","mono","False","18","no","white","no","yes","768","legacy","34","79","C:/Users/User/Desktop/data files/subject-3.csv","legacy","Melodramatic Milgram","4.0.5","0","h","NA","s","s","NA","h","422.0","NA","71614","12744","NA","422","2","legacy","1024","2","48000","-16","experiment","SSHSS","3","odd","72581","NA","233674","337359","959","337859","NA","342801","966","220929","NA","341776","342902","343325","342800","342902","Flankertask","101","78899.0","115","1024"
"87","87","687","687","#3d3846","legacy","legacy","legacy","congruent","1","undefined","1","h","0","0","0","115","0","115","0","115","0","0","0","115","115","115","115","115","Sun Sep 24 13:18:06 2023","600","The main experiment item","False","Flankertask fixed.osexp","C:\Users\User","False","mono","False","18","no","white","no","yes","768","legacy","35","79","C:/Users/User/Desktop/data files/subject-3.csv","legacy","Melodramatic Milgram","4.0.5","0","h","NA","s","s","NA","h","865.0","NA","71614","12744","NA","865","2","legacy","1024","2","48000","-16","experiment","HHHHH","3","odd","72581","NA","233674","337359","959","337859","NA","344374","966","220929","NA","343331","344475","345341","344372","344475","Flankertask","102","79764.0","116","1024"
"88","88","688","688","#3d3846","legacy","legacy","legacy","congruent","1","undefined","1","s","0","0","0","116","0","116","0","116","0","0","0","116","116","116","116","116","Sun Sep 24 13:18:06 2023","600","The main experiment item","False","Flankertask fixed.osexp","C:\Users\User","False","mono","False","18","no","white","no","yes","768","legacy","36","79","C:/Users/User/Desktop/data files/subject-3.csv","legacy","Melodramatic Milgram","4.0.5","0","s","NA","s","s","NA","s","748.0","NA","71614","12744","NA","748","2","legacy","1024","2","48000","-16","experiment","SSSSS","3","odd","72581","NA","233674","337359","959","345347","NA","346873","966","220929","NA","345848","346974","347723","346872","346974","Flankertask","103","80512.0","117","1024"
"88","88","685","685","#3d3846","legacy","legacy","legacy","incongruent","1","undefined","1","s","0","0","0","117","0","117","0","117","0","0","0","117","117","117","117","117","Sun Sep 24 13:18:06 2023","600","The main experiment item","False","Flankertask fixed.osexp","C:\Users\User","False","mono","False","18","no","white","no","yes","768","legacy","37","79","C:/Users/User/Desktop/data files/subject-3.csv","legacy","Melodramatic Milgram","4.0.5","0","s","NA","s","s","NA","s","424.0","NA","71614","12744","NA","424","2","legacy","1024","2","48000","-16","experiment","HHSHH","3","odd","72581","NA","233674","337359","959","347729","NA","349255","966","220929","NA","348230","349355","349780","349254","349355","Flankertask","104","80936.0","118","1024"
"88","88","684","684","#3d3846","legacy","legacy","legacy","congruent","1","undefined","1","s","0","0","0","118","0","118","0","118","0","0","0","118","118","118","118","118","Sun Sep 24 13:18:06 2023","600","The main experiment item","False","Flankertask fixed.osexp","C:\Users\User","False","mono","False","18","no","white","no","yes","768","legacy","38","79","C:/Users/User/Desktop/data files/subject-3.csv","legacy","Melodramatic Milgram","4.0.5","0","s","NA","s","s","NA","s","564.0","NA","71614","12744","NA","564","2","legacy","1024","2","48000","-16","experiment","SSSSS","3","odd","72581","NA","233674","337359","959","347729","NA","350822","966","220929","NA","349786","350923","351487","350821","350923","Flankertask","105","81500.0","119","1024"
"88","88","685","685","#3d3846","legacy","legacy","legacy","incongruent","1","undefined","1","h","0","0","0","119","0","119","0","119","0","0","0","119","119","119","119","119","Sun Sep 24 13:18:06 2023","600","The main experiment item","False","Flankertask fixed.osexp","C:\Users\User","False","mono","False","18","no","white","no","yes","768","legacy","39","79","C:/Users/User/Desktop/data files/subject-3.csv","legacy","Melodramatic Milgram","4.0.5","0","h","NA","s","s","NA","h","745.0","NA","71614","12744","NA","745","2","legacy","1024","2","48000","-16","experiment","SSHSS","3","odd","72581","NA","233674","337359","959","347729","NA","352535","966","220929","NA","351494","352636","353381","352534","352636","Flankertask","106","82245.0","120","1024"
"88","88","685","685","#3d3846","legacy","legacy","legacy","incongruent","1","undefined","1","h","0","0","0","120","0","120","0","120","0","0","0","120","120","120","120","120","Sun Sep 24 13:18:06 2023","600","The main experiment item","False","Flankertask fixed.osexp","C:\Users\User","False","mono","False","18","no","white","no","yes","768","legacy","40","79","C:/Users/User/Desktop/data files/subject-3.csv","legacy","Melodramatic Milgram","4.0.5","0","h","NA","s","s","NA","h","711.0","NA","71614","12744","NA","711","2","legacy","1024","2","48000","-16","experiment","SSHSS","3","odd","72581","NA","233674","337359","959","353387","NA","354934","966","220929","NA","353889","355035","355747","354932","355035","Flankertask","107","82956.0","121","1024"
"88","88","683","683","#3d3846","legacy","legacy","legacy","incongruent","1","undefined","1","h","0","0","0","121","0","121","0","121","0","0","0","121","121","121","121","121","Sun Sep 24 13:18:06 2023","600","The main experiment item","False","Flankertask fixed.osexp","C:\Users\User","False","mono","False","18","no","white","no","yes","768","legacy","41","79","C:/Users/User/Desktop/data files/subject-3.csv","legacy","Melodramatic Milgram","4.0.5","0","h","NA","s","s","NA","h","456.0","NA","71614","12744","NA","456","2","legacy","1024","2","48000","-16","experiment","SSHSS","3","odd","72581","NA","233674","337359","959","355753","NA","357299","966","220929","NA","356253","357400","357857","357298","357400","Flankertask","108","83412.0","122","1024"
"88","88","683","683","#3d3846","legacy","legacy","legacy","congruent","1","undefined","1","s","0","0","0","122","0","122","0","122","0","0","0","122","122","122","122","122","Sun Sep 24 13:18:06 2023","600","The main experiment item","False","Flankertask fixed.osexp","C:\Users\User","False","mono","False","18","no","white","no","yes","768","legacy","42","79","C:/Users/User/Desktop/data files/subject-3.csv","legacy","Melodramatic Milgram","4.0.5","0","s","NA","s","s","NA","s","617.0","NA","71614","12744","NA","617","2","legacy","1024","2","48000","-16","experiment","SSSSS","3","odd","72581","NA","233674","337359","959","355753","NA","358908","966","220929","NA","357863","359010","359627","358907","359010","Flankertask","109","84029.0","123","1024"
"88","88","683","683","#3d3846","legacy","legacy","legacy","incongruent","1","undefined","1","s","0","0","0","123","0","123","0","123","0","0","0","123","123","123","123","123","Sun Sep 24 13:18:06 2023","600","The main experiment item","False","Flankertask fixed.osexp","C:\Users\User","False","mono","False","18","no","white","no","yes","768","legacy","43","79","C:/Users/User/Desktop/data files/subject-3.csv","legacy","Melodramatic Milgram","4.0.5","0","s","NA","s","s","NA","s","710.0","NA","71614","12744","NA","710","2","legacy","1024","2","48000","-16","experiment","HHSHH","3","odd","72581","NA","233674","337359","959","359633","NA","361177","966","220929","NA","360135","361278","361989","361175","361278","Flankertask","110","84739.0","124","1024"
"88","88","683","683","#3d3846","legacy","legacy","legacy","congruent","1","undefined","1","s","0","0","0","124","0","124","0","124","0","0","0","124","124","124","124","124","Sun Sep 24 13:18:06 2023","600","The main experiment item","False","Flankertask fixed.osexp","C:\Users\User","False","mono","False","18","no","white","no","yes","768","legacy","44","79","C:/Users/User/Desktop/data files/subject-3.csv","legacy","Melodramatic Milgram","4.0.5","0","s","NA","s","s","NA","s","684.0","NA","71614","12744","NA","684","2","legacy","1024","2","48000","-16","experiment","SSSSS","3","odd","72581","NA","233674","337359","959","361995","NA","363520","966","220929","NA","362495","363621","364305","363519","363621","Flankertask","111","85423.0","125","1024"
"88","88","681","681","#3d3846","legacy","legacy","legacy","congruent","0","undefined","0","h","0","0","0","125","0","125","0","125","0","0","0","125","125","125","125","125","Sun Sep 24 13:18:06 2023","600","The main experiment item","False","Flankertask fixed.osexp","C:\Users\User","False","mono","False","18","no","white","no","yes","768","legacy","45","79","C:/Users/User/Desktop/data files/subject-3.csv","legacy","Melodramatic Milgram","4.0.5","0","s","NA","s","s","NA","s","393.0","NA","71614","12744","NA","393","2","legacy","1024","2","48000","-16","experiment","HHHHH","3","odd","72581","NA","233674","337359","959","364311","NA","365854","966","220929","NA","364812","365955","366349","365853","365955","Flankertask","111","85816.0","126","1024"
"88","88","681","681","#3d3846","legacy","legacy","legacy","incongruent","1","undefined","1","s","0","0","0","126","0","126","0","126","0","0","0","126","126","126","126","126","Sun Sep 24 13:18:06 2023","600","The main experiment item","False","Flankertask fixed.osexp","C:\Users\User","False","mono","False","18","no","white","no","yes","768","legacy","46","79","C:/Users/User/Desktop/data files/subject-3.csv","legacy","Melodramatic Milgram","4.0.5","0","s","NA","s","s","NA","s","672.0","NA","71614","12744","NA","672","2","legacy","1024","2","48000","-16","experiment","HHSHH","3","odd","72581","NA","233674","366355","959","364311","NA","367895","966","220929","NA","366856","367996","368669","367894","367996","Flankertask","112","86488.0","127","1024"
"87","87","680","680","#3d3846","legacy","legacy","legacy","incongruent","0","undefined","0","h","0","0","0","127","0","127","0","127","0","0","0","127","127","127","127","127","Sun Sep 24 13:18:06 2023","600","The main experiment item","False","Flankertask fixed.osexp","C:\Users\User","False","mono","False","18","no","white","no","yes","768","legacy","47","79","C:/Users/User/Desktop/data files/subject-3.csv","legacy","Melodramatic Milgram","4.0.5","0","s","NA","s","s","NA","s","577.0","NA","71614","12744","NA","577","2","legacy","1024","2","48000","-16","experiment","SSHSS","3","odd","72581","NA","233674","366355","959","368675","NA","370216","966","220929","NA","369175","370317","370895","370215","370317","Flankertask","112","87065.0","128","1024"
"86","86","677","677","#3d3846","legacy","legacy","legacy","incongruent","0","undefined","0","s","0","0","0","128","0","128","0","128","0","0","0","128","128","128","128","128","Sun Sep 24 13:18:06 2023","600","The main experiment item","False","Flankertask fixed.osexp","C:\Users\User","False","mono","False","18","no","white","no","yes","768","legacy","48","79","C:/Users/User/Desktop/data files/subject-3.csv","legacy","Melodramatic Milgram","4.0.5","0","h","NA","s","s","NA","h","352.0","NA","71614","12744","NA","352","2","legacy","1024","2","48000","-16","experiment","HHSHH","3","odd","72581","NA","233674","370901","959","368675","NA","372443","966","220929","NA","371402","372544","372897","372442","372544","Flankertask","112","87417.0","129","1024"
"86","86","677","677","#3d3846","legacy","legacy","legacy","incongruent","1","undefined","1","s","0","0","0","129","0","129","0","129","0","0","0","129","129","129","129","129","Sun Sep 24 13:18:06 2023","600","The main experiment item","False","Flankertask fixed.osexp","C:\Users\User","False","mono","False","18","no","white","no","yes","768","legacy","49","79","C:/Users/User/Desktop/data files/subject-3.csv","legacy","Melodramatic Milgram","4.0.5","0","s","NA","s","s","NA","s","595.0","NA","71614","12744","NA","595","2","legacy","1024","2","48000","-16","experiment","HHSHH","3","odd","72581","NA","233674","372903","959","368675","NA","374447","966","220929","NA","373404","374548","375144","374446","374548","Flankertask","113","88012.0","130","1024"
"86","86","674","674","#3d3846","legacy","legacy","legacy","incongruent","0","undefined","0","s","0","0","0","130","0","130","0","130","0","0","0","130","130","130","130","130","Sun Sep 24 13:18:06 2023","600","The main experiment item","False","Flankertask fixed.osexp","C:\Users\User","False","mono","False","18","no","white","no","yes","768","legacy","50","79","C:/Users/User/Desktop/data files/subject-3.csv","legacy","Melodramatic Milgram","4.0.5","0","h","NA","s","s","NA","h","401.0","NA","71614","12744","NA","401","2","legacy","1024","2","48000","-16","experiment","HHSHH","3","odd","72581","NA","233674","372903","959","368675","NA","376180","966","220929","NA","375150","376281","376683","376179","376281","Flankertask","113","88413.0","131","1024"
"86","86","674","674","#3d3846","legacy","legacy","legacy","incongruent","1","undefined","1","s","0","0","0","131","0","131","0","131","0","0","0","131","131","131","131","131","Sun Sep 24 13:18:06 2023","600","The main experiment item","False","Flankertask fixed.osexp","C:\Users\User","False","mono","False","18","no","white","no","yes","768","legacy","51","79","C:/Users/User/Desktop/data files/subject-3.csv","legacy","Melodramatic Milgram","4.0.5","0","s","NA","s","s","NA","s","557.0","NA","71614","12744","NA","557","2","legacy","1024","2","48000","-16","experiment","HHSHH","3","odd","72581","NA","233674","376689","959","368675","NA","378232","966","220929","NA","377190","378333","378891","378231","378333","Flankertask","114","88970.0","132","1024"