acc,accuracy,average_response_time,avg_rt,background,canvas_backend,clock_backend,color_backend,compensation,condition,coordinates,correct,correct_instructions1,correct_keyboard_response,correct_response,count_ISI,count_block1,count_block2,count_block3,count_errorFeedback,count_experiment,count_faster,count_fixation,count_instructions1,count_instructions2,count_instructions3,count_keyboard_response,count_logger,count_new_sketchpad,count_sequence,count_stimulus,datetime,deadline,description,disable_garbage_collection,experiment_file,experiment_path,font_bold,font_family,font_italic,font_size,font_underline,foreground,form_clicks,fullscreen,height,keyboard_backend,live_row,live_row_block1,logfile,mouse_backend,opensesame_codename,opensesame_version,repeat_cycle,response,response_instructions1,response_instructions2,response_instructions3,response_keyboard_response,response_new_sketchpad,response_time,response_time_instructions1,response_time_instructions2,response_time_instructions3,response_time_keyboard_response,response_time_new_sketchpad,round_decimals,sampler_backend,sound_buf_size,sound_channels,sound_freq,sound_sample_size,start,stimulus,subject_nr,subject_parity,time_ISI,time_block1,time_block2,time_block3,time_errorFeedback,time_experiment,time_faster,time_fixation,time_instructions1,time_instructions2,time_instructions3,time_keyboard_response,time_logger,time_new_sketchpad,time_sequence,time_stimulus,title,total_correct,total_response_time,total_responses,uniform_coordinates,width
100,100,1167,1167,black,legacy,legacy,legacy,0,congruent,uniform,1,undefined,1,h,0,0,0,0,0,0,0,0,0,0,0,0,0,0,0,0,Sun Sep 20 14:39:54 2020,1500,The main experiment item,yes,FlankerTask.osexp,C:/Users/chris/OneDrive/Desktop,no,mono,no,18,no,white,no,no,768,legacy,0,0,C:/Users/chris/OneDrive/Desktop/CM-subject-1.csv,legacy,Lentiform Loewenfeld,3.3.3,0,h,s,NA,NA,h,NA,1167,54505,NA,NA,1167,NA,2,legacy,1024,2,48000,-16,experiment,HHHHH,1,odd,NA,57185,NA,NA,NA,2674,NA,57282,2680,NA,NA,57388,58555,NA,57280,57387,Flanker Task,1,1167,1,yes,1024
100,100,1065,1065,black,legacy,legacy,legacy,0,incongruent,uniform,1,undefined,1,h,1,0,0,0,1,0,1,1,0,0,0,1,1,0,1,1,Sun Sep 20 14:39:54 2020,1500,The main experiment item,yes,FlankerTask.osexp,C:/Users/chris/OneDrive/Desktop,no,mono,no,18,no,white,no,no,768,legacy,1,1,C:/Users/chris/OneDrive/Desktop/CM-subject-1.csv,legacy,Lentiform Loewenfeld,3.3.3,0,h,s,NA,NA,h,NA,963,54505,NA,NA,963,NA,2,legacy,1024,2,48000,-16,experiment,SSHSS,1,odd,58567,57185,NA,NA,NA,2674,NA,59689,2680,NA,NA,59797,60761,NA,59686,59797,Flanker Task,2,2130,2,yes,1024
100,100,1006,1006,black,legacy,legacy,legacy,0,congruent,uniform,1,undefined,1,s,2,0,0,0,2,0,2,2,0,0,0,2,2,0,2,2,Sun Sep 20 14:39:54 2020,1500,The main experiment item,yes,FlankerTask.osexp,C:/Users/chris/OneDrive/Desktop,no,mono,no,18,no,white,no,no,768,legacy,2,2,C:/Users/chris/OneDrive/Desktop/CM-subject-1.csv,legacy,Lentiform Loewenfeld,3.3.3,0,s,s,NA,NA,s,NA,888,54505,NA,NA,888,NA,2,legacy,1024,2,48000,-16,experiment,SSSSS,1,odd,60770,57185,NA,NA,NA,2674,NA,61906,2680,NA,NA,62012,62901,NA,61903,62012,Flanker Task,3,3018,3,yes,1024
100,100,944.75,944.75,black,legacy,legacy,legacy,0,incongruent,uniform,1,undefined,1,s,3,0,0,0,3,0,3,3,0,0,0,3,3,0,3,3,Sun Sep 20 14:39:54 2020,1500,The main experiment item,yes,FlankerTask.osexp,C:/Users/chris/OneDrive/Desktop,no,mono,no,18,no,white,no,no,768,legacy,3,3,C:/Users/chris/OneDrive/Desktop/CM-subject-1.csv,legacy,Lentiform Loewenfeld,3.3.3,0,s,s,NA,NA,s,NA,761,54505,NA,NA,761,NA,2,legacy,1024,2,48000,-16,experiment,HHSHH,1,odd,62910,57185,NA,NA,NA,2674,NA,64047,2680,NA,NA,64154,64915,NA,64044,64154,Flanker Task,4,3779,4,yes,1024
100,100,856.2,856.2,black,legacy,legacy,legacy,0,incongruent,uniform,1,undefined,1,s,4,0,0,0,4,0,4,4,0,0,0,4,4,0,4,4,Sun Sep 20 14:39:54 2020,1500,The main experiment item,yes,FlankerTask.osexp,C:/Users/chris/OneDrive/Desktop,no,mono,no,18,no,white,no,no,768,legacy,4,4,C:/Users/chris/OneDrive/Desktop/CM-subject-1.csv,legacy,Lentiform Loewenfeld,3.3.3,0,s,s,NA,NA,s,NA,502,54505,NA,NA,502,NA,2,legacy,1024,2,48000,-16,experiment,HHSHH,1,odd,64924,57185,NA,NA,NA,2674,NA,66034,2680,NA,NA,66140,66643,NA,66028,66139,Flanker Task,5,4281,5,yes,1024
83.33333333,83.33333333,820.8333333,820.8333333,black,legacy,legacy,legacy,0,incongruent,uniform,0,undefined,0,h,5,0,0,0,5,0,5,5,0,0,0,5,5,0,5,5,Sun Sep 20 14:39:54 2020,1500,The main experiment item,yes,FlankerTask.osexp,C:/Users/chris/OneDrive/Desktop,no,mono,no,18,no,white,no,no,768,legacy,5,5,C:/Users/chris/OneDrive/Desktop/CM-subject-1.csv,legacy,Lentiform Loewenfeld,3.3.3,0,s,s,NA,NA,s,NA,644,54505,NA,NA,644,NA,2,legacy,1024,2,48000,-16,experiment,SSHSS,1,odd,66652,57185,NA,NA,NA,2674,NA,67756,2680,NA,NA,67861,68506,NA,67754,67861,Flanker Task,5,4925,6,yes,1024
85.71428571,85.71428571,786.5714286,786.5714286,black,legacy,legacy,legacy,0,congruent,uniform,1,undefined,1,s,6,0,0,0,6,0,6,6,0,0,0,6,6,0,6,6,Sun Sep 20 14:39:54 2020,1500,The main experiment item,yes,FlankerTask.osexp,C:/Users/chris/OneDrive/Desktop,no,mono,no,18,no,white,no,no,768,legacy,6,6,C:/Users/chris/OneDrive/Desktop/CM-subject-1.csv,legacy,Lentiform Loewenfeld,3.3.3,0,s,s,NA,NA,s,NA,581,54505,NA,NA,581,NA,2,legacy,1024,2,48000,-16,experiment,SSSSS,1,odd,69020,57185,NA,NA,68515,2674,NA,70121,2680,NA,NA,70226,70807,NA,70119,70226,Flanker Task,6,5506,7,yes,1024
87.5,87.5,753.125,753.125,black,legacy,legacy,legacy,0,congruent,uniform,1,undefined,1,h,7,0,0,0,7,0,7,7,0,0,0,7,7,0,7,7,Sun Sep 20 14:39:54 2020,1500,The main experiment item,yes,FlankerTask.osexp,C:/Users/chris/OneDrive/Desktop,no,mono,no,18,no,white,no,no,768,legacy,7,7,C:/Users/chris/OneDrive/Desktop/CM-subject-1.csv,legacy,Lentiform Loewenfeld,3.3.3,0,h,s,NA,NA,h,NA,519,54505,NA,NA,519,NA,2,legacy,1024,2,48000,-16,experiment,HHHHH,1,odd,70816,57185,NA,NA,68515,2674,NA,71926,2680,NA,NA,72032,72552,NA,71924,72032,Flanker Task,7,6025,8,yes,1024
88.88888889,88.88888889,732.2222222,732.2222222,black,legacy,legacy,legacy,0,incongruent,uniform,1,undefined,1,s,8,0,0,0,8,0,8,8,0,0,0,8,8,0,8,8,Sun Sep 20 14:39:54 2020,1500,The main experiment item,yes,FlankerTask.osexp,C:/Users/chris/OneDrive/Desktop,no,mono,no,18,no,white,no,no,768,legacy,8,8,C:/Users/chris/OneDrive/Desktop/CM-subject-1.csv,legacy,Lentiform Loewenfeld,3.3.3,0,s,s,NA,NA,s,NA,565,54505,NA,NA,565,NA,2,legacy,1024,2,48000,-16,experiment,HHSHH,1,odd,72561,57185,NA,NA,68515,2674,NA,73671,2680,NA,NA,73776,74341,NA,73668,73776,Flanker Task,8,6590,9,yes,1024
90,90,715.8,715.8,black,legacy,legacy,legacy,0,incongruent,uniform,1,undefined,1,h,9,0,0,0,9,0,9,9,0,0,0,9,9,0,9,9,Sun Sep 20 14:39:54 2020,1500,The main experiment item,yes,FlankerTask.osexp,C:/Users/chris/OneDrive/Desktop,no,mono,no,18,no,white,no,no,768,legacy,9,9,C:/Users/chris/OneDrive/Desktop/CM-subject-1.csv,legacy,Lentiform Loewenfeld,3.3.3,0,h,s,NA,NA,h,NA,568,54505,NA,NA,568,NA,2,legacy,1024,2,48000,-16,experiment,SSHSS,1,odd,74350,57185,NA,NA,68515,2674,NA,75468,2680,NA,NA,75573,76142,NA,75466,75573,Flanker Task,9,7158,10,yes,1024
90.90909091,90.90909091,707.6363636,707.6363636,black,legacy,legacy,legacy,0,incongruent,uniform,1,undefined,1,h,10,0,0,0,10,0,10,10,0,0,0,10,10,0,10,10,Sun Sep 20 14:39:54 2020,1500,The main experiment item,yes,FlankerTask.osexp,C:/Users/chris/OneDrive/Desktop,no,mono,no,18,no,white,no,no,768,legacy,10,10,C:/Users/chris/OneDrive/Desktop/CM-subject-1.csv,legacy,Lentiform Loewenfeld,3.3.3,0,h,s,NA,NA,h,NA,626,54505,NA,NA,626,NA,2,legacy,1024,2,48000,-16,experiment,SSHSS,1,odd,76146,57185,NA,NA,68515,2674,NA,77264,2680,NA,NA,77370,77997,NA,77262,77370,Flanker Task,10,7784,11,yes,1024
91.66666667,91.66666667,698.75,698.75,black,legacy,legacy,legacy,0,congruent,uniform,1,undefined,1,s,11,0,0,0,11,0,11,11,0,0,0,11,11,0,11,11,Sun Sep 20 14:39:54 2020,1500,The main experiment item,yes,FlankerTask.osexp,C:/Users/chris/OneDrive/Desktop,no,mono,no,18,no,white,no,no,768,legacy,11,11,C:/Users/chris/OneDrive/Desktop/CM-subject-1.csv,legacy,Lentiform Loewenfeld,3.3.3,0,s,s,NA,NA,s,NA,601,54505,NA,NA,601,NA,2,legacy,1024,2,48000,-16,experiment,SSSSS,1,odd,78006,57185,NA,NA,68515,2674,NA,79128,2680,NA,NA,79233,79835,NA,79125,79233,Flanker Task,11,8385,12,yes,1024
92.30769231,92.30769231,712.0769231,712.0769231,black,legacy,legacy,legacy,0,incongruent,uniform,1,undefined,1,s,12,0,0,0,12,0,12,12,0,0,0,12,12,0,12,12,Sun Sep 20 14:39:54 2020,1500,The main experiment item,yes,FlankerTask.osexp,C:/Users/chris/OneDrive/Desktop,no,mono,no,18,no,white,no,no,768,legacy,12,12,C:/Users/chris/OneDrive/Desktop/CM-subject-1.csv,legacy,Lentiform Loewenfeld,3.3.3,0,s,s,NA,NA,s,NA,872,54505,NA,NA,872,NA,2,legacy,1024,2,48000,-16,experiment,HHSHH,1,odd,79844,57185,NA,NA,68515,2674,NA,80959,2680,NA,NA,81064,81937,NA,80956,81064,Flanker Task,12,9257,13,yes,1024
92.85714286,92.85714286,706.4285714,706.4285714,black,legacy,legacy,legacy,0,congruent,uniform,1,undefined,1,s,13,0,0,0,13,0,13,13,0,0,0,13,13,0,13,13,Sun Sep 20 14:39:54 2020,1500,The main experiment item,yes,FlankerTask.osexp,C:/Users/chris/OneDrive/Desktop,no,mono,no,18,no,white,no,no,768,legacy,13,13,C:/Users/chris/OneDrive/Desktop/CM-subject-1.csv,legacy,Lentiform Loewenfeld,3.3.3,0,s,s,NA,NA,s,NA,633,54505,NA,NA,633,NA,2,legacy,1024,2,48000,-16,experiment,SSSSS,1,odd,81946,57185,NA,NA,68515,2674,NA,83061,2680,NA,NA,83166,83800,NA,83058,83166,Flanker Task,13,9890,14,yes,1024
93.33333333,93.33333333,692.6,692.6,black,legacy,legacy,legacy,0,incongruent,uniform,1,undefined,1,s,14,0,0,0,14,0,14,14,0,0,0,14,14,0,14,14,Sun Sep 20 14:39:54 2020,1500,The main experiment item,yes,FlankerTask.osexp,C:/Users/chris/OneDrive/Desktop,no,mono,no,18,no,white,no,no,768,legacy,14,14,C:/Users/chris/OneDrive/Desktop/CM-subject-1.csv,legacy,Lentiform Loewenfeld,3.3.3,0,s,s,NA,NA,s,NA,499,54505,NA,NA,499,NA,2,legacy,1024,2,48000,-16,experiment,HHSHH,1,odd,83809,57185,NA,NA,68515,2674,NA,84923,2680,NA,NA,85028,85527,NA,84921,85028,Flanker Task,14,10389,15,yes,1024
93.75,93.75,679.25,679.25,black,legacy,legacy,legacy,0,congruent,uniform,1,undefined,1,h,15,0,0,0,15,0,15,15,0,0,0,15,15,0,15,15,Sun Sep 20 14:39:54 2020,1500,The main experiment item,yes,FlankerTask.osexp,C:/Users/chris/OneDrive/Desktop,no,mono,no,18,no,white,no,no,768,legacy,15,15,C:/Users/chris/OneDrive/Desktop/CM-subject-1.csv,legacy,Lentiform Loewenfeld,3.3.3,0,h,s,NA,NA,h,NA,479,54505,NA,NA,479,NA,2,legacy,1024,2,48000,-16,experiment,HHHHH,1,odd,85536,57185,NA,NA,68515,2674,NA,86638,2680,NA,NA,86753,87232,NA,86635,86753,Flanker Task,15,10868,16,yes,1024
94.11764706,94.11764706,670.5294118,670.5294118,black,legacy,legacy,legacy,0,congruent,uniform,1,undefined,1,h,16,0,0,0,16,0,16,16,0,0,0,16,16,0,16,16,Sun Sep 20 14:39:54 2020,1500,The main experiment item,yes,FlankerTask.osexp,C:/Users/chris/OneDrive/Desktop,no,mono,no,18,no,white,no,no,768,legacy,16,16,C:/Users/chris/OneDrive/Desktop/CM-subject-1.csv,legacy,Lentiform Loewenfeld,3.3.3,0,h,s,NA,NA,h,NA,531,54505,NA,NA,531,NA,2,legacy,1024,2,48000,-16,experiment,HHHHH,1,odd,87242,57185,NA,NA,68515,2674,NA,88347,2680,NA,NA,88452,88984,NA,88345,88452,Flanker Task,16,11399,17,yes,1024
94.44444444,94.44444444,667.5555556,667.5555556,black,legacy,legacy,legacy,0,incongruent,uniform,1,undefined,1,h,17,0,0,0,17,0,17,17,0,0,0,17,17,0,17,17,Sun Sep 20 14:39:54 2020,1500,The main experiment item,yes,FlankerTask.osexp,C:/Users/chris/OneDrive/Desktop,no,mono,no,18,no,white,no,no,768,legacy,17,17,C:/Users/chris/OneDrive/Desktop/CM-subject-1.csv,legacy,Lentiform Loewenfeld,3.3.3,0,h,s,NA,NA,h,NA,617,54505,NA,NA,617,NA,2,legacy,1024,2,48000,-16,experiment,SSHSS,1,odd,88993,57185,NA,NA,68515,2674,NA,90110,2680,NA,NA,90213,90831,NA,90107,90213,Flanker Task,17,12016,18,yes,1024
94.73684211,94.73684211,655.4210526,655.4210526,black,legacy,legacy,legacy,0,congruent,uniform,1,undefined,1,h,18,0,0,0,18,0,18,18,0,0,0,18,18,0,18,18,Sun Sep 20 14:39:54 2020,1500,The main experiment item,yes,FlankerTask.osexp,C:/Users/chris/OneDrive/Desktop,no,mono,no,18,no,white,no,no,768,legacy,18,18,C:/Users/chris/OneDrive/Desktop/CM-subject-1.csv,legacy,Lentiform Loewenfeld,3.3.3,0,h,s,NA,NA,h,NA,437,54505,NA,NA,437,NA,2,legacy,1024,2,48000,-16,experiment,HHHHH,1,odd,90840,57185,NA,NA,68515,2674,NA,91943,2680,NA,NA,92049,92487,NA,91940,92049,Flanker Task,18,12453,19,yes,1024
95,95,646.2,646.2,black,legacy,legacy,legacy,0,congruent,uniform,1,undefined,1,s,19,0,0,0,19,0,19,19,0,0,0,19,19,0,19,19,Sun Sep 20 14:39:54 2020,1500,The main experiment item,yes,FlankerTask.osexp,C:/Users/chris/OneDrive/Desktop,no,mono,no,18,no,white,no,no,768,legacy,19,19,C:/Users/chris/OneDrive/Desktop/CM-subject-1.csv,legacy,Lentiform Loewenfeld,3.3.3,0,s,s,NA,NA,s,NA,471,54505,NA,NA,471,NA,2,legacy,1024,2,48000,-16,experiment,SSSSS,1,odd,92491,57185,NA,NA,68515,2674,NA,93595,2680,NA,NA,93701,94173,NA,93593,93701,Flanker Task,19,12924,20,yes,1024
95.23809524,95.23809524,641.7142857,641.7142857,black,legacy,legacy,legacy,0,congruent,uniform,1,undefined,1,h,20,0,0,0,20,0,20,20,0,0,0,20,20,0,20,20,Sun Sep 20 14:39:54 2020,1500,The main experiment item,yes,FlankerTask.osexp,C:/Users/chris/OneDrive/Desktop,no,mono,no,18,no,white,no,no,768,legacy,20,20,C:/Users/chris/OneDrive/Desktop/CM-subject-1.csv,legacy,Lentiform Loewenfeld,3.3.3,0,h,s,NA,NA,h,NA,552,54505,NA,NA,552,NA,2,legacy,1024,2,48000,-16,experiment,HHHHH,1,odd,94182,57185,NA,NA,68515,2674,NA,95299,2680,NA,NA,95405,95957,NA,95297,95404,Flanker Task,20,13476,21,yes,1024
95.45454545,95.45454545,632.8636364,632.8636364,black,legacy,legacy,legacy,0,congruent,uniform,1,undefined,1,h,21,0,0,0,21,0,21,21,0,0,0,21,21,0,21,21,Sun Sep 20 14:39:54 2020,1500,The main experiment item,yes,FlankerTask.osexp,C:/Users/chris/OneDrive/Desktop,no,mono,no,18,no,white,no,no,768,legacy,21,21,C:/Users/chris/OneDrive/Desktop/CM-subject-1.csv,legacy,Lentiform Loewenfeld,3.3.3,0,h,s,NA,NA,h,NA,447,54505,NA,NA,447,NA,2,legacy,1024,2,48000,-16,experiment,HHHHH,1,odd,95967,57185,NA,NA,68515,2674,NA,97072,2680,NA,NA,97174,97621,NA,97069,97174,Flanker Task,21,13923,22,yes,1024
95.65217391,95.65217391,620.6521739,620.6521739,black,legacy,legacy,legacy,0,congruent,uniform,1,undefined,1,s,22,0,0,0,22,0,22,22,0,0,0,22,22,0,22,22,Sun Sep 20 14:39:54 2020,1500,The main experiment item,yes,FlankerTask.osexp,C:/Users/chris/OneDrive/Desktop,no,mono,no,18,no,white,no,no,768,legacy,22,22,C:/Users/chris/OneDrive/Desktop/CM-subject-1.csv,legacy,Lentiform Loewenfeld,3.3.3,0,s,s,NA,NA,s,NA,352,54505,NA,NA,352,NA,2,legacy,1024,2,48000,-16,experiment,SSSSS,1,odd,97630,57185,NA,NA,68515,2674,NA,98745,2680,NA,NA,98851,99204,NA,98743,98851,Flanker Task,22,14275,23,yes,1024
95.83333333,95.83333333,613.1666667,613.1666667,black,legacy,legacy,legacy,0,incongruent,uniform,1,undefined,1,s,23,0,0,0,23,0,23,23,0,0,0,23,23,0,23,23,Sun Sep 20 14:39:54 2020,1500,The main experiment item,yes,FlankerTask.osexp,C:/Users/chris/OneDrive/Desktop,no,mono,no,18,no,white,no,no,768,legacy,23,23,C:/Users/chris/OneDrive/Desktop/CM-subject-1.csv,legacy,Lentiform Loewenfeld,3.3.3,0,s,s,NA,NA,s,NA,441,54505,NA,NA,441,NA,2,legacy,1024,2,48000,-16,experiment,HHSHH,1,odd,99222,57185,NA,NA,68515,2674,NA,100352,2680,NA,NA,100458,100900,NA,100350,100458,Flanker Task,23,14716,24,yes,1024
96,96,604.76,604.76,black,legacy,legacy,legacy,0,incongruent,uniform,1,undefined,1,h,24,0,0,0,24,0,24,24,0,0,0,24,24,0,24,24,Sun Sep 20 14:39:54 2020,1500,The main experiment item,yes,FlankerTask.osexp,C:/Users/chris/OneDrive/Desktop,no,mono,no,18,no,white,no,no,768,legacy,24,24,C:/Users/chris/OneDrive/Desktop/CM-subject-1.csv,legacy,Lentiform Loewenfeld,3.3.3,0,h,s,NA,NA,h,NA,403,54505,NA,NA,403,NA,2,legacy,1024,2,48000,-16,experiment,SSHSS,1,odd,100909,57185,NA,NA,68515,2674,NA,102016,2680,NA,NA,102122,102525,NA,102014,102122,Flanker Task,24,15119,25,yes,1024
96.15384615,96.15384615,597.9615385,597.9615385,black,legacy,legacy,legacy,0,congruent,uniform,1,undefined,1,h,25,0,0,0,25,0,25,25,0,0,0,25,25,0,25,25,Sun Sep 20 14:39:54 2020,1500,The main experiment item,yes,FlankerTask.osexp,C:/Users/chris/OneDrive/Desktop,no,mono,no,18,no,white,no,no,768,legacy,25,25,C:/Users/chris/OneDrive/Desktop/CM-subject-1.csv,legacy,Lentiform Loewenfeld,3.3.3,0,h,s,NA,NA,h,NA,428,54505,NA,NA,428,NA,2,legacy,1024,2,48000,-16,experiment,HHHHH,1,odd,102534,57185,NA,NA,68515,2674,NA,103640,2680,NA,NA,103745,104173,NA,103637,103745,Flanker Task,25,15547,26,yes,1024
96.2962963,96.2962963,595.1851852,595.1851852,black,legacy,legacy,legacy,0,congruent,uniform,1,undefined,1,h,26,0,0,0,26,0,26,26,0,0,0,26,26,0,26,26,Sun Sep 20 14:39:54 2020,1500,The main experiment item,yes,FlankerTask.osexp,C:/Users/chris/OneDrive/Desktop,no,mono,no,18,no,white,no,no,768,legacy,26,26,C:/Users/chris/OneDrive/Desktop/CM-subject-1.csv,legacy,Lentiform Loewenfeld,3.3.3,0,h,s,NA,NA,h,NA,523,54505,NA,NA,523,NA,2,legacy,1024,2,48000,-16,experiment,HHHHH,1,odd,104182,57185,NA,NA,68515,2674,NA,105288,2680,NA,NA,105393,105916,NA,105285,105393,Flanker Task,26,16070,27,yes,1024
96.42857143,96.42857143,587.8928571,587.8928571,black,legacy,legacy,legacy,0,congruent,uniform,1,undefined,1,h,27,0,0,0,27,0,27,27,0,0,0,27,27,0,27,27,Sun Sep 20 14:39:54 2020,1500,The main experiment item,yes,FlankerTask.osexp,C:/Users/chris/OneDrive/Desktop,no,mono,no,18,no,white,no,no,768,legacy,27,27,C:/Users/chris/OneDrive/Desktop/CM-subject-1.csv,legacy,Lentiform Loewenfeld,3.3.3,0,h,s,NA,NA,h,NA,391,54505,NA,NA,391,NA,2,legacy,1024,2,48000,-16,experiment,HHHHH,1,odd,105925,57185,NA,NA,68515,2674,NA,107029,2680,NA,NA,107134,107525,NA,107027,107134,Flanker Task,27,16461,28,yes,1024
96.55172414,96.55172414,588.2758621,588.2758621,black,legacy,legacy,legacy,0,congruent,uniform,1,undefined,1,s,28,0,0,0,28,0,28,28,0,0,0,28,28,0,28,28,Sun Sep 20 14:39:54 2020,1500,The main experiment item,yes,FlankerTask.osexp,C:/Users/chris/OneDrive/Desktop,no,mono,no,18,no,white,no,no,768,legacy,28,28,C:/Users/chris/OneDrive/Desktop/CM-subject-1.csv,legacy,Lentiform Loewenfeld,3.3.3,0,s,s,NA,NA,s,NA,599,54505,NA,NA,599,NA,2,legacy,1024,2,48000,-16,experiment,SSSSS,1,odd,107538,57185,NA,NA,68515,2674,NA,108664,2680,NA,NA,108770,109369,NA,108662,108769,Flanker Task,28,17060,29,yes,1024
96.66666667,96.66666667,583.7333333,583.7333333,black,legacy,legacy,legacy,0,congruent,uniform,1,undefined,1,h,29,0,0,0,29,0,29,29,0,0,0,29,29,0,29,29,Sun Sep 20 14:39:54 2020,1500,The main experiment item,yes,FlankerTask.osexp,C:/Users/chris/OneDrive/Desktop,no,mono,no,18,no,white,no,no,768,legacy,29,29,C:/Users/chris/OneDrive/Desktop/CM-subject-1.csv,legacy,Lentiform Loewenfeld,3.3.3,0,h,s,NA,NA,h,NA,452,54505,NA,NA,452,NA,2,legacy,1024,2,48000,-16,experiment,HHHHH,1,odd,109379,57185,NA,NA,68515,2674,NA,110509,2680,NA,NA,110614,111067,NA,110506,110614,Flanker Task,29,17512,30,yes,1024
96.77419355,96.77419355,577.4516129,577.4516129,black,legacy,legacy,legacy,0,incongruent,uniform,1,undefined,1,h,30,0,0,0,30,0,30,30,0,0,0,30,30,0,30,30,Sun Sep 20 14:39:54 2020,1500,The main experiment item,yes,FlankerTask.osexp,C:/Users/chris/OneDrive/Desktop,no,mono,no,18,no,white,no,no,768,legacy,30,30,C:/Users/chris/OneDrive/Desktop/CM-subject-1.csv,legacy,Lentiform Loewenfeld,3.3.3,0,h,s,NA,NA,h,NA,389,54505,NA,NA,389,NA,2,legacy,1024,2,48000,-16,experiment,SSHSS,1,odd,111076,57185,NA,NA,68515,2674,NA,112187,2680,NA,NA,112293,112683,NA,112184,112292,Flanker Task,30,17901,31,yes,1024
96.875,96.875,570.125,570.125,black,legacy,legacy,legacy,0,incongruent,uniform,1,undefined,1,s,31,0,0,0,31,0,31,31,0,0,0,31,31,0,31,31,Sun Sep 20 14:39:54 2020,1500,The main experiment item,yes,FlankerTask.osexp,C:/Users/chris/OneDrive/Desktop,no,mono,no,18,no,white,no,no,768,legacy,31,31,C:/Users/chris/OneDrive/Desktop/CM-subject-1.csv,legacy,Lentiform Loewenfeld,3.3.3,0,s,s,NA,NA,s,NA,343,54505,NA,NA,343,NA,2,legacy,1024,2,48000,-16,experiment,HHSHH,1,odd,112692,57185,NA,NA,68515,2674,NA,113825,2680,NA,NA,113930,114274,NA,113822,113930,Flanker Task,31,18244,32,yes,1024
96.96969697,96.96969697,563.6363636,563.6363636,black,legacy,legacy,legacy,0,incongruent,uniform,1,undefined,1,s,32,0,0,0,32,0,32,32,0,0,0,32,32,0,32,32,Sun Sep 20 14:39:54 2020,1500,The main experiment item,yes,FlankerTask.osexp,C:/Users/chris/OneDrive/Desktop,no,mono,no,18,no,white,no,no,768,legacy,32,32,C:/Users/chris/OneDrive/Desktop/CM-subject-1.csv,legacy,Lentiform Loewenfeld,3.3.3,0,s,s,NA,NA,s,NA,356,54505,NA,NA,356,NA,2,legacy,1024,2,48000,-16,experiment,HHSHH,1,odd,114278,57185,NA,NA,68515,2674,NA,115395,2680,NA,NA,115501,115858,NA,115393,115500,Flanker Task,32,18600,33,yes,1024
94.11764706,94.11764706,557.8235294,557.8235294,black,legacy,legacy,legacy,0,incongruent,uniform,0,undefined,0,h,33,0,0,0,33,0,33,33,0,0,0,33,33,0,33,33,Sun Sep 20 14:39:54 2020,1500,The main experiment item,yes,FlankerTask.osexp,C:/Users/chris/OneDrive/Desktop,no,mono,no,18,no,white,no,no,768,legacy,33,33,C:/Users/chris/OneDrive/Desktop/CM-subject-1.csv,legacy,Lentiform Loewenfeld,3.3.3,0,s,s,NA,NA,s,NA,366,54505,NA,NA,366,NA,2,legacy,1024,2,48000,-16,experiment,SSHSS,1,odd,115867,57185,NA,NA,68515,2674,NA,116979,2680,NA,NA,117084,117450,NA,116976,117084,Flanker Task,32,18966,34,yes,1024
94.28571429,94.28571429,557.1142857,557.1142857,black,legacy,legacy,legacy,0,congruent,uniform,1,undefined,1,h,34,0,0,0,34,0,34,34,0,0,0,34,34,0,34,34,Sun Sep 20 14:39:54 2020,1500,The main experiment item,yes,FlankerTask.osexp,C:/Users/chris/OneDrive/Desktop,no,mono,no,18,no,white,no,no,768,legacy,34,34,C:/Users/chris/OneDrive/Desktop/CM-subject-1.csv,legacy,Lentiform Loewenfeld,3.3.3,0,h,s,NA,NA,h,NA,533,54505,NA,NA,533,NA,2,legacy,1024,2,48000,-16,experiment,HHHHH,1,odd,117963,57185,NA,NA,117459,2674,NA,119098,2680,NA,NA,119203,119737,NA,119096,119203,Flanker Task,33,19499,35,yes,1024
94.44444444,94.44444444,555.1111111,555.1111111,black,legacy,legacy,legacy,0,incongruent,uniform,1,undefined,1,s,35,0,0,0,35,0,35,35,0,0,0,35,35,0,35,35,Sun Sep 20 14:39:54 2020,1500,The main experiment item,yes,FlankerTask.osexp,C:/Users/chris/OneDrive/Desktop,no,mono,no,18,no,white,no,no,768,legacy,35,35,C:/Users/chris/OneDrive/Desktop/CM-subject-1.csv,legacy,Lentiform Loewenfeld,3.3.3,0,s,s,NA,NA,s,NA,485,54505,NA,NA,485,NA,2,legacy,1024,2,48000,-16,experiment,HHSHH,1,odd,119741,57185,NA,NA,117459,2674,NA,120856,2680,NA,NA,120962,121448,NA,120854,120961,Flanker Task,34,19984,36,yes,1024
94.59459459,94.59459459,553.1891892,553.1891892,black,legacy,legacy,legacy,0,incongruent,uniform,1,undefined,1,s,36,0,0,0,36,0,36,36,0,0,0,36,36,0,36,36,Sun Sep 20 14:39:54 2020,1500,The main experiment item,yes,FlankerTask.osexp,C:/Users/chris/OneDrive/Desktop,no,mono,no,18,no,white,no,no,768,legacy,36,36,C:/Users/chris/OneDrive/Desktop/CM-subject-1.csv,legacy,Lentiform Loewenfeld,3.3.3,0,s,s,NA,NA,s,NA,484,54505,NA,NA,484,NA,2,legacy,1024,2,48000,-16,experiment,HHSHH,1,odd,121457,57185,NA,NA,117459,2674,NA,122570,2680,NA,NA,122675,123160,NA,122568,122675,Flanker Task,35,20468,37,yes,1024
94.73684211,94.73684211,552.1315789,552.1315789,black,legacy,legacy,legacy,0,incongruent,uniform,1,undefined,1,s,37,0,0,0,37,0,37,37,0,0,0,37,37,0,37,37,Sun Sep 20 14:39:54 2020,1500,The main experiment item,yes,FlankerTask.osexp,C:/Users/chris/OneDrive/Desktop,no,mono,no,18,no,white,no,no,768,legacy,37,37,C:/Users/chris/OneDrive/Desktop/CM-subject-1.csv,legacy,Lentiform Loewenfeld,3.3.3,0,s,s,NA,NA,s,NA,513,54505,NA,NA,513,NA,2,legacy,1024,2,48000,-16,experiment,HHSHH,1,odd,123177,57185,NA,NA,117459,2674,NA,124286,2680,NA,NA,124389,124903,NA,124283,124389,Flanker Task,36,20981,38,yes,1024
92.30769231,92.30769231,552.7948718,552.7948718,black,legacy,legacy,legacy,0,incongruent,uniform,0,undefined,0,s,38,0,0,0,38,0,38,38,0,0,0,38,38,0,38,38,Sun Sep 20 14:39:54 2020,1500,The main experiment item,yes,FlankerTask.osexp,C:/Users/chris/OneDrive/Desktop,no,mono,no,18,no,white,no,no,768,legacy,38,38,C:/Users/chris/OneDrive/Desktop/CM-subject-1.csv,legacy,Lentiform Loewenfeld,3.3.3,0,h,s,NA,NA,h,NA,578,54505,NA,NA,578,NA,2,legacy,1024,2,48000,-16,experiment,HHSHH,1,odd,124907,57185,NA,NA,117459,2674,NA,126018,2680,NA,NA,126124,126703,NA,126015,126123,Flanker Task,36,21559,39,yes,1024
92.5,92.5,557.225,557.225,black,legacy,legacy,legacy,0,incongruent,uniform,1,undefined,1,h,39,0,0,0,39,0,39,39,0,0,0,39,39,0,39,39,Sun Sep 20 14:39:54 2020,1500,The main experiment item,yes,FlankerTask.osexp,C:/Users/chris/OneDrive/Desktop,no,mono,no,18,no,white,no,no,768,legacy,39,39,C:/Users/chris/OneDrive/Desktop/CM-subject-1.csv,legacy,Lentiform Loewenfeld,3.3.3,0,h,s,NA,NA,h,NA,730,54505,NA,NA,730,NA,2,legacy,1024,2,48000,-16,experiment,SSHSS,1,odd,127217,57185,NA,NA,126712,2674,NA,128320,2680,NA,NA,128425,129156,NA,128318,128425,Flanker Task,37,22289,40,yes,1024
92.68292683,92.68292683,553.4634146,553.4634146,black,legacy,legacy,legacy,0,incongruent,uniform,1,undefined,1,h,40,0,0,0,40,0,40,40,0,0,0,40,40,0,40,40,Sun Sep 20 14:39:54 2020,1500,The main experiment item,yes,FlankerTask.osexp,C:/Users/chris/OneDrive/Desktop,no,mono,no,18,no,white,no,no,768,legacy,40,40,C:/Users/chris/OneDrive/Desktop/CM-subject-1.csv,legacy,Lentiform Loewenfeld,3.3.3,0,h,s,NA,NA,h,NA,403,54505,NA,NA,403,NA,2,legacy,1024,2,48000,-16,experiment,SSHSS,1,odd,129165,57185,NA,NA,126712,2674,NA,130264,2680,NA,NA,130369,130772,NA,130262,130369,Flanker Task,38,22692,41,yes,1024
92.85714286,92.85714286,549.9285714,549.9285714,black,legacy,legacy,legacy,0,congruent,uniform,1,undefined,1,h,41,0,0,0,41,0,41,41,0,0,0,41,41,0,41,41,Sun Sep 20 14:39:54 2020,1500,The main experiment item,yes,FlankerTask.osexp,C:/Users/chris/OneDrive/Desktop,no,mono,no,18,no,white,no,no,768,legacy,41,41,C:/Users/chris/OneDrive/Desktop/CM-subject-1.csv,legacy,Lentiform Loewenfeld,3.3.3,0,h,s,NA,NA,h,NA,405,54505,NA,NA,405,NA,2,legacy,1024,2,48000,-16,experiment,HHHHH,1,odd,130781,57185,NA,NA,126712,2674,NA,131877,2680,NA,NA,131982,132388,NA,131875,131982,Flanker Task,39,23097,42,yes,1024
93.02325581,93.02325581,548.6046512,548.6046512,black,legacy,legacy,legacy,0,incongruent,uniform,1,undefined,1,s,42,0,0,0,42,0,42,42,0,0,0,42,42,0,42,42,Sun Sep 20 14:39:54 2020,1500,The main experiment item,yes,FlankerTask.osexp,C:/Users/chris/OneDrive/Desktop,no,mono,no,18,no,white,no,no,768,legacy,42,42,C:/Users/chris/OneDrive/Desktop/CM-subject-1.csv,legacy,Lentiform Loewenfeld,3.3.3,0,s,s,NA,NA,s,NA,493,54505,NA,NA,493,NA,2,legacy,1024,2,48000,-16,experiment,HHSHH,1,odd,132397,57185,NA,NA,126712,2674,NA,133531,2680,NA,NA,133636,134130,NA,133529,133636,Flanker Task,40,23590,43,yes,1024
93.18181818,93.18181818,544.9090909,544.9090909,black,legacy,legacy,legacy,0,incongruent,uniform,1,undefined,1,s,43,0,0,0,43,0,43,43,0,0,0,43,43,0,43,43,Sun Sep 20 14:39:54 2020,1500,The main experiment item,yes,FlankerTask.osexp,C:/Users/chris/OneDrive/Desktop,no,mono,no,18,no,white,no,no,768,legacy,43,43,C:/Users/chris/OneDrive/Desktop/CM-subject-1.csv,legacy,Lentiform Loewenfeld,3.3.3,0,s,s,NA,NA,s,NA,386,54505,NA,NA,386,NA,2,legacy,1024,2,48000,-16,experiment,HHSHH,1,odd,134139,57185,NA,NA,126712,2674,NA,135254,2680,NA,NA,135359,135746,NA,135252,135359,Flanker Task,41,23976,44,yes,1024
93.33333333,93.33333333,545.1555556,545.1555556,black,legacy,legacy,legacy,0,incongruent,uniform,1,undefined,1,h,44,0,0,0,44,0,44,44,0,0,0,44,44,0,44,44,Sun Sep 20 14:39:54 2020,1500,The main experiment item,yes,FlankerTask.osexp,C:/Users/chris/OneDrive/Desktop,no,mono,no,18,no,white,no,no,768,legacy,44,44,C:/Users/chris/OneDrive/Desktop/CM-subject-1.csv,legacy,Lentiform Loewenfeld,3.3.3,0,h,s,NA,NA,h,NA,556,54505,NA,NA,556,NA,2,legacy,1024,2,48000,-16,experiment,SSHSS,1,odd,135755,57185,NA,NA,126712,2674,NA,136877,2680,NA,NA,136982,137539,NA,136874,136982,Flanker Task,42,24532,45,yes,1024
93.47826087,93.47826087,545.826087,545.826087,black,legacy,legacy,legacy,0,congruent,uniform,1,undefined,1,h,45,0,0,0,45,0,45,45,0,0,0,45,45,0,45,45,Sun Sep 20 14:39:54 2020,1500,The main experiment item,yes,FlankerTask.osexp,C:/Users/chris/OneDrive/Desktop,no,mono,no,18,no,white,no,no,768,legacy,45,45,C:/Users/chris/OneDrive/Desktop/CM-subject-1.csv,legacy,Lentiform Loewenfeld,3.3.3,0,h,s,NA,NA,h,NA,576,54505,NA,NA,576,NA,2,legacy,1024,2,48000,-16,experiment,HHHHH,1,odd,137548,57185,NA,NA,126712,2674,NA,138688,2680,NA,NA,138793,139370,NA,138684,138793,Flanker Task,43,25108,46,yes,1024
91.4893617,91.4893617,542.6170213,542.6170213,black,legacy,legacy,legacy,0,incongruent,uniform,0,undefined,0,h,46,0,0,0,46,0,46,46,0,0,0,46,46,0,46,46,Sun Sep 20 14:39:54 2020,1500,The main experiment item,yes,FlankerTask.osexp,C:/Users/chris/OneDrive/Desktop,no,mono,no,18,no,white,no,no,768,legacy,46,46,C:/Users/chris/OneDrive/Desktop/CM-subject-1.csv,legacy,Lentiform Loewenfeld,3.3.3,0,s,s,NA,NA,s,NA,395,54505,NA,NA,395,NA,2,legacy,1024,2,48000,-16,experiment,SSHSS,1,odd,139379,57185,NA,NA,126712,2674,NA,140482,2680,NA,NA,140588,140984,NA,140479,140587,Flanker Task,43,25503,47,yes,1024
91.66666667,91.66666667,543.2291667,543.2291667,black,legacy,legacy,legacy,0,congruent,uniform,1,undefined,1,h,47,0,0,0,47,0,47,47,0,0,0,47,47,0,47,47,Sun Sep 20 14:39:54 2020,1500,The main experiment item,yes,FlankerTask.osexp,C:/Users/chris/OneDrive/Desktop,no,mono,no,18,no,white,no,no,768,legacy,47,47,C:/Users/chris/OneDrive/Desktop/CM-subject-1.csv,legacy,Lentiform Loewenfeld,3.3.3,0,h,s,NA,NA,h,NA,572,54505,NA,NA,572,NA,2,legacy,1024,2,48000,-16,experiment,HHHHH,1,odd,141499,57185,NA,NA,140994,2674,NA,142601,2680,NA,NA,142706,143279,NA,142599,142706,Flanker Task,44,26075,48,yes,1024
91.83673469,91.83673469,540.6326531,540.6326531,black,legacy,legacy,legacy,0,congruent,uniform,1,undefined,1,s,48,0,0,0,48,0,48,48,0,0,0,48,48,0,48,48,Sun Sep 20 14:39:54 2020,1500,The main experiment item,yes,FlankerTask.osexp,C:/Users/chris/OneDrive/Desktop,no,mono,no,18,no,white,no,no,768,legacy,48,48,C:/Users/chris/OneDrive/Desktop/CM-subject-1.csv,legacy,Lentiform Loewenfeld,3.3.3,0,s,s,NA,NA,s,NA,416,54505,NA,NA,416,NA,2,legacy,1024,2,48000,-16,experiment,SSSSS,1,odd,143289,57185,NA,NA,140994,2674,NA,144404,2680,NA,NA,144509,144926,NA,144401,144509,Flanker Task,45,26491,49,yes,1024
92,92,539.46,539.46,black,legacy,legacy,legacy,0,incongruent,uniform,1,undefined,1,h,49,0,0,0,49,0,49,49,0,0,0,49,49,0,49,49,Sun Sep 20 14:39:54 2020,1500,The main experiment item,yes,FlankerTask.osexp,C:/Users/chris/OneDrive/Desktop,no,mono,no,18,no,white,no,no,768,legacy,49,49,C:/Users/chris/OneDrive/Desktop/CM-subject-1.csv,legacy,Lentiform Loewenfeld,3.3.3,0,h,s,NA,NA,h,NA,482,54505,NA,NA,482,NA,2,legacy,1024,2,48000,-16,experiment,SSHSS,1,odd,144935,57185,NA,NA,140994,2674,NA,146026,2680,NA,NA,146132,146615,NA,146024,146132,Flanker Task,46,26973,50,yes,1024
90.19607843,90.19607843,536.6470588,536.6470588,black,legacy,legacy,legacy,0,incongruent,uniform,0,undefined,0,h,50,0,0,0,50,0,50,50,0,0,0,50,50,0,50,50,Sun Sep 20 14:39:54 2020,1500,The main experiment item,yes,FlankerTask.osexp,C:/Users/chris/OneDrive/Desktop,no,mono,no,18,no,white,no,no,768,legacy,50,50,C:/Users/chris/OneDrive/Desktop/CM-subject-1.csv,legacy,Lentiform Loewenfeld,3.3.3,0,s,s,NA,NA,s,NA,396,54505,NA,NA,396,NA,2,legacy,1024,2,48000,-16,experiment,SSHSS,1,odd,146624,57185,NA,NA,140994,2674,NA,147736,2680,NA,NA,147841,148237,NA,147733,147841,Flanker Task,46,27369,51,yes,1024
90.38461538,90.38461538,536.9423077,536.9423077,black,legacy,legacy,legacy,0,congruent,uniform,1,undefined,1,h,51,0,0,0,51,0,51,51,0,0,0,51,51,0,51,51,Sun Sep 20 14:39:54 2020,1500,The main experiment item,yes,FlankerTask.osexp,C:/Users/chris/OneDrive/Desktop,no,mono,no,18,no,white,no,no,768,legacy,51,51,C:/Users/chris/OneDrive/Desktop/CM-subject-1.csv,legacy,Lentiform Loewenfeld,3.3.3,0,h,s,NA,NA,h,NA,552,54505,NA,NA,552,NA,2,legacy,1024,2,48000,-16,experiment,HHHHH,1,odd,148751,57185,NA,NA,148246,2674,NA,149867,2680,NA,NA,149972,150525,NA,149864,149972,Flanker Task,47,27921,52,yes,1024
90.56603774,90.56603774,535.9245283,535.9245283,black,legacy,legacy,legacy,0,congruent,uniform,1,undefined,1,s,52,0,0,0,52,0,52,52,0,0,0,52,52,0,52,52,Sun Sep 20 14:39:54 2020,1500,The main experiment item,yes,FlankerTask.osexp,C:/Users/chris/OneDrive/Desktop,no,mono,no,18,no,white,no,no,768,legacy,52,52,C:/Users/chris/OneDrive/Desktop/CM-subject-1.csv,legacy,Lentiform Loewenfeld,3.3.3,0,s,s,NA,NA,s,NA,483,54505,NA,NA,483,NA,2,legacy,1024,2,48000,-16,experiment,SSSSS,1,odd,150534,57185,NA,NA,148246,2674,NA,151638,2680,NA,NA,151743,152227,NA,151636,151743,Flanker Task,48,28404,53,yes,1024
90.74074074,90.74074074,535.6851852,535.6851852,black,legacy,legacy,legacy,0,congruent,uniform,1,undefined,1,s,53,0,0,0,53,0,53,53,0,0,0,53,53,0,53,53,Sun Sep 20 14:39:54 2020,1500,The main experiment item,yes,FlankerTask.osexp,C:/Users/chris/OneDrive/Desktop,no,mono,no,18,no,white,no,no,768,legacy,53,53,C:/Users/chris/OneDrive/Desktop/CM-subject-1.csv,legacy,Lentiform Loewenfeld,3.3.3,0,s,s,NA,NA,s,NA,523,54505,NA,NA,523,NA,2,legacy,1024,2,48000,-16,experiment,SSSSS,1,odd,152236,57185,NA,NA,148246,2674,NA,153350,2680,NA,NA,153455,153979,NA,153348,153455,Flanker Task,49,28927,54,yes,1024
90.90909091,90.90909091,533.2909091,533.2909091,black,legacy,legacy,legacy,0,incongruent,uniform,1,undefined,1,s,54,0,0,0,54,0,54,54,0,0,0,54,54,0,54,54,Sun Sep 20 14:39:54 2020,1500,The main experiment item,yes,FlankerTask.osexp,C:/Users/chris/OneDrive/Desktop,no,mono,no,18,no,white,no,no,768,legacy,54,54,C:/Users/chris/OneDrive/Desktop/CM-subject-1.csv,legacy,Lentiform Loewenfeld,3.3.3,0,s,s,NA,NA,s,NA,404,54505,NA,NA,404,NA,2,legacy,1024,2,48000,-16,experiment,HHSHH,1,odd,153988,57185,NA,NA,148246,2674,NA,155096,2680,NA,NA,155206,155611,NA,155093,155206,Flanker Task,50,29331,55,yes,1024
89.28571429,89.28571429,531.125,531.125,black,legacy,legacy,legacy,0,incongruent,uniform,0,undefined,0,h,55,0,0,0,55,0,55,55,0,0,0,55,55,0,55,55,Sun Sep 20 14:39:54 2020,1500,The main experiment item,yes,FlankerTask.osexp,C:/Users/chris/OneDrive/Desktop,no,mono,no,18,no,white,no,no,768,legacy,55,55,C:/Users/chris/OneDrive/Desktop/CM-subject-1.csv,legacy,Lentiform Loewenfeld,3.3.3,0,s,s,NA,NA,s,NA,412,54505,NA,NA,412,NA,2,legacy,1024,2,48000,-16,experiment,SSHSS,1,odd,155619,57185,NA,NA,148246,2674,NA,156732,2680,NA,NA,156838,157250,NA,156730,156838,Flanker Task,50,29743,56,yes,1024
89.47368421,89.47368421,529.3859649,529.3859649,black,legacy,legacy,legacy,0,incongruent,uniform,1,undefined,1,h,56,0,0,0,56,0,56,56,0,0,0,56,56,0,56,56,Sun Sep 20 14:39:54 2020,1500,The main experiment item,yes,FlankerTask.osexp,C:/Users/chris/OneDrive/Desktop,no,mono,no,18,no,white,no,no,768,legacy,56,56,C:/Users/chris/OneDrive/Desktop/CM-subject-1.csv,legacy,Lentiform Loewenfeld,3.3.3,0,h,s,NA,NA,h,NA,432,54505,NA,NA,432,NA,2,legacy,1024,2,48000,-16,experiment,SSHSS,1,odd,157765,57185,NA,NA,157259,2674,NA,158863,2680,NA,NA,158969,159402,NA,158861,158968,Flanker Task,51,30175,57,yes,1024
89.65517241,89.65517241,527.7758621,527.7758621,black,legacy,legacy,legacy,0,congruent,uniform,1,undefined,1,h,57,0,0,0,57,0,57,57,0,0,0,57,57,0,57,57,Sun Sep 20 14:39:54 2020,1500,The main experiment item,yes,FlankerTask.osexp,C:/Users/chris/OneDrive/Desktop,no,mono,no,18,no,white,no,no,768,legacy,57,57,C:/Users/chris/OneDrive/Desktop/CM-subject-1.csv,legacy,Lentiform Loewenfeld,3.3.3,0,h,s,NA,NA,h,NA,436,54505,NA,NA,436,NA,2,legacy,1024,2,48000,-16,experiment,HHHHH,1,odd,159418,57185,NA,NA,157259,2674,NA,160540,2680,NA,NA,160645,161082,NA,160537,160645,Flanker Task,52,30611,58,yes,1024
89.83050847,89.83050847,530.9152542,530.9152542,black,legacy,legacy,legacy,0,incongruent,uniform,1,undefined,1,s,58,0,0,0,58,0,58,58,0,0,0,58,58,0,58,58,Sun Sep 20 14:39:54 2020,1500,The main experiment item,yes,FlankerTask.osexp,C:/Users/chris/OneDrive/Desktop,no,mono,no,18,no,white,no,no,768,legacy,58,58,C:/Users/chris/OneDrive/Desktop/CM-subject-1.csv,legacy,Lentiform Loewenfeld,3.3.3,0,s,s,NA,NA,s,NA,713,54505,NA,NA,713,NA,2,legacy,1024,2,48000,-16,experiment,HHSHH,1,odd,161091,57185,NA,NA,157259,2674,NA,162197,2680,NA,NA,162302,163015,NA,162194,162302,Flanker Task,53,31324,59,yes,1024
90,90,530.0166667,530.0166667,black,legacy,legacy,legacy,0,congruent,uniform,1,undefined,1,h,59,0,0,0,59,0,59,59,0,0,0,59,59,0,59,59,Sun Sep 20 14:39:54 2020,1500,The main experiment item,yes,FlankerTask.osexp,C:/Users/chris/OneDrive/Desktop,no,mono,no,18,no,white,no,no,768,legacy,59,59,C:/Users/chris/OneDrive/Desktop/CM-subject-1.csv,legacy,Lentiform Loewenfeld,3.3.3,0,h,s,NA,NA,h,NA,477,54505,NA,NA,477,NA,2,legacy,1024,2,48000,-16,experiment,HHHHH,1,odd,163025,57185,NA,NA,157259,2674,NA,164138,2680,NA,NA,164243,164721,NA,164135,164243,Flanker Task,54,31801,60,yes,1024
90.16393443,90.16393443,527.8688525,527.8688525,black,legacy,legacy,legacy,0,congruent,uniform,1,undefined,1,s,60,0,0,0,60,0,60,60,0,0,0,60,60,0,60,60,Sun Sep 20 14:39:54 2020,1500,The main experiment item,yes,FlankerTask.osexp,C:/Users/chris/OneDrive/Desktop,no,mono,no,18,no,white,no,no,768,legacy,60,60,C:/Users/chris/OneDrive/Desktop/CM-subject-1.csv,legacy,Lentiform Loewenfeld,3.3.3,0,s,s,NA,NA,s,NA,399,54505,NA,NA,399,NA,2,legacy,1024,2,48000,-16,experiment,SSSSS,1,odd,164725,57185,NA,NA,157259,2674,NA,165829,2680,NA,NA,165935,166335,NA,165827,165935,Flanker Task,55,32200,61,yes,1024
90.32258065,90.32258065,530.7580645,530.7580645,black,legacy,legacy,legacy,0,incongruent,uniform,1,undefined,1,s,61,0,0,0,61,0,61,61,0,0,0,61,61,0,61,61,Sun Sep 20 14:39:54 2020,1500,The main experiment item,yes,FlankerTask.osexp,C:/Users/chris/OneDrive/Desktop,no,mono,no,18,no,white,no,no,768,legacy,61,61,C:/Users/chris/OneDrive/Desktop/CM-subject-1.csv,legacy,Lentiform Loewenfeld,3.3.3,0,s,s,NA,NA,s,NA,707,54505,NA,NA,707,NA,2,legacy,1024,2,48000,-16,experiment,HHSHH,1,odd,166344,57185,NA,NA,157259,2674,NA,167450,2680,NA,NA,167555,168262,NA,167447,167555,Flanker Task,56,32907,62,yes,1024
90.47619048,90.47619048,533.6031746,533.6031746,black,legacy,legacy,legacy,0,congruent,uniform,1,undefined,1,s,62,0,0,0,62,0,62,62,0,0,0,62,62,0,62,62,Sun Sep 20 14:39:54 2020,1500,The main experiment item,yes,FlankerTask.osexp,C:/Users/chris/OneDrive/Desktop,no,mono,no,18,no,white,no,no,768,legacy,62,62,C:/Users/chris/OneDrive/Desktop/CM-subject-1.csv,legacy,Lentiform Loewenfeld,3.3.3,0,s,s,NA,NA,s,NA,710,54505,NA,NA,710,NA,2,legacy,1024,2,48000,-16,experiment,SSSSS,1,odd,168272,57185,NA,NA,157259,2674,NA,169374,2680,NA,NA,169479,170190,NA,169372,169479,Flanker Task,57,33617,63,yes,1024
90.625,90.625,531.546875,531.546875,black,legacy,legacy,legacy,0,congruent,uniform,1,undefined,1,s,63,0,0,0,63,0,63,63,0,0,0,63,63,0,63,63,Sun Sep 20 14:39:54 2020,1500,The main experiment item,yes,FlankerTask.osexp,C:/Users/chris/OneDrive/Desktop,no,mono,no,18,no,white,no,no,768,legacy,63,63,C:/Users/chris/OneDrive/Desktop/CM-subject-1.csv,legacy,Lentiform Loewenfeld,3.3.3,0,s,s,NA,NA,s,NA,402,54505,NA,NA,402,NA,2,legacy,1024,2,48000,-16,experiment,SSSSS,1,odd,170194,57185,NA,NA,157259,2674,NA,171298,2680,NA,NA,171403,171806,NA,171295,171403,Flanker Task,58,34019,64,yes,1024
90.76923077,90.76923077,529.7538462,529.7538462,black,legacy,legacy,legacy,0,congruent,uniform,1,undefined,1,s,64,0,0,0,64,0,64,64,0,0,0,64,64,0,64,64,Sun Sep 20 14:39:54 2020,1500,The main experiment item,yes,FlankerTask.osexp,C:/Users/chris/OneDrive/Desktop,no,mono,no,18,no,white,no,no,768,legacy,64,64,C:/Users/chris/OneDrive/Desktop/CM-subject-1.csv,legacy,Lentiform Loewenfeld,3.3.3,0,s,s,NA,NA,s,NA,415,54505,NA,NA,415,NA,2,legacy,1024,2,48000,-16,experiment,SSSSS,1,odd,171814,57185,NA,NA,157259,2674,NA,172949,2680,NA,NA,173054,173470,NA,172947,173054,Flanker Task,59,34434,65,yes,1024
90.90909091,90.90909091,530.9393939,530.9393939,black,legacy,legacy,legacy,0,incongruent,uniform,1,undefined,1,s,65,0,0,0,65,0,65,65,0,0,0,65,65,0,65,65,Sun Sep 20 14:39:54 2020,1500,The main experiment item,yes,FlankerTask.osexp,C:/Users/chris/OneDrive/Desktop,no,mono,no,18,no,white,no,no,768,legacy,65,65,C:/Users/chris/OneDrive/Desktop/CM-subject-1.csv,legacy,Lentiform Loewenfeld,3.3.3,0,s,s,NA,NA,s,NA,608,54505,NA,NA,608,NA,2,legacy,1024,2,48000,-16,experiment,HHSHH,1,odd,173479,57185,NA,NA,157259,2674,NA,174587,2680,NA,NA,174692,175301,NA,174585,174692,Flanker Task,60,35042,66,yes,1024
91.04477612,91.04477612,532.1044776,532.1044776,black,legacy,legacy,legacy,0,incongruent,uniform,1,undefined,1,h,66,0,0,0,66,0,66,66,0,0,0,66,66,0,66,66,Sun Sep 20 14:39:54 2020,1500,The main experiment item,yes,FlankerTask.osexp,C:/Users/chris/OneDrive/Desktop,no,mono,no,18,no,white,no,no,768,legacy,66,66,C:/Users/chris/OneDrive/Desktop/CM-subject-1.csv,legacy,Lentiform Loewenfeld,3.3.3,0,h,s,NA,NA,h,NA,609,54505,NA,NA,609,NA,2,legacy,1024,2,48000,-16,experiment,SSHSS,1,odd,175309,57185,NA,NA,157259,2674,NA,176418,2680,NA,NA,176523,177133,NA,176414,176523,Flanker Task,61,35651,67,yes,1024
91.17647059,91.17647059,530.75,530.75,black,legacy,legacy,legacy,0,congruent,uniform,1,undefined,1,s,67,0,0,0,67,0,67,67,0,0,0,67,67,0,67,67,Sun Sep 20 14:39:54 2020,1500,The main experiment item,yes,FlankerTask.osexp,C:/Users/chris/OneDrive/Desktop,no,mono,no,18,no,white,no,no,768,legacy,67,67,C:/Users/chris/OneDrive/Desktop/CM-subject-1.csv,legacy,Lentiform Loewenfeld,3.3.3,0,s,s,NA,NA,s,NA,440,54505,NA,NA,440,NA,2,legacy,1024,2,48000,-16,experiment,SSSSS,1,odd,177142,57185,NA,NA,157259,2674,NA,178250,2680,NA,NA,178355,178796,NA,178248,178355,Flanker Task,62,36091,68,yes,1024
91.30434783,91.30434783,531.942029,531.942029,black,legacy,legacy,legacy,0,incongruent,uniform,1,undefined,1,s,68,0,0,0,68,0,68,68,0,0,0,68,68,0,68,68,Sun Sep 20 14:39:54 2020,1500,The main experiment item,yes,FlankerTask.osexp,C:/Users/chris/OneDrive/Desktop,no,mono,no,18,no,white,no,no,768,legacy,68,68,C:/Users/chris/OneDrive/Desktop/CM-subject-1.csv,legacy,Lentiform Loewenfeld,3.3.3,0,s,s,NA,NA,s,NA,613,54505,NA,NA,613,NA,2,legacy,1024,2,48000,-16,experiment,HHSHH,1,odd,178805,57185,NA,NA,157259,2674,NA,179908,2680,NA,NA,180013,180627,NA,179905,180013,Flanker Task,63,36704,69,yes,1024
91.42857143,91.42857143,531.2857143,531.2857143,black,legacy,legacy,legacy,0,congruent,uniform,1,undefined,1,s,69,0,0,0,69,0,69,69,0,0,0,69,69,0,69,69,Sun Sep 20 14:39:54 2020,1500,The main experiment item,yes,FlankerTask.osexp,C:/Users/chris/OneDrive/Desktop,no,mono,no,18,no,white,no,no,768,legacy,69,69,C:/Users/chris/OneDrive/Desktop/CM-subject-1.csv,legacy,Lentiform Loewenfeld,3.3.3,0,s,s,NA,NA,s,NA,486,54505,NA,NA,486,NA,2,legacy,1024,2,48000,-16,experiment,SSSSS,1,odd,180636,57185,NA,NA,157259,2674,NA,181739,2680,NA,NA,181844,182330,NA,181737,181844,Flanker Task,64,37190,70,yes,1024
91.54929577,91.54929577,530.7323944,530.7323944,black,legacy,legacy,legacy,0,congruent,uniform,1,undefined,1,h,70,0,0,0,70,0,70,70,0,0,0,70,70,0,70,70,Sun Sep 20 14:39:54 2020,1500,The main experiment item,yes,FlankerTask.osexp,C:/Users/chris/OneDrive/Desktop,no,mono,no,18,no,white,no,no,768,legacy,70,70,C:/Users/chris/OneDrive/Desktop/CM-subject-1.csv,legacy,Lentiform Loewenfeld,3.3.3,0,h,s,NA,NA,h,NA,492,54505,NA,NA,492,NA,2,legacy,1024,2,48000,-16,experiment,HHHHH,1,odd,182339,57185,NA,NA,157259,2674,NA,183445,2680,NA,NA,183551,184044,NA,183442,183551,Flanker Task,65,37682,71,yes,1024
91.66666667,91.66666667,530.2916667,530.2916667,black,legacy,legacy,legacy,0,congruent,uniform,1,undefined,1,s,71,0,0,0,71,0,71,71,0,0,0,71,71,0,71,71,Sun Sep 20 14:39:54 2020,1500,The main experiment item,yes,FlankerTask.osexp,C:/Users/chris/OneDrive/Desktop,no,mono,no,18,no,white,no,no,768,legacy,71,71,C:/Users/chris/OneDrive/Desktop/CM-subject-1.csv,legacy,Lentiform Loewenfeld,3.3.3,0,s,s,NA,NA,s,NA,499,54505,NA,NA,499,NA,2,legacy,1024,2,48000,-16,experiment,SSSSS,1,odd,184052,57185,NA,NA,157259,2674,NA,185155,2680,NA,NA,185262,185762,NA,185153,185261,Flanker Task,66,38181,72,yes,1024
91.78082192,91.78082192,529.6027397,529.6027397,black,legacy,legacy,legacy,0,congruent,uniform,1,undefined,1,h,72,0,0,0,72,0,72,72,0,0,0,72,72,0,72,72,Sun Sep 20 14:39:54 2020,1500,The main experiment item,yes,FlankerTask.osexp,C:/Users/chris/OneDrive/Desktop,no,mono,no,18,no,white,no,no,768,legacy,72,72,C:/Users/chris/OneDrive/Desktop/CM-subject-1.csv,legacy,Lentiform Loewenfeld,3.3.3,0,h,s,NA,NA,h,NA,480,54505,NA,NA,480,NA,2,legacy,1024,2,48000,-16,experiment,HHHHH,1,odd,185771,57185,NA,NA,157259,2674,NA,186889,2680,NA,NA,186994,187475,NA,186887,186994,Flanker Task,67,38661,73,yes,1024
91.89189189,91.89189189,528.6891892,528.6891892,black,legacy,legacy,legacy,0,congruent,uniform,1,undefined,1,s,73,0,0,0,73,0,73,73,0,0,0,73,73,0,73,73,Sun Sep 20 14:39:54 2020,1500,The main experiment item,yes,FlankerTask.osexp,C:/Users/chris/OneDrive/Desktop,no,mono,no,18,no,white,no,no,768,legacy,73,73,C:/Users/chris/OneDrive/Desktop/CM-subject-1.csv,legacy,Lentiform Loewenfeld,3.3.3,0,s,s,NA,NA,s,NA,462,54505,NA,NA,462,NA,2,legacy,1024,2,48000,-16,experiment,SSSSS,1,odd,187484,57185,NA,NA,157259,2674,NA,188592,2680,NA,NA,188698,189161,NA,188589,188698,Flanker Task,68,39123,74,yes,1024
92,92,528.48,528.48,black,legacy,legacy,legacy,0,incongruent,uniform,1,undefined,1,h,74,0,0,0,74,0,74,74,0,0,0,74,74,0,74,74,Sun Sep 20 14:39:54 2020,1500,The main experiment item,yes,FlankerTask.osexp,C:/Users/chris/OneDrive/Desktop,no,mono,no,18,no,white,no,no,768,legacy,74,74,C:/Users/chris/OneDrive/Desktop/CM-subject-1.csv,legacy,Lentiform Loewenfeld,3.3.3,0,h,s,NA,NA,h,NA,513,54505,NA,NA,513,NA,2,legacy,1024,2,48000,-16,experiment,SSHSS,1,odd,189170,57185,NA,NA,157259,2674,NA,190280,2680,NA,NA,190385,190898,NA,190277,190385,Flanker Task,69,39636,75,yes,1024
92.10526316,92.10526316,530.2105263,530.2105263,black,legacy,legacy,legacy,0,incongruent,uniform,1,undefined,1,h,75,0,0,0,75,0,75,75,0,0,0,75,75,0,75,75,Sun Sep 20 14:39:54 2020,1500,The main experiment item,yes,FlankerTask.osexp,C:/Users/chris/OneDrive/Desktop,no,mono,no,18,no,white,no,no,768,legacy,75,75,C:/Users/chris/OneDrive/Desktop/CM-subject-1.csv,legacy,Lentiform Loewenfeld,3.3.3,0,h,s,NA,NA,h,NA,660,54505,NA,NA,660,NA,2,legacy,1024,2,48000,-16,experiment,SSHSS,1,odd,190908,57185,NA,NA,157259,2674,NA,192018,2680,NA,NA,192124,192785,NA,192016,192124,Flanker Task,70,40296,76,yes,1024
92.20779221,92.20779221,529.8311688,529.8311688,black,legacy,legacy,legacy,0,incongruent,uniform,1,undefined,1,h,76,0,0,0,76,0,76,76,0,0,0,76,76,0,76,76,Sun Sep 20 14:39:54 2020,1500,The main experiment item,yes,FlankerTask.osexp,C:/Users/chris/OneDrive/Desktop,no,mono,no,18,no,white,no,no,768,legacy,76,76,C:/Users/chris/OneDrive/Desktop/CM-subject-1.csv,legacy,Lentiform Loewenfeld,3.3.3,0,h,s,NA,NA,h,NA,501,54505,NA,NA,501,NA,2,legacy,1024,2,48000,-16,experiment,SSHSS,1,odd,192794,57185,NA,NA,157259,2674,NA,193906,2680,NA,NA,194011,194513,NA,193903,194011,Flanker Task,71,40797,77,yes,1024
92.30769231,92.30769231,529.9230769,529.9230769,black,legacy,legacy,legacy,0,congruent,uniform,1,undefined,1,s,77,0,0,0,77,0,77,77,0,0,0,77,77,0,77,77,Sun Sep 20 14:39:54 2020,1500,The main experiment item,yes,FlankerTask.osexp,C:/Users/chris/OneDrive/Desktop,no,mono,no,18,no,white,no,no,768,legacy,77,77,C:/Users/chris/OneDrive/Desktop/CM-subject-1.csv,legacy,Lentiform Loewenfeld,3.3.3,0,s,s,NA,NA,s,NA,537,54505,NA,NA,537,NA,2,legacy,1024,2,48000,-16,experiment,SSSSS,1,odd,194522,57185,NA,NA,157259,2674,NA,195623,2680,NA,NA,195725,196263,NA,195620,195725,Flanker Task,72,41334,78,yes,1024
92.40506329,92.40506329,529.8607595,529.8607595,black,legacy,legacy,legacy,0,congruent,uniform,1,undefined,1,s,78,0,0,0,78,0,78,78,0,0,0,78,78,0,78,78,Sun Sep 20 14:39:54 2020,1500,The main experiment item,yes,FlankerTask.osexp,C:/Users/chris/OneDrive/Desktop,no,mono,no,18,no,white,no,no,768,legacy,78,78,C:/Users/chris/OneDrive/Desktop/CM-subject-1.csv,legacy,Lentiform Loewenfeld,3.3.3,0,s,s,NA,NA,s,NA,525,54505,NA,NA,525,NA,2,legacy,1024,2,48000,-16,experiment,SSSSS,1,odd,196272,57185,NA,NA,157259,2674,NA,197384,2680,NA,NA,197489,198015,NA,197381,197489,Flanker Task,73,41859,79,yes,1024
92.5,92.5,531.0375,531.0375,black,legacy,legacy,legacy,0,incongruent,uniform,1,undefined,1,s,79,0,0,0,79,0,79,79,0,0,0,79,79,0,79,79,Sun Sep 20 14:39:54 2020,1500,The main experiment item,yes,FlankerTask.osexp,C:/Users/chris/OneDrive/Desktop,no,mono,no,18,no,white,no,no,768,legacy,79,79,C:/Users/chris/OneDrive/Desktop/CM-subject-1.csv,legacy,Lentiform Loewenfeld,3.3.3,0,s,s,NA,NA,s,NA,624,54505,NA,NA,624,NA,2,legacy,1024,2,48000,-16,experiment,HHSHH,1,odd,198023,57185,NA,NA,157259,2674,NA,199132,2680,NA,NA,199237,199862,NA,199130,199237,Flanker Task,74,42483,80,yes,1024
92.59259259,92.59259259,540.4074074,540.4074074,black,legacy,legacy,legacy,0,congruent,uniform,1,undefined,1,h,80,0,0,0,80,0,80,80,0,0,0,80,80,0,80,80,Sun Sep 20 14:39:54 2020,600,The main experiment item,yes,FlankerTask.osexp,C:/Users/chris/OneDrive/Desktop,no,mono,no,18,no,white,no,no,768,legacy,0,79,C:/Users/chris/OneDrive/Desktop/CM-subject-1.csv,legacy,Lentiform Loewenfeld,3.3.3,0,h,s,s,NA,h,NA,1290,54505,11767,NA,1290,NA,2,legacy,1024,2,48000,-16,experiment,HHHHH,1,odd,199871,57185,212669,NA,157259,2674,NA,212731,2680,200901,NA,212836,214127,NA,212729,212836,Flanker Task,75,43773,81,yes,1024
92.68292683,92.68292683,543.304878,543.304878,black,legacy,legacy,legacy,0,congruent,uniform,1,undefined,1,s,81,0,0,0,81,0,81,81,0,0,0,81,81,0,81,81,Sun Sep 20 14:39:54 2020,600,The main experiment item,yes,FlankerTask.osexp,C:/Users/chris/OneDrive/Desktop,no,mono,no,18,no,white,no,no,768,legacy,1,79,C:/Users/chris/OneDrive/Desktop/CM-subject-1.csv,legacy,Lentiform Loewenfeld,3.3.3,0,s,s,s,NA,s,NA,778,54505,11767,NA,778,NA,2,legacy,1024,2,48000,-16,experiment,SSSSS,1,odd,214642,57185,212669,NA,157259,2674,214136,215742,2680,200901,NA,215847,216627,NA,215740,215847,Flanker Task,76,44551,82,yes,1024
92.77108434,92.77108434,545.5542169,545.5542169,black,legacy,legacy,legacy,0,congruent,uniform,1,undefined,1,s,82,0,0,0,82,0,82,82,0,0,0,82,82,0,82,82,Sun Sep 20 14:39:54 2020,600,The main experiment item,yes,FlankerTask.osexp,C:/Users/chris/OneDrive/Desktop,no,mono,no,18,no,white,no,no,768,legacy,2,79,C:/Users/chris/OneDrive/Desktop/CM-subject-1.csv,legacy,Lentiform Loewenfeld,3.3.3,0,s,s,s,NA,s,NA,730,54505,11767,NA,730,NA,2,legacy,1024,2,48000,-16,experiment,SSSSS,1,odd,217142,57185,212669,NA,157259,2674,216636,218238,2680,200901,NA,218349,219079,NA,218235,218349,Flanker Task,77,45281,83,yes,1024
92.85714286,92.85714286,543.6904762,543.6904762,black,legacy,legacy,legacy,0,incongruent,uniform,1,undefined,1,s,83,0,0,0,83,0,83,83,0,0,0,83,83,0,83,83,Sun Sep 20 14:39:54 2020,600,The main experiment item,yes,FlankerTask.osexp,C:/Users/chris/OneDrive/Desktop,no,mono,no,18,no,white,no,no,768,legacy,3,79,C:/Users/chris/OneDrive/Desktop/CM-subject-1.csv,legacy,Lentiform Loewenfeld,3.3.3,0,s,s,s,NA,s,NA,389,54505,11767,NA,389,NA,2,legacy,1024,2,48000,-16,experiment,HHSHH,1,odd,219594,57185,212669,NA,157259,2674,219089,220694,2680,200901,NA,220799,221189,NA,220691,220799,Flanker Task,78,45670,84,yes,1024
92.94117647,92.94117647,541.2470588,541.2470588,black,legacy,legacy,legacy,0,congruent,uniform,1,undefined,1,s,84,0,0,0,84,0,84,84,0,0,0,84,84,0,84,84,Sun Sep 20 14:39:54 2020,600,The main experiment item,yes,FlankerTask.osexp,C:/Users/chris/OneDrive/Desktop,no,mono,no,18,no,white,no,no,768,legacy,4,79,C:/Users/chris/OneDrive/Desktop/CM-subject-1.csv,legacy,Lentiform Loewenfeld,3.3.3,0,s,s,s,NA,s,NA,336,54505,11767,NA,336,NA,2,legacy,1024,2,48000,-16,experiment,SSSSS,1,odd,221199,57185,212669,NA,157259,2674,219089,222315,2680,200901,NA,222421,222758,NA,222313,222420,Flanker Task,79,46006,85,yes,1024
91.86046512,91.86046512,538.755814,538.755814,black,legacy,legacy,legacy,0,congruent,uniform,0,undefined,0,h,85,0,0,0,85,0,85,85,0,0,0,85,85,0,85,85,Sun Sep 20 14:39:54 2020,600,The main experiment item,yes,FlankerTask.osexp,C:/Users/chris/OneDrive/Desktop,no,mono,no,18,no,white,no,no,768,legacy,5,79,C:/Users/chris/OneDrive/Desktop/CM-subject-1.csv,legacy,Lentiform Loewenfeld,3.3.3,0,s,s,s,NA,s,NA,327,54505,11767,NA,327,NA,2,legacy,1024,2,48000,-16,experiment,HHHHH,1,odd,222767,57185,212669,NA,157259,2674,219089,223876,2680,200901,NA,223982,224310,NA,223873,223982,Flanker Task,79,46333,86,yes,1024
90.8045977,90.8045977,536.5287356,536.5287356,black,legacy,legacy,legacy,0,incongruent,uniform,0,undefined,0,s,86,0,0,0,86,0,86,86,0,0,0,86,86,0,86,86,Sun Sep 20 14:39:54 2020,600,The main experiment item,yes,FlankerTask.osexp,C:/Users/chris/OneDrive/Desktop,no,mono,no,18,no,white,no,no,768,legacy,6,79,C:/Users/chris/OneDrive/Desktop/CM-subject-1.csv,legacy,Lentiform Loewenfeld,3.3.3,0,h,s,s,NA,h,NA,345,54505,11767,NA,345,NA,2,legacy,1024,2,48000,-16,experiment,HHSHH,1,odd,224824,57185,212669,NA,224319,2674,219089,225922,2680,200901,NA,226029,226375,NA,225920,226028,Flanker Task,79,46678,87,yes,1024
89.77272727,89.77272727,535.0454545,535.0454545,black,legacy,legacy,legacy,0,congruent,uniform,0,undefined,0,h,87,0,0,0,87,0,87,87,0,0,0,87,87,0,87,87,Sun Sep 20 14:39:54 2020,600,The main experiment item,yes,FlankerTask.osexp,C:/Users/chris/OneDrive/Desktop,no,mono,no,18,no,white,no,no,768,legacy,7,79,C:/Users/chris/OneDrive/Desktop/CM-subject-1.csv,legacy,Lentiform Loewenfeld,3.3.3,0,s,s,s,NA,s,NA,406,54505,11767,NA,406,NA,2,legacy,1024,2,48000,-16,experiment,HHHHH,1,odd,226890,57185,212669,NA,226384,2674,219089,227988,2680,200901,NA,228093,228500,NA,227986,228093,Flanker Task,79,47084,88,yes,1024
89.88764045,89.88764045,535.6404494,535.6404494,black,legacy,legacy,legacy,0,incongruent,uniform,1,undefined,1,s,88,0,0,0,88,0,88,88,0,0,0,88,88,0,88,88,Sun Sep 20 14:39:54 2020,600,The main experiment item,yes,FlankerTask.osexp,C:/Users/chris/OneDrive/Desktop,no,mono,no,18,no,white,no,no,768,legacy,8,79,C:/Users/chris/OneDrive/Desktop/CM-subject-1.csv,legacy,Lentiform Loewenfeld,3.3.3,0,s,s,s,NA,s,NA,588,54505,11767,NA,588,NA,2,legacy,1024,2,48000,-16,experiment,HHSHH,1,odd,229014,57185,212669,NA,228509,2674,219089,230115,2680,200901,NA,230220,230809,NA,230112,230220,Flanker Task,80,47672,89,yes,1024
90,90,533.9111111,533.9111111,black,legacy,legacy,legacy,0,incongruent,uniform,1,undefined,1,h,89,0,0,0,89,0,89,89,0,0,0,89,89,0,89,89,Sun Sep 20 14:39:54 2020,600,The main experiment item,yes,FlankerTask.osexp,C:/Users/chris/OneDrive/Desktop,no,mono,no,18,no,white,no,no,768,legacy,9,79,C:/Users/chris/OneDrive/Desktop/CM-subject-1.csv,legacy,Lentiform Loewenfeld,3.3.3,0,h,s,s,NA,h,NA,380,54505,11767,NA,380,NA,2,legacy,1024,2,48000,-16,experiment,SSHSS,1,odd,230819,57185,212669,NA,228509,2674,219089,231940,2680,200901,NA,232045,232427,NA,231937,232045,Flanker Task,81,48052,90,yes,1024
90.10989011,90.10989011,532.2417582,532.2417582,black,legacy,legacy,legacy,0,congruent,uniform,1,undefined,1,s,90,0,0,0,90,0,90,90,0,0,0,90,90,0,90,90,Sun Sep 20 14:39:54 2020,600,The main experiment item,yes,FlankerTask.osexp,C:/Users/chris/OneDrive/Desktop,no,mono,no,18,no,white,no,no,768,legacy,10,79,C:/Users/chris/OneDrive/Desktop/CM-subject-1.csv,legacy,Lentiform Loewenfeld,3.3.3,0,s,s,s,NA,s,NA,382,54505,11767,NA,382,NA,2,legacy,1024,2,48000,-16,experiment,SSSSS,1,odd,232436,57185,212669,NA,228509,2674,219089,233545,2680,200901,NA,233650,234033,NA,233542,233650,Flanker Task,82,48434,91,yes,1024
90.2173913,90.2173913,532.0543478,532.0543478,black,legacy,legacy,legacy,0,incongruent,uniform,1,undefined,1,h,91,0,0,0,91,0,91,91,0,0,0,91,91,0,91,91,Sun Sep 20 14:39:54 2020,600,The main experiment item,yes,FlankerTask.osexp,C:/Users/chris/OneDrive/Desktop,no,mono,no,18,no,white,no,no,768,legacy,11,79,C:/Users/chris/OneDrive/Desktop/CM-subject-1.csv,legacy,Lentiform Loewenfeld,3.3.3,0,h,s,s,NA,h,NA,515,54505,11767,NA,515,NA,2,legacy,1024,2,48000,-16,experiment,SSHSS,1,odd,234042,57185,212669,NA,228509,2674,219089,235132,2680,200901,NA,235238,235754,NA,235130,235238,Flanker Task,83,48949,92,yes,1024
89.24731183,89.24731183,529.7956989,529.7956989,black,legacy,legacy,legacy,0,incongruent,uniform,0,undefined,0,h,92,0,0,0,92,0,92,92,0,0,0,92,92,0,92,92,Sun Sep 20 14:39:54 2020,600,The main experiment item,yes,FlankerTask.osexp,C:/Users/chris/OneDrive/Desktop,no,mono,no,18,no,white,no,no,768,legacy,12,79,C:/Users/chris/OneDrive/Desktop/CM-subject-1.csv,legacy,Lentiform Loewenfeld,3.3.3,0,s,s,s,NA,s,NA,322,54505,11767,NA,322,NA,2,legacy,1024,2,48000,-16,experiment,SSHSS,1,odd,235763,57185,212669,NA,228509,2674,219089,236869,2680,200901,NA,236974,237297,NA,236865,236974,Flanker Task,83,49271,93,yes,1024
89.36170213,89.36170213,529.0744681,529.0744681,black,legacy,legacy,legacy,0,congruent,uniform,1,undefined,1,s,93,0,0,0,93,0,93,93,0,0,0,93,93,0,93,93,Sun Sep 20 14:39:54 2020,600,The main experiment item,yes,FlankerTask.osexp,C:/Users/chris/OneDrive/Desktop,no,mono,no,18,no,white,no,no,768,legacy,13,79,C:/Users/chris/OneDrive/Desktop/CM-subject-1.csv,legacy,Lentiform Loewenfeld,3.3.3,0,s,s,s,NA,s,NA,462,54505,11767,NA,462,NA,2,legacy,1024,2,48000,-16,experiment,SSSSS,1,odd,237811,57185,212669,NA,237306,2674,219089,238910,2680,200901,NA,239016,239479,NA,238908,239015,Flanker Task,84,49733,94,yes,1024
89.47368421,89.47368421,528.9052632,528.9052632,black,legacy,legacy,legacy,0,incongruent,uniform,1,undefined,1,s,94,0,0,0,94,0,94,94,0,0,0,94,94,0,94,94,Sun Sep 20 14:39:54 2020,600,The main experiment item,yes,FlankerTask.osexp,C:/Users/chris/OneDrive/Desktop,no,mono,no,18,no,white,no,no,768,legacy,14,79,C:/Users/chris/OneDrive/Desktop/CM-subject-1.csv,legacy,Lentiform Loewenfeld,3.3.3,0,s,s,s,NA,s,NA,513,54505,11767,NA,513,NA,2,legacy,1024,2,48000,-16,experiment,HHSHH,1,odd,239488,57185,212669,NA,237306,2674,219089,240595,2680,200901,NA,240700,241214,NA,240593,240700,Flanker Task,85,50246,95,yes,1024
89.58333333,89.58333333,527.3541667,527.3541667,black,legacy,legacy,legacy,0,incongruent,uniform,1,undefined,1,s,95,0,0,0,95,0,95,95,0,0,0,95,95,0,95,95,Sun Sep 20 14:39:54 2020,600,The main experiment item,yes,FlankerTask.osexp,C:/Users/chris/OneDrive/Desktop,no,mono,no,18,no,white,no,no,768,legacy,15,79,C:/Users/chris/OneDrive/Desktop/CM-subject-1.csv,legacy,Lentiform Loewenfeld,3.3.3,0,s,s,s,NA,s,NA,380,54505,11767,NA,380,NA,2,legacy,1024,2,48000,-16,experiment,HHSHH,1,odd,241233,57185,212669,NA,237306,2674,219089,242360,2680,200901,NA,242465,242846,NA,242357,242465,Flanker Task,86,50626,96,yes,1024
89.69072165,89.69072165,525.9381443,525.9381443,black,legacy,legacy,legacy,0,incongruent,uniform,1,undefined,1,s,96,0,0,0,96,0,96,96,0,0,0,96,96,0,96,96,Sun Sep 20 14:39:54 2020,600,The main experiment item,yes,FlankerTask.osexp,C:/Users/chris/OneDrive/Desktop,no,mono,no,18,no,white,no,no,768,legacy,16,79,C:/Users/chris/OneDrive/Desktop/CM-subject-1.csv,legacy,Lentiform Loewenfeld,3.3.3,0,s,s,s,NA,s,NA,390,54505,11767,NA,390,NA,2,legacy,1024,2,48000,-16,experiment,HHSHH,1,odd,242855,57185,212669,NA,237306,2674,219089,243957,2680,200901,NA,244063,244454,NA,243955,244063,Flanker Task,87,51016,97,yes,1024
89.79591837,89.79591837,524.4795918,524.4795918,black,legacy,legacy,legacy,0,congruent,uniform,1,undefined,1,s,97,0,0,0,97,0,97,97,0,0,0,97,97,0,97,97,Sun Sep 20 14:39:54 2020,600,The main experiment item,yes,FlankerTask.osexp,C:/Users/chris/OneDrive/Desktop,no,mono,no,18,no,white,no,no,768,legacy,17,79,C:/Users/chris/OneDrive/Desktop/CM-subject-1.csv,legacy,Lentiform Loewenfeld,3.3.3,0,s,s,s,NA,s,NA,383,54505,11767,NA,383,NA,2,legacy,1024,2,48000,-16,experiment,SSSSS,1,odd,244463,57185,212669,NA,237306,2674,219089,245566,2680,200901,NA,245671,246055,NA,245564,245671,Flanker Task,88,51399,98,yes,1024
88.88888889,88.88888889,523,523,black,legacy,legacy,legacy,0,incongruent,uniform,0,undefined,0,h,98,0,0,0,98,0,98,98,0,0,0,98,98,0,98,98,Sun Sep 20 14:39:54 2020,600,The main experiment item,yes,FlankerTask.osexp,C:/Users/chris/OneDrive/Desktop,no,mono,no,18,no,white,no,no,768,legacy,18,79,C:/Users/chris/OneDrive/Desktop/CM-subject-1.csv,legacy,Lentiform Loewenfeld,3.3.3,0,s,s,s,NA,s,NA,378,54505,11767,NA,378,NA,2,legacy,1024,2,48000,-16,experiment,SSHSS,1,odd,246058,57185,212669,NA,237306,2674,219089,247163,2680,200901,NA,247268,247647,NA,247161,247268,Flanker Task,88,51777,99,yes,1024
89,89,521.91,521.91,black,legacy,legacy,legacy,0,incongruent,uniform,1,undefined,1,s,99,0,0,0,99,0,99,99,0,0,0,99,99,0,99,99,Sun Sep 20 14:39:54 2020,600,The main experiment item,yes,FlankerTask.osexp,C:/Users/chris/OneDrive/Desktop,no,mono,no,18,no,white,no,no,768,legacy,19,79,C:/Users/chris/OneDrive/Desktop/CM-subject-1.csv,legacy,Lentiform Loewenfeld,3.3.3,0,s,s,s,NA,s,NA,414,54505,11767,NA,414,NA,2,legacy,1024,2,48000,-16,experiment,HHSHH,1,odd,248162,57185,212669,NA,247656,2674,219089,249284,2680,200901,NA,249390,249805,NA,249281,249389,Flanker Task,89,52191,100,yes,1024
88.11881188,88.11881188,520.5841584,520.5841584,black,legacy,legacy,legacy,0,congruent,uniform,0,undefined,0,h,100,0,0,0,100,0,100,100,0,0,0,100,100,0,100,100,Sun Sep 20 14:39:54 2020,600,The main experiment item,yes,FlankerTask.osexp,C:/Users/chris/OneDrive/Desktop,no,mono,no,18,no,white,no,no,768,legacy,20,79,C:/Users/chris/OneDrive/Desktop/CM-subject-1.csv,legacy,Lentiform Loewenfeld,3.3.3,0,s,s,s,NA,s,NA,388,54505,11767,NA,388,NA,2,legacy,1024,2,48000,-16,experiment,HHHHH,1,odd,249809,57185,212669,NA,247656,2674,219089,250911,2680,200901,NA,251016,251405,NA,250909,251016,Flanker Task,89,52579,101,yes,1024
88.23529412,88.23529412,523.4313725,523.4313725,black,legacy,legacy,legacy,0,incongruent,uniform,1,undefined,1,h,101,0,0,0,101,0,101,101,0,0,0,101,101,0,101,101,Sun Sep 20 14:39:54 2020,600,The main experiment item,yes,FlankerTask.osexp,C:/Users/chris/OneDrive/Desktop,no,mono,no,18,no,white,no,no,768,legacy,21,79,C:/Users/chris/OneDrive/Desktop/CM-subject-1.csv,legacy,Lentiform Loewenfeld,3.3.3,0,h,s,s,NA,h,NA,811,54505,11767,NA,811,NA,2,legacy,1024,2,48000,-16,experiment,SSHSS,1,odd,251919,57185,212669,NA,251414,2674,219089,253030,2680,200901,NA,253135,253947,NA,253028,253135,Flanker Task,90,53390,102,yes,1024
88.34951456,88.34951456,522.0776699,522.0776699,black,legacy,legacy,legacy,0,congruent,uniform,1,undefined,1,s,102,0,0,0,102,0,102,102,0,0,0,102,102,0,102,102,Sun Sep 20 14:39:54 2020,600,The main experiment item,yes,FlankerTask.osexp,C:/Users/chris/OneDrive/Desktop,no,mono,no,18,no,white,no,no,768,legacy,22,79,C:/Users/chris/OneDrive/Desktop/CM-subject-1.csv,legacy,Lentiform Loewenfeld,3.3.3,0,s,s,s,NA,s,NA,384,54505,11767,NA,384,NA,2,legacy,1024,2,48000,-16,experiment,SSSSS,1,odd,254461,57185,212669,NA,251414,2674,253956,255573,2680,200901,NA,255679,256064,NA,255570,255678,Flanker Task,91,53774,103,yes,1024
88.46153846,88.46153846,520.75,520.75,black,legacy,legacy,legacy,0,congruent,uniform,1,undefined,1,s,103,0,0,0,103,0,103,103,0,0,0,103,103,0,103,103,Sun Sep 20 14:39:54 2020,600,The main experiment item,yes,FlankerTask.osexp,C:/Users/chris/OneDrive/Desktop,no,mono,no,18,no,white,no,no,768,legacy,23,79,C:/Users/chris/OneDrive/Desktop/CM-subject-1.csv,legacy,Lentiform Loewenfeld,3.3.3,0,s,s,s,NA,s,NA,384,54505,11767,NA,384,NA,2,legacy,1024,2,48000,-16,experiment,SSSSS,1,odd,256069,57185,212669,NA,251414,2674,253956,257190,2680,200901,NA,257295,257680,NA,257187,257295,Flanker Task,92,54158,104,yes,1024
88.57142857,88.57142857,519.1238095,519.1238095,black,legacy,legacy,legacy,0,congruent,uniform,1,undefined,1,s,104,0,0,0,104,0,104,104,0,0,0,104,104,0,104,104,Sun Sep 20 14:39:54 2020,600,The main experiment item,yes,FlankerTask.osexp,C:/Users/chris/OneDrive/Desktop,no,mono,no,18,no,white,no,no,768,legacy,24,79,C:/Users/chris/OneDrive/Desktop/CM-subject-1.csv,legacy,Lentiform Loewenfeld,3.3.3,0,s,s,s,NA,s,NA,350,54505,11767,NA,350,NA,2,legacy,1024,2,48000,-16,experiment,SSSSS,1,odd,257689,57185,212669,NA,251414,2674,253956,258798,2680,200901,NA,258905,259256,NA,258795,258905,Flanker Task,93,54508,105,yes,1024
88.67924528,88.67924528,518.754717,518.754717,black,legacy,legacy,legacy,0,incongruent,uniform,1,undefined,1,h,105,0,0,0,105,0,105,105,0,0,0,105,105,0,105,105,Sun Sep 20 14:39:54 2020,600,The main experiment item,yes,FlankerTask.osexp,C:/Users/chris/OneDrive/Desktop,no,mono,no,18,no,white,no,no,768,legacy,25,79,C:/Users/chris/OneDrive/Desktop/CM-subject-1.csv,legacy,Lentiform Loewenfeld,3.3.3,0,h,s,s,NA,h,NA,480,54505,11767,NA,480,NA,2,legacy,1024,2,48000,-16,experiment,SSHSS,1,odd,259265,57185,212669,NA,251414,2674,253956,260368,2680,200901,NA,260473,260959,NA,260366,260473,Flanker Task,94,54988,106,yes,1024
87.85046729,87.85046729,516.8411215,516.8411215,black,legacy,legacy,legacy,0,incongruent,uniform,0,undefined,0,h,106,0,0,0,106,0,106,106,0,0,0,106,106,0,106,106,Sun Sep 20 14:39:54 2020,600,The main experiment item,yes,FlankerTask.osexp,C:/Users/chris/OneDrive/Desktop,no,mono,no,18,no,white,no,no,768,legacy,26,79,C:/Users/chris/OneDrive/Desktop/CM-subject-1.csv,legacy,Lentiform Loewenfeld,3.3.3,0,s,s,s,NA,s,NA,314,54505,11767,NA,314,NA,2,legacy,1024,2,48000,-16,experiment,SSHSS,1,odd,260973,57185,212669,NA,251414,2674,253956,262123,2680,200901,NA,262229,262545,NA,262121,262229,Flanker Task,94,55302,107,yes,1024
87.96296296,87.96296296,515.7314815,515.7314815,black,legacy,legacy,legacy,0,incongruent,uniform,1,undefined,1,h,107,0,0,0,107,0,107,107,0,0,0,107,107,0,107,107,Sun Sep 20 14:39:54 2020,600,The main experiment item,yes,FlankerTask.osexp,C:/Users/chris/OneDrive/Desktop,no,mono,no,18,no,white,no,no,768,legacy,27,79,C:/Users/chris/OneDrive/Desktop/CM-subject-1.csv,legacy,Lentiform Loewenfeld,3.3.3,0,h,s,s,NA,h,NA,397,54505,11767,NA,397,NA,2,legacy,1024,2,48000,-16,experiment,SSHSS,1,odd,263058,57185,212669,NA,262553,2674,253956,264184,2680,200901,NA,264290,264688,NA,264181,264290,Flanker Task,95,55699,108,yes,1024
88.0733945,88.0733945,514.7522936,514.7522936,black,legacy,legacy,legacy,0,congruent,uniform,1,undefined,1,h,108,0,0,0,108,0,108,108,0,0,0,108,108,0,108,108,Sun Sep 20 14:39:54 2020,600,The main experiment item,yes,FlankerTask.osexp,C:/Users/chris/OneDrive/Desktop,no,mono,no,18,no,white,no,no,768,legacy,28,79,C:/Users/chris/OneDrive/Desktop/CM-subject-1.csv,legacy,Lentiform Loewenfeld,3.3.3,0,h,s,s,NA,h,NA,409,54505,11767,NA,409,NA,2,legacy,1024,2,48000,-16,experiment,HHHHH,1,odd,264697,57185,212669,NA,262553,2674,253956,265813,2680,200901,NA,265918,266328,NA,265811,265918,Flanker Task,96,56108,109,yes,1024
87.27272727,87.27272727,513.0818182,513.0818182,black,legacy,legacy,legacy,0,incongruent,uniform,0,undefined,0,s,109,0,0,0,109,0,109,109,0,0,0,109,109,0,109,109,Sun Sep 20 14:39:54 2020,600,The main experiment item,yes,FlankerTask.osexp,C:/Users/chris/OneDrive/Desktop,no,mono,no,18,no,white,no,no,768,legacy,29,79,C:/Users/chris/OneDrive/Desktop/CM-subject-1.csv,legacy,Lentiform Loewenfeld,3.3.3,0,h,s,s,NA,h,NA,331,54505,11767,NA,331,NA,2,legacy,1024,2,48000,-16,experiment,HHSHH,1,odd,266337,57185,212669,NA,262553,2674,253956,267444,2680,200901,NA,267549,267881,NA,267441,267549,Flanker Task,96,56439,110,yes,1024
87.38738739,87.38738739,513.4954955,513.4954955,black,legacy,legacy,legacy,0,congruent,uniform,1,undefined,1,h,110,0,0,0,110,0,110,110,0,0,0,110,110,0,110,110,Sun Sep 20 14:39:54 2020,600,The main experiment item,yes,FlankerTask.osexp,C:/Users/chris/OneDrive/Desktop,no,mono,no,18,no,white,no,no,768,legacy,30,79,C:/Users/chris/OneDrive/Desktop/CM-subject-1.csv,legacy,Lentiform Loewenfeld,3.3.3,0,h,s,s,NA,h,NA,559,54505,11767,NA,559,NA,2,legacy,1024,2,48000,-16,experiment,HHHHH,1,odd,268395,57185,212669,NA,267890,2674,253956,269500,2680,200901,NA,269606,270166,NA,269498,269606,Flanker Task,97,56998,111,yes,1024
87.5,87.5,514.4910714,514.4910714,black,legacy,legacy,legacy,0,incongruent,uniform,1,undefined,1,h,111,0,0,0,111,0,111,111,0,0,0,111,111,0,111,111,Sun Sep 20 14:39:54 2020,600,The main experiment item,yes,FlankerTask.osexp,C:/Users/chris/OneDrive/Desktop,no,mono,no,18,no,white,no,no,768,legacy,31,79,C:/Users/chris/OneDrive/Desktop/CM-subject-1.csv,legacy,Lentiform Loewenfeld,3.3.3,0,h,s,s,NA,h,NA,625,54505,11767,NA,625,NA,2,legacy,1024,2,48000,-16,experiment,SSHSS,1,odd,270175,57185,212669,NA,267890,2674,253956,271278,2680,200901,NA,271395,272022,NA,271275,271395,Flanker Task,98,57623,112,yes,1024
87.61061947,87.61061947,514.2566372,514.2566372,black,legacy,legacy,legacy,0,incongruent,uniform,1,undefined,1,h,112,0,0,0,112,0,112,112,0,0,0,112,112,0,112,112,Sun Sep 20 14:39:54 2020,600,The main experiment item,yes,FlankerTask.osexp,C:/Users/chris/OneDrive/Desktop,no,mono,no,18,no,white,no,no,768,legacy,32,79,C:/Users/chris/OneDrive/Desktop/CM-subject-1.csv,legacy,Lentiform Loewenfeld,3.3.3,0,h,s,s,NA,h,NA,488,54505,11767,NA,488,NA,2,legacy,1024,2,48000,-16,experiment,SSHSS,1,odd,272534,57185,212669,NA,267890,2674,272031,273641,2680,200901,NA,273747,274236,NA,273639,273747,Flanker Task,99,58111,113,yes,1024
87.71929825,87.71929825,514.0614035,514.0614035,black,legacy,legacy,legacy,0,congruent,uniform,1,undefined,1,s,113,0,0,0,113,0,113,113,0,0,0,113,113,0,113,113,Sun Sep 20 14:39:54 2020,600,The main experiment item,yes,FlankerTask.osexp,C:/Users/chris/OneDrive/Desktop,no,mono,no,18,no,white,no,no,768,legacy,33,79,C:/Users/chris/OneDrive/Desktop/CM-subject-1.csv,legacy,Lentiform Loewenfeld,3.3.3,0,s,s,s,NA,s,NA,492,54505,11767,NA,492,NA,2,legacy,1024,2,48000,-16,experiment,SSSSS,1,odd,274245,57185,212669,NA,267890,2674,272031,275355,2680,200901,NA,275461,275954,NA,275353,275460,Flanker Task,100,58603,114,yes,1024
87.82608696,87.82608696,512.7217391,512.7217391,black,legacy,legacy,legacy,0,congruent,uniform,1,undefined,1,h,114,0,0,0,114,0,114,114,0,0,0,114,114,0,114,114,Sun Sep 20 14:39:54 2020,600,The main experiment item,yes,FlankerTask.osexp,C:/Users/chris/OneDrive/Desktop,no,mono,no,18,no,white,no,no,768,legacy,34,79,C:/Users/chris/OneDrive/Desktop/CM-subject-1.csv,legacy,Lentiform Loewenfeld,3.3.3,0,h,s,s,NA,h,NA,360,54505,11767,NA,360,NA,2,legacy,1024,2,48000,-16,experiment,HHHHH,1,odd,275963,57185,212669,NA,267890,2674,272031,277081,2680,200901,NA,277186,277548,NA,277079,277186,Flanker Task,101,58963,115,yes,1024
87.93103448,87.93103448,513.3103448,513.3103448,black,legacy,legacy,legacy,0,incongruent,uniform,1,undefined,1,s,115,0,0,0,115,0,115,115,0,0,0,115,115,0,115,115,Sun Sep 20 14:39:54 2020,600,The main experiment item,yes,FlankerTask.osexp,C:/Users/chris/OneDrive/Desktop,no,mono,no,18,no,white,no,no,768,legacy,35,79,C:/Users/chris/OneDrive/Desktop/CM-subject-1.csv,legacy,Lentiform Loewenfeld,3.3.3,0,s,s,s,NA,s,NA,581,54505,11767,NA,581,NA,2,legacy,1024,2,48000,-16,experiment,HHSHH,1,odd,277557,57185,212669,NA,267890,2674,272031,278663,2680,200901,NA,278771,279353,NA,278661,278771,Flanker Task,102,59544,116,yes,1024
88.03418803,88.03418803,512.3333333,512.3333333,black,legacy,legacy,legacy,0,congruent,uniform,1,undefined,1,h,116,0,0,0,116,0,116,116,0,0,0,116,116,0,116,116,Sun Sep 20 14:39:54 2020,600,The main experiment item,yes,FlankerTask.osexp,C:/Users/chris/OneDrive/Desktop,no,mono,no,18,no,white,no,no,768,legacy,36,79,C:/Users/chris/OneDrive/Desktop/CM-subject-1.csv,legacy,Lentiform Loewenfeld,3.3.3,0,h,s,s,NA,h,NA,399,54505,11767,NA,399,NA,2,legacy,1024,2,48000,-16,experiment,HHHHH,1,odd,279362,57185,212669,NA,267890,2674,272031,280465,2680,200901,NA,280571,280971,NA,280463,280570,Flanker Task,103,59943,117,yes,1024
88.13559322,88.13559322,511.0254237,511.0254237,black,legacy,legacy,legacy,0,incongruent,uniform,1,undefined,1,s,117,0,0,0,117,0,117,117,0,0,0,117,117,0,117,117,Sun Sep 20 14:39:54 2020,600,The main experiment item,yes,FlankerTask.osexp,C:/Users/chris/OneDrive/Desktop,no,mono,no,18,no,white,no,no,768,legacy,37,79,C:/Users/chris/OneDrive/Desktop/CM-subject-1.csv,legacy,Lentiform Loewenfeld,3.3.3,0,s,s,s,NA,s,NA,358,54505,11767,NA,358,NA,2,legacy,1024,2,48000,-16,experiment,HHSHH,1,odd,280979,57185,212669,NA,267890,2674,272031,282081,2680,200901,NA,282186,282546,NA,282079,282186,Flanker Task,104,60301,118,yes,1024
87.39495798,87.39495798,510.092437,510.092437,black,legacy,legacy,legacy,0,incongruent,uniform,0,undefined,0,s,118,0,0,0,118,0,118,118,0,0,0,118,118,0,118,118,Sun Sep 20 14:39:54 2020,600,The main experiment item,yes,FlankerTask.osexp,C:/Users/chris/OneDrive/Desktop,no,mono,no,18,no,white,no,no,768,legacy,38,79,C:/Users/chris/OneDrive/Desktop/CM-subject-1.csv,legacy,Lentiform Loewenfeld,3.3.3,0,h,s,s,NA,h,NA,400,54505,11767,NA,400,NA,2,legacy,1024,2,48000,-16,experiment,HHSHH,1,odd,282554,57185,212669,NA,267890,2674,272031,283665,2680,200901,NA,283770,284171,NA,283663,283770,Flanker Task,104,60701,119,yes,1024
87.5,87.5,509.2416667,509.2416667,black,legacy,legacy,legacy,0,congruent,uniform,1,undefined,1,s,119,0,0,0,119,0,119,119,0,0,0,119,119,0,119,119,Sun Sep 20 14:39:54 2020,600,The main experiment item,yes,FlankerTask.osexp,C:/Users/chris/OneDrive/Desktop,no,mono,no,18,no,white,no,no,768,legacy,39,79,C:/Users/chris/OneDrive/Desktop/CM-subject-1.csv,legacy,Lentiform Loewenfeld,3.3.3,0,s,s,s,NA,s,NA,408,54505,11767,NA,408,NA,2,legacy,1024,2,48000,-16,experiment,SSSSS,1,odd,284685,57185,212669,NA,284180,2674,272031,285790,2680,200901,NA,285895,286304,NA,285788,285895,Flanker Task,105,61109,120,yes,1024
87.60330579,87.60330579,509.7933884,509.7933884,black,legacy,legacy,legacy,0,incongruent,uniform,1,undefined,1,h,120,0,0,0,120,0,120,120,0,0,0,120,120,0,120,120,Sun Sep 20 14:39:54 2020,600,The main experiment item,yes,FlankerTask.osexp,C:/Users/chris/OneDrive/Desktop,no,mono,no,18,no,white,no,no,768,legacy,40,79,C:/Users/chris/OneDrive/Desktop/CM-subject-1.csv,legacy,Lentiform Loewenfeld,3.3.3,0,h,s,s,NA,h,NA,576,54505,11767,NA,576,NA,2,legacy,1024,2,48000,-16,experiment,SSHSS,1,odd,286313,57185,212669,NA,284180,2674,272031,287423,2680,200901,NA,287528,288108,NA,287421,287528,Flanker Task,106,61685,121,yes,1024
87.70491803,87.70491803,511.0409836,511.0409836,black,legacy,legacy,legacy,0,incongruent,uniform,1,undefined,1,h,121,0,0,0,121,0,121,121,0,0,0,121,121,0,121,121,Sun Sep 20 14:39:54 2020,600,The main experiment item,yes,FlankerTask.osexp,C:/Users/chris/OneDrive/Desktop,no,mono,no,18,no,white,no,no,768,legacy,41,79,C:/Users/chris/OneDrive/Desktop/CM-subject-1.csv,legacy,Lentiform Loewenfeld,3.3.3,0,h,s,s,NA,h,NA,662,54505,11767,NA,662,NA,2,legacy,1024,2,48000,-16,experiment,SSHSS,1,odd,288119,57185,212669,NA,284180,2674,272031,289240,2680,200901,NA,289345,290008,NA,289238,289345,Flanker Task,107,62347,122,yes,1024
87.80487805,87.80487805,510.4552846,510.4552846,black,legacy,legacy,legacy,0,congruent,uniform,1,undefined,1,h,122,0,0,0,122,0,122,122,0,0,0,122,122,0,122,122,Sun Sep 20 14:39:54 2020,600,The main experiment item,yes,FlankerTask.osexp,C:/Users/chris/OneDrive/Desktop,no,mono,no,18,no,white,no,no,768,legacy,42,79,C:/Users/chris/OneDrive/Desktop/CM-subject-1.csv,legacy,Lentiform Loewenfeld,3.3.3,0,h,s,s,NA,h,NA,439,54505,11767,NA,439,NA,2,legacy,1024,2,48000,-16,experiment,HHHHH,1,odd,290524,57185,212669,NA,284180,2674,290018,291628,2680,200901,NA,291734,292174,NA,291625,291734,Flanker Task,108,62786,123,yes,1024
87.09677419,87.09677419,510.233871,510.233871,black,legacy,legacy,legacy,0,incongruent,uniform,0,undefined,0,h,123,0,0,0,123,0,123,123,0,0,0,123,123,0,123,123,Sun Sep 20 14:39:54 2020,600,The main experiment item,yes,FlankerTask.osexp,C:/Users/chris/OneDrive/Desktop,no,mono,no,18,no,white,no,no,768,legacy,43,79,C:/Users/chris/OneDrive/Desktop/CM-subject-1.csv,legacy,Lentiform Loewenfeld,3.3.3,0,s,s,s,NA,s,NA,483,54505,11767,NA,483,NA,2,legacy,1024,2,48000,-16,experiment,SSHSS,1,odd,292183,57185,212669,NA,284180,2674,290018,293294,2680,200901,NA,293400,293885,NA,293292,293400,Flanker Task,108,63269,124,yes,1024
87.2,87.2,510.784,510.784,black,legacy,legacy,legacy,0,incongruent,uniform,1,undefined,1,s,124,0,0,0,124,0,124,124,0,0,0,124,124,0,124,124,Sun Sep 20 14:39:54 2020,600,The main experiment item,yes,FlankerTask.osexp,C:/Users/chris/OneDrive/Desktop,no,mono,no,18,no,white,no,no,768,legacy,44,79,C:/Users/chris/OneDrive/Desktop/CM-subject-1.csv,legacy,Lentiform Loewenfeld,3.3.3,0,s,s,s,NA,s,NA,579,54505,11767,NA,579,NA,2,legacy,1024,2,48000,-16,experiment,HHSHH,1,odd,294395,57185,212669,NA,293894,2674,290018,295500,2680,200901,NA,295606,296186,NA,295498,295606,Flanker Task,109,63848,125,yes,1024
86.50793651,86.50793651,509.6507937,509.6507937,black,legacy,legacy,legacy,0,incongruent,uniform,0,undefined,0,s,125,0,0,0,125,0,125,125,0,0,0,125,125,0,125,125,Sun Sep 20 14:39:54 2020,600,The main experiment item,yes,FlankerTask.osexp,C:/Users/chris/OneDrive/Desktop,no,mono,no,18,no,white,no,no,768,legacy,45,79,C:/Users/chris/OneDrive/Desktop/CM-subject-1.csv,legacy,Lentiform Loewenfeld,3.3.3,0,h,s,s,NA,h,NA,368,54505,11767,NA,368,NA,2,legacy,1024,2,48000,-16,experiment,HHSHH,1,odd,296195,57185,212669,NA,293894,2674,290018,297313,2680,200901,NA,297419,297788,NA,297311,297418,Flanker Task,109,64216,126,yes,1024
86.61417323,86.61417323,509.1574803,509.1574803,black,legacy,legacy,legacy,0,incongruent,uniform,1,undefined,1,s,126,0,0,0,126,0,126,126,0,0,0,126,126,0,126,126,Sun Sep 20 14:39:54 2020,600,The main experiment item,yes,FlankerTask.osexp,C:/Users/chris/OneDrive/Desktop,no,mono,no,18,no,white,no,no,768,legacy,46,79,C:/Users/chris/OneDrive/Desktop/CM-subject-1.csv,legacy,Lentiform Loewenfeld,3.3.3,0,s,s,s,NA,s,NA,447,54505,11767,NA,447,NA,2,legacy,1024,2,48000,-16,experiment,HHSHH,1,odd,298303,57185,212669,NA,297797,2674,290018,299430,2680,200901,NA,299536,299984,NA,299427,299535,Flanker Task,110,64663,127,yes,1024
86.71875,86.71875,508.65625,508.65625,black,legacy,legacy,legacy,0,congruent,uniform,1,undefined,1,s,127,0,0,0,127,0,127,127,0,0,0,127,127,0,127,127,Sun Sep 20 14:39:54 2020,600,The main experiment item,yes,FlankerTask.osexp,C:/Users/chris/OneDrive/Desktop,no,mono,no,18,no,white,no,no,768,legacy,47,79,C:/Users/chris/OneDrive/Desktop/CM-subject-1.csv,legacy,Lentiform Loewenfeld,3.3.3,0,s,s,s,NA,s,NA,445,54505,11767,NA,445,NA,2,legacy,1024,2,48000,-16,experiment,SSSSS,1,odd,299988,57185,212669,NA,297797,2674,290018,301096,2680,200901,NA,301202,301648,NA,301094,301201,Flanker Task,111,65108,128,yes,1024
86.82170543,86.82170543,507.6356589,507.6356589,black,legacy,legacy,legacy,0,congruent,uniform,1,undefined,1,s,128,0,0,0,128,0,128,128,0,0,0,128,128,0,128,128,Sun Sep 20 14:39:54 2020,600,The main experiment item,yes,FlankerTask.osexp,C:/Users/chris/OneDrive/Desktop,no,mono,no,18,no,white,no,no,768,legacy,48,79,C:/Users/chris/OneDrive/Desktop/CM-subject-1.csv,legacy,Lentiform Loewenfeld,3.3.3,0,s,s,s,NA,s,NA,377,54505,11767,NA,377,NA,2,legacy,1024,2,48000,-16,experiment,SSSSS,1,odd,301667,57185,212669,NA,297797,2674,290018,302797,2680,200901,NA,302902,303280,NA,302794,302902,Flanker Task,112,65485,129,yes,1024
86.92307692,86.92307692,506.6923077,506.6923077,black,legacy,legacy,legacy,0,congruent,uniform,1,undefined,1,h,129,0,0,0,129,0,129,129,0,0,0,129,129,0,129,129,Sun Sep 20 14:39:54 2020,600,The main experiment item,yes,FlankerTask.osexp,C:/Users/chris/OneDrive/Desktop,no,mono,no,18,no,white,no,no,768,legacy,49,79,C:/Users/chris/OneDrive/Desktop/CM-subject-1.csv,legacy,Lentiform Loewenfeld,3.3.3,0,h,s,s,NA,h,NA,385,54505,11767,NA,385,NA,2,legacy,1024,2,48000,-16,experiment,HHHHH,1,odd,303289,57185,212669,NA,297797,2674,290018,304396,2680,200901,NA,304503,304889,NA,304393,304502,Flanker Task,113,65870,130,yes,1024
87.02290076,87.02290076,506.6564885,506.6564885,black,legacy,legacy,legacy,0,incongruent,uniform,1,undefined,1,s,130,0,0,0,130,0,130,130,0,0,0,130,130,0,130,130,Sun Sep 20 14:39:54 2020,600,The main experiment item,yes,FlankerTask.osexp,C:/Users/chris/OneDrive/Desktop,no,mono,no,18,no,white,no,no,768,legacy,50,79,C:/Users/chris/OneDrive/Desktop/CM-subject-1.csv,legacy,Lentiform Loewenfeld,3.3.3,0,s,s,s,NA,s,NA,502,54505,11767,NA,502,NA,2,legacy,1024,2,48000,-16,experiment,HHSHH,1,odd,304899,57185,212669,NA,297797,2674,290018,305990,2680,200901,NA,306096,306600,NA,305988,306096,Flanker Task,114,66372,131,yes,1024
87.12121212,87.12121212,507.0075758,507.0075758,black,legacy,legacy,legacy,0,incongruent,uniform,1,undefined,1,h,131,0,0,0,131,0,131,131,0,0,0,131,131,0,131,131,Sun Sep 20 14:39:54 2020,600,The main experiment item,yes,FlankerTask.osexp,C:/Users/chris/OneDrive/Desktop,no,mono,no,18,no,white,no,no,768,legacy,51,79,C:/Users/chris/OneDrive/Desktop/CM-subject-1.csv,legacy,Lentiform Loewenfeld,3.3.3,0,h,s,s,NA,h,NA,553,54505,11767,NA,553,NA,2,legacy,1024,2,48000,-16,experiment,SSHSS,1,odd,306609,57185,212669,NA,297797,2674,290018,307724,2680,200901,NA,307830,308385,NA,307721,307829,Flanker Task,115,66925,132,yes,1024
86.46616541,86.46616541,505.9473684,505.9473684,black,legacy,legacy,legacy,0,incongruent,uniform,0,undefined,0,h,132,0,0,0,132,0,132,132,0,0,0,132,132,0,132,132,Sun Sep 20 14:39:54 2020,600,The main experiment item,yes,FlankerTask.osexp,C:/Users/chris/OneDrive/Desktop,no,mono,no,18,no,white,no,no,768,legacy,52,79,C:/Users/chris/OneDrive/Desktop/CM-subject-1.csv,legacy,Lentiform Loewenfeld,3.3.3,0,s,s,s,NA,s,NA,366,54505,11767,NA,366,NA,2,legacy,1024,2,48000,-16,experiment,SSHSS,1,odd,308393,57185,212669,NA,297797,2674,290018,309503,2680,200901,NA,309608,309975,NA,309501,309608,Flanker Task,115,67291,133,yes,1024
86.56716418,86.56716418,506.6044776,506.6044776,black,legacy,legacy,legacy,0,congruent,uniform,1,undefined,1,s,133,0,0,0,133,0,133,133,0,0,0,133,133,0,133,133,Sun Sep 20 14:39:54 2020,600,The main experiment item,yes,FlankerTask.osexp,C:/Users/chris/OneDrive/Desktop,no,mono,no,18,no,white,no,no,768,legacy,53,79,C:/Users/chris/OneDrive/Desktop/CM-subject-1.csv,legacy,Lentiform Loewenfeld,3.3.3,0,s,s,s,NA,s,NA,594,54505,11767,NA,594,NA,2,legacy,1024,2,48000,-16,experiment,SSSSS,1,odd,310497,57185,212669,NA,309992,2674,290018,311594,2680,200901,NA,311698,312293,NA,311592,311698,Flanker Task,116,67885,134,yes,1024
86.66666667,86.66666667,506.4592593,506.4592593,black,legacy,legacy,legacy,0,congruent,uniform,1,undefined,1,h,134,0,0,0,134,0,134,134,0,0,0,134,134,0,134,134,Sun Sep 20 14:39:54 2020,600,The main experiment item,yes,FlankerTask.osexp,C:/Users/chris/OneDrive/Desktop,no,mono,no,18,no,white,no,no,768,legacy,54,79,C:/Users/chris/OneDrive/Desktop/CM-subject-1.csv,legacy,Lentiform Loewenfeld,3.3.3,0,h,s,s,NA,h,NA,487,54505,11767,NA,487,NA,2,legacy,1024,2,48000,-16,experiment,HHHHH,1,odd,312302,57185,212669,NA,309992,2674,290018,313405,2680,200901,NA,313510,313998,NA,313402,313510,Flanker Task,117,68372,135,yes,1024
86.76470588,86.76470588,506.1102941,506.1102941,black,legacy,legacy,legacy,0,congruent,uniform,1,undefined,1,h,135,0,0,0,135,0,135,135,0,0,0,135,135,0,135,135,Sun Sep 20 14:39:54 2020,600,The main experiment item,yes,FlankerTask.osexp,C:/Users/chris/OneDrive/Desktop,no,mono,no,18,no,white,no,no,768,legacy,55,79,C:/Users/chris/OneDrive/Desktop/CM-subject-1.csv,legacy,Lentiform Loewenfeld,3.3.3,0,h,s,s,NA,h,NA,459,54505,11767,NA,459,NA,2,legacy,1024,2,48000,-16,experiment,HHHHH,1,odd,314007,57185,212669,NA,309992,2674,290018,315129,2680,200901,NA,315234,315695,NA,315126,315234,Flanker Task,118,68831,136,yes,1024
86.86131387,86.86131387,505.729927,505.729927,black,legacy,legacy,legacy,0,congruent,uniform,1,undefined,1,h,136,0,0,0,136,0,136,136,0,0,0,136,136,0,136,136,Sun Sep 20 14:39:54 2020,600,The main experiment item,yes,FlankerTask.osexp,C:/Users/chris/OneDrive/Desktop,no,mono,no,18,no,white,no,no,768,legacy,56,79,C:/Users/chris/OneDrive/Desktop/CM-subject-1.csv,legacy,Lentiform Loewenfeld,3.3.3,0,h,s,s,NA,h,NA,454,54505,11767,NA,454,NA,2,legacy,1024,2,48000,-16,experiment,HHHHH,1,odd,315704,57185,212669,NA,309992,2674,290018,316814,2680,200901,NA,316919,317375,NA,316812,316919,Flanker Task,119,69285,137,yes,1024
86.95652174,86.95652174,505.1594203,505.1594203,black,legacy,legacy,legacy,0,congruent,uniform,1,undefined,1,h,137,0,0,0,137,0,137,137,0,0,0,137,137,0,137,137,Sun Sep 20 14:39:54 2020,600,The main experiment item,yes,FlankerTask.osexp,C:/Users/chris/OneDrive/Desktop,no,mono,no,18,no,white,no,no,768,legacy,57,79,C:/Users/chris/OneDrive/Desktop/CM-subject-1.csv,legacy,Lentiform Loewenfeld,3.3.3,0,h,s,s,NA,h,NA,427,54505,11767,NA,427,NA,2,legacy,1024,2,48000,-16,experiment,HHHHH,1,odd,317384,57185,212669,NA,309992,2674,290018,318497,2680,200901,NA,318602,319030,NA,318495,318602,Flanker Task,120,69712,138,yes,1024
87.05035971,87.05035971,505.4964029,505.4964029,black,legacy,legacy,legacy,0,congruent,uniform,1,undefined,1,s,138,0,0,0,138,0,138,138,0,0,0,138,138,0,138,138,Sun Sep 20 14:39:54 2020,600,The main experiment item,yes,FlankerTask.osexp,C:/Users/chris/OneDrive/Desktop,no,mono,no,18,no,white,no,no,768,legacy,58,79,C:/Users/chris/OneDrive/Desktop/CM-subject-1.csv,legacy,Lentiform Loewenfeld,3.3.3,0,s,s,s,NA,s,NA,552,54505,11767,NA,552,NA,2,legacy,1024,2,48000,-16,experiment,SSSSS,1,odd,319039,57185,212669,NA,309992,2674,290018,320146,2680,200901,NA,320251,320804,NA,320143,320251,Flanker Task,121,70264,139,yes,1024
87.14285714,87.14285714,505.1142857,505.1142857,black,legacy,legacy,legacy,0,congruent,uniform,1,undefined,1,h,139,0,0,0,139,0,139,139,0,0,0,139,139,0,139,139,Sun Sep 20 14:39:54 2020,600,The main experiment item,yes,FlankerTask.osexp,C:/Users/chris/OneDrive/Desktop,no,mono,no,18,no,white,no,no,768,legacy,59,79,C:/Users/chris/OneDrive/Desktop/CM-subject-1.csv,legacy,Lentiform Loewenfeld,3.3.3,0,h,s,s,NA,h,NA,452,54505,11767,NA,452,NA,2,legacy,1024,2,48000,-16,experiment,HHHHH,1,odd,320813,57185,212669,NA,309992,2674,290018,321919,2680,200901,NA,322024,322478,NA,321916,322023,Flanker Task,122,70716,140,yes,1024
87.23404255,87.23404255,507.0496454,507.0496454,black,legacy,legacy,legacy,0,incongruent,uniform,1,undefined,1,h,140,0,0,0,140,0,140,140,0,0,0,140,140,0,140,140,Sun Sep 20 14:39:54 2020,600,The main experiment item,yes,FlankerTask.osexp,C:/Users/chris/OneDrive/Desktop,no,mono,no,18,no,white,no,no,768,legacy,60,79,C:/Users/chris/OneDrive/Desktop/CM-subject-1.csv,legacy,Lentiform Loewenfeld,3.3.3,0,h,s,s,NA,h,NA,778,54505,11767,NA,778,NA,2,legacy,1024,2,48000,-16,experiment,SSHSS,1,odd,322488,57185,212669,NA,309992,2674,290018,323592,2680,200901,NA,323697,324476,NA,323589,323697,Flanker Task,123,71494,141,yes,1024
87.32394366,87.32394366,506.8521127,506.8521127,black,legacy,legacy,legacy,0,incongruent,uniform,1,undefined,1,h,141,0,0,0,141,0,141,141,0,0,0,141,141,0,141,141,Sun Sep 20 14:39:54 2020,600,The main experiment item,yes,FlankerTask.osexp,C:/Users/chris/OneDrive/Desktop,no,mono,no,18,no,white,no,no,768,legacy,61,79,C:/Users/chris/OneDrive/Desktop/CM-subject-1.csv,legacy,Lentiform Loewenfeld,3.3.3,0,h,s,s,NA,h,NA,479,54505,11767,NA,479,NA,2,legacy,1024,2,48000,-16,experiment,SSHSS,1,odd,324991,57185,212669,NA,309992,2674,324486,326089,2680,200901,NA,326194,326674,NA,326087,326194,Flanker Task,124,71973,142,yes,1024
87.41258741,87.41258741,507.8111888,507.8111888,black,legacy,legacy,legacy,0,incongruent,uniform,1,undefined,1,s,142,0,0,0,142,0,142,142,0,0,0,142,142,0,142,142,Sun Sep 20 14:39:54 2020,600,The main experiment item,yes,FlankerTask.osexp,C:/Users/chris/OneDrive/Desktop,no,mono,no,18,no,white,no,no,768,legacy,62,79,C:/Users/chris/OneDrive/Desktop/CM-subject-1.csv,legacy,Lentiform Loewenfeld,3.3.3,0,s,s,s,NA,s,NA,644,54505,11767,NA,644,NA,2,legacy,1024,2,48000,-16,experiment,HHSHH,1,odd,326682,57185,212669,NA,309992,2674,324486,327777,2680,200901,NA,327882,328528,NA,327774,327882,Flanker Task,125,72617,143,yes,1024
87.5,87.5,508.2847222,508.2847222,black,legacy,legacy,legacy,0,incongruent,uniform,1,undefined,1,h,143,0,0,0,143,0,143,143,0,0,0,143,143,0,143,143,Sun Sep 20 14:39:54 2020,600,The main experiment item,yes,FlankerTask.osexp,C:/Users/chris/OneDrive/Desktop,no,mono,no,18,no,white,no,no,768,legacy,63,79,C:/Users/chris/OneDrive/Desktop/CM-subject-1.csv,legacy,Lentiform Loewenfeld,3.3.3,0,h,s,s,NA,h,NA,576,54505,11767,NA,576,NA,2,legacy,1024,2,48000,-16,experiment,SSHSS,1,odd,329043,57185,212669,NA,309992,2674,328537,330140,2680,200901,NA,330245,330822,NA,330137,330245,Flanker Task,126,73193,144,yes,1024
87.5862069,87.5862069,507.3517241,507.3517241,black,legacy,legacy,legacy,0,congruent,uniform,1,undefined,1,s,144,0,0,0,144,0,144,144,0,0,0,144,144,0,144,144,Sun Sep 20 14:39:54 2020,600,The main experiment item,yes,FlankerTask.osexp,C:/Users/chris/OneDrive/Desktop,no,mono,no,18,no,white,no,no,768,legacy,64,79,C:/Users/chris/OneDrive/Desktop/CM-subject-1.csv,legacy,Lentiform Loewenfeld,3.3.3,0,s,s,s,NA,s,NA,373,54505,11767,NA,373,NA,2,legacy,1024,2,48000,-16,experiment,SSSSS,1,odd,330831,57185,212669,NA,309992,2674,328537,331924,2680,200901,NA,332030,332404,NA,331922,332030,Flanker Task,127,73566,145,yes,1024
86.98630137,86.98630137,506.7465753,506.7465753,black,legacy,legacy,legacy,0,congruent,uniform,0,undefined,0,h,145,0,0,0,145,0,145,145,0,0,0,145,145,0,145,145,Sun Sep 20 14:39:54 2020,600,The main experiment item,yes,FlankerTask.osexp,C:/Users/chris/OneDrive/Desktop,no,mono,no,18,no,white,no,no,768,legacy,65,79,C:/Users/chris/OneDrive/Desktop/CM-subject-1.csv,legacy,Lentiform Loewenfeld,3.3.3,0,s,s,s,NA,s,NA,419,54505,11767,NA,419,NA,2,legacy,1024,2,48000,-16,experiment,HHHHH,1,odd,332409,57185,212669,NA,309992,2674,328537,333511,2680,200901,NA,333616,334037,NA,333508,333616,Flanker Task,127,73985,146,yes,1024
87.07482993,87.07482993,506.5102041,506.5102041,black,legacy,legacy,legacy,0,congruent,uniform,1,undefined,1,s,146,0,0,0,146,0,146,146,0,0,0,146,146,0,146,146,Sun Sep 20 14:39:54 2020,600,The main experiment item,yes,FlankerTask.osexp,C:/Users/chris/OneDrive/Desktop,no,mono,no,18,no,white,no,no,768,legacy,66,79,C:/Users/chris/OneDrive/Desktop/CM-subject-1.csv,legacy,Lentiform Loewenfeld,3.3.3,0,s,s,s,NA,s,NA,472,54505,11767,NA,472,NA,2,legacy,1024,2,48000,-16,experiment,SSSSS,1,odd,334551,57185,212669,NA,334046,2674,328537,335653,2680,200901,NA,335759,336232,NA,335651,335759,Flanker Task,128,74457,147,yes,1024
86.48648649,86.48648649,505.75,505.75,black,legacy,legacy,legacy,0,incongruent,uniform,0,undefined,0,h,147,0,0,0,147,0,147,147,0,0,0,147,147,0,147,147,Sun Sep 20 14:39:54 2020,600,The main experiment item,yes,FlankerTask.osexp,C:/Users/chris/OneDrive/Desktop,no,mono,no,18,no,white,no,no,768,legacy,67,79,C:/Users/chris/OneDrive/Desktop/CM-subject-1.csv,legacy,Lentiform Loewenfeld,3.3.3,0,s,s,s,NA,s,NA,394,54505,11767,NA,394,NA,2,legacy,1024,2,48000,-16,experiment,SSHSS,1,odd,336241,57185,212669,NA,334046,2674,328537,337331,2680,200901,NA,337437,337833,NA,337329,337436,Flanker Task,128,74851,148,yes,1024
86.57718121,86.57718121,506.2818792,506.2818792,black,legacy,legacy,legacy,0,congruent,uniform,1,undefined,1,h,148,0,0,0,148,0,148,148,0,0,0,148,148,0,148,148,Sun Sep 20 14:39:54 2020,600,The main experiment item,yes,FlankerTask.osexp,C:/Users/chris/OneDrive/Desktop,no,mono,no,18,no,white,no,no,768,legacy,68,79,C:/Users/chris/OneDrive/Desktop/CM-subject-1.csv,legacy,Lentiform Loewenfeld,3.3.3,0,h,s,s,NA,h,NA,585,54505,11767,NA,585,NA,2,legacy,1024,2,48000,-16,experiment,HHHHH,1,odd,338342,57185,212669,NA,337837,2674,328537,339461,2680,200901,NA,339566,340152,NA,339458,339566,Flanker Task,129,75436,149,yes,1024
86.66666667,86.66666667,505.9866667,505.9866667,black,legacy,legacy,legacy,0,congruent,uniform,1,undefined,1,s,149,0,0,0,149,0,149,149,0,0,0,149,149,0,149,149,Sun Sep 20 14:39:54 2020,600,The main experiment item,yes,FlankerTask.osexp,C:/Users/chris/OneDrive/Desktop,no,mono,no,18,no,white,no,no,768,legacy,69,79,C:/Users/chris/OneDrive/Desktop/CM-subject-1.csv,legacy,Lentiform Loewenfeld,3.3.3,0,s,s,s,NA,s,NA,462,54505,11767,NA,462,NA,2,legacy,1024,2,48000,-16,experiment,SSSSS,1,odd,340161,57185,212669,NA,337837,2674,328537,341246,2680,200901,NA,341351,341814,NA,341244,341351,Flanker Task,130,75898,150,yes,1024
86.75496689,86.75496689,505.589404,505.589404,black,legacy,legacy,legacy,0,congruent,uniform,1,undefined,1,s,150,0,0,0,150,0,150,150,0,0,0,150,150,0,150,150,Sun Sep 20 14:39:54 2020,600,The main experiment item,yes,FlankerTask.osexp,C:/Users/chris/OneDrive/Desktop,no,mono,no,18,no,white,no,no,768,legacy,70,79,C:/Users/chris/OneDrive/Desktop/CM-subject-1.csv,legacy,Lentiform Loewenfeld,3.3.3,0,s,s,s,NA,s,NA,446,54505,11767,NA,446,NA,2,legacy,1024,2,48000,-16,experiment,SSSSS,1,odd,341823,57185,212669,NA,337837,2674,328537,342926,2680,200901,NA,343031,343478,NA,342924,343031,Flanker Task,131,76344,151,yes,1024
86.84210526,86.84210526,505.5065789,505.5065789,black,legacy,legacy,legacy,0,congruent,uniform,1,undefined,1,h,151,0,0,0,151,0,151,151,0,0,0,151,151,0,151,151,Sun Sep 20 14:39:54 2020,600,The main experiment item,yes,FlankerTask.osexp,C:/Users/chris/OneDrive/Desktop,no,mono,no,18,no,white,no,no,768,legacy,71,79,C:/Users/chris/OneDrive/Desktop/CM-subject-1.csv,legacy,Lentiform Loewenfeld,3.3.3,0,h,s,s,NA,h,NA,493,54505,11767,NA,493,NA,2,legacy,1024,2,48000,-16,experiment,HHHHH,1,odd,343487,57185,212669,NA,337837,2674,328537,344608,2680,200901,NA,344713,345207,NA,344606,344713,Flanker Task,132,76837,152,yes,1024
86.92810458,86.92810458,505.6797386,505.6797386,black,legacy,legacy,legacy,0,congruent,uniform,1,undefined,1,h,152,0,0,0,152,0,152,152,0,0,0,152,152,0,152,152,Sun Sep 20 14:39:54 2020,600,The main experiment item,yes,FlankerTask.osexp,C:/Users/chris/OneDrive/Desktop,no,mono,no,18,no,white,no,no,768,legacy,72,79,C:/Users/chris/OneDrive/Desktop/CM-subject-1.csv,legacy,Lentiform Loewenfeld,3.3.3,0,h,s,s,NA,h,NA,532,54505,11767,NA,532,NA,2,legacy,1024,2,48000,-16,experiment,HHHHH,1,odd,345216,57185,212669,NA,337837,2674,328537,346376,2680,200901,NA,346481,347014,NA,346374,346481,Flanker Task,133,77369,153,yes,1024
87.01298701,87.01298701,506.0519481,506.0519481,black,legacy,legacy,legacy,0,incongruent,uniform,1,undefined,1,s,153,0,0,0,153,0,153,153,0,0,0,153,153,0,153,153,Sun Sep 20 14:39:54 2020,600,The main experiment item,yes,FlankerTask.osexp,C:/Users/chris/OneDrive/Desktop,no,mono,no,18,no,white,no,no,768,legacy,73,79,C:/Users/chris/OneDrive/Desktop/CM-subject-1.csv,legacy,Lentiform Loewenfeld,3.3.3,0,s,s,s,NA,s,NA,563,54505,11767,NA,563,NA,2,legacy,1024,2,48000,-16,experiment,HHSHH,1,odd,347023,57185,212669,NA,337837,2674,328537,348134,2680,200901,NA,348239,348804,NA,348132,348239,Flanker Task,134,77932,154,yes,1024
86.4516129,86.4516129,506.5483871,506.5483871,black,legacy,legacy,legacy,0,incongruent,uniform,0,undefined,0,s,154,0,0,0,154,0,154,154,0,0,0,154,154,0,154,154,Sun Sep 20 14:39:54 2020,600,The main experiment item,yes,FlankerTask.osexp,C:/Users/chris/OneDrive/Desktop,no,mono,no,18,no,white,no,no,768,legacy,74,79,C:/Users/chris/OneDrive/Desktop/CM-subject-1.csv,legacy,Lentiform Loewenfeld,3.3.3,0,h,s,s,NA,h,NA,583,54505,11767,NA,583,NA,2,legacy,1024,2,48000,-16,experiment,HHSHH,1,odd,348813,57185,212669,NA,337837,2674,328537,349915,2680,200901,NA,350020,350605,NA,349913,350020,Flanker Task,134,78515,155,yes,1024
86.53846154,86.53846154,508.8205128,508.8205128,black,legacy,legacy,legacy,0,incongruent,uniform,1,undefined,1,h,155,0,0,0,155,0,155,155,0,0,0,155,155,0,155,155,Sun Sep 20 14:39:54 2020,600,The main experiment item,yes,FlankerTask.osexp,C:/Users/chris/OneDrive/Desktop,no,mono,no,18,no,white,no,no,768,legacy,75,79,C:/Users/chris/OneDrive/Desktop/CM-subject-1.csv,legacy,Lentiform Loewenfeld,3.3.3,0,h,s,s,NA,h,NA,861,54505,11767,NA,861,NA,2,legacy,1024,2,48000,-16,experiment,SSHSS,1,odd,351119,57185,212669,NA,350614,2674,328537,352217,2680,200901,NA,352322,353185,NA,352214,352322,Flanker Task,135,79376,156,yes,1024
86.62420382,86.62420382,508.3248408,508.3248408,black,legacy,legacy,legacy,0,congruent,uniform,1,undefined,1,h,156,0,0,0,156,0,156,156,0,0,0,156,156,0,156,156,Sun Sep 20 14:39:54 2020,600,The main experiment item,yes,FlankerTask.osexp,C:/Users/chris/OneDrive/Desktop,no,mono,no,18,no,white,no,no,768,legacy,76,79,C:/Users/chris/OneDrive/Desktop/CM-subject-1.csv,legacy,Lentiform Loewenfeld,3.3.3,0,h,s,s,NA,h,NA,431,54505,11767,NA,431,NA,2,legacy,1024,2,48000,-16,experiment,HHHHH,1,odd,353699,57185,212669,NA,350614,2674,353194,354821,2680,200901,NA,354926,355358,NA,354819,354926,Flanker Task,136,79807,157,yes,1024
86.70886076,86.70886076,509.0063291,509.0063291,black,legacy,legacy,legacy,0,incongruent,uniform,1,undefined,1,s,157,0,0,0,157,0,157,157,0,0,0,157,157,0,157,157,Sun Sep 20 14:39:54 2020,600,The main experiment item,yes,FlankerTask.osexp,C:/Users/chris/OneDrive/Desktop,no,mono,no,18,no,white,no,no,768,legacy,77,79,C:/Users/chris/OneDrive/Desktop/CM-subject-1.csv,legacy,Lentiform Loewenfeld,3.3.3,0,s,s,s,NA,s,NA,616,54505,11767,NA,616,NA,2,legacy,1024,2,48000,-16,experiment,HHSHH,1,odd,355367,57185,212669,NA,350614,2674,353194,356481,2680,200901,NA,356586,357204,NA,356478,356586,Flanker Task,137,80423,158,yes,1024
86.79245283,86.79245283,509.2327044,509.2327044,black,legacy,legacy,legacy,0,incongruent,uniform,1,undefined,1,s,158,0,0,0,158,0,158,158,0,0,0,158,158,0,158,158,Sun Sep 20 14:39:54 2020,600,The main experiment item,yes,FlankerTask.osexp,C:/Users/chris/OneDrive/Desktop,no,mono,no,18,no,white,no,no,768,legacy,78,79,C:/Users/chris/OneDrive/Desktop/CM-subject-1.csv,legacy,Lentiform Loewenfeld,3.3.3,0,s,s,s,NA,s,NA,545,54505,11767,NA,545,NA,2,legacy,1024,2,48000,-16,experiment,HHSHH,1,odd,357728,57185,212669,NA,350614,2674,357213,358878,2680,200901,NA,358983,359530,NA,358876,358983,Flanker Task,138,80968,159,yes,1024
86.875,86.875,509.3,509.3,black,legacy,legacy,legacy,0,congruent,uniform,1,undefined,1,s,159,0,0,0,159,0,159,159,0,0,0,159,159,0,159,159,Sun Sep 20 14:39:54 2020,600,The main experiment item,yes,FlankerTask.osexp,C:/Users/chris/OneDrive/Desktop,no,mono,no,18,no,white,no,no,768,legacy,79,79,C:/Users/chris/OneDrive/Desktop/CM-subject-1.csv,legacy,Lentiform Loewenfeld,3.3.3,0,s,s,s,NA,s,NA,520,54505,11767,NA,520,NA,2,legacy,1024,2,48000,-16,experiment,SSSSS,1,odd,359539,57185,212669,NA,350614,2674,357213,360647,2680,200901,NA,360752,361273,NA,360645,360752,Flanker Task,139,81488,160,yes,1024
86.33540373,86.33540373,515.4534161,515.4534161,black,legacy,legacy,legacy,0,incongruent,uniform,0,undefined,0,h,160,0,0,0,160,0,160,160,0,0,0,160,160,0,160,160,Sun Sep 20 14:39:54 2020,300,The main experiment item,yes,FlankerTask.osexp,C:/Users/chris/OneDrive/Desktop,no,mono,no,18,no,white,no,no,768,legacy,0,79,C:/Users/chris/OneDrive/Desktop/CM-subject-1.csv,legacy,Lentiform Loewenfeld,3.3.3,0,None,s,s,return,None,NA,1500,54505,11767,9958,1500,NA,2,legacy,1024,2,48000,-16,experiment,SSHSS,1,odd,361282,57185,212669,372291,350614,2674,357213,372354,2680,200901,362332,372460,373961,NA,372352,372459,Flanker Task,139,82988,161,yes,1024
86.41975309,86.41975309,516.7592593,516.7592593,black,legacy,legacy,legacy,0,incongruent,uniform,1,undefined,1,h,161,0,0,0,161,0,161,161,0,0,0,161,161,0,161,161,Sun Sep 20 14:39:54 2020,300,The main experiment item,yes,FlankerTask.osexp,C:/Users/chris/OneDrive/Desktop,no,mono,no,18,no,white,no,no,768,legacy,1,79,C:/Users/chris/OneDrive/Desktop/CM-subject-1.csv,legacy,Lentiform Loewenfeld,3.3.3,0,h,s,s,return,h,NA,727,54505,11767,9958,727,NA,2,legacy,1024,2,48000,-16,experiment,SSHSS,1,odd,374981,57185,212669,372291,373969,2674,374474,376109,2680,200901,362332,376214,376942,NA,376106,376214,Flanker Task,140,83715,162,yes,1024
86.50306748,86.50306748,516.8588957,516.8588957,black,legacy,legacy,legacy,0,incongruent,uniform,1,undefined,1,h,162,0,0,0,162,0,162,162,0,0,0,162,162,0,162,162,Sun Sep 20 14:39:54 2020,300,The main experiment item,yes,FlankerTask.osexp,C:/Users/chris/OneDrive/Desktop,no,mono,no,18,no,white,no,no,768,legacy,2,79,C:/Users/chris/OneDrive/Desktop/CM-subject-1.csv,legacy,Lentiform Loewenfeld,3.3.3,0,h,s,s,return,h,NA,533,54505,11767,9958,533,NA,2,legacy,1024,2,48000,-16,experiment,SSHSS,1,odd,377452,57185,212669,372291,373969,2674,376951,378548,2680,200901,362332,378653,379188,NA,378545,378653,Flanker Task,141,84248,163,yes,1024
