"acc","accuracy","average_response_time","avg_rt","background","canvas_backend","clock_backend","color_backend","compensation","condition","coordinates","correct","correct_Instructions1","correct_Keyboard_Response","correct_response","count_ErrorFeedback","count_FasterFeedback","count_Finish","count_Fixation","count_ISI","count_Instructions1","count_Instructions2","count_Instructions3","count_Keyboard_Response","count_Logger","count_Sequence","count_Stimulus","count_block1","count_block2","count_block3","count_experiment","datetime","deadline","description","disable_garbage_collection","experiment_file","experiment_path","font_bold","font_family","font_italic","font_size","font_underline","foreground","form_clicks","fullscreen","height","keyboard_backend","live_row","live_row_block1","logfile","mouse_backend","opensesame_codename","opensesame_version","repeat_cycle","response","response_Finish","response_Instructions1","response_Instructions2","response_Instructions3","response_Keyboard_Response","response_time","response_time_Finish","response_time_Instructions1","response_time_Instructions2","response_time_Instructions3","response_time_Keyboard_Response","round_decimals","sampler_backend","sound_buf_size","sound_channels","sound_freq","sound_sample_size","start","stimulus","subject_nr","subject_parity","time_ErrorFeedback","time_FasterFeedback","time_Finish","time_Fixation","time_ISI","time_Instructions1","time_Instructions2","time_Instructions3","time_Keyboard_Response","time_Logger","time_Sequence","time_Stimulus","time_block1","time_block2","time_block3","time_experiment","title","total_correct","total_response_time","total_responses","uniform_coordinates","width"
"100","100","881","881","black","legacy","legacy","legacy","0","congruent","uniform","1","undefined","1","s","0","0","0","0","0","0","0","0","0","0","0","0","0","0","0","0","09/25/22 20:44:12","1500","The main experiment item","yes","FlankerTask.osexp","C:/Users/saudm/OneDrive/Desktop","no","mono","no","18","no","white","no","yes","768","legacy","0","0","C:/Users/saudm/OneDrive/Desktop/MK-subject-1.csv","legacy","Lentiform Loewenfeld","3.3.12","0","s","NA","s","NA","NA","s","881","NA","29463","NA","NA","881","2","legacy","1024","2","48000","-16","experiment","SSSSS","1","odd","NA","NA","NA","31837","NA","2304","NA","NA","31942","32823","31836","31939","31779","NA","NA","2299","Flanker Task ","1","881","1","yes","1024"
"100","100","947","947","black","legacy","legacy","legacy","0","incongruent","uniform","1","undefined","1","s","1","1","0","1","1","0","0","0","1","1","1","1","0","0","0","0","09/25/22 20:44:12","1500","The main experiment item","yes","FlankerTask.osexp","C:/Users/saudm/OneDrive/Desktop","no","mono","no","18","no","white","no","yes","768","legacy","1","1","C:/Users/saudm/OneDrive/Desktop/MK-subject-1.csv","legacy","Lentiform Loewenfeld","3.3.12","0","s","NA","s","NA","NA","s","1013","NA","29463","NA","NA","1013","2","legacy","1024","2","48000","-16","experiment","HHSHH","1","odd","NA","NA","NA","33874","32838","2304","NA","NA","33975","34990","33873","33975","31779","NA","NA","2299","Flanker Task ","2","1894","2","yes","1024"
"100","100","817.666666667","817.666666667","black","legacy","legacy","legacy","0","incongruent","uniform","1","undefined","1","h","2","2","0","2","2","0","0","0","2","2","2","2","0","0","0","0","09/25/22 20:44:12","1500","The main experiment item","yes","FlankerTask.osexp","C:/Users/saudm/OneDrive/Desktop","no","mono","no","18","no","white","no","yes","768","legacy","2","2","C:/Users/saudm/OneDrive/Desktop/MK-subject-1.csv","legacy","Lentiform Loewenfeld","3.3.12","0","h","NA","s","NA","NA","h","559","NA","29463","NA","NA","559","2","legacy","1024","2","48000","-16","experiment","SSHSS","1","odd","NA","NA","NA","36039","35001","2304","NA","NA","36142","36701","36038","36141","31779","NA","NA","2299","Flanker Task ","3","2453","3","yes","1024"
"100","100","741","741","black","legacy","legacy","legacy","0","congruent","uniform","1","undefined","1","h","3","3","0","3","3","0","0","0","3","3","3","3","0","0","0","0","09/25/22 20:44:12","1500","The main experiment item","yes","FlankerTask.osexp","C:/Users/saudm/OneDrive/Desktop","no","mono","no","18","no","white","no","yes","768","legacy","3","3","C:/Users/saudm/OneDrive/Desktop/MK-subject-1.csv","legacy","Lentiform Loewenfeld","3.3.12","0","h","NA","s","NA","NA","h","511","NA","29463","NA","NA","511","2","legacy","1024","2","48000","-16","experiment","HHHHH","1","odd","NA","NA","NA","37749","36714","2304","NA","NA","37849","38361","37748","37849","31779","NA","NA","2299","Flanker Task ","4","2964","4","yes","1024"
"100","100","706.6","706.6","black","legacy","legacy","legacy","0","congruent","uniform","1","undefined","1","s","4","4","0","4","4","0","0","0","4","4","4","4","0","0","0","0","09/25/22 20:44:12","1500","The main experiment item","yes","FlankerTask.osexp","C:/Users/saudm/OneDrive/Desktop","no","mono","no","18","no","white","no","yes","768","legacy","4","4","C:/Users/saudm/OneDrive/Desktop/MK-subject-1.csv","legacy","Lentiform Loewenfeld","3.3.12","0","s","NA","s","NA","NA","s","569","NA","29463","NA","NA","569","2","legacy","1024","2","48000","-16","experiment","SSSSS","1","odd","NA","NA","NA","39433","38366","2304","NA","NA","39534","40103","39430","39534","31779","NA","NA","2299","Flanker Task ","5","3533","5","yes","1024"
"100","100","670","670","black","legacy","legacy","legacy","0","incongruent","uniform","1","undefined","1","h","5","5","0","5","5","0","0","0","5","5","5","5","0","0","0","0","09/25/22 20:44:12","1500","The main experiment item","yes","FlankerTask.osexp","C:/Users/saudm/OneDrive/Desktop","no","mono","no","18","no","white","no","yes","768","legacy","5","5","C:/Users/saudm/OneDrive/Desktop/MK-subject-1.csv","legacy","Lentiform Loewenfeld","3.3.12","0","h","NA","s","NA","NA","h","487","NA","29463","NA","NA","487","2","legacy","1024","2","48000","-16","experiment","SSHSS","1","odd","NA","NA","NA","41156","40108","2304","NA","NA","41257","41744","41154","41257","31779","NA","NA","2299","Flanker Task ","6","4020","6","yes","1024"
"100","100","642.428571429","642.428571429","black","legacy","legacy","legacy","0","incongruent","uniform","1","undefined","1","h","6","6","0","6","6","0","0","0","6","6","6","6","0","0","0","0","09/25/22 20:44:12","1500","The main experiment item","yes","FlankerTask.osexp","C:/Users/saudm/OneDrive/Desktop","no","mono","no","18","no","white","no","yes","768","legacy","6","6","C:/Users/saudm/OneDrive/Desktop/MK-subject-1.csv","legacy","Lentiform Loewenfeld","3.3.12","0","h","NA","s","NA","NA","h","477","NA","29463","NA","NA","477","2","legacy","1024","2","48000","-16","experiment","SSHSS","1","odd","NA","NA","NA","42802","41747","2304","NA","NA","42903","43380","42800","42903","31779","NA","NA","2299","Flanker Task ","7","4497","7","yes","1024"
"100","100","640.875","640.875","black","legacy","legacy","legacy","0","congruent","uniform","1","undefined","1","s","7","7","0","7","7","0","0","0","7","7","7","7","0","0","0","0","09/25/22 20:44:12","1500","The main experiment item","yes","FlankerTask.osexp","C:/Users/saudm/OneDrive/Desktop","no","mono","no","18","no","white","no","yes","768","legacy","7","7","C:/Users/saudm/OneDrive/Desktop/MK-subject-1.csv","legacy","Lentiform Loewenfeld","3.3.12","0","s","NA","s","NA","NA","s","630","NA","29463","NA","NA","630","2","legacy","1024","2","48000","-16","experiment","SSSSS","1","odd","NA","NA","NA","44443","43384","2304","NA","NA","44544","45175","44441","44544","31779","NA","NA","2299","Flanker Task ","8","5127","8","yes","1024"
"100","100","614.666666667","614.666666667","black","legacy","legacy","legacy","0","congruent","uniform","1","undefined","1","s","8","8","0","8","8","0","0","0","8","8","8","8","0","0","0","0","09/25/22 20:44:12","1500","The main experiment item","yes","FlankerTask.osexp","C:/Users/saudm/OneDrive/Desktop","no","mono","no","18","no","white","no","yes","768","legacy","8","8","C:/Users/saudm/OneDrive/Desktop/MK-subject-1.csv","legacy","Lentiform Loewenfeld","3.3.12","0","s","NA","s","NA","NA","s","405","NA","29463","NA","NA","405","2","legacy","1024","2","48000","-16","experiment","SSSSS","1","odd","NA","NA","NA","46226","45178","2304","NA","NA","46327","46732","46224","46327","31779","NA","NA","2299","Flanker Task ","9","5532","9","yes","1024"
"100","100","591.7","591.7","black","legacy","legacy","legacy","0","incongruent","uniform","1","undefined","1","s","9","9","0","9","9","0","0","0","9","9","9","9","0","0","0","0","09/25/22 20:44:12","1500","The main experiment item","yes","FlankerTask.osexp","C:/Users/saudm/OneDrive/Desktop","no","mono","no","18","no","white","no","yes","768","legacy","9","9","C:/Users/saudm/OneDrive/Desktop/MK-subject-1.csv","legacy","Lentiform Loewenfeld","3.3.12","0","s","NA","s","NA","NA","s","385","NA","29463","NA","NA","385","2","legacy","1024","2","48000","-16","experiment","HHSHH","1","odd","NA","NA","NA","47787","46735","2304","NA","NA","47888","48273","47785","47888","31779","NA","NA","2299","Flanker Task ","10","5917","10","yes","1024"
"100","100","571","571","black","legacy","legacy","legacy","0","incongruent","uniform","1","undefined","1","s","10","10","0","10","10","0","0","0","10","10","10","10","0","0","0","0","09/25/22 20:44:12","1500","The main experiment item","yes","FlankerTask.osexp","C:/Users/saudm/OneDrive/Desktop","no","mono","no","18","no","white","no","yes","768","legacy","10","10","C:/Users/saudm/OneDrive/Desktop/MK-subject-1.csv","legacy","Lentiform Loewenfeld","3.3.12","0","s","NA","s","NA","NA","s","364","NA","29463","NA","NA","364","2","legacy","1024","2","48000","-16","experiment","HHSHH","1","odd","NA","NA","NA","49337","48277","2304","NA","NA","49438","49802","49335","49438","31779","NA","NA","2299","Flanker Task ","11","6281","11","yes","1024"
"100","100","547.666666667","547.666666667","black","legacy","legacy","legacy","0","congruent","uniform","1","undefined","1","s","11","11","0","11","11","0","0","0","11","11","11","11","0","0","0","0","09/25/22 20:44:12","1500","The main experiment item","yes","FlankerTask.osexp","C:/Users/saudm/OneDrive/Desktop","no","mono","no","18","no","white","no","yes","768","legacy","11","11","C:/Users/saudm/OneDrive/Desktop/MK-subject-1.csv","legacy","Lentiform Loewenfeld","3.3.12","0","s","NA","s","NA","NA","s","291","NA","29463","NA","NA","291","2","legacy","1024","2","48000","-16","experiment","SSSSS","1","odd","NA","NA","NA","50860","49806","2304","NA","NA","50961","51252","50856","50961","31779","NA","NA","2299","Flanker Task ","12","6572","12","yes","1024"
"92.3076923077","92.3076923077","523.692307692","523.692307692","black","legacy","legacy","legacy","0","incongruent","uniform","0","undefined","0","h","12","12","0","12","12","0","0","0","12","12","12","12","0","0","0","0","09/25/22 20:44:12","1500","The main experiment item","yes","FlankerTask.osexp","C:/Users/saudm/OneDrive/Desktop","no","mono","no","18","no","white","no","yes","768","legacy","12","12","C:/Users/saudm/OneDrive/Desktop/MK-subject-1.csv","legacy","Lentiform Loewenfeld","3.3.12","0","s","NA","s","NA","NA","s","236","NA","29463","NA","NA","236","2","legacy","1024","2","48000","-16","experiment","SSHSS","1","odd","NA","NA","NA","52308","51256","2304","NA","NA","52409","52645","52306","52409","31779","NA","NA","2299","Flanker Task ","12","6808","13","yes","1024"
"92.8571428571","92.8571428571","523.785714286","523.785714286","black","legacy","legacy","legacy","0","incongruent","uniform","1","undefined","1","h","13","13","0","13","13","0","0","0","13","13","13","13","0","0","0","0","09/25/22 20:44:12","1500","The main experiment item","yes","FlankerTask.osexp","C:/Users/saudm/OneDrive/Desktop","no","mono","no","18","no","white","no","yes","768","legacy","13","13","C:/Users/saudm/OneDrive/Desktop/MK-subject-1.csv","legacy","Lentiform Loewenfeld","3.3.12","0","h","NA","s","NA","NA","h","525","NA","29463","NA","NA","525","2","legacy","1024","2","48000","-16","experiment","SSHSS","1","odd","52649","NA","NA","54214","53151","2304","NA","NA","54316","54841","54212","54316","31779","NA","NA","2299","Flanker Task ","13","7333","14","yes","1024"
"93.3333333333","93.3333333333","525.533333333","525.533333333","black","legacy","legacy","legacy","0","incongruent","uniform","1","undefined","1","s","14","14","0","14","14","0","0","0","14","14","14","14","0","0","0","0","09/25/22 20:44:12","1500","The main experiment item","yes","FlankerTask.osexp","C:/Users/saudm/OneDrive/Desktop","no","mono","no","18","no","white","no","yes","768","legacy","14","14","C:/Users/saudm/OneDrive/Desktop/MK-subject-1.csv","legacy","Lentiform Loewenfeld","3.3.12","0","s","NA","s","NA","NA","s","550","NA","29463","NA","NA","550","2","legacy","1024","2","48000","-16","experiment","HHSHH","1","odd","52649","NA","NA","55889","54844","2304","NA","NA","55990","56540","55886","55990","31779","NA","NA","2299","Flanker Task ","14","7883","15","yes","1024"
"93.75","93.75","512.875","512.875","black","legacy","legacy","legacy","0","incongruent","uniform","1","undefined","1","h","15","15","0","15","15","0","0","0","15","15","15","15","0","0","0","0","09/25/22 20:44:12","1500","The main experiment item","yes","FlankerTask.osexp","C:/Users/saudm/OneDrive/Desktop","no","mono","no","18","no","white","no","yes","768","legacy","15","15","C:/Users/saudm/OneDrive/Desktop/MK-subject-1.csv","legacy","Lentiform Loewenfeld","3.3.12","0","h","NA","s","NA","NA","h","323","NA","29463","NA","NA","323","2","legacy","1024","2","48000","-16","experiment","SSHSS","1","odd","52649","NA","NA","57587","56543","2304","NA","NA","57689","58013","57586","57689","31779","NA","NA","2299","Flanker Task ","15","8206","16","yes","1024"
"94.1176470588","94.1176470588","508.117647059","508.117647059","black","legacy","legacy","legacy","0","congruent","uniform","1","undefined","1","h","16","16","0","16","16","0","0","0","16","16","16","16","0","0","0","0","09/25/22 20:44:12","1500","The main experiment item","yes","FlankerTask.osexp","C:/Users/saudm/OneDrive/Desktop","no","mono","no","18","no","white","no","yes","768","legacy","16","16","C:/Users/saudm/OneDrive/Desktop/MK-subject-1.csv","legacy","Lentiform Loewenfeld","3.3.12","0","h","NA","s","NA","NA","h","432","NA","29463","NA","NA","432","2","legacy","1024","2","48000","-16","experiment","HHHHH","1","odd","52649","NA","NA","59059","58016","2304","NA","NA","59160","59593","59058","59160","31779","NA","NA","2299","Flanker Task ","16","8638","17","yes","1024"
"88.8888888889","88.8888888889","499.333333333","499.333333333","black","legacy","legacy","legacy","0","congruent","uniform","0","undefined","0","s","17","17","0","17","17","0","0","0","17","17","17","17","0","0","0","0","09/25/22 20:44:12","1500","The main experiment item","yes","FlankerTask.osexp","C:/Users/saudm/OneDrive/Desktop","no","mono","no","18","no","white","no","yes","768","legacy","17","17","C:/Users/saudm/OneDrive/Desktop/MK-subject-1.csv","legacy","Lentiform Loewenfeld","3.3.12","0","h","NA","s","NA","NA","h","350","NA","29463","NA","NA","350","2","legacy","1024","2","48000","-16","experiment","SSSSS","1","odd","52649","NA","NA","60646","59597","2304","NA","NA","60747","61097","60644","60747","31779","NA","NA","2299","Flanker Task ","16","8988","18","yes","1024"
"89.4736842105","89.4736842105","498.736842105","498.736842105","black","legacy","legacy","legacy","0","incongruent","uniform","1","undefined","1","s","18","18","0","18","18","0","0","0","18","18","18","18","0","0","0","0","09/25/22 20:44:12","1500","The main experiment item","yes","FlankerTask.osexp","C:/Users/saudm/OneDrive/Desktop","no","mono","no","18","no","white","no","yes","768","legacy","18","18","C:/Users/saudm/OneDrive/Desktop/MK-subject-1.csv","legacy","Lentiform Loewenfeld","3.3.12","0","s","NA","s","NA","NA","s","488","NA","29463","NA","NA","488","2","legacy","1024","2","48000","-16","experiment","HHSHH","1","odd","61100","NA","NA","62663","61601","2304","NA","NA","62764","63252","62659","62763","31779","NA","NA","2299","Flanker Task ","17","9476","19","yes","1024"
"90","90","491.45","491.45","black","legacy","legacy","legacy","0","incongruent","uniform","1","undefined","1","s","19","19","0","19","19","0","0","0","19","19","19","19","0","0","0","0","09/25/22 20:44:12","1500","The main experiment item","yes","FlankerTask.osexp","C:/Users/saudm/OneDrive/Desktop","no","mono","no","18","no","white","no","yes","768","legacy","19","19","C:/Users/saudm/OneDrive/Desktop/MK-subject-1.csv","legacy","Lentiform Loewenfeld","3.3.12","0","s","NA","s","NA","NA","s","353","NA","29463","NA","NA","353","2","legacy","1024","2","48000","-16","experiment","HHSHH","1","odd","61100","NA","NA","64300","63256","2304","NA","NA","64401","64754","64298","64401","31779","NA","NA","2299","Flanker Task ","18","9829","20","yes","1024"
"85.7142857143","85.7142857143","485.80952381","485.80952381","black","legacy","legacy","legacy","0","congruent","uniform","0","undefined","0","h","20","20","0","20","20","0","0","0","20","20","20","20","0","0","0","0","09/25/22 20:44:12","1500","The main experiment item","yes","FlankerTask.osexp","C:/Users/saudm/OneDrive/Desktop","no","mono","no","18","no","white","no","yes","768","legacy","20","20","C:/Users/saudm/OneDrive/Desktop/MK-subject-1.csv","legacy","Lentiform Loewenfeld","3.3.12","0","s","NA","s","NA","NA","s","373","NA","29463","NA","NA","373","2","legacy","1024","2","48000","-16","experiment","HHHHH","1","odd","61100","NA","NA","65798","64756","2304","NA","NA","65899","66273","65796","65899","31779","NA","NA","2299","Flanker Task ","18","10202","21","yes","1024"
"86.3636363636","86.3636363636","482.954545455","482.954545455","black","legacy","legacy","legacy","0","congruent","uniform","1","undefined","1","h","21","21","0","21","21","0","0","0","21","21","21","21","0","0","0","0","09/25/22 20:44:12","1500","The main experiment item","yes","FlankerTask.osexp","C:/Users/saudm/OneDrive/Desktop","no","mono","no","18","no","white","no","yes","768","legacy","21","21","C:/Users/saudm/OneDrive/Desktop/MK-subject-1.csv","legacy","Lentiform Loewenfeld","3.3.12","0","h","NA","s","NA","NA","h","423","NA","29463","NA","NA","423","2","legacy","1024","2","48000","-16","experiment","HHHHH","1","odd","66276","NA","NA","67823","66777","2304","NA","NA","67924","68347","67821","67924","31779","NA","NA","2299","Flanker Task ","19","10625","22","yes","1024"
"86.9565217391","86.9565217391","485.869565217","485.869565217","black","legacy","legacy","legacy","0","incongruent","uniform","1","undefined","1","s","22","22","0","22","22","0","0","0","22","22","22","22","0","0","0","0","09/25/22 20:44:12","1500","The main experiment item","yes","FlankerTask.osexp","C:/Users/saudm/OneDrive/Desktop","no","mono","no","18","no","white","no","yes","768","legacy","22","22","C:/Users/saudm/OneDrive/Desktop/MK-subject-1.csv","legacy","Lentiform Loewenfeld","3.3.12","0","s","NA","s","NA","NA","s","550","NA","29463","NA","NA","550","2","legacy","1024","2","48000","-16","experiment","HHSHH","1","odd","66276","NA","NA","69416","68349","2304","NA","NA","69517","70068","69414","69517","31779","NA","NA","2299","Flanker Task ","20","11175","23","yes","1024"
"87.5","87.5","486.875","486.875","black","legacy","legacy","legacy","0","incongruent","uniform","1","undefined","1","h","23","23","0","23","23","0","0","0","23","23","23","23","0","0","0","0","09/25/22 20:44:12","1500","The main experiment item","yes","FlankerTask.osexp","C:/Users/saudm/OneDrive/Desktop","no","mono","no","18","no","white","no","yes","768","legacy","23","23","C:/Users/saudm/OneDrive/Desktop/MK-subject-1.csv","legacy","Lentiform Loewenfeld","3.3.12","0","h","NA","s","NA","NA","h","510","NA","29463","NA","NA","510","2","legacy","1024","2","48000","-16","experiment","SSHSS","1","odd","66276","NA","NA","71116","70071","2304","NA","NA","71217","71727","71115","71217","31779","NA","NA","2299","Flanker Task ","21","11685","24","yes","1024"
"84","84","482.96","482.96","black","legacy","legacy","legacy","0","incongruent","uniform","0","undefined","0","h","24","24","0","24","24","0","0","0","24","24","24","24","0","0","0","0","09/25/22 20:44:12","1500","The main experiment item","yes","FlankerTask.osexp","C:/Users/saudm/OneDrive/Desktop","no","mono","no","18","no","white","no","yes","768","legacy","24","24","C:/Users/saudm/OneDrive/Desktop/MK-subject-1.csv","legacy","Lentiform Loewenfeld","3.3.12","0","s","NA","s","NA","NA","s","389","NA","29463","NA","NA","389","2","legacy","1024","2","48000","-16","experiment","SSHSS","1","odd","66276","NA","NA","72769","71730","2304","NA","NA","72871","73260","72767","72871","31779","NA","NA","2299","Flanker Task ","21","12074","25","yes","1024"
"84.6153846154","84.6153846154","485.269230769","485.269230769","black","legacy","legacy","legacy","0","congruent","uniform","1","undefined","1","h","25","25","0","25","25","0","0","0","25","25","25","25","0","0","0","0","09/25/22 20:44:12","1500","The main experiment item","yes","FlankerTask.osexp","C:/Users/saudm/OneDrive/Desktop","no","mono","no","18","no","white","no","yes","768","legacy","25","25","C:/Users/saudm/OneDrive/Desktop/MK-subject-1.csv","legacy","Lentiform Loewenfeld","3.3.12","0","h","NA","s","NA","NA","h","543","NA","29463","NA","NA","543","2","legacy","1024","2","48000","-16","experiment","HHHHH","1","odd","73263","NA","NA","74800","73764","2304","NA","NA","74902","75445","74799","74902","31779","NA","NA","2299","Flanker Task ","22","12617","26","yes","1024"
"85.1851851852","85.1851851852","491.222222222","491.222222222","black","legacy","legacy","legacy","0","incongruent","uniform","1","undefined","1","s","26","26","0","26","26","0","0","0","26","26","26","26","0","0","0","0","09/25/22 20:44:12","1500","The main experiment item","yes","FlankerTask.osexp","C:/Users/saudm/OneDrive/Desktop","no","mono","no","18","no","white","no","yes","768","legacy","26","26","C:/Users/saudm/OneDrive/Desktop/MK-subject-1.csv","legacy","Lentiform Loewenfeld","3.3.12","0","s","NA","s","NA","NA","s","646","NA","29463","NA","NA","646","2","legacy","1024","2","48000","-16","experiment","HHSHH","1","odd","73263","NA","NA","76493","75452","2304","NA","NA","76594","77241","76491","76594","31779","NA","NA","2299","Flanker Task ","23","13263","27","yes","1024"
"82.1428571429","82.1428571429","490.607142857","490.607142857","black","legacy","legacy","legacy","0","incongruent","uniform","0","undefined","0","s","27","27","0","27","27","0","0","0","27","27","27","27","0","0","0","0","09/25/22 20:44:12","1500","The main experiment item","yes","FlankerTask.osexp","C:/Users/saudm/OneDrive/Desktop","no","mono","no","18","no","white","no","yes","768","legacy","27","27","C:/Users/saudm/OneDrive/Desktop/MK-subject-1.csv","legacy","Lentiform Loewenfeld","3.3.12","0","h","NA","s","NA","NA","h","474","NA","29463","NA","NA","474","2","legacy","1024","2","48000","-16","experiment","HHSHH","1","odd","73263","NA","NA","78287","77243","2304","NA","NA","78388","78863","78285","78388","31779","NA","NA","2299","Flanker Task ","23","13737","28","yes","1024"
"82.7586206897","82.7586206897","492.206896552","492.206896552","black","legacy","legacy","legacy","0","congruent","uniform","1","undefined","1","s","28","28","0","28","28","0","0","0","28","28","28","28","0","0","0","0","09/25/22 20:44:12","1500","The main experiment item","yes","FlankerTask.osexp","C:/Users/saudm/OneDrive/Desktop","no","mono","no","18","no","white","no","yes","768","legacy","28","28","C:/Users/saudm/OneDrive/Desktop/MK-subject-1.csv","legacy","Lentiform Loewenfeld","3.3.12","0","s","NA","s","NA","NA","s","537","NA","29463","NA","NA","537","2","legacy","1024","2","48000","-16","experiment","SSSSS","1","odd","78868","NA","NA","80420","79369","2304","NA","NA","80521","81058","80418","80521","31779","NA","NA","2299","Flanker Task ","24","14274","29","yes","1024"
"83.3333333333","83.3333333333","495.766666667","495.766666667","black","legacy","legacy","legacy","0","incongruent","uniform","1","undefined","1","s","29","29","0","29","29","0","0","0","29","29","29","29","0","0","0","0","09/25/22 20:44:12","1500","The main experiment item","yes","FlankerTask.osexp","C:/Users/saudm/OneDrive/Desktop","no","mono","no","18","no","white","no","yes","768","legacy","29","29","C:/Users/saudm/OneDrive/Desktop/MK-subject-1.csv","legacy","Lentiform Loewenfeld","3.3.12","0","s","NA","s","NA","NA","s","599","NA","29463","NA","NA","599","2","legacy","1024","2","48000","-16","experiment","HHSHH","1","odd","78868","NA","NA","82098","81065","2304","NA","NA","82200","82799","82097","82200","31779","NA","NA","2299","Flanker Task ","25","14873","30","yes","1024"
"83.8709677419","83.8709677419","500.032258065","500.032258065","black","legacy","legacy","legacy","0","congruent","uniform","1","undefined","1","s","30","30","0","30","30","0","0","0","30","30","30","30","0","0","0","0","09/25/22 20:44:12","1500","The main experiment item","yes","FlankerTask.osexp","C:/Users/saudm/OneDrive/Desktop","no","mono","no","18","no","white","no","yes","768","legacy","30","30","C:/Users/saudm/OneDrive/Desktop/MK-subject-1.csv","legacy","Lentiform Loewenfeld","3.3.12","0","s","NA","s","NA","NA","s","628","NA","29463","NA","NA","628","2","legacy","1024","2","48000","-16","experiment","SSSSS","1","odd","78868","NA","NA","83838","82801","2304","NA","NA","83939","84567","83835","83938","31779","NA","NA","2299","Flanker Task ","26","15501","31","yes","1024"
"84.375","84.375","509.40625","509.40625","black","legacy","legacy","legacy","0","congruent","uniform","1","undefined","1","h","31","31","0","31","31","0","0","0","31","31","31","31","0","0","0","0","09/25/22 20:44:12","1500","The main experiment item","yes","FlankerTask.osexp","C:/Users/saudm/OneDrive/Desktop","no","mono","no","18","no","white","no","yes","768","legacy","31","31","C:/Users/saudm/OneDrive/Desktop/MK-subject-1.csv","legacy","Lentiform Loewenfeld","3.3.12","0","h","NA","s","NA","NA","h","800","NA","29463","NA","NA","800","2","legacy","1024","2","48000","-16","experiment","HHHHH","1","odd","78868","NA","NA","85612","84577","2304","NA","NA","85714","86514","85611","85714","31779","NA","NA","2299","Flanker Task ","27","16301","32","yes","1024"
"84.8484848485","84.8484848485","522.878787879","522.878787879","black","legacy","legacy","legacy","0","congruent","uniform","1","undefined","1","s","32","32","0","32","32","0","0","0","32","32","32","32","0","0","0","0","09/25/22 20:44:12","1500","The main experiment item","yes","FlankerTask.osexp","C:/Users/saudm/OneDrive/Desktop","no","mono","no","18","no","white","no","yes","768","legacy","32","32","C:/Users/saudm/OneDrive/Desktop/MK-subject-1.csv","legacy","Lentiform Loewenfeld","3.3.12","0","s","NA","s","NA","NA","s","954","NA","29463","NA","NA","954","2","legacy","1024","2","48000","-16","experiment","SSSSS","1","odd","78868","NA","NA","87566","86528","2304","NA","NA","87667","88622","87564","87667","31779","NA","NA","2299","Flanker Task ","28","17255","33","yes","1024"
"85.2941176471","85.2941176471","537.176470588","537.176470588","black","legacy","legacy","legacy","0","congruent","uniform","1","undefined","1","h","33","33","0","33","33","0","0","0","33","33","33","33","0","0","0","0","09/25/22 20:44:12","1500","The main experiment item","yes","FlankerTask.osexp","C:/Users/saudm/OneDrive/Desktop","no","mono","no","18","no","white","no","yes","768","legacy","33","33","C:/Users/saudm/OneDrive/Desktop/MK-subject-1.csv","legacy","Lentiform Loewenfeld","3.3.12","0","h","NA","s","NA","NA","h","1009","NA","29463","NA","NA","1009","2","legacy","1024","2","48000","-16","experiment","HHHHH","1","odd","78868","NA","NA","89663","88625","2304","NA","NA","89764","90773","89661","89764","31779","NA","NA","2299","Flanker Task ","29","18264","34","yes","1024"
"85.7142857143","85.7142857143","545.542857143","545.542857143","black","legacy","legacy","legacy","0","incongruent","uniform","1","undefined","1","s","34","34","0","34","34","0","0","0","34","34","34","34","0","0","0","0","09/25/22 20:44:12","1500","The main experiment item","yes","FlankerTask.osexp","C:/Users/saudm/OneDrive/Desktop","no","mono","no","18","no","white","no","yes","768","legacy","34","34","C:/Users/saudm/OneDrive/Desktop/MK-subject-1.csv","legacy","Lentiform Loewenfeld","3.3.12","0","s","NA","s","NA","NA","s","830","NA","29463","NA","NA","830","2","legacy","1024","2","48000","-16","experiment","HHSHH","1","odd","78868","NA","NA","91818","90776","2304","NA","NA","91919","92750","91816","91919","31779","NA","NA","2299","Flanker Task ","30","19094","35","yes","1024"
"83.3333333333","83.3333333333","561.055555556","561.055555556","black","legacy","legacy","legacy","0","incongruent","uniform","0","undefined","0","s","35","35","0","35","35","0","0","0","35","35","35","35","0","0","0","0","09/25/22 20:44:12","1500","The main experiment item","yes","FlankerTask.osexp","C:/Users/saudm/OneDrive/Desktop","no","mono","no","18","no","white","no","yes","768","legacy","35","35","C:/Users/saudm/OneDrive/Desktop/MK-subject-1.csv","legacy","Lentiform Loewenfeld","3.3.12","0","h","NA","s","NA","NA","h","1104","NA","29463","NA","NA","1104","2","legacy","1024","2","48000","-16","experiment","HHSHH","1","odd","78868","NA","NA","93798","92762","2304","NA","NA","93899","95003","93796","93899","31779","NA","NA","2299","Flanker Task ","30","20198","36","yes","1024"
"83.7837837838","83.7837837838","561.162162162","561.162162162","black","legacy","legacy","legacy","0","incongruent","uniform","1","undefined","1","s","36","36","0","36","36","0","0","0","36","36","36","36","0","0","0","0","09/25/22 20:44:12","1500","The main experiment item","yes","FlankerTask.osexp","C:/Users/saudm/OneDrive/Desktop","no","mono","no","18","no","white","no","yes","768","legacy","36","36","C:/Users/saudm/OneDrive/Desktop/MK-subject-1.csv","legacy","Lentiform Loewenfeld","3.3.12","0","s","NA","s","NA","NA","s","565","NA","29463","NA","NA","565","2","legacy","1024","2","48000","-16","experiment","HHSHH","1","odd","95015","NA","NA","96551","95516","2304","NA","NA","96652","97218","96549","96652","31779","NA","NA","2299","Flanker Task ","31","20763","37","yes","1024"
"84.2105263158","84.2105263158","562.447368421","562.447368421","black","legacy","legacy","legacy","0","congruent","uniform","1","undefined","1","h","37","37","0","37","37","0","0","0","37","37","37","37","0","0","0","0","09/25/22 20:44:12","1500","The main experiment item","yes","FlankerTask.osexp","C:/Users/saudm/OneDrive/Desktop","no","mono","no","18","no","white","no","yes","768","legacy","37","37","C:/Users/saudm/OneDrive/Desktop/MK-subject-1.csv","legacy","Lentiform Loewenfeld","3.3.12","0","h","NA","s","NA","NA","h","610","NA","29463","NA","NA","610","2","legacy","1024","2","48000","-16","experiment","HHHHH","1","odd","95015","NA","NA","98267","97230","2304","NA","NA","98368","98978","98265","98368","31779","NA","NA","2299","Flanker Task ","32","21373","38","yes","1024"
"84.6153846154","84.6153846154","557.769230769","557.769230769","black","legacy","legacy","legacy","0","incongruent","uniform","1","undefined","1","s","38","38","0","38","38","0","0","0","38","38","38","38","0","0","0","0","09/25/22 20:44:12","1500","The main experiment item","yes","FlankerTask.osexp","C:/Users/saudm/OneDrive/Desktop","no","mono","no","18","no","white","no","yes","768","legacy","38","38","C:/Users/saudm/OneDrive/Desktop/MK-subject-1.csv","legacy","Lentiform Loewenfeld","3.3.12","0","s","NA","s","NA","NA","s","380","NA","29463","NA","NA","380","2","legacy","1024","2","48000","-16","experiment","HHSHH","1","odd","95015","NA","NA","100024","98981","2304","NA","NA","100125","100505","100022","100125","31779","NA","NA","2299","Flanker Task ","33","21753","39","yes","1024"
"85","85","557.525","557.525","black","legacy","legacy","legacy","0","incongruent","uniform","1","undefined","1","h","39","39","0","39","39","0","0","0","39","39","39","39","0","0","0","0","09/25/22 20:44:12","1500","The main experiment item","yes","FlankerTask.osexp","C:/Users/saudm/OneDrive/Desktop","no","mono","no","18","no","white","no","yes","768","legacy","39","39","C:/Users/saudm/OneDrive/Desktop/MK-subject-1.csv","legacy","Lentiform Loewenfeld","3.3.12","0","h","NA","s","NA","NA","h","548","NA","29463","NA","NA","548","2","legacy","1024","2","48000","-16","experiment","SSHSS","1","odd","95015","NA","NA","101555","100517","2304","NA","NA","101656","102204","101552","101656","31779","NA","NA","2299","Flanker Task ","34","22301","40","yes","1024"
"85.3658536585","85.3658536585","555.682926829","555.682926829","black","legacy","legacy","legacy","0","congruent","uniform","1","undefined","1","h","40","40","0","40","40","0","0","0","40","40","40","40","0","0","0","0","09/25/22 20:44:12","1500","The main experiment item","yes","FlankerTask.osexp","C:/Users/saudm/OneDrive/Desktop","no","mono","no","18","no","white","no","yes","768","legacy","40","40","C:/Users/saudm/OneDrive/Desktop/MK-subject-1.csv","legacy","Lentiform Loewenfeld","3.3.12","0","h","NA","s","NA","NA","h","482","NA","29463","NA","NA","482","2","legacy","1024","2","48000","-16","experiment","HHHHH","1","odd","95015","NA","NA","103251","102217","2304","NA","NA","103352","103834","103251","103352","31779","NA","NA","2299","Flanker Task ","35","22783","41","yes","1024"
"85.7142857143","85.7142857143","551.952380952","551.952380952","black","legacy","legacy","legacy","0","congruent","uniform","1","undefined","1","h","41","41","0","41","41","0","0","0","41","41","41","41","0","0","0","0","09/25/22 20:44:12","1500","The main experiment item","yes","FlankerTask.osexp","C:/Users/saudm/OneDrive/Desktop","no","mono","no","18","no","white","no","yes","768","legacy","41","41","C:/Users/saudm/OneDrive/Desktop/MK-subject-1.csv","legacy","Lentiform Loewenfeld","3.3.12","0","h","NA","s","NA","NA","h","399","NA","29463","NA","NA","399","2","legacy","1024","2","48000","-16","experiment","HHHHH","1","odd","95015","NA","NA","104881","103847","2304","NA","NA","104983","105382","104879","104983","31779","NA","NA","2299","Flanker Task ","36","23182","42","yes","1024"
"86.0465116279","86.0465116279","549.093023256","549.093023256","black","legacy","legacy","legacy","0","incongruent","uniform","1","undefined","1","s","42","42","0","42","42","0","0","0","42","42","42","42","0","0","0","0","09/25/22 20:44:12","1500","The main experiment item","yes","FlankerTask.osexp","C:/Users/saudm/OneDrive/Desktop","no","mono","no","18","no","white","no","yes","768","legacy","42","42","C:/Users/saudm/OneDrive/Desktop/MK-subject-1.csv","legacy","Lentiform Loewenfeld","3.3.12","0","s","NA","s","NA","NA","s","429","NA","29463","NA","NA","429","2","legacy","1024","2","48000","-16","experiment","HHSHH","1","odd","95015","NA","NA","106431","105385","2304","NA","NA","106533","106962","106429","106533","31779","NA","NA","2299","Flanker Task ","37","23611","43","yes","1024"
"86.3636363636","86.3636363636","544.977272727","544.977272727","black","legacy","legacy","legacy","0","incongruent","uniform","1","undefined","1","h","43","43","0","43","43","0","0","0","43","43","43","43","0","0","0","0","09/25/22 20:44:12","1500","The main experiment item","yes","FlankerTask.osexp","C:/Users/saudm/OneDrive/Desktop","no","mono","no","18","no","white","no","yes","768","legacy","43","43","C:/Users/saudm/OneDrive/Desktop/MK-subject-1.csv","legacy","Lentiform Loewenfeld","3.3.12","0","h","NA","s","NA","NA","h","368","NA","29463","NA","NA","368","2","legacy","1024","2","48000","-16","experiment","SSHSS","1","odd","95015","NA","NA","108000","106964","2304","NA","NA","108101","108470","107998","108101","31779","NA","NA","2299","Flanker Task ","38","23979","44","yes","1024"
"84.4444444444","84.4444444444","566.2","566.2","black","legacy","legacy","legacy","0","incongruent","uniform","0","undefined","0","s","44","44","0","44","44","0","0","0","44","44","44","44","0","0","0","0","09/25/22 20:44:12","1500","The main experiment item","yes","FlankerTask.osexp","C:/Users/saudm/OneDrive/Desktop","no","mono","no","18","no","white","no","yes","768","legacy","44","44","C:/Users/saudm/OneDrive/Desktop/MK-subject-1.csv","legacy","Lentiform Loewenfeld","3.3.12","0","None","NA","s","NA","NA","None","1500","NA","29463","NA","NA","1500","2","legacy","1024","2","48000","-16","experiment","HHSHH","1","odd","95015","NA","NA","109510","108473","2304","NA","NA","109611","111111","109507","109611","31779","NA","NA","2299","Flanker Task ","38","25479","45","yes","1024"
"84.7826086957","84.7826086957","573.130434783","573.130434783","black","legacy","legacy","legacy","0","congruent","uniform","1","undefined","1","s","45","45","0","45","45","0","0","0","45","45","45","45","0","0","0","0","09/25/22 20:44:12","1500","The main experiment item","yes","FlankerTask.osexp","C:/Users/saudm/OneDrive/Desktop","no","mono","no","18","no","white","no","yes","768","legacy","45","45","C:/Users/saudm/OneDrive/Desktop/MK-subject-1.csv","legacy","Lentiform Loewenfeld","3.3.12","0","s","NA","s","NA","NA","s","885","NA","29463","NA","NA","885","2","legacy","1024","2","48000","-16","experiment","SSSSS","1","odd","111123","NA","NA","112659","111624","2304","NA","NA","112760","113646","112657","112760","31779","NA","NA","2299","Flanker Task ","39","26364","46","yes","1024"
"85.1063829787","85.1063829787","579.085106383","579.085106383","black","legacy","legacy","legacy","0","congruent","uniform","1","undefined","1","h","46","46","0","46","46","0","0","0","46","46","46","46","0","0","0","0","09/25/22 20:44:12","1500","The main experiment item","yes","FlankerTask.osexp","C:/Users/saudm/OneDrive/Desktop","no","mono","no","18","no","white","no","yes","768","legacy","46","46","C:/Users/saudm/OneDrive/Desktop/MK-subject-1.csv","legacy","Lentiform Loewenfeld","3.3.12","0","h","NA","s","NA","NA","h","853","NA","29463","NA","NA","853","2","legacy","1024","2","48000","-16","experiment","HHHHH","1","odd","111123","NA","NA","114692","113658","2304","NA","NA","114793","115648","114691","114793","31779","NA","NA","2299","Flanker Task ","40","27217","47","yes","1024"
"85.4166666667","85.4166666667","574.979166667","574.979166667","black","legacy","legacy","legacy","0","incongruent","uniform","1","undefined","1","h","47","47","0","47","47","0","0","0","47","47","47","47","0","0","0","0","09/25/22 20:44:12","1500","The main experiment item","yes","FlankerTask.osexp","C:/Users/saudm/OneDrive/Desktop","no","mono","no","18","no","white","no","yes","768","legacy","47","47","C:/Users/saudm/OneDrive/Desktop/MK-subject-1.csv","legacy","Lentiform Loewenfeld","3.3.12","0","h","NA","s","NA","NA","h","382","NA","29463","NA","NA","382","2","legacy","1024","2","48000","-16","experiment","SSHSS","1","odd","111123","NA","NA","116694","115660","2304","NA","NA","116796","117178","116693","116796","31779","NA","NA","2299","Flanker Task ","41","27599","48","yes","1024"
"85.7142857143","85.7142857143","573.387755102","573.387755102","black","legacy","legacy","legacy","0","congruent","uniform","1","undefined","1","h","48","48","0","48","48","0","0","0","48","48","48","48","0","0","0","0","09/25/22 20:44:12","1500","The main experiment item","yes","FlankerTask.osexp","C:/Users/saudm/OneDrive/Desktop","no","mono","no","18","no","white","no","yes","768","legacy","48","48","C:/Users/saudm/OneDrive/Desktop/MK-subject-1.csv","legacy","Lentiform Loewenfeld","3.3.12","0","h","NA","s","NA","NA","h","497","NA","29463","NA","NA","497","2","legacy","1024","2","48000","-16","experiment","HHHHH","1","odd","111123","NA","NA","118224","117190","2304","NA","NA","118325","118823","118222","118325","31779","NA","NA","2299","Flanker Task ","42","28096","49","yes","1024"
"86","86","573.32","573.32","black","legacy","legacy","legacy","0","incongruent","uniform","1","undefined","1","s","49","49","0","49","49","0","0","0","49","49","49","49","0","0","0","0","09/25/22 20:44:12","1500","The main experiment item","yes","FlankerTask.osexp","C:/Users/saudm/OneDrive/Desktop","no","mono","no","18","no","white","no","yes","768","legacy","49","49","C:/Users/saudm/OneDrive/Desktop/MK-subject-1.csv","legacy","Lentiform Loewenfeld","3.3.12","0","s","NA","s","NA","NA","s","570","NA","29463","NA","NA","570","2","legacy","1024","2","48000","-16","experiment","HHSHH","1","odd","111123","NA","NA","119868","118835","2304","NA","NA","119970","120540","119867","119970","31779","NA","NA","2299","Flanker Task ","43","28666","50","yes","1024"
"86.2745098039","86.2745098039","571.745098039","571.745098039","black","legacy","legacy","legacy","0","incongruent","uniform","1","undefined","1","h","50","50","0","50","50","0","0","0","50","50","50","50","0","0","0","0","09/25/22 20:44:12","1500","The main experiment item","yes","FlankerTask.osexp","C:/Users/saudm/OneDrive/Desktop","no","mono","no","18","no","white","no","yes","768","legacy","50","50","C:/Users/saudm/OneDrive/Desktop/MK-subject-1.csv","legacy","Lentiform Loewenfeld","3.3.12","0","h","NA","s","NA","NA","h","493","NA","29463","NA","NA","493","2","legacy","1024","2","48000","-16","experiment","SSHSS","1","odd","111123","NA","NA","121579","120543","2304","NA","NA","121681","122174","121577","121681","31779","NA","NA","2299","Flanker Task ","44","29159","51","yes","1024"
"86.5384615385","86.5384615385","571.961538462","571.961538462","black","legacy","legacy","legacy","0","congruent","uniform","1","undefined","1","s","51","51","0","51","51","0","0","0","51","51","51","51","0","0","0","0","09/25/22 20:44:12","1500","The main experiment item","yes","FlankerTask.osexp","C:/Users/saudm/OneDrive/Desktop","no","mono","no","18","no","white","no","yes","768","legacy","51","51","C:/Users/saudm/OneDrive/Desktop/MK-subject-1.csv","legacy","Lentiform Loewenfeld","3.3.12","0","s","NA","s","NA","NA","s","583","NA","29463","NA","NA","583","2","legacy","1024","2","48000","-16","experiment","SSSSS","1","odd","111123","NA","NA","123215","122177","2304","NA","NA","123316","123900","123213","123316","31779","NA","NA","2299","Flanker Task ","45","29742","52","yes","1024"
"86.7924528302","86.7924528302","572.509433962","572.509433962","black","legacy","legacy","legacy","0","congruent","uniform","1","undefined","1","s","52","52","0","52","52","0","0","0","52","52","52","52","0","0","0","0","09/25/22 20:44:12","1500","The main experiment item","yes","FlankerTask.osexp","C:/Users/saudm/OneDrive/Desktop","no","mono","no","18","no","white","no","yes","768","legacy","52","52","C:/Users/saudm/OneDrive/Desktop/MK-subject-1.csv","legacy","Lentiform Loewenfeld","3.3.12","0","s","NA","s","NA","NA","s","601","NA","29463","NA","NA","601","2","legacy","1024","2","48000","-16","experiment","SSSSS","1","odd","111123","NA","NA","124949","123913","2304","NA","NA","125050","125652","124947","125050","31779","NA","NA","2299","Flanker Task ","46","30343","53","yes","1024"
"87.037037037","87.037037037","569.759259259","569.759259259","black","legacy","legacy","legacy","0","congruent","uniform","1","undefined","1","h","53","53","0","53","53","0","0","0","53","53","53","53","0","0","0","0","09/25/22 20:44:12","1500","The main experiment item","yes","FlankerTask.osexp","C:/Users/saudm/OneDrive/Desktop","no","mono","no","18","no","white","no","yes","768","legacy","53","53","C:/Users/saudm/OneDrive/Desktop/MK-subject-1.csv","legacy","Lentiform Loewenfeld","3.3.12","0","h","NA","s","NA","NA","h","424","NA","29463","NA","NA","424","2","legacy","1024","2","48000","-16","experiment","HHHHH","1","odd","111123","NA","NA","126688","125655","2304","NA","NA","126789","127213","126686","126789","31779","NA","NA","2299","Flanker Task ","47","30767","54","yes","1024"
"87.2727272727","87.2727272727","568.945454545","568.945454545","black","legacy","legacy","legacy","0","incongruent","uniform","1","undefined","1","h","54","54","0","54","54","0","0","0","54","54","54","54","0","0","0","0","09/25/22 20:44:12","1500","The main experiment item","yes","FlankerTask.osexp","C:/Users/saudm/OneDrive/Desktop","no","mono","no","18","no","white","no","yes","768","legacy","54","54","C:/Users/saudm/OneDrive/Desktop/MK-subject-1.csv","legacy","Lentiform Loewenfeld","3.3.12","0","h","NA","s","NA","NA","h","525","NA","29463","NA","NA","525","2","legacy","1024","2","48000","-16","experiment","SSHSS","1","odd","111123","NA","NA","128265","127231","2304","NA","NA","128366","128891","128264","128366","31779","NA","NA","2299","Flanker Task ","48","31292","55","yes","1024"
"87.5","87.5","566.375","566.375","black","legacy","legacy","legacy","0","incongruent","uniform","1","undefined","1","h","55","55","0","55","55","0","0","0","55","55","55","55","0","0","0","0","09/25/22 20:44:12","1500","The main experiment item","yes","FlankerTask.osexp","C:/Users/saudm/OneDrive/Desktop","no","mono","no","18","no","white","no","yes","768","legacy","55","55","C:/Users/saudm/OneDrive/Desktop/MK-subject-1.csv","legacy","Lentiform Loewenfeld","3.3.12","0","h","NA","s","NA","NA","h","425","NA","29463","NA","NA","425","2","legacy","1024","2","48000","-16","experiment","SSHSS","1","odd","111123","NA","NA","129941","128904","2304","NA","NA","130042","130467","129938","130041","31779","NA","NA","2299","Flanker Task ","49","31717","56","yes","1024"
"87.7192982456","87.7192982456","563.140350877","563.140350877","black","legacy","legacy","legacy","0","congruent","uniform","1","undefined","1","h","56","56","0","56","56","0","0","0","56","56","56","56","0","0","0","0","09/25/22 20:44:12","1500","The main experiment item","yes","FlankerTask.osexp","C:/Users/saudm/OneDrive/Desktop","no","mono","no","18","no","white","no","yes","768","legacy","56","56","C:/Users/saudm/OneDrive/Desktop/MK-subject-1.csv","legacy","Lentiform Loewenfeld","3.3.12","0","h","NA","s","NA","NA","h","382","NA","29463","NA","NA","382","2","legacy","1024","2","48000","-16","experiment","HHHHH","1","odd","111123","NA","NA","131514","130479","2304","NA","NA","131615","131999","131511","131615","31779","NA","NA","2299","Flanker Task ","50","32099","57","yes","1024"
"87.9310344828","87.9310344828","563.396551724","563.396551724","black","legacy","legacy","legacy","0","congruent","uniform","1","undefined","1","s","57","57","0","57","57","0","0","0","57","57","57","57","0","0","0","0","09/25/22 20:44:12","1500","The main experiment item","yes","FlankerTask.osexp","C:/Users/saudm/OneDrive/Desktop","no","mono","no","18","no","white","no","yes","768","legacy","57","57","C:/Users/saudm/OneDrive/Desktop/MK-subject-1.csv","legacy","Lentiform Loewenfeld","3.3.12","0","s","NA","s","NA","NA","s","578","NA","29463","NA","NA","578","2","legacy","1024","2","48000","-16","experiment","SSSSS","1","odd","111123","NA","NA","133045","132012","2304","NA","NA","133146","133725","133043","133146","31779","NA","NA","2299","Flanker Task ","51","32677","58","yes","1024"
"88.1355932203","88.1355932203","562.508474576","562.508474576","black","legacy","legacy","legacy","0","congruent","uniform","1","undefined","1","s","58","58","0","58","58","0","0","0","58","58","58","58","0","0","0","0","09/25/22 20:44:12","1500","The main experiment item","yes","FlankerTask.osexp","C:/Users/saudm/OneDrive/Desktop","no","mono","no","18","no","white","no","yes","768","legacy","58","58","C:/Users/saudm/OneDrive/Desktop/MK-subject-1.csv","legacy","Lentiform Loewenfeld","3.3.12","0","s","NA","s","NA","NA","s","511","NA","29463","NA","NA","511","2","legacy","1024","2","48000","-16","experiment","SSSSS","1","odd","111123","NA","NA","134772","133737","2304","NA","NA","134873","135386","134770","134873","31779","NA","NA","2299","Flanker Task ","52","33188","59","yes","1024"
"88.3333333333","88.3333333333","560.516666667","560.516666667","black","legacy","legacy","legacy","0","congruent","uniform","1","undefined","1","h","59","59","0","59","59","0","0","0","59","59","59","59","0","0","0","0","09/25/22 20:44:12","1500","The main experiment item","yes","FlankerTask.osexp","C:/Users/saudm/OneDrive/Desktop","no","mono","no","18","no","white","no","yes","768","legacy","59","59","C:/Users/saudm/OneDrive/Desktop/MK-subject-1.csv","legacy","Lentiform Loewenfeld","3.3.12","0","h","NA","s","NA","NA","h","443","NA","29463","NA","NA","443","2","legacy","1024","2","48000","-16","experiment","HHHHH","1","odd","111123","NA","NA","136433","135397","2304","NA","NA","136534","136978","136432","136534","31779","NA","NA","2299","Flanker Task ","53","33631","60","yes","1024"
"86.8852459016","86.8852459016","558.393442623","558.393442623","black","legacy","legacy","legacy","0","incongruent","uniform","0","undefined","0","h","60","60","0","60","60","0","0","0","60","60","60","60","0","0","0","0","09/25/22 20:44:12","1500","The main experiment item","yes","FlankerTask.osexp","C:/Users/saudm/OneDrive/Desktop","no","mono","no","18","no","white","no","yes","768","legacy","60","60","C:/Users/saudm/OneDrive/Desktop/MK-subject-1.csv","legacy","Lentiform Loewenfeld","3.3.12","0","s","NA","s","NA","NA","s","431","NA","29463","NA","NA","431","2","legacy","1024","2","48000","-16","experiment","SSHSS","1","odd","111123","NA","NA","138023","136990","2304","NA","NA","138124","138555","138022","138124","31779","NA","NA","2299","Flanker Task ","53","34062","61","yes","1024"
"87.0967741935","87.0967741935","558.967741935","558.967741935","black","legacy","legacy","legacy","0","congruent","uniform","1","undefined","1","s","61","61","0","61","61","0","0","0","61","61","61","61","0","0","0","0","09/25/22 20:44:12","1500","The main experiment item","yes","FlankerTask.osexp","C:/Users/saudm/OneDrive/Desktop","no","mono","no","18","no","white","no","yes","768","legacy","61","61","C:/Users/saudm/OneDrive/Desktop/MK-subject-1.csv","legacy","Lentiform Loewenfeld","3.3.12","0","s","NA","s","NA","NA","s","594","NA","29463","NA","NA","594","2","legacy","1024","2","48000","-16","experiment","SSSSS","1","odd","138561","NA","NA","140096","139062","2304","NA","NA","140197","140791","140094","140197","31779","NA","NA","2299","Flanker Task ","54","34656","62","yes","1024"
"87.3015873016","87.3015873016","566.079365079","566.079365079","black","legacy","legacy","legacy","0","congruent","uniform","1","undefined","1","s","62","62","0","62","62","0","0","0","62","62","62","62","0","0","0","0","09/25/22 20:44:12","1500","The main experiment item","yes","FlankerTask.osexp","C:/Users/saudm/OneDrive/Desktop","no","mono","no","18","no","white","no","yes","768","legacy","62","62","C:/Users/saudm/OneDrive/Desktop/MK-subject-1.csv","legacy","Lentiform Loewenfeld","3.3.12","0","s","NA","s","NA","NA","s","1007","NA","29463","NA","NA","1007","2","legacy","1024","2","48000","-16","experiment","SSSSS","1","odd","138561","NA","NA","141839","140803","2304","NA","NA","141940","142947","141837","141939","31779","NA","NA","2299","Flanker Task ","55","35663","63","yes","1024"
"87.5","87.5","564.046875","564.046875","black","legacy","legacy","legacy","0","incongruent","uniform","1","undefined","1","s","63","63","0","63","63","0","0","0","63","63","63","63","0","0","0","0","09/25/22 20:44:12","1500","The main experiment item","yes","FlankerTask.osexp","C:/Users/saudm/OneDrive/Desktop","no","mono","no","18","no","white","no","yes","768","legacy","63","63","C:/Users/saudm/OneDrive/Desktop/MK-subject-1.csv","legacy","Lentiform Loewenfeld","3.3.12","0","s","NA","s","NA","NA","s","436","NA","29463","NA","NA","436","2","legacy","1024","2","48000","-16","experiment","HHSHH","1","odd","138561","NA","NA","143984","142949","2304","NA","NA","144085","144522","143982","144085","31779","NA","NA","2299","Flanker Task ","56","36099","64","yes","1024"
"87.6923076923","87.6923076923","562.261538462","562.261538462","black","legacy","legacy","legacy","0","congruent","uniform","1","undefined","1","s","64","64","0","64","64","0","0","0","64","64","64","64","0","0","0","0","09/25/22 20:44:12","1500","The main experiment item","yes","FlankerTask.osexp","C:/Users/saudm/OneDrive/Desktop","no","mono","no","18","no","white","no","yes","768","legacy","64","64","C:/Users/saudm/OneDrive/Desktop/MK-subject-1.csv","legacy","Lentiform Loewenfeld","3.3.12","0","s","NA","s","NA","NA","s","448","NA","29463","NA","NA","448","2","legacy","1024","2","48000","-16","experiment","SSSSS","1","odd","138561","NA","NA","145570","144534","2304","NA","NA","145671","146120","145568","145671","31779","NA","NA","2299","Flanker Task ","57","36547","65","yes","1024"
"87.8787878788","87.8787878788","560.409090909","560.409090909","black","legacy","legacy","legacy","0","congruent","uniform","1","undefined","1","h","65","65","0","65","65","0","0","0","65","65","65","65","0","0","0","0","09/25/22 20:44:12","1500","The main experiment item","yes","FlankerTask.osexp","C:/Users/saudm/OneDrive/Desktop","no","mono","no","18","no","white","no","yes","768","legacy","65","65","C:/Users/saudm/OneDrive/Desktop/MK-subject-1.csv","legacy","Lentiform Loewenfeld","3.3.12","0","h","NA","s","NA","NA","h","440","NA","29463","NA","NA","440","2","legacy","1024","2","48000","-16","experiment","HHHHH","1","odd","138561","NA","NA","147160","146122","2304","NA","NA","147261","147702","147158","147260","31779","NA","NA","2299","Flanker Task ","58","36987","66","yes","1024"
"88.0597014925","88.0597014925","558.074626866","558.074626866","black","legacy","legacy","legacy","0","congruent","uniform","1","undefined","1","h","66","66","0","66","66","0","0","0","66","66","66","66","0","0","0","0","09/25/22 20:44:12","1500","The main experiment item","yes","FlankerTask.osexp","C:/Users/saudm/OneDrive/Desktop","no","mono","no","18","no","white","no","yes","768","legacy","66","66","C:/Users/saudm/OneDrive/Desktop/MK-subject-1.csv","legacy","Lentiform Loewenfeld","3.3.12","0","h","NA","s","NA","NA","h","404","NA","29463","NA","NA","404","2","legacy","1024","2","48000","-16","experiment","HHHHH","1","odd","138561","NA","NA","148747","147714","2304","NA","NA","148848","149253","148746","148848","31779","NA","NA","2299","Flanker Task ","59","37391","67","yes","1024"
"88.2352941176","88.2352941176","555.838235294","555.838235294","black","legacy","legacy","legacy","0","congruent","uniform","1","undefined","1","h","67","67","0","67","67","0","0","0","67","67","67","67","0","0","0","0","09/25/22 20:44:12","1500","The main experiment item","yes","FlankerTask.osexp","C:/Users/saudm/OneDrive/Desktop","no","mono","no","18","no","white","no","yes","768","legacy","67","67","C:/Users/saudm/OneDrive/Desktop/MK-subject-1.csv","legacy","Lentiform Loewenfeld","3.3.12","0","h","NA","s","NA","NA","h","406","NA","29463","NA","NA","406","2","legacy","1024","2","48000","-16","experiment","HHHHH","1","odd","138561","NA","NA","150298","149265","2304","NA","NA","150399","150806","150297","150399","31779","NA","NA","2299","Flanker Task ","60","37797","68","yes","1024"
"88.4057971014","88.4057971014","555.057971014","555.057971014","black","legacy","legacy","legacy","0","incongruent","uniform","1","undefined","1","s","68","68","0","68","68","0","0","0","68","68","68","68","0","0","0","0","09/25/22 20:44:12","1500","The main experiment item","yes","FlankerTask.osexp","C:/Users/saudm/OneDrive/Desktop","no","mono","no","18","no","white","no","yes","768","legacy","68","68","C:/Users/saudm/OneDrive/Desktop/MK-subject-1.csv","legacy","Lentiform Loewenfeld","3.3.12","0","s","NA","s","NA","NA","s","502","NA","29463","NA","NA","502","2","legacy","1024","2","48000","-16","experiment","HHSHH","1","odd","138561","NA","NA","151844","150808","2304","NA","NA","151945","152448","151843","151945","31779","NA","NA","2299","Flanker Task ","61","38299","69","yes","1024"
"88.5714285714","88.5714285714","553.671428571","553.671428571","black","legacy","legacy","legacy","0","incongruent","uniform","1","undefined","1","h","69","69","0","69","69","0","0","0","69","69","69","69","0","0","0","0","09/25/22 20:44:12","1500","The main experiment item","yes","FlankerTask.osexp","C:/Users/saudm/OneDrive/Desktop","no","mono","no","18","no","white","no","yes","768","legacy","69","69","C:/Users/saudm/OneDrive/Desktop/MK-subject-1.csv","legacy","Lentiform Loewenfeld","3.3.12","0","h","NA","s","NA","NA","h","458","NA","29463","NA","NA","458","2","legacy","1024","2","48000","-16","experiment","SSHSS","1","odd","138561","NA","NA","153494","152460","2304","NA","NA","153594","154053","153493","153594","31779","NA","NA","2299","Flanker Task ","62","38757","70","yes","1024"
"88.7323943662","88.7323943662","553.478873239","553.478873239","black","legacy","legacy","legacy","0","congruent","uniform","1","undefined","1","s","70","70","0","70","70","0","0","0","70","70","70","70","0","0","0","0","09/25/22 20:44:12","1500","The main experiment item","yes","FlankerTask.osexp","C:/Users/saudm/OneDrive/Desktop","no","mono","no","18","no","white","no","yes","768","legacy","70","70","C:/Users/saudm/OneDrive/Desktop/MK-subject-1.csv","legacy","Lentiform Loewenfeld","3.3.12","0","s","NA","s","NA","NA","s","540","NA","29463","NA","NA","540","2","legacy","1024","2","48000","-16","experiment","SSSSS","1","odd","138561","NA","NA","155101","154065","2304","NA","NA","155202","155742","155099","155202","31779","NA","NA","2299","Flanker Task ","63","39297","71","yes","1024"
"88.8888888889","88.8888888889","551.75","551.75","black","legacy","legacy","legacy","0","congruent","uniform","1","undefined","1","h","71","71","0","71","71","0","0","0","71","71","71","71","0","0","0","0","09/25/22 20:44:12","1500","The main experiment item","yes","FlankerTask.osexp","C:/Users/saudm/OneDrive/Desktop","no","mono","no","18","no","white","no","yes","768","legacy","71","71","C:/Users/saudm/OneDrive/Desktop/MK-subject-1.csv","legacy","Lentiform Loewenfeld","3.3.12","0","h","NA","s","NA","NA","h","429","NA","29463","NA","NA","429","2","legacy","1024","2","48000","-16","experiment","HHHHH","1","odd","138561","NA","NA","156778","155745","2304","NA","NA","156879","157309","156777","156879","31779","NA","NA","2299","Flanker Task ","64","39726","72","yes","1024"
"89.0410958904","89.0410958904","549.890410959","549.890410959","black","legacy","legacy","legacy","0","incongruent","uniform","1","undefined","1","h","72","72","0","72","72","0","0","0","72","72","72","72","0","0","0","0","09/25/22 20:44:12","1500","The main experiment item","yes","FlankerTask.osexp","C:/Users/saudm/OneDrive/Desktop","no","mono","no","18","no","white","no","yes","768","legacy","72","72","C:/Users/saudm/OneDrive/Desktop/MK-subject-1.csv","legacy","Lentiform Loewenfeld","3.3.12","0","h","NA","s","NA","NA","h","416","NA","29463","NA","NA","416","2","legacy","1024","2","48000","-16","experiment","SSHSS","1","odd","138561","NA","NA","158348","157311","2304","NA","NA","158449","158866","158346","158449","31779","NA","NA","2299","Flanker Task ","65","40142","73","yes","1024"
"89.1891891892","89.1891891892","549.5","549.5","black","legacy","legacy","legacy","0","congruent","uniform","1","undefined","1","h","73","73","0","73","73","0","0","0","73","73","73","73","0","0","0","0","09/25/22 20:44:12","1500","The main experiment item","yes","FlankerTask.osexp","C:/Users/saudm/OneDrive/Desktop","no","mono","no","18","no","white","no","yes","768","legacy","73","73","C:/Users/saudm/OneDrive/Desktop/MK-subject-1.csv","legacy","Lentiform Loewenfeld","3.3.12","0","h","NA","s","NA","NA","h","521","NA","29463","NA","NA","521","2","legacy","1024","2","48000","-16","experiment","HHHHH","1","odd","138561","NA","NA","159915","158878","2304","NA","NA","160016","160537","159913","160016","31779","NA","NA","2299","Flanker Task ","66","40663","74","yes","1024"
"89.3333333333","89.3333333333","548.24","548.24","black","legacy","legacy","legacy","0","congruent","uniform","1","undefined","1","s","74","74","0","74","74","0","0","0","74","74","74","74","0","0","0","0","09/25/22 20:44:12","1500","The main experiment item","yes","FlankerTask.osexp","C:/Users/saudm/OneDrive/Desktop","no","mono","no","18","no","white","no","yes","768","legacy","74","74","C:/Users/saudm/OneDrive/Desktop/MK-subject-1.csv","legacy","Lentiform Loewenfeld","3.3.12","0","s","NA","s","NA","NA","s","455","NA","29463","NA","NA","455","2","legacy","1024","2","48000","-16","experiment","SSSSS","1","odd","138561","NA","NA","161575","160541","2304","NA","NA","161678","162133","161574","161677","31779","NA","NA","2299","Flanker Task ","67","41118","75","yes","1024"
"89.4736842105","89.4736842105","547.710526316","547.710526316","black","legacy","legacy","legacy","0","incongruent","uniform","1","undefined","1","h","75","75","0","75","75","0","0","0","75","75","75","75","0","0","0","0","09/25/22 20:44:12","1500","The main experiment item","yes","FlankerTask.osexp","C:/Users/saudm/OneDrive/Desktop","no","mono","no","18","no","white","no","yes","768","legacy","75","75","C:/Users/saudm/OneDrive/Desktop/MK-subject-1.csv","legacy","Lentiform Loewenfeld","3.3.12","0","h","NA","s","NA","NA","h","508","NA","29463","NA","NA","508","2","legacy","1024","2","48000","-16","experiment","SSHSS","1","odd","138561","NA","NA","163180","162145","2304","NA","NA","163282","163791","163178","163282","31779","NA","NA","2299","Flanker Task ","68","41626","76","yes","1024"
"89.6103896104","89.6103896104","546.142857143","546.142857143","black","legacy","legacy","legacy","0","incongruent","uniform","1","undefined","1","h","76","76","0","76","76","0","0","0","76","76","76","76","0","0","0","0","09/25/22 20:44:12","1500","The main experiment item","yes","FlankerTask.osexp","C:/Users/saudm/OneDrive/Desktop","no","mono","no","18","no","white","no","yes","768","legacy","76","76","C:/Users/saudm/OneDrive/Desktop/MK-subject-1.csv","legacy","Lentiform Loewenfeld","3.3.12","0","h","NA","s","NA","NA","h","427","NA","29463","NA","NA","427","2","legacy","1024","2","48000","-16","experiment","SSHSS","1","odd","138561","NA","NA","164839","163803","2304","NA","NA","164939","165366","164837","164939","31779","NA","NA","2299","Flanker Task ","69","42053","77","yes","1024"
"88.4615384615","88.4615384615","543.974358974","543.974358974","black","legacy","legacy","legacy","0","congruent","uniform","0","undefined","0","s","77","77","0","77","77","0","0","0","77","77","77","77","0","0","0","0","09/25/22 20:44:12","1500","The main experiment item","yes","FlankerTask.osexp","C:/Users/saudm/OneDrive/Desktop","no","mono","no","18","no","white","no","yes","768","legacy","77","77","C:/Users/saudm/OneDrive/Desktop/MK-subject-1.csv","legacy","Lentiform Loewenfeld","3.3.12","0","h","NA","s","NA","NA","h","377","NA","29463","NA","NA","377","2","legacy","1024","2","48000","-16","experiment","SSSSS","1","odd","138561","NA","NA","166416","165378","2304","NA","NA","166517","166895","166413","166517","31779","NA","NA","2299","Flanker Task ","69","42430","78","yes","1024"
"88.6075949367","88.6075949367","545.506329114","545.506329114","black","legacy","legacy","legacy","0","incongruent","uniform","1","undefined","1","s","78","78","0","78","78","0","0","0","78","78","78","78","0","0","0","0","09/25/22 20:44:12","1500","The main experiment item","yes","FlankerTask.osexp","C:/Users/saudm/OneDrive/Desktop","no","mono","no","18","no","white","no","yes","768","legacy","78","78","C:/Users/saudm/OneDrive/Desktop/MK-subject-1.csv","legacy","Lentiform Loewenfeld","3.3.12","0","s","NA","s","NA","NA","s","665","NA","29463","NA","NA","665","2","legacy","1024","2","48000","-16","experiment","HHSHH","1","odd","166907","NA","NA","168445","167408","2304","NA","NA","168546","169211","168444","168546","31779","NA","NA","2299","Flanker Task ","70","43095","79","yes","1024"
"88.75","88.75","545.175","545.175","black","legacy","legacy","legacy","0","incongruent","uniform","1","undefined","1","h","79","79","0","79","79","0","0","0","79","79","79","79","0","0","0","0","09/25/22 20:44:12","1500","The main experiment item","yes","FlankerTask.osexp","C:/Users/saudm/OneDrive/Desktop","no","mono","no","18","no","white","no","yes","768","legacy","79","79","C:/Users/saudm/OneDrive/Desktop/MK-subject-1.csv","legacy","Lentiform Loewenfeld","3.3.12","0","h","NA","s","NA","NA","h","519","NA","29463","NA","NA","519","2","legacy","1024","2","48000","-16","experiment","SSHSS","1","odd","166907","NA","NA","170252","169214","2304","NA","NA","170353","170873","170250","170353","31779","NA","NA","2299","Flanker Task ","71","43614","80","yes","1024"
"88.8888888889","88.8888888889","546.654320988","546.654320988","black","legacy","legacy","legacy","0","congruent","uniform","1","undefined","1","s","80","80","0","80","80","0","0","0","80","80","80","80","0","0","0","0","09/25/22 20:44:12","600","The main experiment item","yes","FlankerTask.osexp","C:/Users/saudm/OneDrive/Desktop","no","mono","no","18","no","white","no","yes","768","legacy","0","79","C:/Users/saudm/OneDrive/Desktop/MK-subject-1.csv","legacy","Lentiform Loewenfeld","3.3.12","0","s","NA","s","s","NA","s","665","NA","29463","17840","NA","665","2","legacy","1024","2","48000","-16","experiment","SSSSS","1","odd","166907","NA","NA","189771","170885","2304","171893","NA","189873","190539","189770","189872","31779","189734","NA","2299","Flanker Task ","72","44279","81","yes","1024"
"89.0243902439","89.0243902439","544.268292683","544.268292683","black","legacy","legacy","legacy","0","congruent","uniform","1","undefined","1","s","81","81","0","81","81","0","0","0","81","81","81","81","0","0","0","0","09/25/22 20:44:12","600","The main experiment item","yes","FlankerTask.osexp","C:/Users/saudm/OneDrive/Desktop","no","mono","no","18","no","white","no","yes","768","legacy","1","79","C:/Users/saudm/OneDrive/Desktop/MK-subject-1.csv","legacy","Lentiform Loewenfeld","3.3.12","0","s","NA","s","s","NA","s","351","NA","29463","17840","NA","351","2","legacy","1024","2","48000","-16","experiment","SSSSS","1","odd","166907","190551","NA","192087","191052","2304","171893","NA","192188","192539","192086","192188","31779","189734","NA","2299","Flanker Task ","73","44630","82","yes","1024"
"87.9518072289","87.9518072289","541.409638554","541.409638554","black","legacy","legacy","legacy","0","congruent","uniform","0","undefined","0","h","82","82","0","82","82","0","0","0","82","82","82","82","0","0","0","0","09/25/22 20:44:12","600","The main experiment item","yes","FlankerTask.osexp","C:/Users/saudm/OneDrive/Desktop","no","mono","no","18","no","white","no","yes","768","legacy","2","79","C:/Users/saudm/OneDrive/Desktop/MK-subject-1.csv","legacy","Lentiform Loewenfeld","3.3.12","0","s","NA","s","s","NA","s","307","NA","29463","17840","NA","307","2","legacy","1024","2","48000","-16","experiment","HHHHH","1","odd","166907","190551","NA","193592","192552","2304","171893","NA","193693","194001","193589","193693","31779","189734","NA","2299","Flanker Task ","73","44937","83","yes","1024"
"86.9047619048","86.9047619048","538.583333333","538.583333333","black","legacy","legacy","legacy","0","incongruent","uniform","0","undefined","0","s","83","83","0","83","83","0","0","0","83","83","83","83","0","0","0","0","09/25/22 20:44:12","600","The main experiment item","yes","FlankerTask.osexp","C:/Users/saudm/OneDrive/Desktop","no","mono","no","18","no","white","no","yes","768","legacy","3","79","C:/Users/saudm/OneDrive/Desktop/MK-subject-1.csv","legacy","Lentiform Loewenfeld","3.3.12","0","h","NA","s","s","NA","h","304","NA","29463","17840","NA","304","2","legacy","1024","2","48000","-16","experiment","HHSHH","1","odd","194013","190551","NA","195550","194514","2304","171893","NA","195652","195957","195549","195652","31779","189734","NA","2299","Flanker Task ","73","45241","84","yes","1024"
"87.0588235294","87.0588235294","536.423529412","536.423529412","black","legacy","legacy","legacy","0","congruent","uniform","1","undefined","1","h","84","84","0","84","84","0","0","0","84","84","84","84","0","0","0","0","09/25/22 20:44:12","600","The main experiment item","yes","FlankerTask.osexp","C:/Users/saudm/OneDrive/Desktop","no","mono","no","18","no","white","no","yes","768","legacy","4","79","C:/Users/saudm/OneDrive/Desktop/MK-subject-1.csv","legacy","Lentiform Loewenfeld","3.3.12","0","h","NA","s","s","NA","h","355","NA","29463","17840","NA","355","2","legacy","1024","2","48000","-16","experiment","HHHHH","1","odd","195969","190551","NA","197503","196470","2304","171893","NA","197605","197961","197501","197604","31779","189734","NA","2299","Flanker Task ","74","45596","85","yes","1024"
"87.2093023256","87.2093023256","534.76744186","534.76744186","black","legacy","legacy","legacy","0","congruent","uniform","1","undefined","1","h","85","85","0","85","85","0","0","0","85","85","85","85","0","0","0","0","09/25/22 20:44:12","600","The main experiment item","yes","FlankerTask.osexp","C:/Users/saudm/OneDrive/Desktop","no","mono","no","18","no","white","no","yes","768","legacy","5","79","C:/Users/saudm/OneDrive/Desktop/MK-subject-1.csv","legacy","Lentiform Loewenfeld","3.3.12","0","h","NA","s","s","NA","h","394","NA","29463","17840","NA","394","2","legacy","1024","2","48000","-16","experiment","HHHHH","1","odd","195969","190551","NA","199010","197973","2304","171893","NA","199112","199507","199008","199112","31779","189734","NA","2299","Flanker Task ","75","45990","86","yes","1024"
"87.3563218391","87.3563218391","533.011494253","533.011494253","black","legacy","legacy","legacy","0","congruent","uniform","1","undefined","1","h","86","86","0","86","86","0","0","0","86","86","86","86","0","0","0","0","09/25/22 20:44:12","600","The main experiment item","yes","FlankerTask.osexp","C:/Users/saudm/OneDrive/Desktop","no","mono","no","18","no","white","no","yes","768","legacy","6","79","C:/Users/saudm/OneDrive/Desktop/MK-subject-1.csv","legacy","Lentiform Loewenfeld","3.3.12","0","h","NA","s","s","NA","h","382","NA","29463","17840","NA","382","2","legacy","1024","2","48000","-16","experiment","HHHHH","1","odd","195969","190551","NA","200555","199519","2304","171893","NA","200657","201040","200553","200656","31779","189734","NA","2299","Flanker Task ","76","46372","87","yes","1024"
"87.5","87.5","531.068181818","531.068181818","black","legacy","legacy","legacy","0","congruent","uniform","1","undefined","1","h","87","87","0","87","87","0","0","0","87","87","87","87","0","0","0","0","09/25/22 20:44:12","600","The main experiment item","yes","FlankerTask.osexp","C:/Users/saudm/OneDrive/Desktop","no","mono","no","18","no","white","no","yes","768","legacy","7","79","C:/Users/saudm/OneDrive/Desktop/MK-subject-1.csv","legacy","Lentiform Loewenfeld","3.3.12","0","h","NA","s","s","NA","h","362","NA","29463","17840","NA","362","2","legacy","1024","2","48000","-16","experiment","HHHHH","1","odd","195969","190551","NA","202087","201052","2304","171893","NA","202189","202552","202086","202189","31779","189734","NA","2299","Flanker Task ","77","46734","88","yes","1024"
"86.5168539326","86.5168539326","528.606741573","528.606741573","black","legacy","legacy","legacy","0","congruent","uniform","0","undefined","0","s","88","88","0","88","88","0","0","0","88","88","88","88","0","0","0","0","09/25/22 20:44:12","600","The main experiment item","yes","FlankerTask.osexp","C:/Users/saudm/OneDrive/Desktop","no","mono","no","18","no","white","no","yes","768","legacy","8","79","C:/Users/saudm/OneDrive/Desktop/MK-subject-1.csv","legacy","Lentiform Loewenfeld","3.3.12","0","h","NA","s","s","NA","h","312","NA","29463","17840","NA","312","2","legacy","1024","2","48000","-16","experiment","SSSSS","1","odd","195969","190551","NA","203593","202554","2304","171893","NA","203694","204007","203590","203694","31779","189734","NA","2299","Flanker Task ","77","47046","89","yes","1024"
"86.6666666667","86.6666666667","527.255555556","527.255555556","black","legacy","legacy","legacy","0","congruent","uniform","1","undefined","1","s","89","89","0","89","89","0","0","0","89","89","89","89","0","0","0","0","09/25/22 20:44:12","600","The main experiment item","yes","FlankerTask.osexp","C:/Users/saudm/OneDrive/Desktop","no","mono","no","18","no","white","no","yes","768","legacy","9","79","C:/Users/saudm/OneDrive/Desktop/MK-subject-1.csv","legacy","Lentiform Loewenfeld","3.3.12","0","s","NA","s","s","NA","s","407","NA","29463","17840","NA","407","2","legacy","1024","2","48000","-16","experiment","SSSSS","1","odd","204019","190551","NA","205556","204520","2304","171893","NA","205657","206065","205554","205657","31779","189734","NA","2299","Flanker Task ","78","47453","90","yes","1024"
"86.8131868132","86.8131868132","525.417582418","525.417582418","black","legacy","legacy","legacy","0","incongruent","uniform","1","undefined","1","s","90","90","0","90","90","0","0","0","90","90","90","90","0","0","0","0","09/25/22 20:44:12","600","The main experiment item","yes","FlankerTask.osexp","C:/Users/saudm/OneDrive/Desktop","no","mono","no","18","no","white","no","yes","768","legacy","10","79","C:/Users/saudm/OneDrive/Desktop/MK-subject-1.csv","legacy","Lentiform Loewenfeld","3.3.12","0","s","NA","s","s","NA","s","360","NA","29463","17840","NA","360","2","legacy","1024","2","48000","-16","experiment","HHSHH","1","odd","204019","190551","NA","207111","206077","2304","171893","NA","207212","207573","207109","207212","31779","189734","NA","2299","Flanker Task ","79","47813","91","yes","1024"
"86.9565217391","86.9565217391","523.652173913","523.652173913","black","legacy","legacy","legacy","0","congruent","uniform","1","undefined","1","s","91","91","0","91","91","0","0","0","91","91","91","91","0","0","0","0","09/25/22 20:44:12","600","The main experiment item","yes","FlankerTask.osexp","C:/Users/saudm/OneDrive/Desktop","no","mono","no","18","no","white","no","yes","768","legacy","11","79","C:/Users/saudm/OneDrive/Desktop/MK-subject-1.csv","legacy","Lentiform Loewenfeld","3.3.12","0","s","NA","s","s","NA","s","363","NA","29463","17840","NA","363","2","legacy","1024","2","48000","-16","experiment","SSSSS","1","odd","204019","190551","NA","208620","207585","2304","171893","NA","208721","209085","208618","208721","31779","189734","NA","2299","Flanker Task ","80","48176","92","yes","1024"
"87.0967741935","87.0967741935","522.075268817","522.075268817","black","legacy","legacy","legacy","0","congruent","uniform","1","undefined","1","s","92","92","0","92","92","0","0","0","92","92","92","92","0","0","0","0","09/25/22 20:44:12","600","The main experiment item","yes","FlankerTask.osexp","C:/Users/saudm/OneDrive/Desktop","no","mono","no","18","no","white","no","yes","768","legacy","12","79","C:/Users/saudm/OneDrive/Desktop/MK-subject-1.csv","legacy","Lentiform Loewenfeld","3.3.12","0","s","NA","s","s","NA","s","377","NA","29463","17840","NA","377","2","legacy","1024","2","48000","-16","experiment","SSSSS","1","odd","204019","190551","NA","210133","209098","2304","171893","NA","210234","210612","210131","210234","31779","189734","NA","2299","Flanker Task ","81","48553","93","yes","1024"
"87.2340425532","87.2340425532","521.585106383","521.585106383","black","legacy","legacy","legacy","0","incongruent","uniform","1","undefined","1","h","93","93","0","93","93","0","0","0","93","93","93","93","0","0","0","0","09/25/22 20:44:12","600","The main experiment item","yes","FlankerTask.osexp","C:/Users/saudm/OneDrive/Desktop","no","mono","no","18","no","white","no","yes","768","legacy","13","79","C:/Users/saudm/OneDrive/Desktop/MK-subject-1.csv","legacy","Lentiform Loewenfeld","3.3.12","0","h","NA","s","s","NA","h","476","NA","29463","17840","NA","476","2","legacy","1024","2","48000","-16","experiment","SSHSS","1","odd","204019","190551","NA","211660","210624","2304","171893","NA","211761","212238","211658","211761","31779","189734","NA","2299","Flanker Task ","82","49029","94","yes","1024"
"87.3684210526","87.3684210526","521.778947368","521.778947368","black","legacy","legacy","legacy","0","incongruent","uniform","1","undefined","1","h","94","94","0","94","94","0","0","0","94","94","94","94","0","0","0","0","09/25/22 20:44:12","600","The main experiment item","yes","FlankerTask.osexp","C:/Users/saudm/OneDrive/Desktop","no","mono","no","18","no","white","no","yes","768","legacy","14","79","C:/Users/saudm/OneDrive/Desktop/MK-subject-1.csv","legacy","Lentiform Loewenfeld","3.3.12","0","h","NA","s","s","NA","h","540","NA","29463","17840","NA","540","2","legacy","1024","2","48000","-16","experiment","SSHSS","1","odd","204019","190551","NA","213288","212249","2304","171893","NA","213389","213929","213286","213389","31779","189734","NA","2299","Flanker Task ","83","49569","95","yes","1024"
"87.5","87.5","524","524","black","legacy","legacy","legacy","0","congruent","uniform","1","undefined","1","s","95","95","0","95","95","0","0","0","95","95","95","95","0","0","0","0","09/25/22 20:44:12","600","The main experiment item","yes","FlankerTask.osexp","C:/Users/saudm/OneDrive/Desktop","no","mono","no","18","no","white","no","yes","768","legacy","15","79","C:/Users/saudm/OneDrive/Desktop/MK-subject-1.csv","legacy","Lentiform Loewenfeld","3.3.12","0","s","NA","s","s","NA","s","735","NA","29463","17840","NA","735","2","legacy","1024","2","48000","-16","experiment","SSSSS","1","odd","204019","190551","NA","214965","213932","2304","171893","NA","215066","215802","214964","215066","31779","189734","NA","2299","Flanker Task ","84","50304","96","yes","1024"
"87.6288659794","87.6288659794","522.907216495","522.907216495","black","legacy","legacy","legacy","0","incongruent","uniform","1","undefined","1","h","96","96","0","96","96","0","0","0","96","96","96","96","0","0","0","0","09/25/22 20:44:12","600","The main experiment item","yes","FlankerTask.osexp","C:/Users/saudm/OneDrive/Desktop","no","mono","no","18","no","white","no","yes","768","legacy","16","79","C:/Users/saudm/OneDrive/Desktop/MK-subject-1.csv","legacy","Lentiform Loewenfeld","3.3.12","0","h","NA","s","s","NA","h","418","NA","29463","17840","NA","418","2","legacy","1024","2","48000","-16","experiment","SSHSS","1","odd","204019","215814","NA","217351","216315","2304","171893","NA","217452","217871","217348","217452","31779","189734","NA","2299","Flanker Task ","85","50722","97","yes","1024"
"87.7551020408","87.7551020408","522.489795918","522.489795918","black","legacy","legacy","legacy","0","congruent","uniform","1","undefined","1","s","97","97","0","97","97","0","0","0","97","97","97","97","0","0","0","0","09/25/22 20:44:12","600","The main experiment item","yes","FlankerTask.osexp","C:/Users/saudm/OneDrive/Desktop","no","mono","no","18","no","white","no","yes","768","legacy","17","79","C:/Users/saudm/OneDrive/Desktop/MK-subject-1.csv","legacy","Lentiform Loewenfeld","3.3.12","0","s","NA","s","s","NA","s","482","NA","29463","17840","NA","482","2","legacy","1024","2","48000","-16","experiment","SSSSS","1","odd","204019","215814","NA","218918","217883","2304","171893","NA","219019","219501","218916","219019","31779","189734","NA","2299","Flanker Task ","86","51204","98","yes","1024"
"87.8787878788","87.8787878788","521.484848485","521.484848485","black","legacy","legacy","legacy","0","congruent","uniform","1","undefined","1","s","98","98","0","98","98","0","0","0","98","98","98","98","0","0","0","0","09/25/22 20:44:12","600","The main experiment item","yes","FlankerTask.osexp","C:/Users/saudm/OneDrive/Desktop","no","mono","no","18","no","white","no","yes","768","legacy","18","79","C:/Users/saudm/OneDrive/Desktop/MK-subject-1.csv","legacy","Lentiform Loewenfeld","3.3.12","0","s","NA","s","s","NA","s","423","NA","29463","17840","NA","423","2","legacy","1024","2","48000","-16","experiment","SSSSS","1","odd","204019","215814","NA","220552","219514","2304","171893","NA","220653","221077","220550","220653","31779","189734","NA","2299","Flanker Task ","87","51627","99","yes","1024"
"88","88","520.67","520.67","black","legacy","legacy","legacy","0","incongruent","uniform","1","undefined","1","s","99","99","0","99","99","0","0","0","99","99","99","99","0","0","0","0","09/25/22 20:44:12","600","The main experiment item","yes","FlankerTask.osexp","C:/Users/saudm/OneDrive/Desktop","no","mono","no","18","no","white","no","yes","768","legacy","19","79","C:/Users/saudm/OneDrive/Desktop/MK-subject-1.csv","legacy","Lentiform Loewenfeld","3.3.12","0","s","NA","s","s","NA","s","440","NA","29463","17840","NA","440","2","legacy","1024","2","48000","-16","experiment","HHSHH","1","odd","204019","215814","NA","222124","221089","2304","171893","NA","222225","222665","222123","222225","31779","189734","NA","2299","Flanker Task ","88","52067","100","yes","1024"
"88.1188118812","88.1188118812","519.188118812","519.188118812","black","legacy","legacy","legacy","0","congruent","uniform","1","undefined","1","s","100","100","0","100","100","0","0","0","100","100","100","100","0","0","0","0","09/25/22 20:44:12","600","The main experiment item","yes","FlankerTask.osexp","C:/Users/saudm/OneDrive/Desktop","no","mono","no","18","no","white","no","yes","768","legacy","20","79","C:/Users/saudm/OneDrive/Desktop/MK-subject-1.csv","legacy","Lentiform Loewenfeld","3.3.12","0","s","NA","s","s","NA","s","371","NA","29463","17840","NA","371","2","legacy","1024","2","48000","-16","experiment","SSSSS","1","odd","204019","215814","NA","223702","222668","2304","171893","NA","223804","224176","223700","223804","31779","189734","NA","2299","Flanker Task ","89","52438","101","yes","1024"
"88.2352941176","88.2352941176","518.421568627","518.421568627","black","legacy","legacy","legacy","0","congruent","uniform","1","undefined","1","h","101","101","0","101","101","0","0","0","101","101","101","101","0","0","0","0","09/25/22 20:44:12","600","The main experiment item","yes","FlankerTask.osexp","C:/Users/saudm/OneDrive/Desktop","no","mono","no","18","no","white","no","yes","768","legacy","21","79","C:/Users/saudm/OneDrive/Desktop/MK-subject-1.csv","legacy","Lentiform Loewenfeld","3.3.12","0","h","NA","s","s","NA","h","441","NA","29463","17840","NA","441","2","legacy","1024","2","48000","-16","experiment","HHHHH","1","odd","204019","215814","NA","225223","224189","2304","171893","NA","225325","225767","225221","225324","31779","189734","NA","2299","Flanker Task ","90","52879","102","yes","1024"
"88.3495145631","88.3495145631","517.213592233","517.213592233","black","legacy","legacy","legacy","0","congruent","uniform","1","undefined","1","h","102","102","0","102","102","0","0","0","102","102","102","102","0","0","0","0","09/25/22 20:44:12","600","The main experiment item","yes","FlankerTask.osexp","C:/Users/saudm/OneDrive/Desktop","no","mono","no","18","no","white","no","yes","768","legacy","22","79","C:/Users/saudm/OneDrive/Desktop/MK-subject-1.csv","legacy","Lentiform Loewenfeld","3.3.12","0","h","NA","s","s","NA","h","394","NA","29463","17840","NA","394","2","legacy","1024","2","48000","-16","experiment","HHHHH","1","odd","204019","215814","NA","226803","225770","2304","171893","NA","226905","227300","226801","226905","31779","189734","NA","2299","Flanker Task ","91","53273","103","yes","1024"
"88.4615384615","88.4615384615","518.067307692","518.067307692","black","legacy","legacy","legacy","0","incongruent","uniform","1","undefined","1","h","103","103","0","103","103","0","0","0","103","103","103","103","0","0","0","0","09/25/22 20:44:12","600","The main experiment item","yes","FlankerTask.osexp","C:/Users/saudm/OneDrive/Desktop","no","mono","no","18","no","white","no","yes","768","legacy","23","79","C:/Users/saudm/OneDrive/Desktop/MK-subject-1.csv","legacy","Lentiform Loewenfeld","3.3.12","0","h","NA","s","s","NA","h","606","NA","29463","17840","NA","606","2","legacy","1024","2","48000","-16","experiment","SSHSS","1","odd","204019","215814","NA","228340","227303","2304","171893","NA","228441","229048","228338","228441","31779","189734","NA","2299","Flanker Task ","92","53879","104","yes","1024"
"88.5714285714","88.5714285714","517.066666667","517.066666667","black","legacy","legacy","legacy","0","congruent","uniform","1","undefined","1","s","104","104","0","104","104","0","0","0","104","104","104","104","0","0","0","0","09/25/22 20:44:12","600","The main experiment item","yes","FlankerTask.osexp","C:/Users/saudm/OneDrive/Desktop","no","mono","no","18","no","white","no","yes","768","legacy","24","79","C:/Users/saudm/OneDrive/Desktop/MK-subject-1.csv","legacy","Lentiform Loewenfeld","3.3.12","0","s","NA","s","s","NA","s","413","NA","29463","17840","NA","413","2","legacy","1024","2","48000","-16","experiment","SSSSS","1","odd","204019","229060","NA","230595","229561","2304","171893","NA","230695","231109","230593","230695","31779","189734","NA","2299","Flanker Task ","93","54292","105","yes","1024"
"88.679245283","88.679245283","516.254716981","516.254716981","black","legacy","legacy","legacy","0","congruent","uniform","1","undefined","1","h","105","105","0","105","105","0","0","0","105","105","105","105","0","0","0","0","09/25/22 20:44:12","600","The main experiment item","yes","FlankerTask.osexp","C:/Users/saudm/OneDrive/Desktop","no","mono","no","18","no","white","no","yes","768","legacy","25","79","C:/Users/saudm/OneDrive/Desktop/MK-subject-1.csv","legacy","Lentiform Loewenfeld","3.3.12","0","h","NA","s","s","NA","h","431","NA","29463","17840","NA","431","2","legacy","1024","2","48000","-16","experiment","HHHHH","1","odd","204019","229060","NA","232161","231122","2304","171893","NA","232262","232694","232159","232262","31779","189734","NA","2299","Flanker Task ","94","54723","106","yes","1024"
"88.785046729","88.785046729","516.112149533","516.112149533","black","legacy","legacy","legacy","0","incongruent","uniform","1","undefined","1","s","106","106","0","106","106","0","0","0","106","106","106","106","0","0","0","0","09/25/22 20:44:12","600","The main experiment item","yes","FlankerTask.osexp","C:/Users/saudm/OneDrive/Desktop","no","mono","no","18","no","white","no","yes","768","legacy","26","79","C:/Users/saudm/OneDrive/Desktop/MK-subject-1.csv","legacy","Lentiform Loewenfeld","3.3.12","0","s","NA","s","s","NA","s","501","NA","29463","17840","NA","501","2","legacy","1024","2","48000","-16","experiment","HHSHH","1","odd","204019","229060","NA","233741","232705","2304","171893","NA","233843","234344","233740","233842","31779","189734","NA","2299","Flanker Task ","95","55224","107","yes","1024"
"88.8888888889","88.8888888889","516.601851852","516.601851852","black","legacy","legacy","legacy","0","congruent","uniform","1","undefined","1","h","107","107","0","107","107","0","0","0","107","107","107","107","0","0","0","0","09/25/22 20:44:12","600","The main experiment item","yes","FlankerTask.osexp","C:/Users/saudm/OneDrive/Desktop","no","mono","no","18","no","white","no","yes","768","legacy","27","79","C:/Users/saudm/OneDrive/Desktop/MK-subject-1.csv","legacy","Lentiform Loewenfeld","3.3.12","0","h","NA","s","s","NA","h","569","NA","29463","17840","NA","569","2","legacy","1024","2","48000","-16","experiment","HHHHH","1","odd","204019","229060","NA","235389","234356","2304","171893","NA","235490","236060","235387","235490","31779","189734","NA","2299","Flanker Task ","96","55793","108","yes","1024"
"88.9908256881","88.9908256881","515.798165138","515.798165138","black","legacy","legacy","legacy","0","congruent","uniform","1","undefined","1","h","108","108","0","108","108","0","0","0","108","108","108","108","0","0","0","0","09/25/22 20:44:12","600","The main experiment item","yes","FlankerTask.osexp","C:/Users/saudm/OneDrive/Desktop","no","mono","no","18","no","white","no","yes","768","legacy","28","79","C:/Users/saudm/OneDrive/Desktop/MK-subject-1.csv","legacy","Lentiform Loewenfeld","3.3.12","0","h","NA","s","s","NA","h","429","NA","29463","17840","NA","429","2","legacy","1024","2","48000","-16","experiment","HHHHH","1","odd","204019","229060","NA","237109","236072","2304","171893","NA","237210","237640","237108","237210","31779","189734","NA","2299","Flanker Task ","97","56222","109","yes","1024"
"88.1818181818","88.1818181818","515.581818182","515.581818182","black","legacy","legacy","legacy","0","incongruent","uniform","0","undefined","0","h","109","109","0","109","109","0","0","0","109","109","109","109","0","0","0","0","09/25/22 20:44:12","600","The main experiment item","yes","FlankerTask.osexp","C:/Users/saudm/OneDrive/Desktop","no","mono","no","18","no","white","no","yes","768","legacy","29","79","C:/Users/saudm/OneDrive/Desktop/MK-subject-1.csv","legacy","Lentiform Loewenfeld","3.3.12","0","s","NA","s","s","NA","s","492","NA","29463","17840","NA","492","2","legacy","1024","2","48000","-16","experiment","SSHSS","1","odd","204019","229060","NA","238687","237652","2304","171893","NA","238789","239282","238685","238789","31779","189734","NA","2299","Flanker Task ","97","56714","110","yes","1024"
"88.2882882883","88.2882882883","519.054054054","519.054054054","black","legacy","legacy","legacy","0","congruent","uniform","1","undefined","1","s","110","110","0","110","110","0","0","0","110","110","110","110","0","0","0","0","09/25/22 20:44:12","600","The main experiment item","yes","FlankerTask.osexp","C:/Users/saudm/OneDrive/Desktop","no","mono","no","18","no","white","no","yes","768","legacy","30","79","C:/Users/saudm/OneDrive/Desktop/MK-subject-1.csv","legacy","Lentiform Loewenfeld","3.3.12","0","s","NA","s","s","NA","s","901","NA","29463","17840","NA","901","2","legacy","1024","2","48000","-16","experiment","SSSSS","1","odd","239294","229060","NA","240831","239794","2304","171893","NA","240932","241835","240829","240931","31779","189734","NA","2299","Flanker Task ","98","57615","111","yes","1024"
"88.3928571429","88.3928571429","526.9375","526.9375","black","legacy","legacy","legacy","0","congruent","uniform","1","undefined","1","h","111","111","0","111","111","0","0","0","111","111","111","111","0","0","0","0","09/25/22 20:44:12","600","The main experiment item","yes","FlankerTask.osexp","C:/Users/saudm/OneDrive/Desktop","no","mono","no","18","no","white","no","yes","768","legacy","31","79","C:/Users/saudm/OneDrive/Desktop/MK-subject-1.csv","legacy","Lentiform Loewenfeld","3.3.12","0","h","NA","s","s","NA","h","1402","NA","29463","17840","NA","1402","2","legacy","1024","2","48000","-16","experiment","HHHHH","1","odd","239294","241847","NA","243382","242348","2304","171893","NA","243483","244886","243380","243483","31779","189734","NA","2299","Flanker Task ","99","59017","112","yes","1024"
"88.4955752212","88.4955752212","529.194690265","529.194690265","black","legacy","legacy","legacy","0","congruent","uniform","1","undefined","1","s","112","112","0","112","112","0","0","0","112","112","112","112","0","0","0","0","09/25/22 20:44:12","600","The main experiment item","yes","FlankerTask.osexp","C:/Users/saudm/OneDrive/Desktop","no","mono","no","18","no","white","no","yes","768","legacy","32","79","C:/Users/saudm/OneDrive/Desktop/MK-subject-1.csv","legacy","Lentiform Loewenfeld","3.3.12","0","s","NA","s","s","NA","s","782","NA","29463","17840","NA","782","2","legacy","1024","2","48000","-16","experiment","SSSSS","1","odd","239294","244898","NA","246434","245399","2304","171893","NA","246535","247318","246432","246535","31779","189734","NA","2299","Flanker Task ","100","59799","113","yes","1024"
"88.5964912281","88.5964912281","528.473684211","528.473684211","black","legacy","legacy","legacy","0","congruent","uniform","1","undefined","1","s","113","113","0","113","113","0","0","0","113","113","113","113","0","0","0","0","09/25/22 20:44:12","600","The main experiment item","yes","FlankerTask.osexp","C:/Users/saudm/OneDrive/Desktop","no","mono","no","18","no","white","no","yes","768","legacy","33","79","C:/Users/saudm/OneDrive/Desktop/MK-subject-1.csv","legacy","Lentiform Loewenfeld","3.3.12","0","s","NA","s","s","NA","s","447","NA","29463","17840","NA","447","2","legacy","1024","2","48000","-16","experiment","SSSSS","1","odd","239294","247329","NA","248866","247830","2304","171893","NA","248967","249415","248863","248967","31779","189734","NA","2299","Flanker Task ","101","60246","114","yes","1024"
"88.6956521739","88.6956521739","528.286956522","528.286956522","black","legacy","legacy","legacy","0","congruent","uniform","1","undefined","1","s","114","114","0","114","114","0","0","0","114","114","114","114","0","0","0","0","09/25/22 20:44:12","600","The main experiment item","yes","FlankerTask.osexp","C:/Users/saudm/OneDrive/Desktop","no","mono","no","18","no","white","no","yes","768","legacy","34","79","C:/Users/saudm/OneDrive/Desktop/MK-subject-1.csv","legacy","Lentiform Loewenfeld","3.3.12","0","s","NA","s","s","NA","s","507","NA","29463","17840","NA","507","2","legacy","1024","2","48000","-16","experiment","SSSSS","1","odd","239294","247329","NA","250455","249418","2304","171893","NA","250556","251063","250453","250556","31779","189734","NA","2299","Flanker Task ","102","60753","115","yes","1024"
"88.7931034483","88.7931034483","528.663793103","528.663793103","black","legacy","legacy","legacy","0","incongruent","uniform","1","undefined","1","s","115","115","0","115","115","0","0","0","115","115","115","115","0","0","0","0","09/25/22 20:44:12","600","The main experiment item","yes","FlankerTask.osexp","C:/Users/saudm/OneDrive/Desktop","no","mono","no","18","no","white","no","yes","768","legacy","35","79","C:/Users/saudm/OneDrive/Desktop/MK-subject-1.csv","legacy","Lentiform Loewenfeld","3.3.12","0","s","NA","s","s","NA","s","572","NA","29463","17840","NA","572","2","legacy","1024","2","48000","-16","experiment","HHSHH","1","odd","239294","247329","NA","252114","251076","2304","171893","NA","252215","252788","252112","252215","31779","189734","NA","2299","Flanker Task ","103","61325","116","yes","1024"
"88.8888888889","88.8888888889","528.025641026","528.025641026","black","legacy","legacy","legacy","0","incongruent","uniform","1","undefined","1","s","116","116","0","116","116","0","0","0","116","116","116","116","0","0","0","0","09/25/22 20:44:12","600","The main experiment item","yes","FlankerTask.osexp","C:/Users/saudm/OneDrive/Desktop","no","mono","no","18","no","white","no","yes","768","legacy","36","79","C:/Users/saudm/OneDrive/Desktop/MK-subject-1.csv","legacy","Lentiform Loewenfeld","3.3.12","0","s","NA","s","s","NA","s","454","NA","29463","17840","NA","454","2","legacy","1024","2","48000","-16","experiment","HHSHH","1","odd","239294","247329","NA","253837","252800","2304","171893","NA","253938","254393","253835","253938","31779","189734","NA","2299","Flanker Task ","104","61779","117","yes","1024"
"88.9830508475","88.9830508475","528.983050847","528.983050847","black","legacy","legacy","legacy","0","incongruent","uniform","1","undefined","1","h","117","117","0","117","117","0","0","0","117","117","117","117","0","0","0","0","09/25/22 20:44:12","600","The main experiment item","yes","FlankerTask.osexp","C:/Users/saudm/OneDrive/Desktop","no","mono","no","18","no","white","no","yes","768","legacy","37","79","C:/Users/saudm/OneDrive/Desktop/MK-subject-1.csv","legacy","Lentiform Loewenfeld","3.3.12","0","h","NA","s","s","NA","h","641","NA","29463","17840","NA","641","2","legacy","1024","2","48000","-16","experiment","SSHSS","1","odd","239294","247329","NA","255430","254395","2304","171893","NA","255531","256173","255428","255531","31779","189734","NA","2299","Flanker Task ","105","62420","118","yes","1024"
"88.2352941176","88.2352941176","528.546218487","528.546218487","black","legacy","legacy","legacy","0","incongruent","uniform","0","undefined","0","h","118","118","0","118","118","0","0","0","118","118","118","118","0","0","0","0","09/25/22 20:44:12","600","The main experiment item","yes","FlankerTask.osexp","C:/Users/saudm/OneDrive/Desktop","no","mono","no","18","no","white","no","yes","768","legacy","38","79","C:/Users/saudm/OneDrive/Desktop/MK-subject-1.csv","legacy","Lentiform Loewenfeld","3.3.12","0","s","NA","s","s","NA","s","477","NA","29463","17840","NA","477","2","legacy","1024","2","48000","-16","experiment","SSHSS","1","odd","239294","256185","NA","257722","256686","2304","171893","NA","257823","258300","257720","257823","31779","189734","NA","2299","Flanker Task ","105","62897","119","yes","1024"
"88.3333333333","88.3333333333","528.475","528.475","black","legacy","legacy","legacy","0","incongruent","uniform","1","undefined","1","s","119","119","0","119","119","0","0","0","119","119","119","119","0","0","0","0","09/25/22 20:44:12","600","The main experiment item","yes","FlankerTask.osexp","C:/Users/saudm/OneDrive/Desktop","no","mono","no","18","no","white","no","yes","768","legacy","39","79","C:/Users/saudm/OneDrive/Desktop/MK-subject-1.csv","legacy","Lentiform Loewenfeld","3.3.12","0","s","NA","s","s","NA","s","520","NA","29463","17840","NA","520","2","legacy","1024","2","48000","-16","experiment","HHSHH","1","odd","258312","256185","NA","259848","258813","2304","171893","NA","259948","260468","259845","259948","31779","189734","NA","2299","Flanker Task ","106","63417","120","yes","1024"
"88.4297520661","88.4297520661","528.033057851","528.033057851","black","legacy","legacy","legacy","0","congruent","uniform","1","undefined","1","h","120","120","0","120","120","0","0","0","120","120","120","120","0","0","0","0","09/25/22 20:44:12","600","The main experiment item","yes","FlankerTask.osexp","C:/Users/saudm/OneDrive/Desktop","no","mono","no","18","no","white","no","yes","768","legacy","40","79","C:/Users/saudm/OneDrive/Desktop/MK-subject-1.csv","legacy","Lentiform Loewenfeld","3.3.12","0","h","NA","s","s","NA","h","475","NA","29463","17840","NA","475","2","legacy","1024","2","48000","-16","experiment","HHHHH","1","odd","258312","256185","NA","261507","260471","2304","171893","NA","261609","262085","261507","261608","31779","189734","NA","2299","Flanker Task ","107","63892","121","yes","1024"
"88.5245901639","88.5245901639","527.680327869","527.680327869","black","legacy","legacy","legacy","0","incongruent","uniform","1","undefined","1","s","121","121","0","121","121","0","0","0","121","121","121","121","0","0","0","0","09/25/22 20:44:12","600","The main experiment item","yes","FlankerTask.osexp","C:/Users/saudm/OneDrive/Desktop","no","mono","no","18","no","white","no","yes","768","legacy","41","79","C:/Users/saudm/OneDrive/Desktop/MK-subject-1.csv","legacy","Lentiform Loewenfeld","3.3.12","0","s","NA","s","s","NA","s","485","NA","29463","17840","NA","485","2","legacy","1024","2","48000","-16","experiment","HHSHH","1","odd","258312","256185","NA","263137","262097","2304","171893","NA","263238","263724","263134","263238","31779","189734","NA","2299","Flanker Task ","108","64377","122","yes","1024"
"88.6178861789","88.6178861789","528.154471545","528.154471545","black","legacy","legacy","legacy","0","incongruent","uniform","1","undefined","1","h","122","122","0","122","122","0","0","0","122","122","122","122","0","0","0","0","09/25/22 20:44:12","600","The main experiment item","yes","FlankerTask.osexp","C:/Users/saudm/OneDrive/Desktop","no","mono","no","18","no","white","no","yes","768","legacy","42","79","C:/Users/saudm/OneDrive/Desktop/MK-subject-1.csv","legacy","Lentiform Loewenfeld","3.3.12","0","h","NA","s","s","NA","h","586","NA","29463","17840","NA","586","2","legacy","1024","2","48000","-16","experiment","SSHSS","1","odd","258312","256185","NA","264763","263727","2304","171893","NA","264864","265451","264761","264864","31779","189734","NA","2299","Flanker Task ","109","64963","123","yes","1024"
"88.7096774194","88.7096774194","528.282258065","528.282258065","black","legacy","legacy","legacy","0","incongruent","uniform","1","undefined","1","s","123","123","0","123","123","0","0","0","123","123","123","123","0","0","0","0","09/25/22 20:44:12","600","The main experiment item","yes","FlankerTask.osexp","C:/Users/saudm/OneDrive/Desktop","no","mono","no","18","no","white","no","yes","768","legacy","43","79","C:/Users/saudm/OneDrive/Desktop/MK-subject-1.csv","legacy","Lentiform Loewenfeld","3.3.12","0","s","NA","s","s","NA","s","544","NA","29463","17840","NA","544","2","legacy","1024","2","48000","-16","experiment","HHSHH","1","odd","258312","256185","NA","266499","265463","2304","171893","NA","266600","267145","266498","266600","31779","189734","NA","2299","Flanker Task ","110","65507","124","yes","1024"
