"acc","accuracy","average_response_time","avg_rt","background","canvas_backend","clock_backend","color_backend","compensation","condition","coordinates","correct","correct_instructions1","correct_keyboard_response","correct_response","count_ISI","count_block1","count_block2","count_block3","count_errorFeedback","count_experiment","count_faster","count_finish","count_fixation","count_instructions1","count_instructions2","count_instructions3","count_keyboard_response","count_new_logger","count_sequence","count_stimulus","datetime","deadline","description","disable_garbage_collection","experiment_file","experiment_path","font_bold","font_family","font_italic","font_size","font_underline","foreground","form_clicks","fullscreen","height","keyboard_backend","live_row","live_row_block1","logfile","mouse_backend","opensesame_codename","opensesame_version","repeat_cycle","response","response_finish","response_instructions1","response_instructions2","response_instructions3","response_keyboard_response","response_time","response_time_finish","response_time_instructions1","response_time_instructions2","response_time_instructions3","response_time_keyboard_response","round_decimals","sampler_backend","sound_buf_size","sound_channels","sound_freq","sound_sample_size","start","stimulus","subject_nr","subject_parity","time_ISI","time_block1","time_block2","time_block3","time_errorFeedback","time_experiment","time_faster","time_finish","time_fixation","time_instructions1","time_instructions2","time_instructions3","time_keyboard_response","time_new_logger","time_sequence","time_stimulus","title","total_correct","total_response_time","total_responses","uniform_coordinates","width"
"100","100","1321","1321","black","legacy","legacy","legacy","0","incongruent","uniform","1","undefined","1","h","0","0","0","0","0","0","0","0","0","0","0","0","0","0","0","0","Mon Sep 21 17:50:37 2020","1500","The main experiment item","yes","Flankertask.osexp","/Users/annielenoir/Desktop","no","mono","no","18","no","white","no","no","768","legacy","0","0","/Users/annielenoir/Desktop/AL-subject-2.csv","legacy","Lentiform Loewenfeld","3.3.3","0","h","NA","s","NA","NA","h","1321","NA","22882","NA","NA","1321","2","legacy","1024","2","48000","-16","experiment","SSHSS","2","even","NA","25236","NA","NA","NA","2171","NA","NA","25436","2344","NA","NA","25693","27016","25274","25693","Flanker task","1","1321","1","yes","1024"
"100","100","989.5","989.5","black","legacy","legacy","legacy","0","congruent","uniform","1","undefined","1","s","1","0","0","0","1","0","1","0","1","0","0","0","1","1","1","1","Mon Sep 21 17:50:37 2020","1500","The main experiment item","yes","Flankertask.osexp","/Users/annielenoir/Desktop","no","mono","no","18","no","white","no","no","768","legacy","1","1","/Users/annielenoir/Desktop/AL-subject-2.csv","legacy","Lentiform Loewenfeld","3.3.3","0","s","NA","s","NA","NA","s","658","NA","22882","NA","NA","658","2","legacy","1024","2","48000","-16","experiment","SSSSS","2","even","27172","25236","NA","NA","NA","2171","NA","NA","28388","2344","NA","NA","28651","29310","28229","28651","Flanker task","2","1979","2","yes","1024"
"100","100","853.6666666666666","853.6666666666666","black","legacy","legacy","legacy","0","congruent","uniform","1","undefined","1","h","2","0","0","0","2","0","2","0","2","0","0","0","2","2","2","2","Mon Sep 21 17:50:37 2020","1500","The main experiment item","yes","Flankertask.osexp","/Users/annielenoir/Desktop","no","mono","no","18","no","white","no","no","768","legacy","2","2","/Users/annielenoir/Desktop/AL-subject-2.csv","legacy","Lentiform Loewenfeld","3.3.3","0","h","NA","s","NA","NA","h","582","NA","22882","NA","NA","582","2","legacy","1024","2","48000","-16","experiment","HHHHH","2","even","29474","25236","NA","NA","NA","2171","NA","NA","30671","2344","NA","NA","30924","31508","30519","30923","Flanker task","3","2561","3","yes","1024"
"100","100","782.25","782.25","black","legacy","legacy","legacy","0","congruent","uniform","1","undefined","1","s","3","0","0","0","3","0","3","0","3","0","0","0","3","3","3","3","Mon Sep 21 17:50:37 2020","1500","The main experiment item","yes","Flankertask.osexp","/Users/annielenoir/Desktop","no","mono","no","18","no","white","no","no","768","legacy","3","3","/Users/annielenoir/Desktop/AL-subject-2.csv","legacy","Lentiform Loewenfeld","3.3.3","0","s","NA","s","NA","NA","s","568","NA","22882","NA","NA","568","2","legacy","1024","2","48000","-16","experiment","SSSSS","2","even","31659","25236","NA","NA","NA","2171","NA","NA","32888","2344","NA","NA","33146","33716","32704","33146","Flanker task","4","3129","4","yes","1024"
"80","80","713","713","black","legacy","legacy","legacy","0","incongruent","uniform","0","undefined","0","s","4","0","0","0","4","0","4","0","4","0","0","0","4","4","4","4","Mon Sep 21 17:50:37 2020","1500","The main experiment item","yes","Flankertask.osexp","/Users/annielenoir/Desktop","no","mono","no","18","no","white","no","no","768","legacy","4","4","/Users/annielenoir/Desktop/AL-subject-2.csv","legacy","Lentiform Loewenfeld","3.3.3","0","h","NA","s","NA","NA","h","436","NA","22882","NA","NA","436","2","legacy","1024","2","48000","-16","experiment","HHSHH","2","even","33862","25236","NA","NA","NA","2171","NA","NA","35052","2344","NA","NA","35297","35734","34909","35297","Flanker task","4","3565","5","yes","1024"
"83.33333333333333","83.33333333333333","728.5","728.5","black","legacy","legacy","legacy","0","incongruent","uniform","1","undefined","1","h","5","0","0","0","5","0","5","0","5","0","0","0","5","5","5","5","Mon Sep 21 17:50:37 2020","1500","The main experiment item","yes","Flankertask.osexp","/Users/annielenoir/Desktop","no","mono","no","18","no","white","no","no","768","legacy","5","5","/Users/annielenoir/Desktop/AL-subject-2.csv","legacy","Lentiform Loewenfeld","3.3.3","0","h","NA","s","NA","NA","h","806","NA","22882","NA","NA","806","2","legacy","1024","2","48000","-16","experiment","SSHSS","2","even","36526","25236","NA","NA","35880","2171","NA","NA","37720","2344","NA","NA","37970","38777","37571","37970","Flanker task","5","4371","6","yes","1024"
"85.71428571428571","85.71428571428571","709.1428571428571","709.1428571428571","black","legacy","legacy","legacy","0","congruent","uniform","1","undefined","1","h","6","0","0","0","6","0","6","0","6","0","0","0","6","6","6","6","Mon Sep 21 17:50:37 2020","1500","The main experiment item","yes","Flankertask.osexp","/Users/annielenoir/Desktop","no","mono","no","18","no","white","no","no","768","legacy","6","6","/Users/annielenoir/Desktop/AL-subject-2.csv","legacy","Lentiform Loewenfeld","3.3.3","0","h","NA","s","NA","NA","h","593","NA","22882","NA","NA","593","2","legacy","1024","2","48000","-16","experiment","HHHHH","2","even","38930","25236","NA","NA","35880","2171","NA","NA","40116","2344","NA","NA","40359","40953","39973","40359","Flanker task","6","4964","7","yes","1024"
"87.5","87.5","680.75","680.75","black","legacy","legacy","legacy","0","congruent","uniform","1","undefined","1","s","7","0","0","0","7","0","7","0","7","0","0","0","7","7","7","7","Mon Sep 21 17:50:37 2020","1500","The main experiment item","yes","Flankertask.osexp","/Users/annielenoir/Desktop","no","mono","no","18","no","white","no","no","768","legacy","7","7","/Users/annielenoir/Desktop/AL-subject-2.csv","legacy","Lentiform Loewenfeld","3.3.3","0","s","NA","s","NA","NA","s","482","NA","22882","NA","NA","482","2","legacy","1024","2","48000","-16","experiment","SSSSS","2","even","41101","25236","NA","NA","35880","2171","NA","NA","42296","2344","NA","NA","42541","43024","42150","42541","Flanker task","7","5446","8","yes","1024"
"88.88888888888889","88.88888888888889","657.2222222222222","657.2222222222222","black","legacy","legacy","legacy","0","congruent","uniform","1","undefined","1","s","8","0","0","0","8","0","8","0","8","0","0","0","8","8","8","8","Mon Sep 21 17:50:37 2020","1500","The main experiment item","yes","Flankertask.osexp","/Users/annielenoir/Desktop","no","mono","no","18","no","white","no","no","768","legacy","8","8","/Users/annielenoir/Desktop/AL-subject-2.csv","legacy","Lentiform Loewenfeld","3.3.3","0","s","NA","s","NA","NA","s","469","NA","22882","NA","NA","469","2","legacy","1024","2","48000","-16","experiment","SSSSS","2","even","43170","25236","NA","NA","35880","2171","NA","NA","44365","2344","NA","NA","44608","45078","44220","44608","Flanker task","8","5915","9","yes","1024"
"90","90","668.9","668.9","black","legacy","legacy","legacy","0","congruent","uniform","1","undefined","1","h","9","0","0","0","9","0","9","0","9","0","0","0","9","9","9","9","Mon Sep 21 17:50:37 2020","1500","The main experiment item","yes","Flankertask.osexp","/Users/annielenoir/Desktop","no","mono","no","18","no","white","no","no","768","legacy","9","9","/Users/annielenoir/Desktop/AL-subject-2.csv","legacy","Lentiform Loewenfeld","3.3.3","0","h","NA","s","NA","NA","h","774","NA","22882","NA","NA","774","2","legacy","1024","2","48000","-16","experiment","HHHHH","2","even","45228","25236","NA","NA","35880","2171","NA","NA","46427","2344","NA","NA","46673","47448","46279","46673","Flanker task","9","6689","10","yes","1024"
"90.9090909090909","90.9090909090909","683.0909090909091","683.0909090909091","black","legacy","legacy","legacy","0","incongruent","uniform","1","undefined","1","h","10","0","0","0","10","0","10","0","10","0","0","0","10","10","10","10","Mon Sep 21 17:50:37 2020","1500","The main experiment item","yes","Flankertask.osexp","/Users/annielenoir/Desktop","no","mono","no","18","no","white","no","no","768","legacy","10","10","/Users/annielenoir/Desktop/AL-subject-2.csv","legacy","Lentiform Loewenfeld","3.3.3","0","h","NA","s","NA","NA","h","825","NA","22882","NA","NA","825","2","legacy","1024","2","48000","-16","experiment","SSHSS","2","even","47600","25236","NA","NA","35880","2171","NA","NA","48789","2344","NA","NA","49031","49858","48644","49031","Flanker task","10","7514","11","yes","1024"
"91.66666666666667","91.66666666666667","673.6666666666666","673.6666666666666","black","legacy","legacy","legacy","0","congruent","uniform","1","undefined","1","h","11","0","0","0","11","0","11","0","11","0","0","0","11","11","11","11","Mon Sep 21 17:50:37 2020","1500","The main experiment item","yes","Flankertask.osexp","/Users/annielenoir/Desktop","no","mono","no","18","no","white","no","no","768","legacy","11","11","/Users/annielenoir/Desktop/AL-subject-2.csv","legacy","Lentiform Loewenfeld","3.3.3","0","h","NA","s","NA","NA","h","570","NA","22882","NA","NA","570","2","legacy","1024","2","48000","-16","experiment","HHHHH","2","even","50006","25236","NA","NA","35880","2171","NA","NA","51203","2344","NA","NA","51448","52019","51057","51448","Flanker task","11","8084","12","yes","1024"
"92.3076923076923","92.3076923076923","676.3846153846154","676.3846153846154","black","legacy","legacy","legacy","0","incongruent","uniform","1","undefined","1","s","12","0","0","0","12","0","12","0","12","0","0","0","12","12","12","12","Mon Sep 21 17:50:37 2020","1500","The main experiment item","yes","Flankertask.osexp","/Users/annielenoir/Desktop","no","mono","no","18","no","white","no","no","768","legacy","12","12","/Users/annielenoir/Desktop/AL-subject-2.csv","legacy","Lentiform Loewenfeld","3.3.3","0","s","NA","s","NA","NA","s","709","NA","22882","NA","NA","709","2","legacy","1024","2","48000","-16","experiment","HHSHH","2","even","52163","25236","NA","NA","35880","2171","NA","NA","53361","2344","NA","NA","53608","54318","53211","53608","Flanker task","12","8793","13","yes","1024"
"92.85714285714286","92.85714285714286","670.2857142857143","670.2857142857143","black","legacy","legacy","legacy","0","congruent","uniform","1","undefined","1","s","13","0","0","0","13","0","13","0","13","0","0","0","13","13","13","13","Mon Sep 21 17:50:37 2020","1500","The main experiment item","yes","Flankertask.osexp","/Users/annielenoir/Desktop","no","mono","no","18","no","white","no","no","768","legacy","13","13","/Users/annielenoir/Desktop/AL-subject-2.csv","legacy","Lentiform Loewenfeld","3.3.3","0","s","NA","s","NA","NA","s","591","NA","22882","NA","NA","591","2","legacy","1024","2","48000","-16","experiment","SSSSS","2","even","54464","25236","NA","NA","35880","2171","NA","NA","55663","2344","NA","NA","55915","56507","55514","55915","Flanker task","13","9384","14","yes","1024"
"93.33333333333333","93.33333333333333","666.1333333333333","666.1333333333333","black","legacy","legacy","legacy","0","incongruent","uniform","1","undefined","1","s","14","0","0","0","14","0","14","0","14","0","0","0","14","14","14","14","Mon Sep 21 17:50:37 2020","1500","The main experiment item","yes","Flankertask.osexp","/Users/annielenoir/Desktop","no","mono","no","18","no","white","no","no","768","legacy","14","14","/Users/annielenoir/Desktop/AL-subject-2.csv","legacy","Lentiform Loewenfeld","3.3.3","0","s","NA","s","NA","NA","s","608","NA","22882","NA","NA","608","2","legacy","1024","2","48000","-16","experiment","HHSHH","2","even","56651","25236","NA","NA","35880","2171","NA","NA","57849","2344","NA","NA","58094","58704","57701","58094","Flanker task","14","9992","15","yes","1024"
"93.75","93.75","656.75","656.75","black","legacy","legacy","legacy","0","congruent","uniform","1","undefined","1","h","15","0","0","0","15","0","15","0","15","0","0","0","15","15","15","15","Mon Sep 21 17:50:37 2020","1500","The main experiment item","yes","Flankertask.osexp","/Users/annielenoir/Desktop","no","mono","no","18","no","white","no","no","768","legacy","15","15","/Users/annielenoir/Desktop/AL-subject-2.csv","legacy","Lentiform Loewenfeld","3.3.3","0","h","NA","s","NA","NA","h","516","NA","22882","NA","NA","516","2","legacy","1024","2","48000","-16","experiment","HHHHH","2","even","58854","25236","NA","NA","35880","2171","NA","NA","60040","2344","NA","NA","60292","60810","59897","60292","Flanker task","15","10508","16","yes","1024"
"94.11764705882354","94.11764705882354","645.7647058823529","645.7647058823529","black","legacy","legacy","legacy","0","incongruent","uniform","1","undefined","1","s","16","0","0","0","16","0","16","0","16","0","0","0","16","16","16","16","Mon Sep 21 17:50:37 2020","1500","The main experiment item","yes","Flankertask.osexp","/Users/annielenoir/Desktop","no","mono","no","18","no","white","no","no","768","legacy","16","16","/Users/annielenoir/Desktop/AL-subject-2.csv","legacy","Lentiform Loewenfeld","3.3.3","0","s","NA","s","NA","NA","s","470","NA","22882","NA","NA","470","2","legacy","1024","2","48000","-16","experiment","HHSHH","2","even","60956","25236","NA","NA","35880","2171","NA","NA","62152","2344","NA","NA","62395","62867","62005","62395","Flanker task","16","10978","17","yes","1024"
"94.44444444444444","94.44444444444444","635.6666666666666","635.6666666666666","black","legacy","legacy","legacy","0","congruent","uniform","1","undefined","1","h","17","0","0","0","17","0","17","0","17","0","0","0","17","17","17","17","Mon Sep 21 17:50:37 2020","1500","The main experiment item","yes","Flankertask.osexp","/Users/annielenoir/Desktop","no","mono","no","18","no","white","no","no","768","legacy","17","17","/Users/annielenoir/Desktop/AL-subject-2.csv","legacy","Lentiform Loewenfeld","3.3.3","0","h","NA","s","NA","NA","h","464","NA","22882","NA","NA","464","2","legacy","1024","2","48000","-16","experiment","HHHHH","2","even","63019","25236","NA","NA","35880","2171","NA","NA","64229","2344","NA","NA","64474","64940","64082","64474","Flanker task","17","11442","18","yes","1024"
"94.73684210526316","94.73684210526316","622.5263157894736","622.5263157894736","black","legacy","legacy","legacy","0","congruent","uniform","1","undefined","1","h","18","0","0","0","18","0","18","0","18","0","0","0","18","18","18","18","Mon Sep 21 17:50:37 2020","1500","The main experiment item","yes","Flankertask.osexp","/Users/annielenoir/Desktop","no","mono","no","18","no","white","no","no","768","legacy","18","18","/Users/annielenoir/Desktop/AL-subject-2.csv","legacy","Lentiform Loewenfeld","3.3.3","0","h","NA","s","NA","NA","h","386","NA","22882","NA","NA","386","2","legacy","1024","2","48000","-16","experiment","HHHHH","2","even","65088","25236","NA","NA","35880","2171","NA","NA","66283","2344","NA","NA","66531","66918","66138","66531","Flanker task","18","11828","19","yes","1024"
"95","95","617.7","617.7","black","legacy","legacy","legacy","0","congruent","uniform","1","undefined","1","h","19","0","0","0","19","0","19","0","19","0","0","0","19","19","19","19","Mon Sep 21 17:50:37 2020","1500","The main experiment item","yes","Flankertask.osexp","/Users/annielenoir/Desktop","no","mono","no","18","no","white","no","no","768","legacy","19","19","/Users/annielenoir/Desktop/AL-subject-2.csv","legacy","Lentiform Loewenfeld","3.3.3","0","h","NA","s","NA","NA","h","526","NA","22882","NA","NA","526","2","legacy","1024","2","48000","-16","experiment","HHHHH","2","even","67067","25236","NA","NA","35880","2171","NA","NA","68276","2344","NA","NA","68521","69048","68128","68520","Flanker task","19","12354","20","yes","1024"
"95.23809523809524","95.23809523809524","619.047619047619","619.047619047619","black","legacy","legacy","legacy","0","congruent","uniform","1","undefined","1","s","20","0","0","0","20","0","20","0","20","0","0","0","20","20","20","20","Mon Sep 21 17:50:37 2020","1500","The main experiment item","yes","Flankertask.osexp","/Users/annielenoir/Desktop","no","mono","no","18","no","white","no","no","768","legacy","20","20","/Users/annielenoir/Desktop/AL-subject-2.csv","legacy","Lentiform Loewenfeld","3.3.3","0","s","NA","s","NA","NA","s","646","NA","22882","NA","NA","646","2","legacy","1024","2","48000","-16","experiment","SSSSS","2","even","69193","25236","NA","NA","35880","2171","NA","NA","70412","2344","NA","NA","70676","71323","70245","70676","Flanker task","20","13000","21","yes","1024"
"95.45454545454545","95.45454545454545","619.8181818181819","619.8181818181819","black","legacy","legacy","legacy","0","incongruent","uniform","1","undefined","1","s","21","0","0","0","21","0","21","0","21","0","0","0","21","21","21","21","Mon Sep 21 17:50:37 2020","1500","The main experiment item","yes","Flankertask.osexp","/Users/annielenoir/Desktop","no","mono","no","18","no","white","no","no","768","legacy","21","21","/Users/annielenoir/Desktop/AL-subject-2.csv","legacy","Lentiform Loewenfeld","3.3.3","0","s","NA","s","NA","NA","s","636","NA","22882","NA","NA","636","2","legacy","1024","2","48000","-16","experiment","HHSHH","2","even","71469","25236","NA","NA","35880","2171","NA","NA","72669","2344","NA","NA","72914","73551","72522","72913","Flanker task","21","13636","22","yes","1024"
"95.65217391304348","95.65217391304348","608.5652173913044","608.5652173913044","black","legacy","legacy","legacy","0","congruent","uniform","1","undefined","1","s","22","0","0","0","22","0","22","0","22","0","0","0","22","22","22","22","Mon Sep 21 17:50:37 2020","1500","The main experiment item","yes","Flankertask.osexp","/Users/annielenoir/Desktop","no","mono","no","18","no","white","no","no","768","legacy","22","22","/Users/annielenoir/Desktop/AL-subject-2.csv","legacy","Lentiform Loewenfeld","3.3.3","0","s","NA","s","NA","NA","s","361","NA","22882","NA","NA","361","2","legacy","1024","2","48000","-16","experiment","SSSSS","2","even","73697","25236","NA","NA","35880","2171","NA","NA","74892","2344","NA","NA","75137","75499","74747","75137","Flanker task","22","13997","23","yes","1024"
"95.83333333333333","95.83333333333333","606.5416666666666","606.5416666666666","black","legacy","legacy","legacy","0","congruent","uniform","1","undefined","1","s","23","0","0","0","23","0","23","0","23","0","0","0","23","23","23","23","Mon Sep 21 17:50:37 2020","1500","The main experiment item","yes","Flankertask.osexp","/Users/annielenoir/Desktop","no","mono","no","18","no","white","no","no","768","legacy","23","23","/Users/annielenoir/Desktop/AL-subject-2.csv","legacy","Lentiform Loewenfeld","3.3.3","0","s","NA","s","NA","NA","s","560","NA","22882","NA","NA","560","2","legacy","1024","2","48000","-16","experiment","SSSSS","2","even","75643","25236","NA","NA","35880","2171","NA","NA","76839","2344","NA","NA","77083","77644","76692","77083","Flanker task","23","14557","24","yes","1024"
"96","96","597.16","597.16","black","legacy","legacy","legacy","0","congruent","uniform","1","undefined","1","s","24","0","0","0","24","0","24","0","24","0","0","0","24","24","24","24","Mon Sep 21 17:50:37 2020","1500","The main experiment item","yes","Flankertask.osexp","/Users/annielenoir/Desktop","no","mono","no","18","no","white","no","no","768","legacy","24","24","/Users/annielenoir/Desktop/AL-subject-2.csv","legacy","Lentiform Loewenfeld","3.3.3","0","s","NA","s","NA","NA","s","372","NA","22882","NA","NA","372","2","legacy","1024","2","48000","-16","experiment","SSSSS","2","even","77788","25236","NA","NA","35880","2171","NA","NA","78986","2344","NA","NA","79230","79603","78838","79230","Flanker task","24","14929","25","yes","1024"
"92.3076923076923","92.3076923076923","588.3461538461538","588.3461538461538","black","legacy","legacy","legacy","0","incongruent","uniform","0","undefined","0","h","25","0","0","0","25","0","25","0","25","0","0","0","25","25","25","25","Mon Sep 21 17:50:37 2020","1500","The main experiment item","yes","Flankertask.osexp","/Users/annielenoir/Desktop","no","mono","no","18","no","white","no","no","768","legacy","25","25","/Users/annielenoir/Desktop/AL-subject-2.csv","legacy","Lentiform Loewenfeld","3.3.3","0","s","NA","s","NA","NA","s","368","NA","22882","NA","NA","368","2","legacy","1024","2","48000","-16","experiment","SSHSS","2","even","79746","25236","NA","NA","35880","2171","NA","NA","80934","2344","NA","NA","81174","81543","80792","81174","Flanker task","24","15297","26","yes","1024"
"92.5925925925926","92.5925925925926","589.925925925926","589.925925925926","black","legacy","legacy","legacy","0","incongruent","uniform","1","undefined","1","s","26","0","0","0","26","0","26","0","26","0","0","0","26","26","26","26","Mon Sep 21 17:50:37 2020","1500","The main experiment item","yes","Flankertask.osexp","/Users/annielenoir/Desktop","no","mono","no","18","no","white","no","no","768","legacy","26","26","/Users/annielenoir/Desktop/AL-subject-2.csv","legacy","Lentiform Loewenfeld","3.3.3","0","s","NA","s","NA","NA","s","631","NA","22882","NA","NA","631","2","legacy","1024","2","48000","-16","experiment","HHSHH","2","even","82329","25236","NA","NA","81685","2171","NA","NA","83534","2344","NA","NA","83783","84415","83389","83783","Flanker task","25","15928","27","yes","1024"
"92.85714285714286","92.85714285714286","590.2857142857143","590.2857142857143","black","legacy","legacy","legacy","0","incongruent","uniform","1","undefined","1","s","27","0","0","0","27","0","27","0","27","0","0","0","27","27","27","27","Mon Sep 21 17:50:37 2020","1500","The main experiment item","yes","Flankertask.osexp","/Users/annielenoir/Desktop","no","mono","no","18","no","white","no","no","768","legacy","27","27","/Users/annielenoir/Desktop/AL-subject-2.csv","legacy","Lentiform Loewenfeld","3.3.3","0","s","NA","s","NA","NA","s","600","NA","22882","NA","NA","600","2","legacy","1024","2","48000","-16","experiment","HHSHH","2","even","84567","25236","NA","NA","81685","2171","NA","NA","85756","2344","NA","NA","86002","86603","85611","86001","Flanker task","26","16528","28","yes","1024"
"93.10344827586206","93.10344827586206","598.2413793103449","598.2413793103449","black","legacy","legacy","legacy","0","incongruent","uniform","1","undefined","1","h","28","0","0","0","28","0","28","0","28","0","0","0","28","28","28","28","Mon Sep 21 17:50:37 2020","1500","The main experiment item","yes","Flankertask.osexp","/Users/annielenoir/Desktop","no","mono","no","18","no","white","no","no","768","legacy","28","28","/Users/annielenoir/Desktop/AL-subject-2.csv","legacy","Lentiform Loewenfeld","3.3.3","0","h","NA","s","NA","NA","h","821","NA","22882","NA","NA","821","2","legacy","1024","2","48000","-16","experiment","SSHSS","2","even","86753","25236","NA","NA","81685","2171","NA","NA","87941","2344","NA","NA","88186","89008","87797","88186","Flanker task","27","17349","29","yes","1024"
"93.33333333333333","93.33333333333333","596.9","596.9","black","legacy","legacy","legacy","0","congruent","uniform","1","undefined","1","h","29","0","0","0","29","0","29","0","29","0","0","0","29","29","29","29","Mon Sep 21 17:50:37 2020","1500","The main experiment item","yes","Flankertask.osexp","/Users/annielenoir/Desktop","no","mono","no","18","no","white","no","no","768","legacy","29","29","/Users/annielenoir/Desktop/AL-subject-2.csv","legacy","Lentiform Loewenfeld","3.3.3","0","h","NA","s","NA","NA","h","558","NA","22882","NA","NA","558","2","legacy","1024","2","48000","-16","experiment","HHHHH","2","even","89162","25236","NA","NA","81685","2171","NA","NA","90360","2344","NA","NA","90606","91165","90214","90606","Flanker task","28","17907","30","yes","1024"
"93.54838709677419","93.54838709677419","598.6129032258065","598.6129032258065","black","legacy","legacy","legacy","0","incongruent","uniform","1","undefined","1","h","30","0","0","0","30","0","30","0","30","0","0","0","30","30","30","30","Mon Sep 21 17:50:37 2020","1500","The main experiment item","yes","Flankertask.osexp","/Users/annielenoir/Desktop","no","mono","no","18","no","white","no","no","768","legacy","30","30","/Users/annielenoir/Desktop/AL-subject-2.csv","legacy","Lentiform Loewenfeld","3.3.3","0","h","NA","s","NA","NA","h","650","NA","22882","NA","NA","650","2","legacy","1024","2","48000","-16","experiment","SSHSS","2","even","91318","25236","NA","NA","81685","2171","NA","NA","92517","2344","NA","NA","92786","93437","92366","92785","Flanker task","29","18557","31","yes","1024"
"93.75","93.75","597.71875","597.71875","black","legacy","legacy","legacy","0","incongruent","uniform","1","undefined","1","h","31","0","0","0","31","0","31","0","31","0","0","0","31","31","31","31","Mon Sep 21 17:50:37 2020","1500","The main experiment item","yes","Flankertask.osexp","/Users/annielenoir/Desktop","no","mono","no","18","no","white","no","no","768","legacy","31","31","/Users/annielenoir/Desktop/AL-subject-2.csv","legacy","Lentiform Loewenfeld","3.3.3","0","h","NA","s","NA","NA","h","570","NA","22882","NA","NA","570","2","legacy","1024","2","48000","-16","experiment","SSHSS","2","even","93589","25236","NA","NA","81685","2171","NA","NA","94786","2344","NA","NA","95034","95606","94638","95034","Flanker task","30","19127","32","yes","1024"
"93.93939393939394","93.93939393939394","598.060606060606","598.060606060606","black","legacy","legacy","legacy","0","congruent","uniform","1","undefined","1","h","32","0","0","0","32","0","32","0","32","0","0","0","32","32","32","32","Mon Sep 21 17:50:37 2020","1500","The main experiment item","yes","Flankertask.osexp","/Users/annielenoir/Desktop","no","mono","no","18","no","white","no","no","768","legacy","32","32","/Users/annielenoir/Desktop/AL-subject-2.csv","legacy","Lentiform Loewenfeld","3.3.3","0","h","NA","s","NA","NA","h","609","NA","22882","NA","NA","609","2","legacy","1024","2","48000","-16","experiment","HHHHH","2","even","95753","25236","NA","NA","81685","2171","NA","NA","96951","2344","NA","NA","97201","97812","96802","97201","Flanker task","31","19736","33","yes","1024"
"94.11764705882354","94.11764705882354","592.6470588235294","592.6470588235294","black","legacy","legacy","legacy","0","congruent","uniform","1","undefined","1","s","33","0","0","0","33","0","33","0","33","0","0","0","33","33","33","33","Mon Sep 21 17:50:37 2020","1500","The main experiment item","yes","Flankertask.osexp","/Users/annielenoir/Desktop","no","mono","no","18","no","white","no","no","768","legacy","33","33","/Users/annielenoir/Desktop/AL-subject-2.csv","legacy","Lentiform Loewenfeld","3.3.3","0","s","NA","s","NA","NA","s","414","NA","22882","NA","NA","414","2","legacy","1024","2","48000","-16","experiment","SSSSS","2","even","97960","25236","NA","NA","81685","2171","NA","NA","99155","2344","NA","NA","99403","99819","99007","99403","Flanker task","32","20150","34","yes","1024"
"94.28571428571429","94.28571428571429","591.3428571428572","591.3428571428572","black","legacy","legacy","legacy","0","incongruent","uniform","1","undefined","1","h","34","0","0","0","34","0","34","0","34","0","0","0","34","34","34","34","Mon Sep 21 17:50:37 2020","1500","The main experiment item","yes","Flankertask.osexp","/Users/annielenoir/Desktop","no","mono","no","18","no","white","no","no","768","legacy","34","34","/Users/annielenoir/Desktop/AL-subject-2.csv","legacy","Lentiform Loewenfeld","3.3.3","0","h","NA","s","NA","NA","h","547","NA","22882","NA","NA","547","2","legacy","1024","2","48000","-16","experiment","SSHSS","2","even","99971","25236","NA","NA","81685","2171","NA","NA","101166","2344","NA","NA","101415","101964","101018","101415","Flanker task","33","20697","35","yes","1024"
"94.44444444444444","94.44444444444444","589.6111111111111","589.6111111111111","black","legacy","legacy","legacy","0","congruent","uniform","1","undefined","1","h","35","0","0","0","35","0","35","0","35","0","0","0","35","35","35","35","Mon Sep 21 17:50:37 2020","1500","The main experiment item","yes","Flankertask.osexp","/Users/annielenoir/Desktop","no","mono","no","18","no","white","no","no","768","legacy","35","35","/Users/annielenoir/Desktop/AL-subject-2.csv","legacy","Lentiform Loewenfeld","3.3.3","0","h","NA","s","NA","NA","h","529","NA","22882","NA","NA","529","2","legacy","1024","2","48000","-16","experiment","HHHHH","2","even","102110","25236","NA","NA","81685","2171","NA","NA","103312","2344","NA","NA","103563","104093","103161","103563","Flanker task","34","21226","36","yes","1024"
"94.5945945945946","94.5945945945946","588.1891891891892","588.1891891891892","black","legacy","legacy","legacy","0","incongruent","uniform","1","undefined","1","s","36","0","0","0","36","0","36","0","36","0","0","0","36","36","36","36","Mon Sep 21 17:50:37 2020","1500","The main experiment item","yes","Flankertask.osexp","/Users/annielenoir/Desktop","no","mono","no","18","no","white","no","no","768","legacy","36","36","/Users/annielenoir/Desktop/AL-subject-2.csv","legacy","Lentiform Loewenfeld","3.3.3","0","s","NA","s","NA","NA","s","537","NA","22882","NA","NA","537","2","legacy","1024","2","48000","-16","experiment","HHSHH","2","even","104241","25236","NA","NA","81685","2171","NA","NA","105440","2344","NA","NA","105694","106233","105290","105694","Flanker task","35","21763","37","yes","1024"
"94.73684210526316","94.73684210526316","594.1315789473684","594.1315789473684","black","legacy","legacy","legacy","0","incongruent","uniform","1","undefined","1","s","37","0","0","0","37","0","37","0","37","0","0","0","37","37","37","37","Mon Sep 21 17:50:37 2020","1500","The main experiment item","yes","Flankertask.osexp","/Users/annielenoir/Desktop","no","mono","no","18","no","white","no","no","768","legacy","37","37","/Users/annielenoir/Desktop/AL-subject-2.csv","legacy","Lentiform Loewenfeld","3.3.3","0","s","NA","s","NA","NA","s","814","NA","22882","NA","NA","814","2","legacy","1024","2","48000","-16","experiment","HHSHH","2","even","106382","25236","NA","NA","81685","2171","NA","NA","107579","2344","NA","NA","107829","108644","107431","107829","Flanker task","36","22577","38","yes","1024"
"94.87179487179488","94.87179487179488","594.6153846153846","594.6153846153846","black","legacy","legacy","legacy","0","incongruent","uniform","1","undefined","1","s","38","0","0","0","38","0","38","0","38","0","0","0","38","38","38","38","Mon Sep 21 17:50:37 2020","1500","The main experiment item","yes","Flankertask.osexp","/Users/annielenoir/Desktop","no","mono","no","18","no","white","no","no","768","legacy","38","38","/Users/annielenoir/Desktop/AL-subject-2.csv","legacy","Lentiform Loewenfeld","3.3.3","0","s","NA","s","NA","NA","s","613","NA","22882","NA","NA","613","2","legacy","1024","2","48000","-16","experiment","HHSHH","2","even","108800","25236","NA","NA","81685","2171","NA","NA","109994","2344","NA","NA","110247","110861","109849","110247","Flanker task","37","23190","39","yes","1024"
"95","95","592.85","592.85","black","legacy","legacy","legacy","0","incongruent","uniform","1","undefined","1","h","39","0","0","0","39","0","39","0","39","0","0","0","39","39","39","39","Mon Sep 21 17:50:37 2020","1500","The main experiment item","yes","Flankertask.osexp","/Users/annielenoir/Desktop","no","mono","no","18","no","white","no","no","768","legacy","39","39","/Users/annielenoir/Desktop/AL-subject-2.csv","legacy","Lentiform Loewenfeld","3.3.3","0","h","NA","s","NA","NA","h","524","NA","22882","NA","NA","524","2","legacy","1024","2","48000","-16","experiment","SSHSS","2","even","111009","25236","NA","NA","81685","2171","NA","NA","112209","2344","NA","NA","112457","112982","112058","112457","Flanker task","38","23714","40","yes","1024"
"95.1219512195122","95.1219512195122","589.7073170731708","589.7073170731708","black","legacy","legacy","legacy","0","congruent","uniform","1","undefined","1","h","40","0","0","0","40","0","40","0","40","0","0","0","40","40","40","40","Mon Sep 21 17:50:37 2020","1500","The main experiment item","yes","Flankertask.osexp","/Users/annielenoir/Desktop","no","mono","no","18","no","white","no","no","768","legacy","40","40","/Users/annielenoir/Desktop/AL-subject-2.csv","legacy","Lentiform Loewenfeld","3.3.3","0","h","NA","s","NA","NA","h","464","NA","22882","NA","NA","464","2","legacy","1024","2","48000","-16","experiment","HHHHH","2","even","113128","25236","NA","NA","81685","2171","NA","NA","114326","2344","NA","NA","114573","115038","114177","114573","Flanker task","39","24178","41","yes","1024"
"95.23809523809524","95.23809523809524","593.952380952381","593.952380952381","black","legacy","legacy","legacy","0","incongruent","uniform","1","undefined","1","h","41","0","0","0","41","0","41","0","41","0","0","0","41","41","41","41","Mon Sep 21 17:50:37 2020","1500","The main experiment item","yes","Flankertask.osexp","/Users/annielenoir/Desktop","no","mono","no","18","no","white","no","no","768","legacy","41","41","/Users/annielenoir/Desktop/AL-subject-2.csv","legacy","Lentiform Loewenfeld","3.3.3","0","h","NA","s","NA","NA","h","768","NA","22882","NA","NA","768","2","legacy","1024","2","48000","-16","experiment","SSHSS","2","even","115189","25236","NA","NA","81685","2171","NA","NA","116389","2344","NA","NA","116638","117407","116239","116638","Flanker task","40","24946","42","yes","1024"
"95.34883720930233","95.34883720930233","589.0697674418604","589.0697674418604","black","legacy","legacy","legacy","0","incongruent","uniform","1","undefined","1","h","42","0","0","0","42","0","42","0","42","0","0","0","42","42","42","42","Mon Sep 21 17:50:37 2020","1500","The main experiment item","yes","Flankertask.osexp","/Users/annielenoir/Desktop","no","mono","no","18","no","white","no","no","768","legacy","42","42","/Users/annielenoir/Desktop/AL-subject-2.csv","legacy","Lentiform Loewenfeld","3.3.3","0","h","NA","s","NA","NA","h","384","NA","22882","NA","NA","384","2","legacy","1024","2","48000","-16","experiment","SSHSS","2","even","117560","25236","NA","NA","81685","2171","NA","NA","118761","2344","NA","NA","119010","119395","118609","119010","Flanker task","41","25330","43","yes","1024"
"95.45454545454545","95.45454545454545","588.9090909090909","588.9090909090909","black","legacy","legacy","legacy","0","incongruent","uniform","1","undefined","1","s","43","0","0","0","43","0","43","0","43","0","0","0","43","43","43","43","Mon Sep 21 17:50:37 2020","1500","The main experiment item","yes","Flankertask.osexp","/Users/annielenoir/Desktop","no","mono","no","18","no","white","no","no","768","legacy","43","43","/Users/annielenoir/Desktop/AL-subject-2.csv","legacy","Lentiform Loewenfeld","3.3.3","0","s","NA","s","NA","NA","s","582","NA","22882","NA","NA","582","2","legacy","1024","2","48000","-16","experiment","HHSHH","2","even","119544","25236","NA","NA","81685","2171","NA","NA","120751","2344","NA","NA","121012","121595","120594","121012","Flanker task","42","25912","44","yes","1024"
"95.55555555555556","95.55555555555556","591","591","black","legacy","legacy","legacy","0","incongruent","uniform","1","undefined","1","s","44","0","0","0","44","0","44","0","44","0","0","0","44","44","44","44","Mon Sep 21 17:50:37 2020","1500","The main experiment item","yes","Flankertask.osexp","/Users/annielenoir/Desktop","no","mono","no","18","no","white","no","no","768","legacy","44","44","/Users/annielenoir/Desktop/AL-subject-2.csv","legacy","Lentiform Loewenfeld","3.3.3","0","s","NA","s","NA","NA","s","683","NA","22882","NA","NA","683","2","legacy","1024","2","48000","-16","experiment","HHSHH","2","even","121746","25236","NA","NA","81685","2171","NA","NA","122982","2344","NA","NA","123235","123919","122800","123235","Flanker task","43","26595","45","yes","1024"
"95.65217391304348","95.65217391304348","590.1739130434783","590.1739130434783","black","legacy","legacy","legacy","0","incongruent","uniform","1","undefined","1","s","45","0","0","0","45","0","45","0","45","0","0","0","45","45","45","45","Mon Sep 21 17:50:37 2020","1500","The main experiment item","yes","Flankertask.osexp","/Users/annielenoir/Desktop","no","mono","no","18","no","white","no","no","768","legacy","45","45","/Users/annielenoir/Desktop/AL-subject-2.csv","legacy","Lentiform Loewenfeld","3.3.3","0","s","NA","s","NA","NA","s","553","NA","22882","NA","NA","553","2","legacy","1024","2","48000","-16","experiment","HHSHH","2","even","124076","25236","NA","NA","81685","2171","NA","NA","125277","2344","NA","NA","125528","126083","125126","125527","Flanker task","44","27148","46","yes","1024"
"95.74468085106383","95.74468085106383","586.5531914893617","586.5531914893617","black","legacy","legacy","legacy","0","incongruent","uniform","1","undefined","1","h","46","0","0","0","46","0","46","0","46","0","0","0","46","46","46","46","Mon Sep 21 17:50:37 2020","1500","The main experiment item","yes","Flankertask.osexp","/Users/annielenoir/Desktop","no","mono","no","18","no","white","no","no","768","legacy","46","46","/Users/annielenoir/Desktop/AL-subject-2.csv","legacy","Lentiform Loewenfeld","3.3.3","0","h","NA","s","NA","NA","h","420","NA","22882","NA","NA","420","2","legacy","1024","2","48000","-16","experiment","SSHSS","2","even","126233","25236","NA","NA","81685","2171","NA","NA","127434","2344","NA","NA","127681","128103","127284","127680","Flanker task","45","27568","47","yes","1024"
"95.83333333333333","95.83333333333333","584.9791666666666","584.9791666666666","black","legacy","legacy","legacy","0","congruent","uniform","1","undefined","1","h","47","0","0","0","47","0","47","0","47","0","0","0","47","47","47","47","Mon Sep 21 17:50:37 2020","1500","The main experiment item","yes","Flankertask.osexp","/Users/annielenoir/Desktop","no","mono","no","18","no","white","no","no","768","legacy","47","47","/Users/annielenoir/Desktop/AL-subject-2.csv","legacy","Lentiform Loewenfeld","3.3.3","0","h","NA","s","NA","NA","h","511","NA","22882","NA","NA","511","2","legacy","1024","2","48000","-16","experiment","HHHHH","2","even","128254","25236","NA","NA","81685","2171","NA","NA","129457","2344","NA","NA","129705","130218","129304","129705","Flanker task","46","28079","48","yes","1024"
"95.91836734693878","95.91836734693878","582.3265306122449","582.3265306122449","black","legacy","legacy","legacy","0","incongruent","uniform","1","undefined","1","h","48","0","0","0","48","0","48","0","48","0","0","0","48","48","48","48","Mon Sep 21 17:50:37 2020","1500","The main experiment item","yes","Flankertask.osexp","/Users/annielenoir/Desktop","no","mono","no","18","no","white","no","no","768","legacy","48","48","/Users/annielenoir/Desktop/AL-subject-2.csv","legacy","Lentiform Loewenfeld","3.3.3","0","h","NA","s","NA","NA","h","455","NA","22882","NA","NA","455","2","legacy","1024","2","48000","-16","experiment","SSHSS","2","even","130366","25236","NA","NA","81685","2171","NA","NA","131558","2344","NA","NA","131808","132265","131411","131808","Flanker task","47","28534","49","yes","1024"
"96","96","581.14","581.14","black","legacy","legacy","legacy","0","incongruent","uniform","1","undefined","1","s","49","0","0","0","49","0","49","0","49","0","0","0","49","49","49","49","Mon Sep 21 17:50:37 2020","1500","The main experiment item","yes","Flankertask.osexp","/Users/annielenoir/Desktop","no","mono","no","18","no","white","no","no","768","legacy","49","49","/Users/annielenoir/Desktop/AL-subject-2.csv","legacy","Lentiform Loewenfeld","3.3.3","0","s","NA","s","NA","NA","s","523","NA","22882","NA","NA","523","2","legacy","1024","2","48000","-16","experiment","HHSHH","2","even","132422","25236","NA","NA","81685","2171","NA","NA","133628","2344","NA","NA","133873","134398","133475","133873","Flanker task","48","29057","50","yes","1024"
"96.07843137254902","96.07843137254902","581.2156862745098","581.2156862745098","black","legacy","legacy","legacy","0","incongruent","uniform","1","undefined","1","h","50","0","0","0","50","0","50","0","50","0","0","0","50","50","50","50","Mon Sep 21 17:50:37 2020","1500","The main experiment item","yes","Flankertask.osexp","/Users/annielenoir/Desktop","no","mono","no","18","no","white","no","no","768","legacy","50","50","/Users/annielenoir/Desktop/AL-subject-2.csv","legacy","Lentiform Loewenfeld","3.3.3","0","h","NA","s","NA","NA","h","585","NA","22882","NA","NA","585","2","legacy","1024","2","48000","-16","experiment","SSHSS","2","even","134567","25236","NA","NA","81685","2171","NA","NA","135771","2344","NA","NA","136039","136625","135618","136039","Flanker task","49","29642","51","yes","1024"
"96.15384615384616","96.15384615384616","579.0384615384615","579.0384615384615","black","legacy","legacy","legacy","0","incongruent","uniform","1","undefined","1","h","51","0","0","0","51","0","51","0","51","0","0","0","51","51","51","51","Mon Sep 21 17:50:37 2020","1500","The main experiment item","yes","Flankertask.osexp","/Users/annielenoir/Desktop","no","mono","no","18","no","white","no","no","768","legacy","51","51","/Users/annielenoir/Desktop/AL-subject-2.csv","legacy","Lentiform Loewenfeld","3.3.3","0","h","NA","s","NA","NA","h","468","NA","22882","NA","NA","468","2","legacy","1024","2","48000","-16","experiment","SSHSS","2","even","136779","25236","NA","NA","81685","2171","NA","NA","137978","2344","NA","NA","138223","138692","137831","138222","Flanker task","50","30110","52","yes","1024"
"96.22641509433963","96.22641509433963","579.6981132075472","579.6981132075472","black","legacy","legacy","legacy","0","incongruent","uniform","1","undefined","1","s","52","0","0","0","52","0","52","0","52","0","0","0","52","52","52","52","Mon Sep 21 17:50:37 2020","1500","The main experiment item","yes","Flankertask.osexp","/Users/annielenoir/Desktop","no","mono","no","18","no","white","no","no","768","legacy","52","52","/Users/annielenoir/Desktop/AL-subject-2.csv","legacy","Lentiform Loewenfeld","3.3.3","0","s","NA","s","NA","NA","s","614","NA","22882","NA","NA","614","2","legacy","1024","2","48000","-16","experiment","HHSHH","2","even","138837","25236","NA","NA","81685","2171","NA","NA","140035","2344","NA","NA","140281","140897","139889","140281","Flanker task","51","30724","53","yes","1024"
"96.29629629629629","96.29629629629629","578.7592592592592","578.7592592592592","black","legacy","legacy","legacy","0","incongruent","uniform","1","undefined","1","s","53","0","0","0","53","0","53","0","53","0","0","0","53","53","53","53","Mon Sep 21 17:50:37 2020","1500","The main experiment item","yes","Flankertask.osexp","/Users/annielenoir/Desktop","no","mono","no","18","no","white","no","no","768","legacy","53","53","/Users/annielenoir/Desktop/AL-subject-2.csv","legacy","Lentiform Loewenfeld","3.3.3","0","s","NA","s","NA","NA","s","529","NA","22882","NA","NA","529","2","legacy","1024","2","48000","-16","experiment","HHSHH","2","even","141043","25236","NA","NA","81685","2171","NA","NA","142244","2344","NA","NA","142489","143019","142094","142489","Flanker task","52","31253","54","yes","1024"
"96.36363636363636","96.36363636363636","578.3636363636364","578.3636363636364","black","legacy","legacy","legacy","0","incongruent","uniform","1","undefined","1","h","54","0","0","0","54","0","54","0","54","0","0","0","54","54","54","54","Mon Sep 21 17:50:37 2020","1500","The main experiment item","yes","Flankertask.osexp","/Users/annielenoir/Desktop","no","mono","no","18","no","white","no","no","768","legacy","54","54","/Users/annielenoir/Desktop/AL-subject-2.csv","legacy","Lentiform Loewenfeld","3.3.3","0","h","NA","s","NA","NA","h","557","NA","22882","NA","NA","557","2","legacy","1024","2","48000","-16","experiment","SSHSS","2","even","143169","25236","NA","NA","81685","2171","NA","NA","144373","2344","NA","NA","144619","145177","144221","144619","Flanker task","53","31810","55","yes","1024"
"96.42857142857143","96.42857142857143","576.9107142857143","576.9107142857143","black","legacy","legacy","legacy","0","incongruent","uniform","1","undefined","1","h","55","0","0","0","55","0","55","0","55","0","0","0","55","55","55","55","Mon Sep 21 17:50:37 2020","1500","The main experiment item","yes","Flankertask.osexp","/Users/annielenoir/Desktop","no","mono","no","18","no","white","no","no","768","legacy","55","55","/Users/annielenoir/Desktop/AL-subject-2.csv","legacy","Lentiform Loewenfeld","3.3.3","0","h","NA","s","NA","NA","h","497","NA","22882","NA","NA","497","2","legacy","1024","2","48000","-16","experiment","SSHSS","2","even","145333","25236","NA","NA","81685","2171","NA","NA","146522","2344","NA","NA","146772","147270","146377","146772","Flanker task","54","32307","56","yes","1024"
"96.49122807017544","96.49122807017544","575.5964912280701","575.5964912280701","black","legacy","legacy","legacy","0","congruent","uniform","1","undefined","1","s","56","0","0","0","56","0","56","0","56","0","0","0","56","56","56","56","Mon Sep 21 17:50:37 2020","1500","The main experiment item","yes","Flankertask.osexp","/Users/annielenoir/Desktop","no","mono","no","18","no","white","no","no","768","legacy","56","56","/Users/annielenoir/Desktop/AL-subject-2.csv","legacy","Lentiform Loewenfeld","3.3.3","0","s","NA","s","NA","NA","s","502","NA","22882","NA","NA","502","2","legacy","1024","2","48000","-16","experiment","SSSSS","2","even","147443","25236","NA","NA","81685","2171","NA","NA","148642","2344","NA","NA","148887","149390","148496","148887","Flanker task","55","32809","57","yes","1024"
"96.55172413793103","96.55172413793103","580.0862068965517","580.0862068965517","black","legacy","legacy","legacy","0","congruent","uniform","1","undefined","1","s","57","0","0","0","57","0","57","0","57","0","0","0","57","57","57","57","Mon Sep 21 17:50:37 2020","1500","The main experiment item","yes","Flankertask.osexp","/Users/annielenoir/Desktop","no","mono","no","18","no","white","no","no","768","legacy","57","57","/Users/annielenoir/Desktop/AL-subject-2.csv","legacy","Lentiform Loewenfeld","3.3.3","0","s","NA","s","NA","NA","s","836","NA","22882","NA","NA","836","2","legacy","1024","2","48000","-16","experiment","SSSSS","2","even","149539","25236","NA","NA","81685","2171","NA","NA","150738","2344","NA","NA","150986","151823","150590","150986","Flanker task","56","33645","58","yes","1024"
"96.61016949152543","96.61016949152543","580.2881355932203","580.2881355932203","black","legacy","legacy","legacy","0","congruent","uniform","1","undefined","1","s","58","0","0","0","58","0","58","0","58","0","0","0","58","58","58","58","Mon Sep 21 17:50:37 2020","1500","The main experiment item","yes","Flankertask.osexp","/Users/annielenoir/Desktop","no","mono","no","18","no","white","no","no","768","legacy","58","58","/Users/annielenoir/Desktop/AL-subject-2.csv","legacy","Lentiform Loewenfeld","3.3.3","0","s","NA","s","NA","NA","s","592","NA","22882","NA","NA","592","2","legacy","1024","2","48000","-16","experiment","SSSSS","2","even","151969","25236","NA","NA","81685","2171","NA","NA","153159","2344","NA","NA","153405","153998","153013","153405","Flanker task","57","34237","59","yes","1024"
"96.66666666666667","96.66666666666667","577.8833333333333","577.8833333333333","black","legacy","legacy","legacy","0","congruent","uniform","1","undefined","1","h","59","0","0","0","59","0","59","0","59","0","0","0","59","59","59","59","Mon Sep 21 17:50:37 2020","1500","The main experiment item","yes","Flankertask.osexp","/Users/annielenoir/Desktop","no","mono","no","18","no","white","no","no","768","legacy","59","59","/Users/annielenoir/Desktop/AL-subject-2.csv","legacy","Lentiform Loewenfeld","3.3.3","0","h","NA","s","NA","NA","h","436","NA","22882","NA","NA","436","2","legacy","1024","2","48000","-16","experiment","HHHHH","2","even","154151","25236","NA","NA","81685","2171","NA","NA","155366","2344","NA","NA","155628","156066","155200","155627","Flanker task","58","34673","60","yes","1024"
"96.72131147540983","96.72131147540983","578.311475409836","578.311475409836","black","legacy","legacy","legacy","0","incongruent","uniform","1","undefined","1","s","60","0","0","0","60","0","60","0","60","0","0","0","60","60","60","60","Mon Sep 21 17:50:37 2020","1500","The main experiment item","yes","Flankertask.osexp","/Users/annielenoir/Desktop","no","mono","no","18","no","white","no","no","768","legacy","60","60","/Users/annielenoir/Desktop/AL-subject-2.csv","legacy","Lentiform Loewenfeld","3.3.3","0","s","NA","s","NA","NA","s","604","NA","22882","NA","NA","604","2","legacy","1024","2","48000","-16","experiment","HHSHH","2","even","156262","25236","NA","NA","81685","2171","NA","NA","157450","2344","NA","NA","157695","158300","157305","157695","Flanker task","59","35277","61","yes","1024"
"96.7741935483871","96.7741935483871","579.4354838709677","579.4354838709677","black","legacy","legacy","legacy","0","incongruent","uniform","1","undefined","1","h","61","0","0","0","61","0","61","0","61","0","0","0","61","61","61","61","Mon Sep 21 17:50:37 2020","1500","The main experiment item","yes","Flankertask.osexp","/Users/annielenoir/Desktop","no","mono","no","18","no","white","no","no","768","legacy","61","61","/Users/annielenoir/Desktop/AL-subject-2.csv","legacy","Lentiform Loewenfeld","3.3.3","0","h","NA","s","NA","NA","h","648","NA","22882","NA","NA","648","2","legacy","1024","2","48000","-16","experiment","SSHSS","2","even","158478","25236","NA","NA","81685","2171","NA","NA","159730","2344","NA","NA","160034","160684","159540","160034","Flanker task","60","35925","62","yes","1024"
"96.82539682539682","96.82539682539682","577.9206349206349","577.9206349206349","black","legacy","legacy","legacy","0","incongruent","uniform","1","undefined","1","s","62","0","0","0","62","0","62","0","62","0","0","0","62","62","62","62","Mon Sep 21 17:50:37 2020","1500","The main experiment item","yes","Flankertask.osexp","/Users/annielenoir/Desktop","no","mono","no","18","no","white","no","no","768","legacy","62","62","/Users/annielenoir/Desktop/AL-subject-2.csv","legacy","Lentiform Loewenfeld","3.3.3","0","s","NA","s","NA","NA","s","484","NA","22882","NA","NA","484","2","legacy","1024","2","48000","-16","experiment","HHSHH","2","even","160834","25236","NA","NA","81685","2171","NA","NA","162031","2344","NA","NA","162283","162769","161884","162283","Flanker task","61","36409","63","yes","1024"
"96.875","96.875","576.65625","576.65625","black","legacy","legacy","legacy","0","congruent","uniform","1","undefined","1","h","63","0","0","0","63","0","63","0","63","0","0","0","63","63","63","63","Mon Sep 21 17:50:37 2020","1500","The main experiment item","yes","Flankertask.osexp","/Users/annielenoir/Desktop","no","mono","no","18","no","white","no","no","768","legacy","63","63","/Users/annielenoir/Desktop/AL-subject-2.csv","legacy","Lentiform Loewenfeld","3.3.3","0","h","NA","s","NA","NA","h","497","NA","22882","NA","NA","497","2","legacy","1024","2","48000","-16","experiment","HHHHH","2","even","162949","25236","NA","NA","81685","2171","NA","NA","164205","2344","NA","NA","164482","164980","164024","164482","Flanker task","62","36906","64","yes","1024"
"96.92307692307692","96.92307692307692","578.6153846153846","578.6153846153846","black","legacy","legacy","legacy","0","congruent","uniform","1","undefined","1","s","64","0","0","0","64","0","64","0","64","0","0","0","64","64","64","64","Mon Sep 21 17:50:37 2020","1500","The main experiment item","yes","Flankertask.osexp","/Users/annielenoir/Desktop","no","mono","no","18","no","white","no","no","768","legacy","64","64","/Users/annielenoir/Desktop/AL-subject-2.csv","legacy","Lentiform Loewenfeld","3.3.3","0","s","NA","s","NA","NA","s","704","NA","22882","NA","NA","704","2","legacy","1024","2","48000","-16","experiment","SSSSS","2","even","165124","25236","NA","NA","81685","2171","NA","NA","166324","2344","NA","NA","166574","167280","166176","166574","Flanker task","63","37610","65","yes","1024"
"96.96969696969697","96.96969696969697","577.9848484848485","577.9848484848485","black","legacy","legacy","legacy","0","congruent","uniform","1","undefined","1","h","65","0","0","0","65","0","65","0","65","0","0","0","65","65","65","65","Mon Sep 21 17:50:37 2020","1500","The main experiment item","yes","Flankertask.osexp","/Users/annielenoir/Desktop","no","mono","no","18","no","white","no","no","768","legacy","65","65","/Users/annielenoir/Desktop/AL-subject-2.csv","legacy","Lentiform Loewenfeld","3.3.3","0","h","NA","s","NA","NA","h","537","NA","22882","NA","NA","537","2","legacy","1024","2","48000","-16","experiment","HHHHH","2","even","167429","25236","NA","NA","81685","2171","NA","NA","168623","2344","NA","NA","168870","169409","168478","168870","Flanker task","64","38147","66","yes","1024"
"97.01492537313433","97.01492537313433","578.1194029850747","578.1194029850747","black","legacy","legacy","legacy","0","congruent","uniform","1","undefined","1","h","66","0","0","0","66","0","66","0","66","0","0","0","66","66","66","66","Mon Sep 21 17:50:37 2020","1500","The main experiment item","yes","Flankertask.osexp","/Users/annielenoir/Desktop","no","mono","no","18","no","white","no","no","768","legacy","66","66","/Users/annielenoir/Desktop/AL-subject-2.csv","legacy","Lentiform Loewenfeld","3.3.3","0","h","NA","s","NA","NA","h","587","NA","22882","NA","NA","587","2","legacy","1024","2","48000","-16","experiment","HHHHH","2","even","169558","25236","NA","NA","81685","2171","NA","NA","170760","2344","NA","NA","171004","171593","170614","171004","Flanker task","65","38734","67","yes","1024"
"97.05882352941177","97.05882352941177","579.1176470588235","579.1176470588235","black","legacy","legacy","legacy","0","congruent","uniform","1","undefined","1","s","67","0","0","0","67","0","67","0","67","0","0","0","67","67","67","67","Mon Sep 21 17:50:37 2020","1500","The main experiment item","yes","Flankertask.osexp","/Users/annielenoir/Desktop","no","mono","no","18","no","white","no","no","768","legacy","67","67","/Users/annielenoir/Desktop/AL-subject-2.csv","legacy","Lentiform Loewenfeld","3.3.3","0","s","NA","s","NA","NA","s","646","NA","22882","NA","NA","646","2","legacy","1024","2","48000","-16","experiment","SSSSS","2","even","171739","25236","NA","NA","81685","2171","NA","NA","172929","2344","NA","NA","173174","173822","172785","173174","Flanker task","66","39380","68","yes","1024"
"97.10144927536231","97.10144927536231","578.0869565217391","578.0869565217391","black","legacy","legacy","legacy","0","congruent","uniform","1","undefined","1","s","68","0","0","0","68","0","68","0","68","0","0","0","68","68","68","68","Mon Sep 21 17:50:37 2020","1500","The main experiment item","yes","Flankertask.osexp","/Users/annielenoir/Desktop","no","mono","no","18","no","white","no","no","768","legacy","68","68","/Users/annielenoir/Desktop/AL-subject-2.csv","legacy","Lentiform Loewenfeld","3.3.3","0","s","NA","s","NA","NA","s","508","NA","22882","NA","NA","508","2","legacy","1024","2","48000","-16","experiment","SSSSS","2","even","173975","25236","NA","NA","81685","2171","NA","NA","175182","2344","NA","NA","175431","175941","175024","175431","Flanker task","67","39888","69","yes","1024"
"97.14285714285714","97.14285714285714","577.2571428571429","577.2571428571429","black","legacy","legacy","legacy","0","congruent","uniform","1","undefined","1","h","69","0","0","0","69","0","69","0","69","0","0","0","69","69","69","69","Mon Sep 21 17:50:37 2020","1500","The main experiment item","yes","Flankertask.osexp","/Users/annielenoir/Desktop","no","mono","no","18","no","white","no","no","768","legacy","69","69","/Users/annielenoir/Desktop/AL-subject-2.csv","legacy","Lentiform Loewenfeld","3.3.3","0","h","NA","s","NA","NA","h","520","NA","22882","NA","NA","520","2","legacy","1024","2","48000","-16","experiment","HHHHH","2","even","176090","25236","NA","NA","81685","2171","NA","NA","177287","2344","NA","NA","177537","178059","177138","177537","Flanker task","68","40408","70","yes","1024"
"97.1830985915493","97.1830985915493","575.056338028169","575.056338028169","black","legacy","legacy","legacy","0","incongruent","uniform","1","undefined","1","h","70","0","0","0","70","0","70","0","70","0","0","0","70","70","70","70","Mon Sep 21 17:50:37 2020","1500","The main experiment item","yes","Flankertask.osexp","/Users/annielenoir/Desktop","no","mono","no","18","no","white","no","no","768","legacy","70","70","/Users/annielenoir/Desktop/AL-subject-2.csv","legacy","Lentiform Loewenfeld","3.3.3","0","h","NA","s","NA","NA","h","421","NA","22882","NA","NA","421","2","legacy","1024","2","48000","-16","experiment","SSHSS","2","even","178210","25236","NA","NA","81685","2171","NA","NA","179405","2344","NA","NA","179656","180079","179257","179655","Flanker task","69","40829","71","yes","1024"
"97.22222222222223","97.22222222222223","574.4722222222222","574.4722222222222","black","legacy","legacy","legacy","0","incongruent","uniform","1","undefined","1","s","71","0","0","0","71","0","71","0","71","0","0","0","71","71","71","71","Mon Sep 21 17:50:37 2020","1500","The main experiment item","yes","Flankertask.osexp","/Users/annielenoir/Desktop","no","mono","no","18","no","white","no","no","768","legacy","71","71","/Users/annielenoir/Desktop/AL-subject-2.csv","legacy","Lentiform Loewenfeld","3.3.3","0","s","NA","s","NA","NA","s","533","NA","22882","NA","NA","533","2","legacy","1024","2","48000","-16","experiment","HHSHH","2","even","180228","25236","NA","NA","81685","2171","NA","NA","181430","2344","NA","NA","181701","182236","181278","181701","Flanker task","70","41362","72","yes","1024"
"97.26027397260275","97.26027397260275","572.6301369863014","572.6301369863014","black","legacy","legacy","legacy","0","incongruent","uniform","1","undefined","1","s","72","0","0","0","72","0","72","0","72","0","0","0","72","72","72","72","Mon Sep 21 17:50:37 2020","1500","The main experiment item","yes","Flankertask.osexp","/Users/annielenoir/Desktop","no","mono","no","18","no","white","no","no","768","legacy","72","72","/Users/annielenoir/Desktop/AL-subject-2.csv","legacy","Lentiform Loewenfeld","3.3.3","0","s","NA","s","NA","NA","s","440","NA","22882","NA","NA","440","2","legacy","1024","2","48000","-16","experiment","HHSHH","2","even","182384","25236","NA","NA","81685","2171","NA","NA","183585","2344","NA","NA","183835","184276","183434","183835","Flanker task","71","41802","73","yes","1024"
"97.29729729729729","97.29729729729729","569.9864864864865","569.9864864864865","black","legacy","legacy","legacy","0","congruent","uniform","1","undefined","1","h","73","0","0","0","73","0","73","0","73","0","0","0","73","73","73","73","Mon Sep 21 17:50:37 2020","1500","The main experiment item","yes","Flankertask.osexp","/Users/annielenoir/Desktop","no","mono","no","18","no","white","no","no","768","legacy","73","73","/Users/annielenoir/Desktop/AL-subject-2.csv","legacy","Lentiform Loewenfeld","3.3.3","0","h","NA","s","NA","NA","h","377","NA","22882","NA","NA","377","2","legacy","1024","2","48000","-16","experiment","HHHHH","2","even","184430","25236","NA","NA","81685","2171","NA","NA","185628","2344","NA","NA","185882","186260","185478","185882","Flanker task","72","42179","74","yes","1024"
"97.33333333333333","97.33333333333333","571.5466666666666","571.5466666666666","black","legacy","legacy","legacy","0","congruent","uniform","1","undefined","1","s","74","0","0","0","74","0","74","0","74","0","0","0","74","74","74","74","Mon Sep 21 17:50:37 2020","1500","The main experiment item","yes","Flankertask.osexp","/Users/annielenoir/Desktop","no","mono","no","18","no","white","no","no","768","legacy","74","74","/Users/annielenoir/Desktop/AL-subject-2.csv","legacy","Lentiform Loewenfeld","3.3.3","0","s","NA","s","NA","NA","s","687","NA","22882","NA","NA","687","2","legacy","1024","2","48000","-16","experiment","SSSSS","2","even","186412","25236","NA","NA","81685","2171","NA","NA","187610","2344","NA","NA","187858","188546","187462","187858","Flanker task","73","42866","75","yes","1024"
"97.36842105263158","97.36842105263158","580.5263157894736","580.5263157894736","black","legacy","legacy","legacy","0","congruent","uniform","1","undefined","1","s","75","0","0","0","75","0","75","0","75","0","0","0","75","75","75","75","Mon Sep 21 17:50:37 2020","1500","The main experiment item","yes","Flankertask.osexp","/Users/annielenoir/Desktop","no","mono","no","18","no","white","no","no","768","legacy","75","75","/Users/annielenoir/Desktop/AL-subject-2.csv","legacy","Lentiform Loewenfeld","3.3.3","0","s","NA","s","NA","NA","s","1254","NA","22882","NA","NA","1254","2","legacy","1024","2","48000","-16","experiment","SSSSS","2","even","188698","25236","NA","NA","81685","2171","NA","NA","189896","2344","NA","NA","190142","191397","189747","190142","Flanker task","74","44120","76","yes","1024"
"97.40259740259741","97.40259740259741","578.7792207792207","578.7792207792207","black","legacy","legacy","legacy","0","congruent","uniform","1","undefined","1","s","76","0","0","0","76","0","76","0","76","0","0","0","76","76","76","76","Mon Sep 21 17:50:37 2020","1500","The main experiment item","yes","Flankertask.osexp","/Users/annielenoir/Desktop","no","mono","no","18","no","white","no","no","768","legacy","76","76","/Users/annielenoir/Desktop/AL-subject-2.csv","legacy","Lentiform Loewenfeld","3.3.3","0","s","NA","s","NA","NA","s","446","NA","22882","NA","NA","446","2","legacy","1024","2","48000","-16","experiment","SSSSS","2","even","191556","25236","NA","NA","81685","2171","NA","NA","192757","2344","NA","NA","193007","193455","192607","193006","Flanker task","75","44566","77","yes","1024"
"97.43589743589743","97.43589743589743","578.5","578.5","black","legacy","legacy","legacy","0","congruent","uniform","1","undefined","1","h","77","0","0","0","77","0","77","0","77","0","0","0","77","77","77","77","Mon Sep 21 17:50:37 2020","1500","The main experiment item","yes","Flankertask.osexp","/Users/annielenoir/Desktop","no","mono","no","18","no","white","no","no","768","legacy","77","77","/Users/annielenoir/Desktop/AL-subject-2.csv","legacy","Lentiform Loewenfeld","3.3.3","0","h","NA","s","NA","NA","h","557","NA","22882","NA","NA","557","2","legacy","1024","2","48000","-16","experiment","HHHHH","2","even","193618","25236","NA","NA","81685","2171","NA","NA","194817","2344","NA","NA","195063","195621","194667","195062","Flanker task","76","45123","78","yes","1024"
"97.46835443037975","97.46835443037975","585.2025316455696","585.2025316455696","black","legacy","legacy","legacy","0","incongruent","uniform","1","undefined","1","h","78","0","0","0","78","0","78","0","78","0","0","0","78","78","78","78","Mon Sep 21 17:50:37 2020","1500","The main experiment item","yes","Flankertask.osexp","/Users/annielenoir/Desktop","no","mono","no","18","no","white","no","no","768","legacy","78","78","/Users/annielenoir/Desktop/AL-subject-2.csv","legacy","Lentiform Loewenfeld","3.3.3","0","h","NA","s","NA","NA","h","1108","NA","22882","NA","NA","1108","2","legacy","1024","2","48000","-16","experiment","SSHSS","2","even","195792","25236","NA","NA","81685","2171","NA","NA","197002","2344","NA","NA","197262","198371","196843","197262","Flanker task","77","46231","79","yes","1024"
"97.5","97.5","584.425","584.425","black","legacy","legacy","legacy","0","congruent","uniform","1","undefined","1","s","79","0","0","0","79","0","79","0","79","0","0","0","79","79","79","79","Mon Sep 21 17:50:37 2020","1500","The main experiment item","yes","Flankertask.osexp","/Users/annielenoir/Desktop","no","mono","no","18","no","white","no","no","768","legacy","79","79","/Users/annielenoir/Desktop/AL-subject-2.csv","legacy","Lentiform Loewenfeld","3.3.3","0","s","NA","s","NA","NA","s","523","NA","22882","NA","NA","523","2","legacy","1024","2","48000","-16","experiment","SSSSS","2","even","198523","25236","NA","NA","81685","2171","NA","NA","199723","2344","NA","NA","199969","200494","199576","199969","Flanker task","78","46754","80","yes","1024"
"97.53086419753086","97.53086419753086","586.0987654320987","586.0987654320987","black","legacy","legacy","legacy","0","incongruent","uniform","1","undefined","1","s","80","0","0","0","80","0","80","0","80","0","0","0","80","80","80","80","Mon Sep 21 17:50:37 2020","600","The main experiment item","yes","Flankertask.osexp","/Users/annielenoir/Desktop","no","mono","no","18","no","white","no","no","768","legacy","0","79","/Users/annielenoir/Desktop/AL-subject-2.csv","legacy","Lentiform Loewenfeld","3.3.3","0","s","NA","s","s","NA","s","720","NA","22882","48620","NA","720","2","legacy","1024","2","48000","-16","experiment","HHSHH","2","even","200644","25236","250441","NA","81685","2171","NA","NA","250631","2344","201820","NA","250883","251605","250474","250883","Flanker task","79","47474","81","yes","1024"
"97.5609756097561","97.5609756097561","583.7560975609756","583.7560975609756","black","legacy","legacy","legacy","0","congruent","uniform","1","undefined","1","h","81","0","0","0","81","0","81","0","81","0","0","0","81","81","81","81","Mon Sep 21 17:50:37 2020","600","The main experiment item","yes","Flankertask.osexp","/Users/annielenoir/Desktop","no","mono","no","18","no","white","no","no","768","legacy","1","79","/Users/annielenoir/Desktop/AL-subject-2.csv","legacy","Lentiform Loewenfeld","3.3.3","0","h","NA","s","s","NA","h","394","NA","22882","48620","NA","394","2","legacy","1024","2","48000","-16","experiment","HHHHH","2","even","252410","25236","250441","NA","81685","2171","251763","NA","253603","2344","201820","NA","253850","254246","253457","253850","Flanker task","80","47868","82","yes","1024"
"97.59036144578313","97.59036144578313","580.566265060241","580.566265060241","black","legacy","legacy","legacy","0","congruent","uniform","1","undefined","1","s","82","0","0","0","82","0","82","0","82","0","0","0","82","82","82","82","Mon Sep 21 17:50:37 2020","600","The main experiment item","yes","Flankertask.osexp","/Users/annielenoir/Desktop","no","mono","no","18","no","white","no","no","768","legacy","2","79","/Users/annielenoir/Desktop/AL-subject-2.csv","legacy","Lentiform Loewenfeld","3.3.3","0","s","NA","s","s","NA","s","319","NA","22882","48620","NA","319","2","legacy","1024","2","48000","-16","experiment","SSSSS","2","even","254397","25236","250441","NA","81685","2171","251763","NA","255590","2344","201820","NA","255835","256156","255444","255835","Flanker task","81","48187","83","yes","1024"
"97.61904761904762","97.61904761904762","579.6309523809524","579.6309523809524","black","legacy","legacy","legacy","0","incongruent","uniform","1","undefined","1","s","83","0","0","0","83","0","83","0","83","0","0","0","83","83","83","83","Mon Sep 21 17:50:37 2020","600","The main experiment item","yes","Flankertask.osexp","/Users/annielenoir/Desktop","no","mono","no","18","no","white","no","no","768","legacy","3","79","/Users/annielenoir/Desktop/AL-subject-2.csv","legacy","Lentiform Loewenfeld","3.3.3","0","s","NA","s","s","NA","s","502","NA","22882","48620","NA","502","2","legacy","1024","2","48000","-16","experiment","HHSHH","2","even","256306","25236","250441","NA","81685","2171","251763","NA","257499","2344","201820","NA","257745","258251","257352","257745","Flanker task","82","48689","84","yes","1024"
"97.6470588235294","97.6470588235294","578.564705882353","578.564705882353","black","legacy","legacy","legacy","0","incongruent","uniform","1","undefined","1","h","84","0","0","0","84","0","84","0","84","0","0","0","84","84","84","84","Mon Sep 21 17:50:37 2020","600","The main experiment item","yes","Flankertask.osexp","/Users/annielenoir/Desktop","no","mono","no","18","no","white","no","no","768","legacy","4","79","/Users/annielenoir/Desktop/AL-subject-2.csv","legacy","Lentiform Loewenfeld","3.3.3","0","h","NA","s","s","NA","h","489","NA","22882","48620","NA","489","2","legacy","1024","2","48000","-16","experiment","SSHSS","2","even","258402","25236","250441","NA","81685","2171","251763","NA","259599","2344","201820","NA","259846","260337","259452","259845","Flanker task","83","49178","85","yes","1024"
"97.67441860465117","97.67441860465117","578.0232558139535","578.0232558139535","black","legacy","legacy","legacy","0","congruent","uniform","1","undefined","1","s","85","0","0","0","85","0","85","0","85","0","0","0","85","85","85","85","Mon Sep 21 17:50:37 2020","600","The main experiment item","yes","Flankertask.osexp","/Users/annielenoir/Desktop","no","mono","no","18","no","white","no","no","768","legacy","5","79","/Users/annielenoir/Desktop/AL-subject-2.csv","legacy","Lentiform Loewenfeld","3.3.3","0","s","NA","s","s","NA","s","532","NA","22882","48620","NA","532","2","legacy","1024","2","48000","-16","experiment","SSSSS","2","even","260491","25236","250441","NA","81685","2171","251763","NA","261692","2344","201820","NA","261945","262479","261540","261945","Flanker task","84","49710","86","yes","1024"
"97.70114942528735","97.70114942528735","576.551724137931","576.551724137931","black","legacy","legacy","legacy","0","congruent","uniform","1","undefined","1","s","86","0","0","0","86","0","86","0","86","0","0","0","86","86","86","86","Mon Sep 21 17:50:37 2020","600","The main experiment item","yes","Flankertask.osexp","/Users/annielenoir/Desktop","no","mono","no","18","no","white","no","no","768","legacy","6","79","/Users/annielenoir/Desktop/AL-subject-2.csv","legacy","Lentiform Loewenfeld","3.3.3","0","s","NA","s","s","NA","s","450","NA","22882","48620","NA","450","2","legacy","1024","2","48000","-16","experiment","SSSSS","2","even","262636","25236","250441","NA","81685","2171","251763","NA","263833","2344","201820","NA","264078","264530","263685","264078","Flanker task","85","50160","87","yes","1024"
"97.72727272727273","97.72727272727273","574.2272727272727","574.2272727272727","black","legacy","legacy","legacy","0","congruent","uniform","1","undefined","1","s","87","0","0","0","87","0","87","0","87","0","0","0","87","87","87","87","Mon Sep 21 17:50:37 2020","600","The main experiment item","yes","Flankertask.osexp","/Users/annielenoir/Desktop","no","mono","no","18","no","white","no","no","768","legacy","7","79","/Users/annielenoir/Desktop/AL-subject-2.csv","legacy","Lentiform Loewenfeld","3.3.3","0","s","NA","s","s","NA","s","372","NA","22882","48620","NA","372","2","legacy","1024","2","48000","-16","experiment","SSSSS","2","even","264672","25236","250441","NA","81685","2171","251763","NA","265873","2344","201820","NA","266121","266494","265725","266121","Flanker task","86","50532","88","yes","1024"
"97.75280898876404","97.75280898876404","572.5730337078652","572.5730337078652","black","legacy","legacy","legacy","0","congruent","uniform","1","undefined","1","h","88","0","0","0","88","0","88","0","88","0","0","0","88","88","88","88","Mon Sep 21 17:50:37 2020","600","The main experiment item","yes","Flankertask.osexp","/Users/annielenoir/Desktop","no","mono","no","18","no","white","no","no","768","legacy","8","79","/Users/annielenoir/Desktop/AL-subject-2.csv","legacy","Lentiform Loewenfeld","3.3.3","0","h","NA","s","s","NA","h","427","NA","22882","48620","NA","427","2","legacy","1024","2","48000","-16","experiment","HHHHH","2","even","266639","25236","250441","NA","81685","2171","251763","NA","267838","2344","201820","NA","268088","268517","267692","268088","Flanker task","87","50959","89","yes","1024"
"96.66666666666667","96.66666666666667","571.3666666666667","571.3666666666667","black","legacy","legacy","legacy","0","incongruent","uniform","0","undefined","0","h","89","0","0","0","89","0","89","0","89","0","0","0","89","89","89","89","Mon Sep 21 17:50:37 2020","600","The main experiment item","yes","Flankertask.osexp","/Users/annielenoir/Desktop","no","mono","no","18","no","white","no","no","768","legacy","9","79","/Users/annielenoir/Desktop/AL-subject-2.csv","legacy","Lentiform Loewenfeld","3.3.3","0","s","NA","s","s","NA","s","464","NA","22882","48620","NA","464","2","legacy","1024","2","48000","-16","experiment","SSHSS","2","even","268661","25236","250441","NA","81685","2171","251763","NA","269864","2344","201820","NA","270115","270581","269713","270115","Flanker task","87","51423","90","yes","1024"
"96.7032967032967","96.7032967032967","570.2197802197802","570.2197802197802","black","legacy","legacy","legacy","0","congruent","uniform","1","undefined","1","h","90","0","0","0","90","0","90","0","90","0","0","0","90","90","90","90","Mon Sep 21 17:50:37 2020","600","The main experiment item","yes","Flankertask.osexp","/Users/annielenoir/Desktop","no","mono","no","18","no","white","no","no","768","legacy","10","79","/Users/annielenoir/Desktop/AL-subject-2.csv","legacy","Lentiform Loewenfeld","3.3.3","0","h","NA","s","s","NA","h","467","NA","22882","48620","NA","467","2","legacy","1024","2","48000","-16","experiment","HHHHH","2","even","271373","25236","250441","NA","270722","2171","251763","NA","272578","2344","201820","NA","272851","273320","272426","272850","Flanker task","88","51890","91","yes","1024"
"96.73913043478261","96.73913043478261","570.3695652173913","570.3695652173913","black","legacy","legacy","legacy","0","incongruent","uniform","1","undefined","1","s","91","0","0","0","91","0","91","0","91","0","0","0","91","91","91","91","Mon Sep 21 17:50:37 2020","600","The main experiment item","yes","Flankertask.osexp","/Users/annielenoir/Desktop","no","mono","no","18","no","white","no","no","768","legacy","11","79","/Users/annielenoir/Desktop/AL-subject-2.csv","legacy","Lentiform Loewenfeld","3.3.3","0","s","NA","s","s","NA","s","584","NA","22882","48620","NA","584","2","legacy","1024","2","48000","-16","experiment","HHSHH","2","even","273475","25236","250441","NA","270722","2171","251763","NA","274686","2344","201820","NA","274935","275520","274539","274935","Flanker task","89","52474","92","yes","1024"
"96.7741935483871","96.7741935483871","575.1397849462365","575.1397849462365","black","legacy","legacy","legacy","0","incongruent","uniform","1","undefined","1","s","92","0","0","0","92","0","92","0","92","0","0","0","92","92","92","92","Mon Sep 21 17:50:37 2020","600","The main experiment item","yes","Flankertask.osexp","/Users/annielenoir/Desktop","no","mono","no","18","no","white","no","no","768","legacy","12","79","/Users/annielenoir/Desktop/AL-subject-2.csv","legacy","Lentiform Loewenfeld","3.3.3","0","s","NA","s","s","NA","s","1014","NA","22882","48620","NA","1014","2","legacy","1024","2","48000","-16","experiment","HHSHH","2","even","275668","25236","250441","NA","270722","2171","251763","NA","276871","2344","201820","NA","277123","278139","276721","277123","Flanker task","90","53488","93","yes","1024"
"96.80851063829788","96.80851063829788","574.7978723404256","574.7978723404256","black","legacy","legacy","legacy","0","incongruent","uniform","1","undefined","1","s","93","0","0","0","93","0","93","0","93","0","0","0","93","93","93","93","Mon Sep 21 17:50:37 2020","600","The main experiment item","yes","Flankertask.osexp","/Users/annielenoir/Desktop","no","mono","no","18","no","white","no","no","768","legacy","13","79","/Users/annielenoir/Desktop/AL-subject-2.csv","legacy","Lentiform Loewenfeld","3.3.3","0","s","NA","s","s","NA","s","543","NA","22882","48620","NA","543","2","legacy","1024","2","48000","-16","experiment","HHSHH","2","even","278932","25236","250441","NA","270722","2171","278281","NA","280135","2344","201820","NA","280389","280933","279986","280389","Flanker task","91","54031","94","yes","1024"
"96.84210526315789","96.84210526315789","572.8315789473684","572.8315789473684","black","legacy","legacy","legacy","0","congruent","uniform","1","undefined","1","s","94","0","0","0","94","0","94","0","94","0","0","0","94","94","94","94","Mon Sep 21 17:50:37 2020","600","The main experiment item","yes","Flankertask.osexp","/Users/annielenoir/Desktop","no","mono","no","18","no","white","no","no","768","legacy","14","79","/Users/annielenoir/Desktop/AL-subject-2.csv","legacy","Lentiform Loewenfeld","3.3.3","0","s","NA","s","s","NA","s","388","NA","22882","48620","NA","388","2","legacy","1024","2","48000","-16","experiment","SSSSS","2","even","281077","25236","250441","NA","270722","2171","278281","NA","282283","2344","201820","NA","282537","282927","282129","282537","Flanker task","92","54419","95","yes","1024"
"96.875","96.875","572.3854166666666","572.3854166666666","black","legacy","legacy","legacy","0","incongruent","uniform","1","undefined","1","s","95","0","0","0","95","0","95","0","95","0","0","0","95","95","95","95","Mon Sep 21 17:50:37 2020","600","The main experiment item","yes","Flankertask.osexp","/Users/annielenoir/Desktop","no","mono","no","18","no","white","no","no","768","legacy","15","79","/Users/annielenoir/Desktop/AL-subject-2.csv","legacy","Lentiform Loewenfeld","3.3.3","0","s","NA","s","s","NA","s","530","NA","22882","48620","NA","530","2","legacy","1024","2","48000","-16","experiment","HHSHH","2","even","283073","25236","250441","NA","270722","2171","278281","NA","284279","2344","201820","NA","284530","285062","284127","284530","Flanker task","93","54949","96","yes","1024"
"96.90721649484536","96.90721649484536","571.6494845360825","571.6494845360825","black","legacy","legacy","legacy","0","incongruent","uniform","1","undefined","1","s","96","0","0","0","96","0","96","0","96","0","0","0","96","96","96","96","Mon Sep 21 17:50:37 2020","600","The main experiment item","yes","Flankertask.osexp","/Users/annielenoir/Desktop","no","mono","no","18","no","white","no","no","768","legacy","16","79","/Users/annielenoir/Desktop/AL-subject-2.csv","legacy","Lentiform Loewenfeld","3.3.3","0","s","NA","s","s","NA","s","501","NA","22882","48620","NA","501","2","legacy","1024","2","48000","-16","experiment","HHSHH","2","even","285209","25236","250441","NA","270722","2171","278281","NA","286409","2344","201820","NA","286660","287162","286261","286660","Flanker task","94","55450","97","yes","1024"
"96.93877551020408","96.93877551020408","571.030612244898","571.030612244898","black","legacy","legacy","legacy","0","incongruent","uniform","1","undefined","1","s","97","0","0","0","97","0","97","0","97","0","0","0","97","97","97","97","Mon Sep 21 17:50:37 2020","600","The main experiment item","yes","Flankertask.osexp","/Users/annielenoir/Desktop","no","mono","no","18","no","white","no","no","768","legacy","17","79","/Users/annielenoir/Desktop/AL-subject-2.csv","legacy","Lentiform Loewenfeld","3.3.3","0","s","NA","s","s","NA","s","511","NA","22882","48620","NA","511","2","legacy","1024","2","48000","-16","experiment","HHSHH","2","even","287302","25236","250441","NA","270722","2171","278281","NA","288501","2344","201820","NA","288757","289269","288354","288757","Flanker task","95","55961","98","yes","1024"
"96.96969696969697","96.96969696969697","570.2626262626262","570.2626262626262","black","legacy","legacy","legacy","0","congruent","uniform","1","undefined","1","h","98","0","0","0","98","0","98","0","98","0","0","0","98","98","98","98","Mon Sep 21 17:50:37 2020","600","The main experiment item","yes","Flankertask.osexp","/Users/annielenoir/Desktop","no","mono","no","18","no","white","no","no","768","legacy","18","79","/Users/annielenoir/Desktop/AL-subject-2.csv","legacy","Lentiform Loewenfeld","3.3.3","0","h","NA","s","s","NA","h","495","NA","22882","48620","NA","495","2","legacy","1024","2","48000","-16","experiment","HHHHH","2","even","289427","25236","250441","NA","270722","2171","278281","NA","290633","2344","201820","NA","290882","291379","290480","290882","Flanker task","96","56456","99","yes","1024"
"97","97","569.79","569.79","black","legacy","legacy","legacy","0","incongruent","uniform","1","undefined","1","s","99","0","0","0","99","0","99","0","99","0","0","0","99","99","99","99","Mon Sep 21 17:50:37 2020","600","The main experiment item","yes","Flankertask.osexp","/Users/annielenoir/Desktop","no","mono","no","18","no","white","no","no","768","legacy","19","79","/Users/annielenoir/Desktop/AL-subject-2.csv","legacy","Lentiform Loewenfeld","3.3.3","0","s","NA","s","s","NA","s","523","NA","22882","48620","NA","523","2","legacy","1024","2","48000","-16","experiment","HHSHH","2","even","291529","25236","250441","NA","270722","2171","278281","NA","292734","2344","201820","NA","292984","293509","292582","292984","Flanker task","97","56979","100","yes","1024"
"97.02970297029702","97.02970297029702","569.3267326732673","569.3267326732673","black","legacy","legacy","legacy","0","congruent","uniform","1","undefined","1","h","100","0","0","0","100","0","100","0","100","0","0","0","100","100","100","100","Mon Sep 21 17:50:37 2020","600","The main experiment item","yes","Flankertask.osexp","/Users/annielenoir/Desktop","no","mono","no","18","no","white","no","no","768","legacy","20","79","/Users/annielenoir/Desktop/AL-subject-2.csv","legacy","Lentiform Loewenfeld","3.3.3","0","h","NA","s","s","NA","h","523","NA","22882","48620","NA","523","2","legacy","1024","2","48000","-16","experiment","HHHHH","2","even","293663","25236","250441","NA","270722","2171","278281","NA","294869","2344","201820","NA","295121","295645","294716","295121","Flanker task","98","57502","101","yes","1024"
"97.05882352941177","97.05882352941177","569.4803921568628","569.4803921568628","black","legacy","legacy","legacy","0","congruent","uniform","1","undefined","1","s","101","0","0","0","101","0","101","0","101","0","0","0","101","101","101","101","Mon Sep 21 17:50:37 2020","600","The main experiment item","yes","Flankertask.osexp","/Users/annielenoir/Desktop","no","mono","no","18","no","white","no","no","768","legacy","21","79","/Users/annielenoir/Desktop/AL-subject-2.csv","legacy","Lentiform Loewenfeld","3.3.3","0","s","NA","s","s","NA","s","585","NA","22882","48620","NA","585","2","legacy","1024","2","48000","-16","experiment","SSSSS","2","even","295793","25236","250441","NA","270722","2171","278281","NA","296999","2344","201820","NA","297255","297841","296847","297255","Flanker task","99","58087","102","yes","1024"
"97.0873786407767","97.0873786407767","569.1941747572815","569.1941747572815","black","legacy","legacy","legacy","0","incongruent","uniform","1","undefined","1","h","102","0","0","0","102","0","102","0","102","0","0","0","102","102","102","102","Mon Sep 21 17:50:37 2020","600","The main experiment item","yes","Flankertask.osexp","/Users/annielenoir/Desktop","no","mono","no","18","no","white","no","no","768","legacy","22","79","/Users/annielenoir/Desktop/AL-subject-2.csv","legacy","Lentiform Loewenfeld","3.3.3","0","h","NA","s","s","NA","h","540","NA","22882","48620","NA","540","2","legacy","1024","2","48000","-16","experiment","SSHSS","2","even","297989","25236","250441","NA","270722","2171","278281","NA","299193","2344","201820","NA","299449","299991","299041","299449","Flanker task","100","58627","103","yes","1024"
"97.11538461538461","97.11538461538461","568.2692307692307","568.2692307692307","black","legacy","legacy","legacy","0","incongruent","uniform","1","undefined","1","h","103","0","0","0","103","0","103","0","103","0","0","0","103","103","103","103","Mon Sep 21 17:50:37 2020","600","The main experiment item","yes","Flankertask.osexp","/Users/annielenoir/Desktop","no","mono","no","18","no","white","no","no","768","legacy","23","79","/Users/annielenoir/Desktop/AL-subject-2.csv","legacy","Lentiform Loewenfeld","3.3.3","0","h","NA","s","s","NA","h","473","NA","22882","48620","NA","473","2","legacy","1024","2","48000","-16","experiment","SSHSS","2","even","300140","25236","250441","NA","270722","2171","278281","NA","301343","2344","201820","NA","301599","302074","301192","301599","Flanker task","101","59100","104","yes","1024"
"97.14285714285714","97.14285714285714","567.7904761904762","567.7904761904762","black","legacy","legacy","legacy","0","incongruent","uniform","1","undefined","1","h","104","0","0","0","104","0","104","0","104","0","0","0","104","104","104","104","Mon Sep 21 17:50:37 2020","600","The main experiment item","yes","Flankertask.osexp","/Users/annielenoir/Desktop","no","mono","no","18","no","white","no","no","768","legacy","24","79","/Users/annielenoir/Desktop/AL-subject-2.csv","legacy","Lentiform Loewenfeld","3.3.3","0","h","NA","s","s","NA","h","518","NA","22882","48620","NA","518","2","legacy","1024","2","48000","-16","experiment","SSHSS","2","even","302214","25236","250441","NA","270722","2171","278281","NA","303423","2344","201820","NA","303673","304193","303270","303673","Flanker task","102","59618","105","yes","1024"
"97.16981132075472","97.16981132075472","567.0754716981132","567.0754716981132","black","legacy","legacy","legacy","0","congruent","uniform","1","undefined","1","h","105","0","0","0","105","0","105","0","105","0","0","0","105","105","105","105","Mon Sep 21 17:50:37 2020","600","The main experiment item","yes","Flankertask.osexp","/Users/annielenoir/Desktop","no","mono","no","18","no","white","no","no","768","legacy","25","79","/Users/annielenoir/Desktop/AL-subject-2.csv","legacy","Lentiform Loewenfeld","3.3.3","0","h","NA","s","s","NA","h","492","NA","22882","48620","NA","492","2","legacy","1024","2","48000","-16","experiment","HHHHH","2","even","304333","25236","250441","NA","270722","2171","278281","NA","305539","2344","201820","NA","305794","306287","305386","305794","Flanker task","103","60110","106","yes","1024"
"97.19626168224299","97.19626168224299","566.588785046729","566.588785046729","black","legacy","legacy","legacy","0","congruent","uniform","1","undefined","1","h","106","0","0","0","106","0","106","0","106","0","0","0","106","106","106","106","Mon Sep 21 17:50:37 2020","600","The main experiment item","yes","Flankertask.osexp","/Users/annielenoir/Desktop","no","mono","no","18","no","white","no","no","768","legacy","26","79","/Users/annielenoir/Desktop/AL-subject-2.csv","legacy","Lentiform Loewenfeld","3.3.3","0","h","NA","s","s","NA","h","515","NA","22882","48620","NA","515","2","legacy","1024","2","48000","-16","experiment","HHHHH","2","even","306430","25236","250441","NA","270722","2171","278281","NA","307637","2344","201820","NA","307890","308407","307485","307890","Flanker task","104","60625","107","yes","1024"
"97.22222222222223","97.22222222222223","566.4351851851852","566.4351851851852","black","legacy","legacy","legacy","0","congruent","uniform","1","undefined","1","s","107","0","0","0","107","0","107","0","107","0","0","0","107","107","107","107","Mon Sep 21 17:50:37 2020","600","The main experiment item","yes","Flankertask.osexp","/Users/annielenoir/Desktop","no","mono","no","18","no","white","no","no","768","legacy","27","79","/Users/annielenoir/Desktop/AL-subject-2.csv","legacy","Lentiform Loewenfeld","3.3.3","0","s","NA","s","s","NA","s","550","NA","22882","48620","NA","550","2","legacy","1024","2","48000","-16","experiment","SSSSS","2","even","308549","25236","250441","NA","270722","2171","278281","NA","309752","2344","201820","NA","310006","310559","309601","310006","Flanker task","105","61175","108","yes","1024"
"97.24770642201835","97.24770642201835","566.743119266055","566.743119266055","black","legacy","legacy","legacy","0","incongruent","uniform","1","undefined","1","h","108","0","0","0","108","0","108","0","108","0","0","0","108","108","108","108","Mon Sep 21 17:50:37 2020","600","The main experiment item","yes","Flankertask.osexp","/Users/annielenoir/Desktop","no","mono","no","18","no","white","no","no","768","legacy","28","79","/Users/annielenoir/Desktop/AL-subject-2.csv","legacy","Lentiform Loewenfeld","3.3.3","0","h","NA","s","s","NA","h","600","NA","22882","48620","NA","600","2","legacy","1024","2","48000","-16","experiment","SSHSS","2","even","310704","25236","250441","NA","270722","2171","278281","NA","311909","2344","201820","NA","312154","312756","311756","312154","Flanker task","106","61775","109","yes","1024"
"97.27272727272727","97.27272727272727","565.2545454545455","565.2545454545455","black","legacy","legacy","legacy","0","incongruent","uniform","1","undefined","1","h","109","0","0","0","109","0","109","0","109","0","0","0","109","109","109","109","Mon Sep 21 17:50:37 2020","600","The main experiment item","yes","Flankertask.osexp","/Users/annielenoir/Desktop","no","mono","no","18","no","white","no","no","768","legacy","29","79","/Users/annielenoir/Desktop/AL-subject-2.csv","legacy","Lentiform Loewenfeld","3.3.3","0","h","NA","s","s","NA","h","403","NA","22882","48620","NA","403","2","legacy","1024","2","48000","-16","experiment","SSHSS","2","even","312897","25236","250441","NA","270722","2171","278281","NA","314099","2344","201820","NA","314351","314756","313949","314351","Flanker task","107","62178","110","yes","1024"
"96.3963963963964","96.3963963963964","563.4054054054054","563.4054054054054","black","legacy","legacy","legacy","0","incongruent","uniform","0","undefined","0","s","110","0","0","0","110","0","110","0","110","0","0","0","110","110","110","110","Mon Sep 21 17:50:37 2020","600","The main experiment item","yes","Flankertask.osexp","/Users/annielenoir/Desktop","no","mono","no","18","no","white","no","no","768","legacy","30","79","/Users/annielenoir/Desktop/AL-subject-2.csv","legacy","Lentiform Loewenfeld","3.3.3","0","h","NA","s","s","NA","h","360","NA","22882","48620","NA","360","2","legacy","1024","2","48000","-16","experiment","HHSHH","2","even","314906","25236","250441","NA","270722","2171","278281","NA","316109","2344","201820","NA","316355","316716","315958","316355","Flanker task","107","62538","111","yes","1024"
"96.42857142857143","96.42857142857143","563.1160714285714","563.1160714285714","black","legacy","legacy","legacy","0","incongruent","uniform","1","undefined","1","s","111","0","0","0","111","0","111","0","111","0","0","0","111","111","111","111","Mon Sep 21 17:50:37 2020","600","The main experiment item","yes","Flankertask.osexp","/Users/annielenoir/Desktop","no","mono","no","18","no","white","no","no","768","legacy","31","79","/Users/annielenoir/Desktop/AL-subject-2.csv","legacy","Lentiform Loewenfeld","3.3.3","0","s","NA","s","s","NA","s","531","NA","22882","48620","NA","531","2","legacy","1024","2","48000","-16","experiment","HHSHH","2","even","317534","25236","250441","NA","316875","2171","278281","NA","318734","2344","201820","NA","318980","319514","318584","318980","Flanker task","108","63069","112","yes","1024"
"96.46017699115045","96.46017699115045","562.6548672566372","562.6548672566372","black","legacy","legacy","legacy","0","congruent","uniform","1","undefined","1","h","112","0","0","0","112","0","112","0","112","0","0","0","112","112","112","112","Mon Sep 21 17:50:37 2020","600","The main experiment item","yes","Flankertask.osexp","/Users/annielenoir/Desktop","no","mono","no","18","no","white","no","no","768","legacy","32","79","/Users/annielenoir/Desktop/AL-subject-2.csv","legacy","Lentiform Loewenfeld","3.3.3","0","h","NA","s","s","NA","h","511","NA","22882","48620","NA","511","2","legacy","1024","2","48000","-16","experiment","HHHHH","2","even","319666","25236","250441","NA","316875","2171","278281","NA","320875","2344","201820","NA","321126","321638","320721","321126","Flanker task","109","63580","113","yes","1024"
"96.49122807017544","96.49122807017544","562.9122807017544","562.9122807017544","black","legacy","legacy","legacy","0","incongruent","uniform","1","undefined","1","s","113","0","0","0","113","0","113","0","113","0","0","0","113","113","113","113","Mon Sep 21 17:50:37 2020","600","The main experiment item","yes","Flankertask.osexp","/Users/annielenoir/Desktop","no","mono","no","18","no","white","no","no","768","legacy","33","79","/Users/annielenoir/Desktop/AL-subject-2.csv","legacy","Lentiform Loewenfeld","3.3.3","0","s","NA","s","s","NA","s","592","NA","22882","48620","NA","592","2","legacy","1024","2","48000","-16","experiment","HHSHH","2","even","321779","25236","250441","NA","316875","2171","278281","NA","322985","2344","201820","NA","323240","323833","322832","323240","Flanker task","110","64172","114","yes","1024"
"96.52173913043478","96.52173913043478","564.3652173913043","564.3652173913043","black","legacy","legacy","legacy","0","incongruent","uniform","1","undefined","1","s","114","0","0","0","114","0","114","0","114","0","0","0","114","114","114","114","Mon Sep 21 17:50:37 2020","600","The main experiment item","yes","Flankertask.osexp","/Users/annielenoir/Desktop","no","mono","no","18","no","white","no","no","768","legacy","34","79","/Users/annielenoir/Desktop/AL-subject-2.csv","legacy","Lentiform Loewenfeld","3.3.3","0","s","NA","s","s","NA","s","730","NA","22882","48620","NA","730","2","legacy","1024","2","48000","-16","experiment","HHSHH","2","even","323974","25236","250441","NA","316875","2171","278281","NA","325180","2344","201820","NA","325436","326168","325025","325436","Flanker task","111","64902","115","yes","1024"
"96.55172413793103","96.55172413793103","563.1379310344828","563.1379310344828","black","legacy","legacy","legacy","0","congruent","uniform","1","undefined","1","h","115","0","0","0","115","0","115","0","115","0","0","0","115","115","115","115","Mon Sep 21 17:50:37 2020","600","The main experiment item","yes","Flankertask.osexp","/Users/annielenoir/Desktop","no","mono","no","18","no","white","no","no","768","legacy","35","79","/Users/annielenoir/Desktop/AL-subject-2.csv","legacy","Lentiform Loewenfeld","3.3.3","0","h","NA","s","s","NA","h","422","NA","22882","48620","NA","422","2","legacy","1024","2","48000","-16","experiment","HHHHH","2","even","326961","25236","250441","NA","316875","2171","326308","NA","328165","2344","201820","NA","328412","328836","328012","328411","Flanker task","112","65324","116","yes","1024"
"95.72649572649573","95.72649572649573","561.1538461538462","561.1538461538462","black","legacy","legacy","legacy","0","congruent","uniform","0","undefined","0","h","116","0","0","0","116","0","116","0","116","0","0","0","116","116","116","116","Mon Sep 21 17:50:37 2020","600","The main experiment item","yes","Flankertask.osexp","/Users/annielenoir/Desktop","no","mono","no","18","no","white","no","no","768","legacy","36","79","/Users/annielenoir/Desktop/AL-subject-2.csv","legacy","Lentiform Loewenfeld","3.3.3","0","s","NA","s","s","NA","s","331","NA","22882","48620","NA","331","2","legacy","1024","2","48000","-16","experiment","HHHHH","2","even","328979","25236","250441","NA","316875","2171","326308","NA","330180","2344","201820","NA","330433","330766","330030","330433","Flanker task","112","65655","117","yes","1024"
"95.76271186440678","95.76271186440678","559.7118644067797","559.7118644067797","black","legacy","legacy","legacy","0","incongruent","uniform","1","undefined","1","s","117","0","0","0","117","0","117","0","117","0","0","0","117","117","117","117","Mon Sep 21 17:50:37 2020","600","The main experiment item","yes","Flankertask.osexp","/Users/annielenoir/Desktop","no","mono","no","18","no","white","no","no","768","legacy","37","79","/Users/annielenoir/Desktop/AL-subject-2.csv","legacy","Lentiform Loewenfeld","3.3.3","0","s","NA","s","s","NA","s","391","NA","22882","48620","NA","391","2","legacy","1024","2","48000","-16","experiment","HHSHH","2","even","331566","25236","250441","NA","330907","2171","326308","NA","332795","2344","201820","NA","333050","333449","332622","333049","Flanker task","113","66046","118","yes","1024"
"95.7983193277311","95.7983193277311","559.9747899159664","559.9747899159664","black","legacy","legacy","legacy","0","incongruent","uniform","1","undefined","1","h","118","0","0","0","118","0","118","0","118","0","0","0","118","118","118","118","Mon Sep 21 17:50:37 2020","600","The main experiment item","yes","Flankertask.osexp","/Users/annielenoir/Desktop","no","mono","no","18","no","white","no","no","768","legacy","38","79","/Users/annielenoir/Desktop/AL-subject-2.csv","legacy","Lentiform Loewenfeld","3.3.3","0","h","NA","s","s","NA","h","591","NA","22882","48620","NA","591","2","legacy","1024","2","48000","-16","experiment","SSHSS","2","even","333601","25236","250441","NA","330907","2171","326308","NA","334808","2344","201820","NA","335062","335655","334653","335062","Flanker task","114","66637","119","yes","1024"
"95.83333333333333","95.83333333333333","559.4833333333333","559.4833333333333","black","legacy","legacy","legacy","0","congruent","uniform","1","undefined","1","s","119","0","0","0","119","0","119","0","119","0","0","0","119","119","119","119","Mon Sep 21 17:50:37 2020","600","The main experiment item","yes","Flankertask.osexp","/Users/annielenoir/Desktop","no","mono","no","18","no","white","no","no","768","legacy","39","79","/Users/annielenoir/Desktop/AL-subject-2.csv","legacy","Lentiform Loewenfeld","3.3.3","0","s","NA","s","s","NA","s","501","NA","22882","48620","NA","501","2","legacy","1024","2","48000","-16","experiment","SSSSS","2","even","335794","25236","250441","NA","330907","2171","326308","NA","336999","2344","201820","NA","337254","337757","336846","337254","Flanker task","115","67138","120","yes","1024"
"95.86776859504133","95.86776859504133","559.3884297520661","559.3884297520661","black","legacy","legacy","legacy","0","incongruent","uniform","1","undefined","1","h","120","0","0","0","120","0","120","0","120","0","0","0","120","120","120","120","Mon Sep 21 17:50:37 2020","600","The main experiment item","yes","Flankertask.osexp","/Users/annielenoir/Desktop","no","mono","no","18","no","white","no","no","768","legacy","40","79","/Users/annielenoir/Desktop/AL-subject-2.csv","legacy","Lentiform Loewenfeld","3.3.3","0","h","NA","s","s","NA","h","548","NA","22882","48620","NA","548","2","legacy","1024","2","48000","-16","experiment","SSHSS","2","even","337904","25236","250441","NA","330907","2171","326308","NA","339108","2344","201820","NA","339357","339907","338955","339357","Flanker task","116","67686","121","yes","1024"
"95.90163934426229","95.90163934426229","559.0983606557377","559.0983606557377","black","legacy","legacy","legacy","0","incongruent","uniform","1","undefined","1","s","121","0","0","0","121","0","121","0","121","0","0","0","121","121","121","121","Mon Sep 21 17:50:37 2020","600","The main experiment item","yes","Flankertask.osexp","/Users/annielenoir/Desktop","no","mono","no","18","no","white","no","no","768","legacy","41","79","/Users/annielenoir/Desktop/AL-subject-2.csv","legacy","Lentiform Loewenfeld","3.3.3","0","s","NA","s","s","NA","s","524","NA","22882","48620","NA","524","2","legacy","1024","2","48000","-16","experiment","HHSHH","2","even","340049","25236","250441","NA","330907","2171","326308","NA","341252","2344","201820","NA","341506","342032","341101","341506","Flanker task","117","68210","122","yes","1024"
