"acc","accuracy","average_response_time","avg_rt","background","canvas_backend","clock_backend","color_backend","condition","correct","correct_Instuctions1","correct_keyboard_response","correct_response","count_Block1","count_Block2","count_Block3","count_ISI","count_Instructions2","count_Instructions3","count_Instuctions1","count_errorFeedback","count_experiment","count_faster","count_finish","count_fixation","count_keyboard_response","count_logger","count_sequence","count_stimulus","datetime","deadline","description","disable_garbage_collection","experiment_file","experiment_path","font_bold","font_family","font_italic","font_size","font_underline","foreground","form_clicks","fullscreen","height","keyboard_backend","live_row","live_row_Block1","logfile","mouse_backend","opensesame_codename","opensesame_version","repeat_cycle","response","response_Instructions2","response_Instructions3","response_Instuctions1","response_finish","response_keyboard_response","response_time","response_time_Instructions2","response_time_Instructions3","response_time_Instuctions1","response_time_finish","response_time_keyboard_response","round_decimals","sampler_backend","sound_buf_size","sound_channels","sound_freq","sound_sample_size","start","stimulus","subject_nr","subject_parity","time_Block1","time_Block2","time_Block3","time_ISI","time_Instructions2","time_Instructions3","time_Instuctions1","time_errorFeedback","time_experiment","time_faster","time_finish","time_fixation","time_keyboard_response","time_logger","time_sequence","time_stimulus","title","total_correct","total_response_time","total_responses","width"
"0","0","1500","1500","#000000","legacy","legacy","legacy","incongruent","0","undefined","0","h","0","0","0","0","0","0","0","0","0","0","0","0","0","0","0","0","Fri Sep 22 20:38:34 2023","1500","The main experiment item","True","FlankerTask.osexp","C:\Users\Hannah Laskoskie\Downloads","False","mono","False","18","no","white","no","yes","768","legacy","0","0","C:/Users/Hannah Laskoskie/Downloads/HL-subject-4.csv","legacy","Melodramatic Milgram","4.0.5","0","None","NA","NA","s","NA","None","1500.0","NA","NA","36824","NA","1500","2","legacy","1024","2","48000","-16","experiment","SSHSS","4","even","39957","NA","NA","NA","NA","NA","3132","NA","3130","NA","NA","40003","40104","41604","40002","40104","Flanker Task","0","1500.0","1","1024"
"0","0","1500","1500","#000000","legacy","legacy","legacy","congruent","0","undefined","0","h","0","0","0","1","0","0","0","1","0","1","0","1","1","1","1","1","Fri Sep 22 20:38:34 2023","1500","The main experiment item","True","FlankerTask.osexp","C:\Users\Hannah Laskoskie\Downloads","False","mono","False","18","no","white","no","yes","768","legacy","1","1","C:/Users/Hannah Laskoskie/Downloads/HL-subject-4.csv","legacy","Melodramatic Milgram","4.0.5","0","None","NA","NA","s","NA","None","1500.0","NA","NA","36824","NA","1500","2","legacy","1024","2","48000","-16","experiment","HHHHH","4","even","39957","NA","NA","42116","NA","NA","3132","41615","3130","NA","NA","43158","43259","44759","43155","43259","Flanker Task","0","3000.0","2","1024"
"33","33","1192","1192","#000000","legacy","legacy","legacy","congruent","1","undefined","1","h","0","0","0","2","0","0","0","2","0","2","0","2","2","2","2","2","Fri Sep 22 20:38:34 2023","1500","The main experiment item","True","FlankerTask.osexp","C:\Users\Hannah Laskoskie\Downloads","False","mono","False","18","no","white","no","yes","768","legacy","2","2","C:/Users/Hannah Laskoskie/Downloads/HL-subject-4.csv","legacy","Melodramatic Milgram","4.0.5","0","h","NA","NA","s","NA","h","577.0","NA","NA","36824","NA","577","2","legacy","1024","2","48000","-16","experiment","HHHHH","4","even","39957","NA","NA","45268","NA","NA","3132","44767","3130","NA","NA","46310","46411","46989","46307","46411","Flanker Task","1","3577.0","3","1024"
"25","25","957","957","#000000","legacy","legacy","legacy","incongruent","0","undefined","0","s","0","0","0","3","0","0","0","3","0","3","0","3","3","3","3","3","Fri Sep 22 20:38:34 2023","1500","The main experiment item","True","FlankerTask.osexp","C:\Users\Hannah Laskoskie\Downloads","False","mono","False","18","no","white","no","yes","768","legacy","3","3","C:/Users/Hannah Laskoskie/Downloads/HL-subject-4.csv","legacy","Melodramatic Milgram","4.0.5","0","h","NA","NA","s","NA","h","254.0","NA","NA","36824","NA","254","2","legacy","1024","2","48000","-16","experiment","HHSHH","4","even","39957","NA","NA","46998","NA","NA","3132","44767","3130","NA","NA","48052","48154","48409","48049","48154","Flanker Task","1","3831.0","4","1024"
"40","40","787","787","#000000","legacy","legacy","legacy","incongruent","1","undefined","1","h","0","0","0","4","0","0","0","4","0","4","0","4","4","4","4","4","Fri Sep 22 20:38:34 2023","1500","The main experiment item","True","FlankerTask.osexp","C:\Users\Hannah Laskoskie\Downloads","False","mono","False","18","no","white","no","yes","768","legacy","4","4","C:/Users/Hannah Laskoskie/Downloads/HL-subject-4.csv","legacy","Melodramatic Milgram","4.0.5","0","h","NA","NA","s","NA","h","105.0","NA","NA","36824","NA","105","2","legacy","1024","2","48000","-16","experiment","SSHSS","4","even","39957","NA","NA","48919","NA","NA","3132","48418","3130","NA","NA","49966","50067","50173","49963","50067","Flanker Task","2","3936.0","5","1024"
"50","50","687","687","#000000","legacy","legacy","legacy","congruent","1","undefined","1","s","0","0","0","5","0","0","0","5","0","5","0","5","5","5","5","5","Fri Sep 22 20:38:34 2023","1500","The main experiment item","True","FlankerTask.osexp","C:\Users\Hannah Laskoskie\Downloads","False","mono","False","18","no","white","no","yes","768","legacy","5","5","C:/Users/Hannah Laskoskie/Downloads/HL-subject-4.csv","legacy","Melodramatic Milgram","4.0.5","0","s","NA","NA","s","NA","s","187.0","NA","NA","36824","NA","187","2","legacy","1024","2","48000","-16","experiment","SSSSS","4","even","39957","NA","NA","50177","NA","NA","3132","48418","3130","NA","NA","51223","51325","51513","51219","51324","Flanker Task","3","4123.0","6","1024"
"42","42","803","803","#000000","legacy","legacy","legacy","incongruent","0","undefined","0","h","0","0","0","6","0","0","0","6","0","6","0","6","6","6","6","6","Fri Sep 22 20:38:34 2023","1500","The main experiment item","True","FlankerTask.osexp","C:\Users\Hannah Laskoskie\Downloads","False","mono","False","18","no","white","no","yes","768","legacy","6","6","C:/Users/Hannah Laskoskie/Downloads/HL-subject-4.csv","legacy","Melodramatic Milgram","4.0.5","0","None","NA","NA","s","NA","None","1500.0","NA","NA","36824","NA","1500","2","legacy","1024","2","48000","-16","experiment","SSHSS","4","even","39957","NA","NA","51522","NA","NA","3132","48418","3130","NA","NA","52562","52663","54163","52560","52663","Flanker Task","3","5623.0","7","1024"
"37","37","793","793","#000000","legacy","legacy","legacy","incongruent","0","undefined","0","h","0","0","0","7","0","0","0","7","0","7","0","7","7","7","7","7","Fri Sep 22 20:38:34 2023","1500","The main experiment item","True","FlankerTask.osexp","C:\Users\Hannah Laskoskie\Downloads","False","mono","False","18","no","white","no","yes","768","legacy","7","7","C:/Users/Hannah Laskoskie/Downloads/HL-subject-4.csv","legacy","Melodramatic Milgram","4.0.5","0","s","NA","NA","s","NA","s","724.0","NA","NA","36824","NA","724","2","legacy","1024","2","48000","-16","experiment","SSHSS","4","even","39957","NA","NA","54672","NA","NA","3132","54171","3130","NA","NA","55714","55815","56540","55711","55815","Flanker Task","3","6347.0","8","1024"
"33","33","724","724","#000000","legacy","legacy","legacy","incongruent","0","undefined","0","s","0","0","0","8","0","0","0","8","0","8","0","8","8","8","8","8","Fri Sep 22 20:38:34 2023","1500","The main experiment item","True","FlankerTask.osexp","C:\Users\Hannah Laskoskie\Downloads","False","mono","False","18","no","white","no","yes","768","legacy","8","8","C:/Users/Hannah Laskoskie/Downloads/HL-subject-4.csv","legacy","Melodramatic Milgram","4.0.5","0","h","NA","NA","s","NA","h","169.0","NA","NA","36824","NA","169","2","legacy","1024","2","48000","-16","experiment","HHSHH","4","even","39957","NA","NA","57050","NA","NA","3132","56549","3130","NA","NA","58100","58201","58370","58097","58201","Flanker Task","3","6516.0","9","1024"
"40","40","700","700","#000000","legacy","legacy","legacy","congruent","1","undefined","1","h","0","0","0","9","0","0","0","9","0","9","0","9","9","9","9","9","Fri Sep 22 20:38:34 2023","1500","The main experiment item","True","FlankerTask.osexp","C:\Users\Hannah Laskoskie\Downloads","False","mono","False","18","no","white","no","yes","768","legacy","9","9","C:/Users/Hannah Laskoskie/Downloads/HL-subject-4.csv","legacy","Melodramatic Milgram","4.0.5","0","h","NA","NA","s","NA","h","486.0","NA","NA","36824","NA","486","2","legacy","1024","2","48000","-16","experiment","HHHHH","4","even","39957","NA","NA","58881","NA","NA","3132","58380","3130","NA","NA","59919","60020","60507","59916","60020","Flanker Task","4","7002.0","10","1024"
"36","36","772","772","#000000","legacy","legacy","legacy","congruent","0","undefined","0","s","0","0","0","10","0","0","0","10","0","10","0","10","10","10","10","10","Fri Sep 22 20:38:34 2023","1500","The main experiment item","True","FlankerTask.osexp","C:\Users\Hannah Laskoskie\Downloads","False","mono","False","18","no","white","no","yes","768","legacy","10","10","C:/Users/Hannah Laskoskie/Downloads/HL-subject-4.csv","legacy","Melodramatic Milgram","4.0.5","0","None","NA","NA","s","NA","None","1500.0","NA","NA","36824","NA","1500","2","legacy","1024","2","48000","-16","experiment","SSSSS","4","even","39957","NA","NA","60516","NA","NA","3132","58380","3130","NA","NA","61556","61658","63158","61552","61657","Flanker Task","4","8502.0","11","1024"
"41","41","745","745","#000000","legacy","legacy","legacy","incongruent","1","undefined","1","s","0","0","0","11","0","0","0","11","0","11","0","11","11","11","11","11","Fri Sep 22 20:38:34 2023","1500","The main experiment item","True","FlankerTask.osexp","C:\Users\Hannah Laskoskie\Downloads","False","mono","False","18","no","white","no","yes","768","legacy","11","11","C:/Users/Hannah Laskoskie/Downloads/HL-subject-4.csv","legacy","Melodramatic Milgram","4.0.5","0","s","NA","NA","s","NA","s","449.0","NA","NA","36824","NA","449","2","legacy","1024","2","48000","-16","experiment","HHSHH","4","even","39957","NA","NA","63661","NA","NA","3132","63160","3130","NA","NA","64699","64800","65251","64697","64800","Flanker Task","5","8951.0","12","1024"
"46","46","726","726","#000000","legacy","legacy","legacy","congruent","1","undefined","1","h","0","0","0","12","0","0","0","12","0","12","0","12","12","12","12","12","Fri Sep 22 20:38:34 2023","1500","The main experiment item","True","FlankerTask.osexp","C:\Users\Hannah Laskoskie\Downloads","False","mono","False","18","no","white","no","yes","768","legacy","12","12","C:/Users/Hannah Laskoskie/Downloads/HL-subject-4.csv","legacy","Melodramatic Milgram","4.0.5","0","h","NA","NA","s","NA","h","489.0","NA","NA","36824","NA","489","2","legacy","1024","2","48000","-16","experiment","HHHHH","4","even","39957","NA","NA","65253","NA","NA","3132","63160","3130","NA","NA","66296","66397","66886","66294","66397","Flanker Task","6","9440.0","13","1024"
"42","42","700","700","#000000","legacy","legacy","legacy","congruent","0","undefined","0","h","0","0","0","13","0","0","0","13","0","13","0","13","13","13","13","13","Fri Sep 22 20:38:34 2023","1500","The main experiment item","True","FlankerTask.osexp","C:\Users\Hannah Laskoskie\Downloads","False","mono","False","18","no","white","no","yes","768","legacy","13","13","C:/Users/Hannah Laskoskie/Downloads/HL-subject-4.csv","legacy","Melodramatic Milgram","4.0.5","0","s","NA","NA","s","NA","s","364.0","NA","NA","36824","NA","364","2","legacy","1024","2","48000","-16","experiment","HHHHH","4","even","39957","NA","NA","66896","NA","NA","3132","63160","3130","NA","NA","67938","68039","68404","67936","68039","Flanker Task","6","9804.0","14","1024"
"40","40","678","678","#000000","legacy","legacy","legacy","incongruent","0","undefined","0","s","0","0","0","14","0","0","0","14","0","14","0","14","14","14","14","14","Fri Sep 22 20:38:34 2023","1500","The main experiment item","True","FlankerTask.osexp","C:\Users\Hannah Laskoskie\Downloads","False","mono","False","18","no","white","no","yes","768","legacy","14","14","C:/Users/Hannah Laskoskie/Downloads/HL-subject-4.csv","legacy","Melodramatic Milgram","4.0.5","0","h","NA","NA","s","NA","h","373.0","NA","NA","36824","NA","373","2","legacy","1024","2","48000","-16","experiment","HHSHH","4","even","39957","NA","NA","68913","NA","NA","3132","68412","3130","NA","NA","69960","70061","70434","69957","70061","Flanker Task","6","10177.0","15","1024"
"43","43","666","666","#000000","legacy","legacy","legacy","congruent","1","undefined","1","h","0","0","0","15","0","0","0","15","0","15","0","15","15","15","15","15","Fri Sep 22 20:38:34 2023","1500","The main experiment item","True","FlankerTask.osexp","C:\Users\Hannah Laskoskie\Downloads","False","mono","False","18","no","white","no","yes","768","legacy","15","15","C:/Users/Hannah Laskoskie/Downloads/HL-subject-4.csv","legacy","Melodramatic Milgram","4.0.5","0","h","NA","NA","s","NA","h","480.0","NA","NA","36824","NA","480","2","legacy","1024","2","48000","-16","experiment","HHHHH","4","even","39957","NA","NA","70944","NA","NA","3132","70443","3130","NA","NA","71985","72086","72566","71982","72086","Flanker Task","7","10657.0","16","1024"
"47","47","639","639","#000000","legacy","legacy","legacy","congruent","1","undefined","1","s","0","0","0","16","0","0","0","16","0","16","0","16","16","16","16","16","Fri Sep 22 20:38:34 2023","1500","The main experiment item","True","FlankerTask.osexp","C:\Users\Hannah Laskoskie\Downloads","False","mono","False","18","no","white","no","yes","768","legacy","16","16","C:/Users/Hannah Laskoskie/Downloads/HL-subject-4.csv","legacy","Melodramatic Milgram","4.0.5","0","s","NA","NA","s","NA","s","220.0","NA","NA","36824","NA","220","2","legacy","1024","2","48000","-16","experiment","SSSSS","4","even","39957","NA","NA","72576","NA","NA","3132","70443","3130","NA","NA","73619","73720","73941","73616","73720","Flanker Task","8","10877.0","17","1024"
"50","50","618","618","#000000","legacy","legacy","legacy","congruent","1","undefined","1","h","0","0","0","17","0","0","0","17","0","17","0","17","17","17","17","17","Fri Sep 22 20:38:34 2023","1500","The main experiment item","True","FlankerTask.osexp","C:\Users\Hannah Laskoskie\Downloads","False","mono","False","18","no","white","no","yes","768","legacy","17","17","C:/Users/Hannah Laskoskie/Downloads/HL-subject-4.csv","legacy","Melodramatic Milgram","4.0.5","0","h","NA","NA","s","NA","h","251.0","NA","NA","36824","NA","251","2","legacy","1024","2","48000","-16","experiment","HHHHH","4","even","39957","NA","NA","73950","NA","NA","3132","70443","3130","NA","NA","75000","75101","75353","74997","75101","Flanker Task","9","11128.0","18","1024"
"52","52","602","602","#000000","legacy","legacy","legacy","congruent","1","undefined","1","s","0","0","0","18","0","0","0","18","0","18","0","18","18","18","18","18","Fri Sep 22 20:38:34 2023","1500","The main experiment item","True","FlankerTask.osexp","C:\Users\Hannah Laskoskie\Downloads","False","mono","False","18","no","white","no","yes","768","legacy","18","18","C:/Users/Hannah Laskoskie/Downloads/HL-subject-4.csv","legacy","Melodramatic Milgram","4.0.5","0","s","NA","NA","s","NA","s","319.0","NA","NA","36824","NA","319","2","legacy","1024","2","48000","-16","experiment","SSSSS","4","even","39957","NA","NA","75362","NA","NA","3132","70443","3130","NA","NA","76400","76501","76821","76398","76501","Flanker Task","10","11447.0","19","1024"
"55","55","582","582","#000000","legacy","legacy","legacy","congruent","1","undefined","1","h","0","0","0","19","0","0","0","19","0","19","0","19","19","19","19","19","Fri Sep 22 20:38:34 2023","1500","The main experiment item","True","FlankerTask.osexp","C:\Users\Hannah Laskoskie\Downloads","False","mono","False","18","no","white","no","yes","768","legacy","19","19","C:/Users/Hannah Laskoskie/Downloads/HL-subject-4.csv","legacy","Melodramatic Milgram","4.0.5","0","h","NA","NA","s","NA","h","212.0","NA","NA","36824","NA","212","2","legacy","1024","2","48000","-16","experiment","HHHHH","4","even","39957","NA","NA","76830","NA","NA","3132","70443","3130","NA","NA","77866","77967","78180","77864","77967","Flanker Task","11","11659.0","20","1024"
"57","57","565","565","#000000","legacy","legacy","legacy","incongruent","1","undefined","1","s","0","0","0","20","0","0","0","20","0","20","0","20","20","20","20","20","Fri Sep 22 20:38:34 2023","1500","The main experiment item","True","FlankerTask.osexp","C:\Users\Hannah Laskoskie\Downloads","False","mono","False","18","no","white","no","yes","768","legacy","20","20","C:/Users/Hannah Laskoskie/Downloads/HL-subject-4.csv","legacy","Melodramatic Milgram","4.0.5","0","s","NA","NA","s","NA","s","217.0","NA","NA","36824","NA","217","2","legacy","1024","2","48000","-16","experiment","HHSHH","4","even","39957","NA","NA","78183","NA","NA","3132","70443","3130","NA","NA","79221","79323","79541","79219","79323","Flanker Task","12","11876.0","21","1024"
"59","59","585","585","#000000","legacy","legacy","legacy","incongruent","1","undefined","1","h","0","0","0","21","0","0","0","21","0","21","0","21","21","21","21","21","Fri Sep 22 20:38:34 2023","1500","The main experiment item","True","FlankerTask.osexp","C:\Users\Hannah Laskoskie\Downloads","False","mono","False","18","no","white","no","yes","768","legacy","21","21","C:/Users/Hannah Laskoskie/Downloads/HL-subject-4.csv","legacy","Melodramatic Milgram","4.0.5","0","h","NA","NA","s","NA","h","1014.0","NA","NA","36824","NA","1014","2","legacy","1024","2","48000","-16","experiment","SSHSS","4","even","39957","NA","NA","79550","NA","NA","3132","70443","3130","NA","NA","80586","80687","81702","80584","80687","Flanker Task","13","12890.0","22","1024"
"60","60","569","569","#000000","legacy","legacy","legacy","incongruent","1","undefined","1","s","0","0","0","22","0","0","0","22","0","22","0","22","22","22","22","22","Fri Sep 22 20:38:34 2023","1500","The main experiment item","True","FlankerTask.osexp","C:\Users\Hannah Laskoskie\Downloads","False","mono","False","18","no","white","no","yes","768","legacy","22","22","C:/Users/Hannah Laskoskie/Downloads/HL-subject-4.csv","legacy","Melodramatic Milgram","4.0.5","0","s","NA","NA","s","NA","s","212.0","NA","NA","36824","NA","212","2","legacy","1024","2","48000","-16","experiment","HHSHH","4","even","39957","NA","NA","81710","NA","NA","3132","70443","3130","NA","NA","82752","82853","83066","82750","82853","Flanker Task","14","13102.0","23","1024"
"62","62","552","552","#000000","legacy","legacy","legacy","incongruent","1","undefined","1","h","0","0","0","23","0","0","0","23","0","23","0","23","23","23","23","23","Fri Sep 22 20:38:34 2023","1500","The main experiment item","True","FlankerTask.osexp","C:\Users\Hannah Laskoskie\Downloads","False","mono","False","18","no","white","no","yes","768","legacy","23","23","C:/Users/Hannah Laskoskie/Downloads/HL-subject-4.csv","legacy","Melodramatic Milgram","4.0.5","0","h","NA","NA","s","NA","h","169.0","NA","NA","36824","NA","169","2","legacy","1024","2","48000","-16","experiment","SSHSS","4","even","39957","NA","NA","83075","NA","NA","3132","70443","3130","NA","NA","84113","84214","84384","84110","84214","Flanker Task","15","13271.0","24","1024"
"64","64","538","538","#000000","legacy","legacy","legacy","incongruent","1","undefined","1","s","0","0","0","24","0","0","0","24","0","24","0","24","24","24","24","24","Fri Sep 22 20:38:34 2023","1500","The main experiment item","True","FlankerTask.osexp","C:\Users\Hannah Laskoskie\Downloads","False","mono","False","18","no","white","no","yes","768","legacy","24","24","C:/Users/Hannah Laskoskie/Downloads/HL-subject-4.csv","legacy","Melodramatic Milgram","4.0.5","0","s","NA","NA","s","NA","s","184.0","NA","NA","36824","NA","184","2","legacy","1024","2","48000","-16","experiment","HHSHH","4","even","39957","NA","NA","84393","NA","NA","3132","70443","3130","NA","NA","85432","85533","85718","85429","85533","Flanker Task","16","13455.0","25","1024"
"61","61","522","522","#000000","legacy","legacy","legacy","congruent","0","undefined","0","s","0","0","0","25","0","0","0","25","0","25","0","25","25","25","25","25","Fri Sep 22 20:38:34 2023","1500","The main experiment item","True","FlankerTask.osexp","C:\Users\Hannah Laskoskie\Downloads","False","mono","False","18","no","white","no","yes","768","legacy","25","25","C:/Users/Hannah Laskoskie/Downloads/HL-subject-4.csv","legacy","Melodramatic Milgram","4.0.5","0","h","NA","NA","s","NA","h","128.0","NA","NA","36824","NA","128","2","legacy","1024","2","48000","-16","experiment","SSSSS","4","even","39957","NA","NA","85721","NA","NA","3132","70443","3130","NA","NA","86761","86863","86992","86759","86863","Flanker Task","16","13583.0","26","1024"
"59","59","513","513","#000000","legacy","legacy","legacy","incongruent","0","undefined","0","h","0","0","0","26","0","0","0","26","0","26","0","26","26","26","26","26","Fri Sep 22 20:38:34 2023","1500","The main experiment item","True","FlankerTask.osexp","C:\Users\Hannah Laskoskie\Downloads","False","mono","False","18","no","white","no","yes","768","legacy","26","26","C:/Users/Hannah Laskoskie/Downloads/HL-subject-4.csv","legacy","Melodramatic Milgram","4.0.5","0","s","NA","NA","s","NA","s","294.0","NA","NA","36824","NA","294","2","legacy","1024","2","48000","-16","experiment","SSHSS","4","even","39957","NA","NA","87503","NA","NA","3132","87002","3130","NA","NA","88552","88654","88949","88550","88654","Flanker Task","16","13877.0","27","1024"
"57","57","503","503","#000000","legacy","legacy","legacy","incongruent","0","undefined","0","s","0","0","0","27","0","0","0","27","0","27","0","27","27","27","27","27","Fri Sep 22 20:38:34 2023","1500","The main experiment item","True","FlankerTask.osexp","C:\Users\Hannah Laskoskie\Downloads","False","mono","False","18","no","white","no","yes","768","legacy","27","27","C:/Users/Hannah Laskoskie/Downloads/HL-subject-4.csv","legacy","Melodramatic Milgram","4.0.5","0","h","NA","NA","s","NA","h","211.0","NA","NA","36824","NA","211","2","legacy","1024","2","48000","-16","experiment","HHSHH","4","even","39957","NA","NA","89453","NA","NA","3132","88952","3130","NA","NA","90490","90591","90803","90487","90591","Flanker Task","16","14088.0","28","1024"
"55","55","505","505","#000000","legacy","legacy","legacy","incongruent","0","undefined","0","h","0","0","0","28","0","0","0","28","0","28","0","28","28","28","28","28","Fri Sep 22 20:38:34 2023","1500","The main experiment item","True","FlankerTask.osexp","C:\Users\Hannah Laskoskie\Downloads","False","mono","False","18","no","white","no","yes","768","legacy","28","28","C:/Users/Hannah Laskoskie/Downloads/HL-subject-4.csv","legacy","Melodramatic Milgram","4.0.5","0","s","NA","NA","s","NA","s","561.0","NA","NA","36824","NA","561","2","legacy","1024","2","48000","-16","experiment","SSHSS","4","even","39957","NA","NA","91313","NA","NA","3132","90812","3130","NA","NA","92351","92452","93015","92348","92452","Flanker Task","16","14649.0","29","1024"
"53","53","499","499","#000000","legacy","legacy","legacy","congruent","0","undefined","0","s","0","0","0","29","0","0","0","29","0","29","0","29","29","29","29","29","Fri Sep 22 20:38:34 2023","1500","The main experiment item","True","FlankerTask.osexp","C:\Users\Hannah Laskoskie\Downloads","False","mono","False","18","no","white","no","yes","768","legacy","29","29","C:/Users/Hannah Laskoskie/Downloads/HL-subject-4.csv","legacy","Melodramatic Milgram","4.0.5","0","h","NA","NA","s","NA","h","342.0","NA","NA","36824","NA","342","2","legacy","1024","2","48000","-16","experiment","SSSSS","4","even","39957","NA","NA","93524","NA","NA","3132","93023","3130","NA","NA","94560","94661","95004","94558","94661","Flanker Task","16","14991.0","30","1024"
"51","51","497","497","#000000","legacy","legacy","legacy","congruent","0","undefined","0","h","0","0","0","30","0","0","0","30","0","30","0","30","30","30","30","30","Fri Sep 22 20:38:34 2023","1500","The main experiment item","True","FlankerTask.osexp","C:\Users\Hannah Laskoskie\Downloads","False","mono","False","18","no","white","no","yes","768","legacy","30","30","C:/Users/Hannah Laskoskie/Downloads/HL-subject-4.csv","legacy","Melodramatic Milgram","4.0.5","0","s","NA","NA","s","NA","s","418.0","NA","NA","36824","NA","418","2","legacy","1024","2","48000","-16","experiment","HHHHH","4","even","39957","NA","NA","95514","NA","NA","3132","95013","3130","NA","NA","96551","96652","97071","96548","96652","Flanker Task","16","15409.0","31","1024"
"50","50","498","498","#000000","legacy","legacy","legacy","congruent","0","undefined","0","s","0","0","0","31","0","0","0","31","0","31","0","31","31","31","31","31","Fri Sep 22 20:38:34 2023","1500","The main experiment item","True","FlankerTask.osexp","C:\Users\Hannah Laskoskie\Downloads","False","mono","False","18","no","white","no","yes","768","legacy","31","31","C:/Users/Hannah Laskoskie/Downloads/HL-subject-4.csv","legacy","Melodramatic Milgram","4.0.5","0","h","NA","NA","s","NA","h","547.0","NA","NA","36824","NA","547","2","legacy","1024","2","48000","-16","experiment","SSSSS","4","even","39957","NA","NA","97583","NA","NA","3132","97081","3130","NA","NA","98621","98722","99270","98619","98722","Flanker Task","16","15956.0","32","1024"
"51","51","499","499","#000000","legacy","legacy","legacy","congruent","1","undefined","1","s","0","0","0","32","0","0","0","32","0","32","0","32","32","32","32","32","Fri Sep 22 20:38:34 2023","1500","The main experiment item","True","FlankerTask.osexp","C:\Users\Hannah Laskoskie\Downloads","False","mono","False","18","no","white","no","yes","768","legacy","32","32","C:/Users/Hannah Laskoskie/Downloads/HL-subject-4.csv","legacy","Melodramatic Milgram","4.0.5","0","s","NA","NA","s","NA","s","527.0","NA","NA","36824","NA","527","2","legacy","1024","2","48000","-16","experiment","SSSSS","4","even","39957","NA","NA","99774","NA","NA","3132","99273","3130","NA","NA","100812","100913","101440","100809","100913","Flanker Task","17","16483.0","33","1024"
"52","52","502","502","#000000","legacy","legacy","legacy","incongruent","1","undefined","1","h","0","0","0","33","0","0","0","33","0","33","0","33","33","33","33","33","Fri Sep 22 20:38:34 2023","1500","The main experiment item","True","FlankerTask.osexp","C:\Users\Hannah Laskoskie\Downloads","False","mono","False","18","no","white","no","yes","768","legacy","33","33","C:/Users/Hannah Laskoskie/Downloads/HL-subject-4.csv","legacy","Melodramatic Milgram","4.0.5","0","h","NA","NA","s","NA","h","616.0","NA","NA","36824","NA","616","2","legacy","1024","2","48000","-16","experiment","SSHSS","4","even","39957","NA","NA","101450","NA","NA","3132","99273","3130","NA","NA","102493","102594","103212","102491","102594","Flanker Task","18","17099.0","34","1024"
"54","54","507","507","#000000","legacy","legacy","legacy","congruent","1","undefined","1","h","0","0","0","34","0","0","0","34","0","34","0","34","34","34","34","34","Fri Sep 22 20:38:34 2023","1500","The main experiment item","True","FlankerTask.osexp","C:\Users\Hannah Laskoskie\Downloads","False","mono","False","18","no","white","no","yes","768","legacy","34","34","C:/Users/Hannah Laskoskie/Downloads/HL-subject-4.csv","legacy","Melodramatic Milgram","4.0.5","0","h","NA","NA","s","NA","h","672.0","NA","NA","36824","NA","672","2","legacy","1024","2","48000","-16","experiment","HHHHH","4","even","39957","NA","NA","103221","NA","NA","3132","99273","3130","NA","NA","104265","104367","105040","104263","104366","Flanker Task","19","17771.0","35","1024"
"55","55","507","507","#000000","legacy","legacy","legacy","congruent","1","undefined","1","h","0","0","0","35","0","0","0","35","0","35","0","35","35","35","35","35","Fri Sep 22 20:38:34 2023","1500","The main experiment item","True","FlankerTask.osexp","C:\Users\Hannah Laskoskie\Downloads","False","mono","False","18","no","white","no","yes","768","legacy","35","35","C:/Users/Hannah Laskoskie/Downloads/HL-subject-4.csv","legacy","Melodramatic Milgram","4.0.5","0","h","NA","NA","s","NA","h","494.0","NA","NA","36824","NA","494","2","legacy","1024","2","48000","-16","experiment","HHHHH","4","even","39957","NA","NA","105048","NA","NA","3132","99273","3130","NA","NA","106104","106205","106700","106101","106205","Flanker Task","20","18265.0","36","1024"
"56","56","503","503","#000000","legacy","legacy","legacy","congruent","1","undefined","1","h","0","0","0","36","0","0","0","36","0","36","0","36","36","36","36","36","Fri Sep 22 20:38:34 2023","1500","The main experiment item","True","FlankerTask.osexp","C:\Users\Hannah Laskoskie\Downloads","False","mono","False","18","no","white","no","yes","768","legacy","36","36","C:/Users/Hannah Laskoskie/Downloads/HL-subject-4.csv","legacy","Melodramatic Milgram","4.0.5","0","h","NA","NA","s","NA","h","363.0","NA","NA","36824","NA","363","2","legacy","1024","2","48000","-16","experiment","HHHHH","4","even","39957","NA","NA","106709","NA","NA","3132","99273","3130","NA","NA","107751","107853","108217","107749","107853","Flanker Task","21","18628.0","37","1024"
"55","55","498","498","#000000","legacy","legacy","legacy","incongruent","0","undefined","0","s","0","0","0","37","0","0","0","37","0","37","0","37","37","37","37","37","Fri Sep 22 20:38:34 2023","1500","The main experiment item","True","FlankerTask.osexp","C:\Users\Hannah Laskoskie\Downloads","False","mono","False","18","no","white","no","yes","768","legacy","37","37","C:/Users/Hannah Laskoskie/Downloads/HL-subject-4.csv","legacy","Melodramatic Milgram","4.0.5","0","h","NA","NA","s","NA","h","316.0","NA","NA","36824","NA","316","2","legacy","1024","2","48000","-16","experiment","HHSHH","4","even","39957","NA","NA","108226","NA","NA","3132","99273","3130","NA","NA","109264","109366","109683","109262","109365","Flanker Task","21","18944.0","38","1024"
"56","56","505","505","#000000","legacy","legacy","legacy","congruent","1","undefined","1","h","0","0","0","38","0","0","0","38","0","38","0","38","38","38","38","38","Fri Sep 22 20:38:34 2023","1500","The main experiment item","True","FlankerTask.osexp","C:\Users\Hannah Laskoskie\Downloads","False","mono","False","18","no","white","no","yes","768","legacy","38","38","C:/Users/Hannah Laskoskie/Downloads/HL-subject-4.csv","legacy","Melodramatic Milgram","4.0.5","0","h","NA","NA","s","NA","h","771.0","NA","NA","36824","NA","771","2","legacy","1024","2","48000","-16","experiment","HHHHH","4","even","39957","NA","NA","110194","NA","NA","3132","109693","3130","NA","NA","111230","111331","112103","111228","111331","Flanker Task","22","19715.0","39","1024"
"55","55","504","504","#000000","legacy","legacy","legacy","congruent","0","undefined","0","s","0","0","0","39","0","0","0","39","0","39","0","39","39","39","39","39","Fri Sep 22 20:38:34 2023","1500","The main experiment item","True","FlankerTask.osexp","C:\Users\Hannah Laskoskie\Downloads","False","mono","False","18","no","white","no","yes","768","legacy","39","39","C:/Users/Hannah Laskoskie/Downloads/HL-subject-4.csv","legacy","Melodramatic Milgram","4.0.5","0","h","NA","NA","s","NA","h","478.0","NA","NA","36824","NA","478","2","legacy","1024","2","48000","-16","experiment","SSSSS","4","even","39957","NA","NA","112112","NA","NA","3132","109693","3130","NA","NA","113154","113255","113734","113152","113255","Flanker Task","22","20193.0","40","1024"
"53","53","502","502","#000000","legacy","legacy","legacy","congruent","0","undefined","0","s","0","0","0","40","0","0","0","40","0","40","0","40","40","40","40","40","Fri Sep 22 20:38:34 2023","1500","The main experiment item","True","FlankerTask.osexp","C:\Users\Hannah Laskoskie\Downloads","False","mono","False","18","no","white","no","yes","768","legacy","40","40","C:/Users/Hannah Laskoskie/Downloads/HL-subject-4.csv","legacy","Melodramatic Milgram","4.0.5","0","h","NA","NA","s","NA","h","421.0","NA","NA","36824","NA","421","2","legacy","1024","2","48000","-16","experiment","SSSSS","4","even","39957","NA","NA","114244","NA","NA","3132","113743","3130","NA","NA","115283","115385","115806","115280","115385","Flanker Task","22","20614.0","41","1024"
"52","52","501","501","#000000","legacy","legacy","legacy","incongruent","0","undefined","0","h","0","0","0","41","0","0","0","41","0","41","0","41","41","41","41","41","Fri Sep 22 20:38:34 2023","1500","The main experiment item","True","FlankerTask.osexp","C:\Users\Hannah Laskoskie\Downloads","False","mono","False","18","no","white","no","yes","768","legacy","41","41","C:/Users/Hannah Laskoskie/Downloads/HL-subject-4.csv","legacy","Melodramatic Milgram","4.0.5","0","s","NA","NA","s","NA","s","453.0","NA","NA","36824","NA","453","2","legacy","1024","2","48000","-16","experiment","SSHSS","4","even","39957","NA","NA","116316","NA","NA","3132","115815","3130","NA","NA","117374","117477","117932","117370","117477","Flanker Task","22","21067.0","42","1024"
"53","53","495","495","#000000","legacy","legacy","legacy","congruent","1","undefined","1","h","0","0","0","42","0","0","0","42","0","42","0","42","42","42","42","42","Fri Sep 22 20:38:34 2023","1500","The main experiment item","True","FlankerTask.osexp","C:\Users\Hannah Laskoskie\Downloads","False","mono","False","18","no","white","no","yes","768","legacy","42","42","C:/Users/Hannah Laskoskie/Downloads/HL-subject-4.csv","legacy","Melodramatic Milgram","4.0.5","0","h","NA","NA","s","NA","h","231.0","NA","NA","36824","NA","231","2","legacy","1024","2","48000","-16","experiment","HHHHH","4","even","39957","NA","NA","118442","NA","NA","3132","117941","3130","NA","NA","119479","119580","119813","119476","119580","Flanker Task","23","21298.0","43","1024"
"54","54","497","497","#000000","legacy","legacy","legacy","incongruent","1","undefined","1","s","0","0","0","43","0","0","0","43","0","43","0","43","43","43","43","43","Fri Sep 22 20:38:34 2023","1500","The main experiment item","True","FlankerTask.osexp","C:\Users\Hannah Laskoskie\Downloads","False","mono","False","18","no","white","no","yes","768","legacy","43","43","C:/Users/Hannah Laskoskie/Downloads/HL-subject-4.csv","legacy","Melodramatic Milgram","4.0.5","0","s","NA","NA","s","NA","s","598.0","NA","NA","36824","NA","598","2","legacy","1024","2","48000","-16","experiment","HHSHH","4","even","39957","NA","NA","119817","NA","NA","3132","117941","3130","NA","NA","120854","120955","121554","120852","120955","Flanker Task","24","21896.0","44","1024"
"53","53","495","495","#000000","legacy","legacy","legacy","incongruent","0","undefined","0","s","0","0","0","44","0","0","0","44","0","44","0","44","44","44","44","44","Fri Sep 22 20:38:34 2023","1500","The main experiment item","True","FlankerTask.osexp","C:\Users\Hannah Laskoskie\Downloads","False","mono","False","18","no","white","no","yes","768","legacy","44","44","C:/Users/Hannah Laskoskie/Downloads/HL-subject-4.csv","legacy","Melodramatic Milgram","4.0.5","0","h","NA","NA","s","NA","h","420.0","NA","NA","36824","NA","420","2","legacy","1024","2","48000","-16","experiment","HHSHH","4","even","39957","NA","NA","121563","NA","NA","3132","117941","3130","NA","NA","122617","122718","123139","122614","122718","Flanker Task","24","22316.0","45","1024"
"54","54","498","498","#000000","legacy","legacy","legacy","congruent","1","undefined","1","s","0","0","0","45","0","0","0","45","0","45","0","45","45","45","45","45","Fri Sep 22 20:38:34 2023","1500","The main experiment item","True","FlankerTask.osexp","C:\Users\Hannah Laskoskie\Downloads","False","mono","False","18","no","white","no","yes","768","legacy","45","45","C:/Users/Hannah Laskoskie/Downloads/HL-subject-4.csv","legacy","Melodramatic Milgram","4.0.5","0","s","NA","NA","s","NA","s","599.0","NA","NA","36824","NA","599","2","legacy","1024","2","48000","-16","experiment","SSSSS","4","even","39957","NA","NA","123649","NA","NA","3132","123148","3130","NA","NA","124686","124787","125388","124683","124787","Flanker Task","25","22915.0","46","1024"
"55","55","500","500","#000000","legacy","legacy","legacy","incongruent","1","undefined","1","s","0","0","0","46","0","0","0","46","0","46","0","46","46","46","46","46","Fri Sep 22 20:38:34 2023","1500","The main experiment item","True","FlankerTask.osexp","C:\Users\Hannah Laskoskie\Downloads","False","mono","False","18","no","white","no","yes","768","legacy","46","46","C:/Users/Hannah Laskoskie/Downloads/HL-subject-4.csv","legacy","Melodramatic Milgram","4.0.5","0","s","NA","NA","s","NA","s","592.0","NA","NA","36824","NA","592","2","legacy","1024","2","48000","-16","experiment","HHSHH","4","even","39957","NA","NA","125397","NA","NA","3132","123148","3130","NA","NA","126436","126537","127130","126433","126537","Flanker Task","26","23507.0","47","1024"
"56","56","503","503","#000000","legacy","legacy","legacy","congruent","1","undefined","1","h","0","0","0","47","0","0","0","47","0","47","0","47","47","47","47","47","Fri Sep 22 20:38:34 2023","1500","The main experiment item","True","FlankerTask.osexp","C:\Users\Hannah Laskoskie\Downloads","False","mono","False","18","no","white","no","yes","768","legacy","47","47","C:/Users/Hannah Laskoskie/Downloads/HL-subject-4.csv","legacy","Melodramatic Milgram","4.0.5","0","h","NA","NA","s","NA","h","641.0","NA","NA","36824","NA","641","2","legacy","1024","2","48000","-16","experiment","HHHHH","4","even","39957","NA","NA","127139","NA","NA","3132","123148","3130","NA","NA","128181","128282","128924","128179","128282","Flanker Task","27","24148.0","48","1024"
"57","57","501","501","#000000","legacy","legacy","legacy","incongruent","1","undefined","1","s","0","0","0","48","0","0","0","48","0","48","0","48","48","48","48","48","Fri Sep 22 20:38:34 2023","1500","The main experiment item","True","FlankerTask.osexp","C:\Users\Hannah Laskoskie\Downloads","False","mono","False","18","no","white","no","yes","768","legacy","48","48","C:/Users/Hannah Laskoskie/Downloads/HL-subject-4.csv","legacy","Melodramatic Milgram","4.0.5","0","s","NA","NA","s","NA","s","448.0","NA","NA","36824","NA","448","2","legacy","1024","2","48000","-16","experiment","HHSHH","4","even","39957","NA","NA","128933","NA","NA","3132","123148","3130","NA","NA","129971","130072","130521","129969","130072","Flanker Task","28","24596.0","49","1024"
"56","56","497","497","#000000","legacy","legacy","legacy","incongruent","0","undefined","0","s","0","0","0","49","0","0","0","49","0","49","0","49","49","49","49","49","Fri Sep 22 20:38:34 2023","1500","The main experiment item","True","FlankerTask.osexp","C:\Users\Hannah Laskoskie\Downloads","False","mono","False","18","no","white","no","yes","768","legacy","49","49","C:/Users/Hannah Laskoskie/Downloads/HL-subject-4.csv","legacy","Melodramatic Milgram","4.0.5","0","h","NA","NA","s","NA","h","258.0","NA","NA","36824","NA","258","2","legacy","1024","2","48000","-16","experiment","HHSHH","4","even","39957","NA","NA","130525","NA","NA","3132","123148","3130","NA","NA","131571","131671","131930","131569","131671","Flanker Task","28","24854.0","50","1024"
"56","56","496","496","#000000","legacy","legacy","legacy","incongruent","1","undefined","1","s","0","0","0","50","0","0","0","50","0","50","0","50","50","50","50","50","Fri Sep 22 20:38:34 2023","1500","The main experiment item","True","FlankerTask.osexp","C:\Users\Hannah Laskoskie\Downloads","False","mono","False","18","no","white","no","yes","768","legacy","50","50","C:/Users/Hannah Laskoskie/Downloads/HL-subject-4.csv","legacy","Melodramatic Milgram","4.0.5","0","s","NA","NA","s","NA","s","491.0","NA","NA","36824","NA","491","2","legacy","1024","2","48000","-16","experiment","HHSHH","4","even","39957","NA","NA","132440","NA","NA","3132","131939","3130","NA","NA","133481","133583","134075","133479","133582","Flanker Task","29","25345.0","51","1024"
"57","57","500","500","#000000","legacy","legacy","legacy","incongruent","1","undefined","1","h","0","0","0","51","0","0","0","51","0","51","0","51","51","51","51","51","Fri Sep 22 20:38:34 2023","1500","The main experiment item","True","FlankerTask.osexp","C:\Users\Hannah Laskoskie\Downloads","False","mono","False","18","no","white","no","yes","768","legacy","51","51","C:/Users/Hannah Laskoskie/Downloads/HL-subject-4.csv","legacy","Melodramatic Milgram","4.0.5","0","h","NA","NA","s","NA","h","684.0","NA","NA","36824","NA","684","2","legacy","1024","2","48000","-16","experiment","SSHSS","4","even","39957","NA","NA","134084","NA","NA","3132","131939","3130","NA","NA","135135","135237","135922","135133","135237","Flanker Task","30","26029.0","52","1024"
"58","58","499","499","#000000","legacy","legacy","legacy","incongruent","1","undefined","1","s","0","0","0","52","0","0","0","52","0","52","0","52","52","52","52","52","Fri Sep 22 20:38:34 2023","1500","The main experiment item","True","FlankerTask.osexp","C:\Users\Hannah Laskoskie\Downloads","False","mono","False","18","no","white","no","yes","768","legacy","52","52","C:/Users/Hannah Laskoskie/Downloads/HL-subject-4.csv","legacy","Melodramatic Milgram","4.0.5","0","s","NA","NA","s","NA","s","422.0","NA","NA","36824","NA","422","2","legacy","1024","2","48000","-16","experiment","HHSHH","4","even","39957","NA","NA","135931","NA","NA","3132","131939","3130","NA","NA","136972","137073","137496","136969","137073","Flanker Task","31","26451.0","53","1024"
"59","59","499","499","#000000","legacy","legacy","legacy","congruent","1","undefined","1","h","0","0","0","53","0","0","0","53","0","53","0","53","53","53","53","53","Fri Sep 22 20:38:34 2023","1500","The main experiment item","True","FlankerTask.osexp","C:\Users\Hannah Laskoskie\Downloads","False","mono","False","18","no","white","no","yes","768","legacy","53","53","C:/Users/Hannah Laskoskie/Downloads/HL-subject-4.csv","legacy","Melodramatic Milgram","4.0.5","0","h","NA","NA","s","NA","h","518.0","NA","NA","36824","NA","518","2","legacy","1024","2","48000","-16","experiment","HHHHH","4","even","39957","NA","NA","137499","NA","NA","3132","131939","3130","NA","NA","138567","138668","139187","138563","138668","Flanker Task","32","26969.0","54","1024"
"60","60","500","500","#000000","legacy","legacy","legacy","congruent","1","undefined","1","h","0","0","0","54","0","0","0","54","0","54","0","54","54","54","54","54","Fri Sep 22 20:38:34 2023","1500","The main experiment item","True","FlankerTask.osexp","C:\Users\Hannah Laskoskie\Downloads","False","mono","False","18","no","white","no","yes","768","legacy","54","54","C:/Users/Hannah Laskoskie/Downloads/HL-subject-4.csv","legacy","Melodramatic Milgram","4.0.5","0","h","NA","NA","s","NA","h","561.0","NA","NA","36824","NA","561","2","legacy","1024","2","48000","-16","experiment","HHHHH","4","even","39957","NA","NA","139196","NA","NA","3132","131939","3130","NA","NA","140235","140336","140898","140233","140336","Flanker Task","33","27530.0","55","1024"
"58","58","499","499","#000000","legacy","legacy","legacy","incongruent","0","undefined","0","s","0","0","0","55","0","0","0","55","0","55","0","55","55","55","55","55","Fri Sep 22 20:38:34 2023","1500","The main experiment item","True","FlankerTask.osexp","C:\Users\Hannah Laskoskie\Downloads","False","mono","False","18","no","white","no","yes","768","legacy","55","55","C:/Users/Hannah Laskoskie/Downloads/HL-subject-4.csv","legacy","Melodramatic Milgram","4.0.5","0","h","NA","NA","s","NA","h","441.0","NA","NA","36824","NA","441","2","legacy","1024","2","48000","-16","experiment","HHSHH","4","even","39957","NA","NA","140907","NA","NA","3132","131939","3130","NA","NA","141946","142047","142490","141943","142047","Flanker Task","33","27971.0","56","1024"
"59","59","500","500","#000000","legacy","legacy","legacy","incongruent","1","undefined","1","s","0","0","0","56","0","0","0","56","0","56","0","56","56","56","56","56","Fri Sep 22 20:38:34 2023","1500","The main experiment item","True","FlankerTask.osexp","C:\Users\Hannah Laskoskie\Downloads","False","mono","False","18","no","white","no","yes","768","legacy","56","56","C:/Users/Hannah Laskoskie/Downloads/HL-subject-4.csv","legacy","Melodramatic Milgram","4.0.5","0","s","NA","NA","s","NA","s","579.0","NA","NA","36824","NA","579","2","legacy","1024","2","48000","-16","experiment","HHSHH","4","even","39957","NA","NA","142994","NA","NA","3132","142493","3130","NA","NA","144031","144132","144712","144029","144132","Flanker Task","34","28550.0","57","1024"
"60","60","501","501","#000000","legacy","legacy","legacy","incongruent","1","undefined","1","s","0","0","0","57","0","0","0","57","0","57","0","57","57","57","57","57","Fri Sep 22 20:38:34 2023","1500","The main experiment item","True","FlankerTask.osexp","C:\Users\Hannah Laskoskie\Downloads","False","mono","False","18","no","white","no","yes","768","legacy","57","57","C:/Users/Hannah Laskoskie/Downloads/HL-subject-4.csv","legacy","Melodramatic Milgram","4.0.5","0","s","NA","NA","s","NA","s","565.0","NA","NA","36824","NA","565","2","legacy","1024","2","48000","-16","experiment","HHSHH","4","even","39957","NA","NA","144715","NA","NA","3132","142493","3130","NA","NA","145765","145867","146434","145763","145867","Flanker Task","35","29115.0","58","1024"
"61","61","503","503","#000000","legacy","legacy","legacy","incongruent","1","undefined","1","h","0","0","0","58","0","0","0","58","0","58","0","58","58","58","58","58","Fri Sep 22 20:38:34 2023","1500","The main experiment item","True","FlankerTask.osexp","C:\Users\Hannah Laskoskie\Downloads","False","mono","False","18","no","white","no","yes","768","legacy","58","58","C:/Users/Hannah Laskoskie/Downloads/HL-subject-4.csv","legacy","Melodramatic Milgram","4.0.5","0","h","NA","NA","s","NA","h","584.0","NA","NA","36824","NA","584","2","legacy","1024","2","48000","-16","experiment","SSHSS","4","even","39957","NA","NA","146443","NA","NA","3132","142493","3130","NA","NA","147482","147583","148168","147480","147583","Flanker Task","36","29699.0","59","1024"
"61","61","503","503","#000000","legacy","legacy","legacy","congruent","1","undefined","1","s","0","0","0","59","0","0","0","59","0","59","0","59","59","59","59","59","Fri Sep 22 20:38:34 2023","1500","The main experiment item","True","FlankerTask.osexp","C:\Users\Hannah Laskoskie\Downloads","False","mono","False","18","no","white","no","yes","768","legacy","59","59","C:/Users/Hannah Laskoskie/Downloads/HL-subject-4.csv","legacy","Melodramatic Milgram","4.0.5","0","s","NA","NA","s","NA","s","527.0","NA","NA","36824","NA","527","2","legacy","1024","2","48000","-16","experiment","SSSSS","4","even","39957","NA","NA","148177","NA","NA","3132","142493","3130","NA","NA","149216","149317","149845","149214","149317","Flanker Task","37","30226.0","60","1024"
"62","62","508","508","#000000","legacy","legacy","legacy","congruent","1","undefined","1","s","0","0","0","60","0","0","0","60","0","60","0","60","60","60","60","60","Fri Sep 22 20:38:34 2023","1500","The main experiment item","True","FlankerTask.osexp","C:\Users\Hannah Laskoskie\Downloads","False","mono","False","18","no","white","no","yes","768","legacy","60","60","C:/Users/Hannah Laskoskie/Downloads/HL-subject-4.csv","legacy","Melodramatic Milgram","4.0.5","0","s","NA","NA","s","NA","s","796.0","NA","NA","36824","NA","796","2","legacy","1024","2","48000","-16","experiment","SSSSS","4","even","39957","NA","NA","149854","NA","NA","3132","142493","3130","NA","NA","150895","150997","151794","150892","150996","Flanker Task","38","31022.0","61","1024"
"62","62","512","512","#000000","legacy","legacy","legacy","incongruent","1","undefined","1","s","0","0","0","61","0","0","0","61","0","61","0","61","61","61","61","61","Fri Sep 22 20:38:34 2023","1500","The main experiment item","True","FlankerTask.osexp","C:\Users\Hannah Laskoskie\Downloads","False","mono","False","18","no","white","no","yes","768","legacy","61","61","C:/Users/Hannah Laskoskie/Downloads/HL-subject-4.csv","legacy","Melodramatic Milgram","4.0.5","0","s","NA","NA","s","NA","s","759.0","NA","NA","36824","NA","759","2","legacy","1024","2","48000","-16","experiment","HHSHH","4","even","39957","NA","NA","151803","NA","NA","3132","142493","3130","NA","NA","152845","152946","153706","152842","152946","Flanker Task","39","31781.0","62","1024"
"63","63","511","511","#000000","legacy","legacy","legacy","congruent","1","undefined","1","h","0","0","0","62","0","0","0","62","0","62","0","62","62","62","62","62","Fri Sep 22 20:38:34 2023","1500","The main experiment item","True","FlankerTask.osexp","C:\Users\Hannah Laskoskie\Downloads","False","mono","False","18","no","white","no","yes","768","legacy","62","62","C:/Users/Hannah Laskoskie/Downloads/HL-subject-4.csv","legacy","Melodramatic Milgram","4.0.5","0","h","NA","NA","s","NA","h","417.0","NA","NA","36824","NA","417","2","legacy","1024","2","48000","-16","experiment","HHHHH","4","even","39957","NA","NA","153715","NA","NA","3132","142493","3130","NA","NA","154779","154880","155300","154776","154880","Flanker Task","40","32198.0","63","1024"
"64","64","511","511","#000000","legacy","legacy","legacy","congruent","1","undefined","1","h","0","0","0","63","0","0","0","63","0","63","0","63","63","63","63","63","Fri Sep 22 20:38:34 2023","1500","The main experiment item","True","FlankerTask.osexp","C:\Users\Hannah Laskoskie\Downloads","False","mono","False","18","no","white","no","yes","768","legacy","63","63","C:/Users/Hannah Laskoskie/Downloads/HL-subject-4.csv","legacy","Melodramatic Milgram","4.0.5","0","h","NA","NA","s","NA","h","557.0","NA","NA","36824","NA","557","2","legacy","1024","2","48000","-16","experiment","HHHHH","4","even","39957","NA","NA","155308","NA","NA","3132","142493","3130","NA","NA","156348","156449","157007","156346","156449","Flanker Task","41","32755.0","64","1024"
"63","63","513","513","#000000","legacy","legacy","legacy","incongruent","0","undefined","0","h","0","0","0","64","0","0","0","64","0","64","0","64","64","64","64","64","Fri Sep 22 20:38:34 2023","1500","The main experiment item","True","FlankerTask.osexp","C:\Users\Hannah Laskoskie\Downloads","False","mono","False","18","no","white","no","yes","768","legacy","64","64","C:/Users/Hannah Laskoskie/Downloads/HL-subject-4.csv","legacy","Melodramatic Milgram","4.0.5","0","s","NA","NA","s","NA","s","616.0","NA","NA","36824","NA","616","2","legacy","1024","2","48000","-16","experiment","SSHSS","4","even","39957","NA","NA","157016","NA","NA","3132","142493","3130","NA","NA","158054","158155","158772","158052","158155","Flanker Task","41","33371.0","65","1024"
"62","62","513","513","#000000","legacy","legacy","legacy","congruent","0","undefined","0","s","0","0","0","65","0","0","0","65","0","65","0","65","65","65","65","65","Fri Sep 22 20:38:34 2023","1500","The main experiment item","True","FlankerTask.osexp","C:\Users\Hannah Laskoskie\Downloads","False","mono","False","18","no","white","no","yes","768","legacy","65","65","C:/Users/Hannah Laskoskie/Downloads/HL-subject-4.csv","legacy","Melodramatic Milgram","4.0.5","0","h","NA","NA","s","NA","h","498.0","NA","NA","36824","NA","498","2","legacy","1024","2","48000","-16","experiment","SSSSS","4","even","39957","NA","NA","159276","NA","NA","3132","158775","3130","NA","NA","160312","160413","160912","160310","160413","Flanker Task","41","33869.0","66","1024"
"62","62","514","514","#000000","legacy","legacy","legacy","incongruent","1","undefined","1","h","0","0","0","66","0","0","0","66","0","66","0","66","66","66","66","66","Fri Sep 22 20:38:34 2023","1500","The main experiment item","True","FlankerTask.osexp","C:\Users\Hannah Laskoskie\Downloads","False","mono","False","18","no","white","no","yes","768","legacy","66","66","C:/Users/Hannah Laskoskie/Downloads/HL-subject-4.csv","legacy","Melodramatic Milgram","4.0.5","0","h","NA","NA","s","NA","h","608.0","NA","NA","36824","NA","608","2","legacy","1024","2","48000","-16","experiment","SSHSS","4","even","39957","NA","NA","161423","NA","NA","3132","160922","3130","NA","NA","162459","162560","163169","162457","162560","Flanker Task","42","34477.0","67","1024"
"63","63","516","516","#000000","legacy","legacy","legacy","incongruent","1","undefined","1","h","0","0","0","67","0","0","0","67","0","67","0","67","67","67","67","67","Fri Sep 22 20:38:34 2023","1500","The main experiment item","True","FlankerTask.osexp","C:\Users\Hannah Laskoskie\Downloads","False","mono","False","18","no","white","no","yes","768","legacy","67","67","C:/Users/Hannah Laskoskie/Downloads/HL-subject-4.csv","legacy","Melodramatic Milgram","4.0.5","0","h","NA","NA","s","NA","h","658.0","NA","NA","36824","NA","658","2","legacy","1024","2","48000","-16","experiment","SSHSS","4","even","39957","NA","NA","163178","NA","NA","3132","160922","3130","NA","NA","164215","164316","164976","164213","164316","Flanker Task","43","35135.0","68","1024"
"63","63","516","516","#000000","legacy","legacy","legacy","incongruent","1","undefined","1","h","0","0","0","68","0","0","0","68","0","68","0","68","68","68","68","68","Fri Sep 22 20:38:34 2023","1500","The main experiment item","True","FlankerTask.osexp","C:\Users\Hannah Laskoskie\Downloads","False","mono","False","18","no","white","no","yes","768","legacy","68","68","C:/Users/Hannah Laskoskie/Downloads/HL-subject-4.csv","legacy","Melodramatic Milgram","4.0.5","0","h","NA","NA","s","NA","h","507.0","NA","NA","36824","NA","507","2","legacy","1024","2","48000","-16","experiment","SSHSS","4","even","39957","NA","NA","164985","NA","NA","3132","160922","3130","NA","NA","166022","166123","166631","166020","166123","Flanker Task","44","35642.0","69","1024"
"64","64","526","526","#000000","legacy","legacy","legacy","congruent","1","undefined","1","s","0","0","0","69","0","0","0","69","0","69","0","69","69","69","69","69","Fri Sep 22 20:38:34 2023","1500","The main experiment item","True","FlankerTask.osexp","C:\Users\Hannah Laskoskie\Downloads","False","mono","False","18","no","white","no","yes","768","legacy","69","69","C:/Users/Hannah Laskoskie/Downloads/HL-subject-4.csv","legacy","Melodramatic Milgram","4.0.5","0","s","NA","NA","s","NA","s","1198.0","NA","NA","36824","NA","1198","2","legacy","1024","2","48000","-16","experiment","SSSSS","4","even","39957","NA","NA","166641","NA","NA","3132","160922","3130","NA","NA","167682","167783","168983","167679","167783","Flanker Task","45","36840.0","70","1024"
"64","64","525","525","#000000","legacy","legacy","legacy","congruent","1","undefined","1","s","0","0","0","70","0","0","0","70","0","70","0","70","70","70","70","70","Fri Sep 22 20:38:34 2023","1500","The main experiment item","True","FlankerTask.osexp","C:\Users\Hannah Laskoskie\Downloads","False","mono","False","18","no","white","no","yes","768","legacy","70","70","C:/Users/Hannah Laskoskie/Downloads/HL-subject-4.csv","legacy","Melodramatic Milgram","4.0.5","0","s","NA","NA","s","NA","s","487.0","NA","NA","36824","NA","487","2","legacy","1024","2","48000","-16","experiment","SSSSS","4","even","39957","NA","NA","168985","NA","NA","3132","160922","3130","NA","NA","170027","170128","170617","170024","170128","Flanker Task","46","37327.0","71","1024"
"65","65","526","526","#000000","legacy","legacy","legacy","incongruent","1","undefined","1","h","0","0","0","71","0","0","0","71","0","71","0","71","71","71","71","71","Fri Sep 22 20:38:34 2023","1500","The main experiment item","True","FlankerTask.osexp","C:\Users\Hannah Laskoskie\Downloads","False","mono","False","18","no","white","no","yes","768","legacy","71","71","C:/Users/Hannah Laskoskie/Downloads/HL-subject-4.csv","legacy","Melodramatic Milgram","4.0.5","0","h","NA","NA","s","NA","h","604.0","NA","NA","36824","NA","604","2","legacy","1024","2","48000","-16","experiment","SSHSS","4","even","39957","NA","NA","170626","NA","NA","3132","160922","3130","NA","NA","171683","171785","172391","171679","171785","Flanker Task","47","37931.0","72","1024"
"65","65","525","525","#000000","legacy","legacy","legacy","congruent","1","undefined","1","s","0","0","0","72","0","0","0","72","0","72","0","72","72","72","72","72","Fri Sep 22 20:38:34 2023","1500","The main experiment item","True","FlankerTask.osexp","C:\Users\Hannah Laskoskie\Downloads","False","mono","False","18","no","white","no","yes","768","legacy","72","72","C:/Users/Hannah Laskoskie/Downloads/HL-subject-4.csv","legacy","Melodramatic Milgram","4.0.5","0","s","NA","NA","s","NA","s","456.0","NA","NA","36824","NA","456","2","legacy","1024","2","48000","-16","experiment","SSSSS","4","even","39957","NA","NA","172400","NA","NA","3132","160922","3130","NA","NA","173442","173543","174000","173439","173543","Flanker Task","48","38387.0","73","1024"
"66","66","526","526","#000000","legacy","legacy","legacy","incongruent","1","undefined","1","h","0","0","0","73","0","0","0","73","0","73","0","73","73","73","73","73","Fri Sep 22 20:38:34 2023","1500","The main experiment item","True","FlankerTask.osexp","C:\Users\Hannah Laskoskie\Downloads","False","mono","False","18","no","white","no","yes","768","legacy","73","73","C:/Users/Hannah Laskoskie/Downloads/HL-subject-4.csv","legacy","Melodramatic Milgram","4.0.5","0","h","NA","NA","s","NA","h","591.0","NA","NA","36824","NA","591","2","legacy","1024","2","48000","-16","experiment","SSHSS","4","even","39957","NA","NA","174009","NA","NA","3132","160922","3130","NA","NA","175049","175150","175742","175047","175150","Flanker Task","49","38978.0","74","1024"
"66","66","527","527","#000000","legacy","legacy","legacy","congruent","1","undefined","1","s","0","0","0","74","0","0","0","74","0","74","0","74","74","74","74","74","Fri Sep 22 20:38:34 2023","1500","The main experiment item","True","FlankerTask.osexp","C:\Users\Hannah Laskoskie\Downloads","False","mono","False","18","no","white","no","yes","768","legacy","74","74","C:/Users/Hannah Laskoskie/Downloads/HL-subject-4.csv","legacy","Melodramatic Milgram","4.0.5","0","s","NA","NA","s","NA","s","581.0","NA","NA","36824","NA","581","2","legacy","1024","2","48000","-16","experiment","SSSSS","4","even","39957","NA","NA","175752","NA","NA","3132","160922","3130","NA","NA","176793","176894","177476","176790","176894","Flanker Task","50","39559.0","75","1024"
"67","67","533","533","#000000","legacy","legacy","legacy","incongruent","1","undefined","1","h","0","0","0","75","0","0","0","75","0","75","0","75","75","75","75","75","Fri Sep 22 20:38:34 2023","1500","The main experiment item","True","FlankerTask.osexp","C:\Users\Hannah Laskoskie\Downloads","False","mono","False","18","no","white","no","yes","768","legacy","75","75","C:/Users/Hannah Laskoskie/Downloads/HL-subject-4.csv","legacy","Melodramatic Milgram","4.0.5","0","h","NA","NA","s","NA","h","999.0","NA","NA","36824","NA","999","2","legacy","1024","2","48000","-16","experiment","SSHSS","4","even","39957","NA","NA","177485","NA","NA","3132","160922","3130","NA","NA","178525","178626","179627","178523","178626","Flanker Task","51","40558.0","76","1024"
"67","67","531","531","#000000","legacy","legacy","legacy","congruent","1","undefined","1","s","0","0","0","76","0","0","0","76","0","76","0","76","76","76","76","76","Fri Sep 22 20:38:34 2023","1500","The main experiment item","True","FlankerTask.osexp","C:\Users\Hannah Laskoskie\Downloads","False","mono","False","18","no","white","no","yes","768","legacy","76","76","C:/Users/Hannah Laskoskie/Downloads/HL-subject-4.csv","legacy","Melodramatic Milgram","4.0.5","0","s","NA","NA","s","NA","s","378.0","NA","NA","36824","NA","378","2","legacy","1024","2","48000","-16","experiment","SSSSS","4","even","39957","NA","NA","179630","NA","NA","3132","160922","3130","NA","NA","180669","180770","181149","180667","180770","Flanker Task","52","40936.0","77","1024"
"67","67","532","532","#000000","legacy","legacy","legacy","incongruent","1","undefined","1","h","0","0","0","77","0","0","0","77","0","77","0","77","77","77","77","77","Fri Sep 22 20:38:34 2023","1500","The main experiment item","True","FlankerTask.osexp","C:\Users\Hannah Laskoskie\Downloads","False","mono","False","18","no","white","no","yes","768","legacy","77","77","C:/Users/Hannah Laskoskie/Downloads/HL-subject-4.csv","legacy","Melodramatic Milgram","4.0.5","0","h","NA","NA","s","NA","h","560.0","NA","NA","36824","NA","560","2","legacy","1024","2","48000","-16","experiment","SSHSS","4","even","39957","NA","NA","181159","NA","NA","3132","160922","3130","NA","NA","182197","182298","182859","182194","182298","Flanker Task","53","41496.0","78","1024"
"68","68","532","532","#000000","legacy","legacy","legacy","congruent","1","undefined","1","s","0","0","0","78","0","0","0","78","0","78","0","78","78","78","78","78","Fri Sep 22 20:38:34 2023","1500","The main experiment item","True","FlankerTask.osexp","C:\Users\Hannah Laskoskie\Downloads","False","mono","False","18","no","white","no","yes","768","legacy","78","78","C:/Users/Hannah Laskoskie/Downloads/HL-subject-4.csv","legacy","Melodramatic Milgram","4.0.5","0","s","NA","NA","s","NA","s","602.0","NA","NA","36824","NA","602","2","legacy","1024","2","48000","-16","experiment","SSSSS","4","even","39957","NA","NA","182868","NA","NA","3132","160922","3130","NA","NA","183912","184013","184616","183909","184013","Flanker Task","54","42098.0","79","1024"
"68","68","531","531","#000000","legacy","legacy","legacy","congruent","1","undefined","1","h","0","0","0","79","0","0","0","79","0","79","0","79","79","79","79","79","Fri Sep 22 20:38:34 2023","1500","The main experiment item","True","FlankerTask.osexp","C:\Users\Hannah Laskoskie\Downloads","False","mono","False","18","no","white","no","yes","768","legacy","79","79","C:/Users/Hannah Laskoskie/Downloads/HL-subject-4.csv","legacy","Melodramatic Milgram","4.0.5","0","h","NA","NA","s","NA","h","417.0","NA","NA","36824","NA","417","2","legacy","1024","2","48000","-16","experiment","HHHHH","4","even","39957","NA","NA","184626","NA","NA","3132","160922","3130","NA","NA","185665","185767","186185","185663","185767","Flanker Task","55","42515.0","80","1024"
"69","69","534","534","#000000","legacy","legacy","legacy","congruent","1","undefined","1","h","0","0","0","80","0","0","0","80","0","80","0","80","80","80","80","80","Fri Sep 22 20:38:34 2023","600","The main experiment item","True","FlankerTask.osexp","C:\Users\Hannah Laskoskie\Downloads","False","mono","False","18","no","white","no","yes","768","legacy","0","79","C:/Users/Hannah Laskoskie/Downloads/HL-subject-4.csv","legacy","Melodramatic Milgram","4.0.5","0","h","s","NA","s","NA","h","741.0","24505","NA","36824","NA","741","2","legacy","1024","2","48000","-16","experiment","HHHHH","4","even","39957","211701","NA","186194","187195","NA","3132","160922","3130","NA","NA","211738","211838","212580","211737","211838","Flanker Task","56","43256.0","81","1024"
"68","68","533","533","#000000","legacy","legacy","legacy","incongruent","0","undefined","0","s","0","0","0","81","0","0","0","81","0","81","0","81","81","81","81","81","Fri Sep 22 20:38:34 2023","600","The main experiment item","True","FlankerTask.osexp","C:\Users\Hannah Laskoskie\Downloads","False","mono","False","18","no","white","no","yes","768","legacy","1","79","C:/Users/Hannah Laskoskie/Downloads/HL-subject-4.csv","legacy","Melodramatic Milgram","4.0.5","0","h","s","NA","s","NA","h","458.0","24505","NA","36824","NA","458","2","legacy","1024","2","48000","-16","experiment","HHSHH","4","even","39957","211701","NA","213090","187195","NA","3132","160922","3130","212589","NA","214127","214228","214687","214125","214228","Flanker Task","56","43714.0","82","1024"
"68","68","531","531","#000000","legacy","legacy","legacy","incongruent","1","undefined","1","s","0","0","0","82","0","0","0","82","0","82","0","82","82","82","82","82","Fri Sep 22 20:38:34 2023","600","The main experiment item","True","FlankerTask.osexp","C:\Users\Hannah Laskoskie\Downloads","False","mono","False","18","no","white","no","yes","768","legacy","2","79","C:/Users/Hannah Laskoskie/Downloads/HL-subject-4.csv","legacy","Melodramatic Milgram","4.0.5","0","s","s","NA","s","NA","s","426.0","24505","NA","36824","NA","426","2","legacy","1024","2","48000","-16","experiment","HHSHH","4","even","39957","211701","NA","215197","187195","NA","3132","214696","3130","212589","NA","216239","216340","216767","216236","216340","Flanker Task","57","44140.0","83","1024"
"67","67","530","530","#000000","legacy","legacy","legacy","incongruent","0","undefined","0","s","0","0","0","83","0","0","0","83","0","83","0","83","83","83","83","83","Fri Sep 22 20:38:34 2023","600","The main experiment item","True","FlankerTask.osexp","C:\Users\Hannah Laskoskie\Downloads","False","mono","False","18","no","white","no","yes","768","legacy","3","79","C:/Users/Hannah Laskoskie/Downloads/HL-subject-4.csv","legacy","Melodramatic Milgram","4.0.5","0","h","s","NA","s","NA","h","434.0","24505","NA","36824","NA","434","2","legacy","1024","2","48000","-16","experiment","HHSHH","4","even","39957","211701","NA","216776","187195","NA","3132","214696","3130","212589","NA","217816","217917","218352","217813","217917","Flanker Task","57","44574.0","84","1024"
"68","68","529","529","#000000","legacy","legacy","legacy","congruent","1","undefined","1","s","0","0","0","84","0","0","0","84","0","84","0","84","84","84","84","84","Fri Sep 22 20:38:34 2023","600","The main experiment item","True","FlankerTask.osexp","C:\Users\Hannah Laskoskie\Downloads","False","mono","False","18","no","white","no","yes","768","legacy","4","79","C:/Users/Hannah Laskoskie/Downloads/HL-subject-4.csv","legacy","Melodramatic Milgram","4.0.5","0","s","s","NA","s","NA","s","429.0","24505","NA","36824","NA","429","2","legacy","1024","2","48000","-16","experiment","SSSSS","4","even","39957","211701","NA","218862","187195","NA","3132","218361","3130","212589","NA","219899","220000","220431","219896","220000","Flanker Task","58","45003.0","85","1024"
"67","67","532","532","#000000","legacy","legacy","legacy","congruent","0","undefined","0","h","0","0","0","85","0","0","0","85","0","85","0","85","85","85","85","85","Fri Sep 22 20:38:34 2023","600","The main experiment item","True","FlankerTask.osexp","C:\Users\Hannah Laskoskie\Downloads","False","mono","False","18","no","white","no","yes","768","legacy","5","79","C:/Users/Hannah Laskoskie/Downloads/HL-subject-4.csv","legacy","Melodramatic Milgram","4.0.5","0","s","s","NA","s","NA","s","789.0","24505","NA","36824","NA","789","2","legacy","1024","2","48000","-16","experiment","HHHHH","4","even","39957","211701","NA","220440","187195","NA","3132","218361","3130","212589","NA","221479","221580","222370","221476","221580","Flanker Task","58","45792.0","86","1024"
"67","67","531","531","#000000","legacy","legacy","legacy","congruent","1","undefined","1","h","0","0","0","86","0","0","0","86","0","86","0","86","86","86","86","86","Fri Sep 22 20:38:34 2023","600","The main experiment item","True","FlankerTask.osexp","C:\Users\Hannah Laskoskie\Downloads","False","mono","False","18","no","white","no","yes","768","legacy","6","79","C:/Users/Hannah Laskoskie/Downloads/HL-subject-4.csv","legacy","Melodramatic Milgram","4.0.5","0","h","s","NA","s","NA","h","442.0","24505","NA","36824","NA","442","2","legacy","1024","2","48000","-16","experiment","HHHHH","4","even","39957","211701","NA","223382","187195","NA","3132","222379","3130","222881","NA","224418","224519","224963","224416","224519","Flanker Task","59","46234.0","87","1024"
"67","67","529","529","#000000","legacy","legacy","legacy","incongruent","0","undefined","0","s","0","0","0","87","0","0","0","87","0","87","0","87","87","87","87","87","Fri Sep 22 20:38:34 2023","600","The main experiment item","True","FlankerTask.osexp","C:\Users\Hannah Laskoskie\Downloads","False","mono","False","18","no","white","no","yes","768","legacy","7","79","C:/Users/Hannah Laskoskie/Downloads/HL-subject-4.csv","legacy","Melodramatic Milgram","4.0.5","0","h","s","NA","s","NA","h","355.0","24505","NA","36824","NA","355","2","legacy","1024","2","48000","-16","experiment","HHSHH","4","even","39957","211701","NA","224972","187195","NA","3132","222379","3130","222881","NA","226021","226123","226479","226019","226122","Flanker Task","59","46589.0","88","1024"
"66","66","528","528","#000000","legacy","legacy","legacy","incongruent","0","undefined","0","h","0","0","0","88","0","0","0","88","0","88","0","88","88","88","88","88","Fri Sep 22 20:38:34 2023","600","The main experiment item","True","FlankerTask.osexp","C:\Users\Hannah Laskoskie\Downloads","False","mono","False","18","no","white","no","yes","768","legacy","8","79","C:/Users/Hannah Laskoskie/Downloads/HL-subject-4.csv","legacy","Melodramatic Milgram","4.0.5","0","s","s","NA","s","NA","s","416.0","24505","NA","36824","NA","416","2","legacy","1024","2","48000","-16","experiment","SSHSS","4","even","39957","211701","NA","226989","187195","NA","3132","226488","3130","222881","NA","228026","228127","228544","228023","228127","Flanker Task","59","47005.0","89","1024"
"66","66","527","527","#000000","legacy","legacy","legacy","congruent","1","undefined","1","h","0","0","0","89","0","0","0","89","0","89","0","89","89","89","89","89","Fri Sep 22 20:38:34 2023","600","The main experiment item","True","FlankerTask.osexp","C:\Users\Hannah Laskoskie\Downloads","False","mono","False","18","no","white","no","yes","768","legacy","9","79","C:/Users/Hannah Laskoskie/Downloads/HL-subject-4.csv","legacy","Melodramatic Milgram","4.0.5","0","h","s","NA","s","NA","h","512.0","24505","NA","36824","NA","512","2","legacy","1024","2","48000","-16","experiment","HHHHH","4","even","39957","211701","NA","229049","187195","NA","3132","228548","3130","222881","NA","230086","230187","230700","230084","230187","Flanker Task","60","47517.0","90","1024"
"65","65","526","526","#000000","legacy","legacy","legacy","incongruent","0","undefined","0","s","0","0","0","90","0","0","0","90","0","90","0","90","90","90","90","90","Fri Sep 22 20:38:34 2023","600","The main experiment item","True","FlankerTask.osexp","C:\Users\Hannah Laskoskie\Downloads","False","mono","False","18","no","white","no","yes","768","legacy","10","79","C:/Users/Hannah Laskoskie/Downloads/HL-subject-4.csv","legacy","Melodramatic Milgram","4.0.5","0","h","s","NA","s","NA","h","402.0","24505","NA","36824","NA","402","2","legacy","1024","2","48000","-16","experiment","HHSHH","4","even","39957","211701","NA","230709","187195","NA","3132","228548","3130","222881","NA","231747","231848","232252","231744","231848","Flanker Task","60","47919.0","91","1024"
"66","66","528","528","#000000","legacy","legacy","legacy","incongruent","1","undefined","1","h","0","0","0","91","0","0","0","91","0","91","0","91","91","91","91","91","Fri Sep 22 20:38:34 2023","600","The main experiment item","True","FlankerTask.osexp","C:\Users\Hannah Laskoskie\Downloads","False","mono","False","18","no","white","no","yes","768","legacy","11","79","C:/Users/Hannah Laskoskie/Downloads/HL-subject-4.csv","legacy","Melodramatic Milgram","4.0.5","0","h","s","NA","s","NA","h","696.0","24505","NA","36824","NA","696","2","legacy","1024","2","48000","-16","experiment","SSHSS","4","even","39957","211701","NA","232761","187195","NA","3132","232260","3130","222881","NA","233799","233900","234598","233796","233900","Flanker Task","61","48615.0","92","1024"
"66","66","529","529","#000000","legacy","legacy","legacy","incongruent","1","undefined","1","h","0","0","0","92","0","0","0","92","0","92","0","92","92","92","92","92","Fri Sep 22 20:38:34 2023","600","The main experiment item","True","FlankerTask.osexp","C:\Users\Hannah Laskoskie\Downloads","False","mono","False","18","no","white","no","yes","768","legacy","12","79","C:/Users/Hannah Laskoskie/Downloads/HL-subject-4.csv","legacy","Melodramatic Milgram","4.0.5","0","h","s","NA","s","NA","h","593.0","24505","NA","36824","NA","593","2","legacy","1024","2","48000","-16","experiment","SSHSS","4","even","39957","211701","NA","235109","187195","NA","3132","232260","3130","234608","NA","236146","236247","236842","236144","236247","Flanker Task","62","49208.0","93","1024"
"67","67","528","528","#000000","legacy","legacy","legacy","incongruent","1","undefined","1","h","0","0","0","93","0","0","0","93","0","93","0","93","93","93","93","93","Fri Sep 22 20:38:34 2023","600","The main experiment item","True","FlankerTask.osexp","C:\Users\Hannah Laskoskie\Downloads","False","mono","False","18","no","white","no","yes","768","legacy","13","79","C:/Users/Hannah Laskoskie/Downloads/HL-subject-4.csv","legacy","Melodramatic Milgram","4.0.5","0","h","s","NA","s","NA","h","465.0","24505","NA","36824","NA","465","2","legacy","1024","2","48000","-16","experiment","SSHSS","4","even","39957","211701","NA","236850","187195","NA","3132","232260","3130","234608","NA","237889","237990","238457","237887","237990","Flanker Task","63","49673.0","94","1024"
"67","67","527","527","#000000","legacy","legacy","legacy","congruent","1","undefined","1","h","0","0","0","94","0","0","0","94","0","94","0","94","94","94","94","94","Fri Sep 22 20:38:34 2023","600","The main experiment item","True","FlankerTask.osexp","C:\Users\Hannah Laskoskie\Downloads","False","mono","False","18","no","white","no","yes","768","legacy","14","79","C:/Users/Hannah Laskoskie/Downloads/HL-subject-4.csv","legacy","Melodramatic Milgram","4.0.5","0","h","s","NA","s","NA","h","437.0","24505","NA","36824","NA","437","2","legacy","1024","2","48000","-16","experiment","HHHHH","4","even","39957","211701","NA","238466","187195","NA","3132","232260","3130","234608","NA","239509","239610","240049","239506","239610","Flanker Task","64","50110.0","95","1024"
"67","67","525","525","#000000","legacy","legacy","legacy","incongruent","1","undefined","1","h","0","0","0","95","0","0","0","95","0","95","0","95","95","95","95","95","Fri Sep 22 20:38:34 2023","600","The main experiment item","True","FlankerTask.osexp","C:\Users\Hannah Laskoskie\Downloads","False","mono","False","18","no","white","no","yes","768","legacy","15","79","C:/Users/Hannah Laskoskie/Downloads/HL-subject-4.csv","legacy","Melodramatic Milgram","4.0.5","0","h","s","NA","s","NA","h","370.0","24505","NA","36824","NA","370","2","legacy","1024","2","48000","-16","experiment","SSHSS","4","even","39957","211701","NA","240059","187195","NA","3132","232260","3130","234608","NA","241102","241203","241575","241099","241203","Flanker Task","65","50480.0","96","1024"
"67","67","524","524","#000000","legacy","legacy","legacy","incongruent","0","undefined","0","s","0","0","0","96","0","0","0","96","0","96","0","96","96","96","96","96","Fri Sep 22 20:38:34 2023","600","The main experiment item","True","FlankerTask.osexp","C:\Users\Hannah Laskoskie\Downloads","False","mono","False","18","no","white","no","yes","768","legacy","16","79","C:/Users/Hannah Laskoskie/Downloads/HL-subject-4.csv","legacy","Melodramatic Milgram","4.0.5","0","h","s","NA","s","NA","h","363.0","24505","NA","36824","NA","363","2","legacy","1024","2","48000","-16","experiment","HHSHH","4","even","39957","211701","NA","241578","187195","NA","3132","232260","3130","234608","NA","242628","242729","243093","242625","242729","Flanker Task","65","50843.0","97","1024"
"67","67","524","524","#000000","legacy","legacy","legacy","incongruent","1","undefined","1","s","0","0","0","97","0","0","0","97","0","97","0","97","97","97","97","97","Fri Sep 22 20:38:34 2023","600","The main experiment item","True","FlankerTask.osexp","C:\Users\Hannah Laskoskie\Downloads","False","mono","False","18","no","white","no","yes","768","legacy","17","79","C:/Users/Hannah Laskoskie/Downloads/HL-subject-4.csv","legacy","Melodramatic Milgram","4.0.5","0","s","s","NA","s","NA","s","585.0","24505","NA","36824","NA","585","2","legacy","1024","2","48000","-16","experiment","HHSHH","4","even","39957","211701","NA","243603","187195","NA","3132","243102","3130","234608","NA","244640","244741","245328","244637","244741","Flanker Task","66","51428.0","98","1024"
"67","67","524","524","#000000","legacy","legacy","legacy","congruent","1","undefined","1","s","0","0","0","98","0","0","0","98","0","98","0","98","98","98","98","98","Fri Sep 22 20:38:34 2023","600","The main experiment item","True","FlankerTask.osexp","C:\Users\Hannah Laskoskie\Downloads","False","mono","False","18","no","white","no","yes","768","legacy","18","79","C:/Users/Hannah Laskoskie/Downloads/HL-subject-4.csv","legacy","Melodramatic Milgram","4.0.5","0","s","s","NA","s","NA","s","493.0","24505","NA","36824","NA","493","2","legacy","1024","2","48000","-16","experiment","SSSSS","4","even","39957","211701","NA","245332","187195","NA","3132","243102","3130","234608","NA","246374","246475","246970","246372","246475","Flanker Task","67","51921.0","99","1024"
"68","68","521","521","#000000","legacy","legacy","legacy","congruent","1","undefined","1","s","0","0","0","99","0","0","0","99","0","99","0","99","99","99","99","99","Fri Sep 22 20:38:34 2023","600","The main experiment item","True","FlankerTask.osexp","C:\Users\Hannah Laskoskie\Downloads","False","mono","False","18","no","white","no","yes","768","legacy","19","79","C:/Users/Hannah Laskoskie/Downloads/HL-subject-4.csv","legacy","Melodramatic Milgram","4.0.5","0","s","s","NA","s","NA","s","229.0","24505","NA","36824","NA","229","2","legacy","1024","2","48000","-16","experiment","SSSSS","4","even","39957","211701","NA","246979","187195","NA","3132","243102","3130","234608","NA","248020","248121","248351","248017","248121","Flanker Task","68","52150.0","100","1024"
"67","67","518","518","#000000","legacy","legacy","legacy","incongruent","0","undefined","0","h","0","0","0","100","0","0","0","100","0","100","0","100","100","100","100","100","Fri Sep 22 20:38:34 2023","600","The main experiment item","True","FlankerTask.osexp","C:\Users\Hannah Laskoskie\Downloads","False","mono","False","18","no","white","no","yes","768","legacy","20","79","C:/Users/Hannah Laskoskie/Downloads/HL-subject-4.csv","legacy","Melodramatic Milgram","4.0.5","0","s","s","NA","s","NA","s","189.0","24505","NA","36824","NA","189","2","legacy","1024","2","48000","-16","experiment","SSHSS","4","even","39957","211701","NA","248354","187195","NA","3132","243102","3130","234608","NA","249390","249491","249681","249388","249491","Flanker Task","68","52339.0","101","1024"
"67","67","516","516","#000000","legacy","legacy","legacy","congruent","1","undefined","1","h","0","0","0","101","0","0","0","101","0","101","0","101","101","101","101","101","Fri Sep 22 20:38:34 2023","600","The main experiment item","True","FlankerTask.osexp","C:\Users\Hannah Laskoskie\Downloads","False","mono","False","18","no","white","no","yes","768","legacy","21","79","C:/Users/Hannah Laskoskie/Downloads/HL-subject-4.csv","legacy","Melodramatic Milgram","4.0.5","0","h","s","NA","s","NA","h","343.0","24505","NA","36824","NA","343","2","legacy","1024","2","48000","-16","experiment","HHHHH","4","even","39957","211701","NA","250191","187195","NA","3132","249690","3130","234608","NA","251228","251329","251673","251225","251329","Flanker Task","69","52682.0","102","1024"
"66","66","515","515","#000000","legacy","legacy","legacy","congruent","0","undefined","0","s","0","0","0","102","0","0","0","102","0","102","0","102","102","102","102","102","Fri Sep 22 20:38:34 2023","600","The main experiment item","True","FlankerTask.osexp","C:\Users\Hannah Laskoskie\Downloads","False","mono","False","18","no","white","no","yes","768","legacy","22","79","C:/Users/Hannah Laskoskie/Downloads/HL-subject-4.csv","legacy","Melodramatic Milgram","4.0.5","0","h","s","NA","s","NA","h","445.0","24505","NA","36824","NA","445","2","legacy","1024","2","48000","-16","experiment","SSSSS","4","even","39957","211701","NA","251682","187195","NA","3132","249690","3130","234608","NA","252721","252822","253269","252719","252822","Flanker Task","69","53127.0","103","1024"
"67","67","514","514","#000000","legacy","legacy","legacy","congruent","1","undefined","1","s","0","0","0","103","0","0","0","103","0","103","0","103","103","103","103","103","Fri Sep 22 20:38:34 2023","600","The main experiment item","True","FlankerTask.osexp","C:\Users\Hannah Laskoskie\Downloads","False","mono","False","18","no","white","no","yes","768","legacy","23","79","C:/Users/Hannah Laskoskie/Downloads/HL-subject-4.csv","legacy","Melodramatic Milgram","4.0.5","0","s","s","NA","s","NA","s","428.0","24505","NA","36824","NA","428","2","legacy","1024","2","48000","-16","experiment","SSSSS","4","even","39957","211701","NA","253773","187195","NA","3132","253272","3130","234608","NA","254813","254914","255343","254809","254914","Flanker Task","70","53555.0","104","1024"
"66","66","516","516","#000000","legacy","legacy","legacy","congruent","0","undefined","0","h","0","0","0","104","0","0","0","104","0","104","0","104","104","104","104","104","Fri Sep 22 20:38:34 2023","600","The main experiment item","True","FlankerTask.osexp","C:\Users\Hannah Laskoskie\Downloads","False","mono","False","18","no","white","no","yes","768","legacy","24","79","C:/Users/Hannah Laskoskie/Downloads/HL-subject-4.csv","legacy","Melodramatic Milgram","4.0.5","0","s","s","NA","s","NA","s","651.0","24505","NA","36824","NA","651","2","legacy","1024","2","48000","-16","experiment","HHHHH","4","even","39957","211701","NA","255351","187195","NA","3132","253272","3130","234608","NA","256395","256496","257148","256392","256496","Flanker Task","70","54206.0","105","1024"
"66","66","514","514","#000000","legacy","legacy","legacy","congruent","1","undefined","1","h","0","0","0","105","0","0","0","105","0","105","0","105","105","105","105","105","Fri Sep 22 20:38:34 2023","600","The main experiment item","True","FlankerTask.osexp","C:\Users\Hannah Laskoskie\Downloads","False","mono","False","18","no","white","no","yes","768","legacy","25","79","C:/Users/Hannah Laskoskie/Downloads/HL-subject-4.csv","legacy","Melodramatic Milgram","4.0.5","0","h","s","NA","s","NA","h","364.0","24505","NA","36824","NA","364","2","legacy","1024","2","48000","-16","experiment","HHHHH","4","even","39957","211701","NA","258159","187195","NA","3132","257157","3130","257658","NA","259217","259318","259683","259214","259318","Flanker Task","71","54570.0","106","1024"
"66","66","513","513","#000000","legacy","legacy","legacy","congruent","0","undefined","0","s","0","0","0","106","0","0","0","106","0","106","0","106","106","106","106","106","Fri Sep 22 20:38:34 2023","600","The main experiment item","True","FlankerTask.osexp","C:\Users\Hannah Laskoskie\Downloads","False","mono","False","18","no","white","no","yes","768","legacy","26","79","C:/Users/Hannah Laskoskie/Downloads/HL-subject-4.csv","legacy","Melodramatic Milgram","4.0.5","0","h","s","NA","s","NA","h","348.0","24505","NA","36824","NA","348","2","legacy","1024","2","48000","-16","experiment","SSSSS","4","even","39957","211701","NA","259692","187195","NA","3132","257157","3130","257658","NA","260733","260834","261184","260731","260834","Flanker Task","71","54918.0","107","1024"
"66","66","515","515","#000000","legacy","legacy","legacy","incongruent","1","undefined","1","h","0","0","0","107","0","0","0","107","0","107","0","107","107","107","107","107","Fri Sep 22 20:38:34 2023","600","The main experiment item","True","FlankerTask.osexp","C:\Users\Hannah Laskoskie\Downloads","False","mono","False","18","no","white","no","yes","768","legacy","27","79","C:/Users/Hannah Laskoskie/Downloads/HL-subject-4.csv","legacy","Melodramatic Milgram","4.0.5","0","h","s","NA","s","NA","h","702.0","24505","NA","36824","NA","702","2","legacy","1024","2","48000","-16","experiment","SSHSS","4","even","39957","211701","NA","261693","187195","NA","3132","261192","3130","257658","NA","262737","262839","263543","262734","262838","Flanker Task","72","55620.0","108","1024"
"66","66","516","516","#000000","legacy","legacy","legacy","congruent","1","undefined","1","s","0","0","0","108","0","0","0","108","0","108","0","108","108","108","108","108","Fri Sep 22 20:38:34 2023","600","The main experiment item","True","FlankerTask.osexp","C:\Users\Hannah Laskoskie\Downloads","False","mono","False","18","no","white","no","yes","768","legacy","28","79","C:/Users/Hannah Laskoskie/Downloads/HL-subject-4.csv","legacy","Melodramatic Milgram","4.0.5","0","s","s","NA","s","NA","s","695.0","24505","NA","36824","NA","695","2","legacy","1024","2","48000","-16","experiment","SSSSS","4","even","39957","211701","NA","264053","187195","NA","3132","261192","3130","263552","NA","265091","265192","265889","265089","265192","Flanker Task","73","56315.0","109","1024"
"66","66","514","514","#000000","legacy","legacy","legacy","incongruent","0","undefined","0","s","0","0","0","109","0","0","0","109","0","109","0","109","109","109","109","109","Fri Sep 22 20:38:34 2023","600","The main experiment item","True","FlankerTask.osexp","C:\Users\Hannah Laskoskie\Downloads","False","mono","False","18","no","white","no","yes","768","legacy","29","79","C:/Users/Hannah Laskoskie/Downloads/HL-subject-4.csv","legacy","Melodramatic Milgram","4.0.5","0","h","s","NA","s","NA","h","323.0","24505","NA","36824","NA","323","2","legacy","1024","2","48000","-16","experiment","HHSHH","4","even","39957","211701","NA","266398","187195","NA","3132","261192","3130","265897","NA","267439","267540","267864","267437","267540","Flanker Task","73","56638.0","110","1024"
"65","65","513","513","#000000","legacy","legacy","legacy","incongruent","0","undefined","0","h","0","0","0","110","0","0","0","110","0","110","0","110","110","110","110","110","Fri Sep 22 20:38:34 2023","600","The main experiment item","True","FlankerTask.osexp","C:\Users\Hannah Laskoskie\Downloads","False","mono","False","18","no","white","no","yes","768","legacy","30","79","C:/Users/Hannah Laskoskie/Downloads/HL-subject-4.csv","legacy","Melodramatic Milgram","4.0.5","0","s","s","NA","s","NA","s","382.0","24505","NA","36824","NA","382","2","legacy","1024","2","48000","-16","experiment","SSHSS","4","even","39957","211701","NA","268375","187195","NA","3132","267874","3130","265897","NA","269417","269518","269902","269414","269518","Flanker Task","73","57020.0","111","1024"
"66","66","513","513","#000000","legacy","legacy","legacy","congruent","1","undefined","1","h","0","0","0","111","0","0","0","111","0","111","0","111","111","111","111","111","Fri Sep 22 20:38:34 2023","600","The main experiment item","True","FlankerTask.osexp","C:\Users\Hannah Laskoskie\Downloads","False","mono","False","18","no","white","no","yes","768","legacy","31","79","C:/Users/Hannah Laskoskie/Downloads/HL-subject-4.csv","legacy","Melodramatic Milgram","4.0.5","0","h","s","NA","s","NA","h","512.0","24505","NA","36824","NA","512","2","legacy","1024","2","48000","-16","experiment","HHHHH","4","even","39957","211701","NA","270412","187195","NA","3132","269911","3130","265897","NA","271452","271553","272068","271450","271553","Flanker Task","74","57532.0","112","1024"
"66","66","511","511","#000000","legacy","legacy","legacy","congruent","1","undefined","1","h","0","0","0","112","0","0","0","112","0","112","0","112","112","112","112","112","Fri Sep 22 20:38:34 2023","600","The main experiment item","True","FlankerTask.osexp","C:\Users\Hannah Laskoskie\Downloads","False","mono","False","18","no","white","no","yes","768","legacy","32","79","C:/Users/Hannah Laskoskie/Downloads/HL-subject-4.csv","legacy","Melodramatic Milgram","4.0.5","0","h","s","NA","s","NA","h","280.0","24505","NA","36824","NA","280","2","legacy","1024","2","48000","-16","experiment","HHHHH","4","even","39957","211701","NA","272077","187195","NA","3132","269911","3130","265897","NA","273118","273219","273500","273116","273219","Flanker Task","75","57812.0","113","1024"
"66","66","511","511","#000000","legacy","legacy","legacy","congruent","1","undefined","1","s","0","0","0","113","0","0","0","113","0","113","0","113","113","113","113","113","Fri Sep 22 20:38:34 2023","600","The main experiment item","True","FlankerTask.osexp","C:\Users\Hannah Laskoskie\Downloads","False","mono","False","18","no","white","no","yes","768","legacy","33","79","C:/Users/Hannah Laskoskie/Downloads/HL-subject-4.csv","legacy","Melodramatic Milgram","4.0.5","0","s","s","NA","s","NA","s","502.0","24505","NA","36824","NA","502","2","legacy","1024","2","48000","-16","experiment","SSSSS","4","even","39957","211701","NA","273503","187195","NA","3132","269911","3130","265897","NA","274550","274651","275155","274547","274651","Flanker Task","76","58314.0","114","1024"
"66","66","511","511","#000000","legacy","legacy","legacy","incongruent","1","undefined","1","s","0","0","0","114","0","0","0","114","0","114","0","114","114","114","114","114","Fri Sep 22 20:38:34 2023","600","The main experiment item","True","FlankerTask.osexp","C:\Users\Hannah Laskoskie\Downloads","False","mono","False","18","no","white","no","yes","768","legacy","34","79","C:/Users/Hannah Laskoskie/Downloads/HL-subject-4.csv","legacy","Melodramatic Milgram","4.0.5","0","s","s","NA","s","NA","s","535.0","24505","NA","36824","NA","535","2","legacy","1024","2","48000","-16","experiment","HHSHH","4","even","39957","211701","NA","275158","187195","NA","3132","269911","3130","265897","NA","276214","276315","276852","276211","276315","Flanker Task","77","58849.0","115","1024"
"67","67","511","511","#000000","legacy","legacy","legacy","congruent","1","undefined","1","s","0","0","0","115","0","0","0","115","0","115","0","115","115","115","115","115","Fri Sep 22 20:38:34 2023","600","The main experiment item","True","FlankerTask.osexp","C:\Users\Hannah Laskoskie\Downloads","False","mono","False","18","no","white","no","yes","768","legacy","35","79","C:/Users/Hannah Laskoskie/Downloads/HL-subject-4.csv","legacy","Melodramatic Milgram","4.0.5","0","s","s","NA","s","NA","s","491.0","24505","NA","36824","NA","491","2","legacy","1024","2","48000","-16","experiment","SSSSS","4","even","39957","211701","NA","276861","187195","NA","3132","269911","3130","265897","NA","277906","278007","278499","277903","278007","Flanker Task","78","59340.0","116","1024"
"67","67","511","511","#000000","legacy","legacy","legacy","congruent","1","undefined","1","h","0","0","0","116","0","0","0","116","0","116","0","116","116","116","116","116","Fri Sep 22 20:38:34 2023","600","The main experiment item","True","FlankerTask.osexp","C:\Users\Hannah Laskoskie\Downloads","False","mono","False","18","no","white","no","yes","768","legacy","36","79","C:/Users/Hannah Laskoskie/Downloads/HL-subject-4.csv","legacy","Melodramatic Milgram","4.0.5","0","h","s","NA","s","NA","h","461.0","24505","NA","36824","NA","461","2","legacy","1024","2","48000","-16","experiment","HHHHH","4","even","39957","211701","NA","278512","187195","NA","3132","269911","3130","265897","NA","279553","279654","280117","279550","279654","Flanker Task","79","59801.0","117","1024"
"67","67","512","512","#000000","legacy","legacy","legacy","incongruent","1","undefined","1","h","0","0","0","117","0","0","0","117","0","117","0","117","117","117","117","117","Fri Sep 22 20:38:34 2023","600","The main experiment item","True","FlankerTask.osexp","C:\Users\Hannah Laskoskie\Downloads","False","mono","False","18","no","white","no","yes","768","legacy","37","79","C:/Users/Hannah Laskoskie/Downloads/HL-subject-4.csv","legacy","Melodramatic Milgram","4.0.5","0","h","s","NA","s","NA","h","681.0","24505","NA","36824","NA","681","2","legacy","1024","2","48000","-16","experiment","SSHSS","4","even","39957","211701","NA","280127","187195","NA","3132","269911","3130","265897","NA","281172","281273","281955","281168","281273","Flanker Task","80","60482.0","118","1024"
"68","68","512","512","#000000","legacy","legacy","legacy","congruent","1","undefined","1","h","0","0","0","118","0","0","0","118","0","118","0","118","118","118","118","118","Fri Sep 22 20:38:34 2023","600","The main experiment item","True","FlankerTask.osexp","C:\Users\Hannah Laskoskie\Downloads","False","mono","False","18","no","white","no","yes","768","legacy","38","79","C:/Users/Hannah Laskoskie/Downloads/HL-subject-4.csv","legacy","Melodramatic Milgram","4.0.5","0","h","s","NA","s","NA","h","521.0","24505","NA","36824","NA","521","2","legacy","1024","2","48000","-16","experiment","HHHHH","4","even","39957","211701","NA","282466","187195","NA","3132","269911","3130","281965","NA","283503","283604","284127","283501","283604","Flanker Task","81","61003.0","119","1024"
"68","68","511","511","#000000","legacy","legacy","legacy","congruent","1","undefined","1","h","0","0","0","119","0","0","0","119","0","119","0","119","119","119","119","119","Fri Sep 22 20:38:34 2023","600","The main experiment item","True","FlankerTask.osexp","C:\Users\Hannah Laskoskie\Downloads","False","mono","False","18","no","white","no","yes","768","legacy","39","79","C:/Users/Hannah Laskoskie/Downloads/HL-subject-4.csv","legacy","Melodramatic Milgram","4.0.5","0","h","s","NA","s","NA","h","416.0","24505","NA","36824","NA","416","2","legacy","1024","2","48000","-16","experiment","HHHHH","4","even","39957","211701","NA","284137","187195","NA","3132","269911","3130","281965","NA","285175","285276","285694","285173","285276","Flanker Task","82","61419.0","120","1024"
"67","67","510","510","#000000","legacy","legacy","legacy","congruent","0","undefined","0","s","0","0","0","120","0","0","0","120","0","120","0","120","120","120","120","120","Fri Sep 22 20:38:34 2023","600","The main experiment item","True","FlankerTask.osexp","C:\Users\Hannah Laskoskie\Downloads","False","mono","False","18","no","white","no","yes","768","legacy","40","79","C:/Users/Hannah Laskoskie/Downloads/HL-subject-4.csv","legacy","Melodramatic Milgram","4.0.5","0","h","s","NA","s","NA","h","360.0","24505","NA","36824","NA","360","2","legacy","1024","2","48000","-16","experiment","SSSSS","4","even","39957","211701","NA","285704","187195","NA","3132","269911","3130","281965","NA","286742","286844","287207","286740","286843","Flanker Task","82","61779.0","121","1024"
"68","68","509","509","#000000","legacy","legacy","legacy","congruent","1","undefined","1","s","0","0","0","121","0","0","0","121","0","121","0","121","121","121","121","121","Fri Sep 22 20:38:34 2023","600","The main experiment item","True","FlankerTask.osexp","C:\Users\Hannah Laskoskie\Downloads","False","mono","False","18","no","white","no","yes","768","legacy","41","79","C:/Users/Hannah Laskoskie/Downloads/HL-subject-4.csv","legacy","Melodramatic Milgram","4.0.5","0","s","s","NA","s","NA","s","419.0","24505","NA","36824","NA","419","2","legacy","1024","2","48000","-16","experiment","SSSSS","4","even","39957","211701","NA","287717","187195","NA","3132","287216","3130","281965","NA","288753","288854","289274","288751","288854","Flanker Task","83","62198.0","122","1024"
"67","67","507","507","#000000","legacy","legacy","legacy","congruent","0","undefined","0","h","0","0","0","122","0","0","0","122","0","122","0","122","122","122","122","122","Fri Sep 22 20:38:34 2023","600","The main experiment item","True","FlankerTask.osexp","C:\Users\Hannah Laskoskie\Downloads","False","mono","False","18","no","white","no","yes","768","legacy","42","79","C:/Users/Hannah Laskoskie/Downloads/HL-subject-4.csv","legacy","Melodramatic Milgram","4.0.5","0","s","s","NA","s","NA","s","257.0","24505","NA","36824","NA","257","2","legacy","1024","2","48000","-16","experiment","HHHHH","4","even","39957","211701","NA","289284","187195","NA","3132","287216","3130","281965","NA","290325","290426","290684","290323","290426","Flanker Task","83","62455.0","123","1024"
"67","67","509","509","#000000","legacy","legacy","legacy","congruent","1","undefined","1","s","0","0","0","123","0","0","0","123","0","123","0","123","123","123","123","123","Fri Sep 22 20:38:34 2023","600","The main experiment item","True","FlankerTask.osexp","C:\Users\Hannah Laskoskie\Downloads","False","mono","False","18","no","white","no","yes","768","legacy","43","79","C:/Users/Hannah Laskoskie/Downloads/HL-subject-4.csv","legacy","Melodramatic Milgram","4.0.5","0","s","s","NA","s","NA","s","679.0","24505","NA","36824","NA","679","2","legacy","1024","2","48000","-16","experiment","SSSSS","4","even","39957","211701","NA","291196","187195","NA","3132","290695","3130","281965","NA","292254","292355","293035","292251","292355","Flanker Task","84","63134.0","124","1024"
"68","68","509","509","#000000","legacy","legacy","legacy","congruent","1","undefined","1","s","0","0","0","124","0","0","0","124","0","124","0","124","124","124","124","124","Fri Sep 22 20:38:34 2023","600","The main experiment item","True","FlankerTask.osexp","C:\Users\Hannah Laskoskie\Downloads","False","mono","False","18","no","white","no","yes","768","legacy","44","79","C:/Users/Hannah Laskoskie/Downloads/HL-subject-4.csv","legacy","Melodramatic Milgram","4.0.5","0","s","s","NA","s","NA","s","542.0","24505","NA","36824","NA","542","2","legacy","1024","2","48000","-16","experiment","SSSSS","4","even","39957","211701","NA","293539","187195","NA","3132","290695","3130","293038","NA","294582","294683","295226","294579","294683","Flanker Task","85","63676.0","125","1024"
"68","68","512","512","#000000","legacy","legacy","legacy","congruent","1","undefined","1","h","0","0","0","125","0","0","0","125","0","125","0","125","125","125","125","125","Fri Sep 22 20:38:34 2023","600","The main experiment item","True","FlankerTask.osexp","C:\Users\Hannah Laskoskie\Downloads","False","mono","False","18","no","white","no","yes","768","legacy","45","79","C:/Users/Hannah Laskoskie/Downloads/HL-subject-4.csv","legacy","Melodramatic Milgram","4.0.5","0","h","s","NA","s","NA","h","897.0","24505","NA","36824","NA","897","2","legacy","1024","2","48000","-16","experiment","HHHHH","4","even","39957","211701","NA","295229","187195","NA","3132","290695","3130","293038","NA","296277","296379","297278","296274","296379","Flanker Task","86","64573.0","126","1024"
"68","68","511","511","#000000","legacy","legacy","legacy","congruent","1","undefined","1","h","0","0","0","126","0","0","0","126","0","126","0","126","126","126","126","126","Fri Sep 22 20:38:34 2023","600","The main experiment item","True","FlankerTask.osexp","C:\Users\Hannah Laskoskie\Downloads","False","mono","False","18","no","white","no","yes","768","legacy","46","79","C:/Users/Hannah Laskoskie/Downloads/HL-subject-4.csv","legacy","Melodramatic Milgram","4.0.5","0","h","s","NA","s","NA","h","373.0","24505","NA","36824","NA","373","2","legacy","1024","2","48000","-16","experiment","HHHHH","4","even","39957","211701","NA","297788","187195","NA","3132","290695","3130","297287","NA","298828","298930","299304","298825","298929","Flanker Task","87","64946.0","127","1024"
"67","67","510","510","#000000","legacy","legacy","legacy","incongruent","0","undefined","0","s","0","0","0","127","0","0","0","127","0","127","0","127","127","127","127","127","Fri Sep 22 20:38:34 2023","600","The main experiment item","True","FlankerTask.osexp","C:\Users\Hannah Laskoskie\Downloads","False","mono","False","18","no","white","no","yes","768","legacy","47","79","C:/Users/Hannah Laskoskie/Downloads/HL-subject-4.csv","legacy","Melodramatic Milgram","4.0.5","0","h","s","NA","s","NA","h","351.0","24505","NA","36824","NA","351","2","legacy","1024","2","48000","-16","experiment","HHSHH","4","even","39957","211701","NA","299314","187195","NA","3132","290695","3130","297287","NA","300353","300454","300806","300350","300454","Flanker Task","87","65297.0","128","1024"
