acc,accuracy,average_response_time,avg_rt,background,canvas_backend,clock_backend,color_backend,compensation,condition,coordinates,correct,correct_Instructions1,correct_keyboard_response,correct_response,count_Faster,count_ISI,count_Instructions1,count_Instructions2,count_Instructions3,count_Stimulus,count_block1,count_block2,count_block3,count_errorFeedback,count_experiment,count_finish,count_fixation,count_keyboard_response,count_new_logger,count_sequence,datetime,deadline,description,disable_garbage_collection,experiment_file,experiment_path,font_bold,font_family,font_italic,font_size,font_underline,foreground,form_clicks,fullscreen,height,keyboard_backend,live_row,live_row_block1,logfile,mouse_backend,opensesame_codename,opensesame_version,repeat_cycle,response,response_Instructions1,response_Instructions2,response_Instructions3,response_finish,response_keyboard_response,response_time,response_time_Instructions1,response_time_Instructions2,response_time_Instructions3,response_time_finish,response_time_keyboard_response,round_decimals,sampler_backend,sound_buf_size,sound_channels,sound_freq,sound_sample_size,start,stimulus,subject_nr,subject_parity,time_Faster,time_ISI,time_Instructions1,time_Instructions2,time_Instructions3,time_Stimulus,time_block1,time_block2,time_block3,time_errorFeedback,time_experiment,time_finish,time_fixation,time_keyboard_response,time_new_logger,time_sequence,title,total_correct,total_response_time,total_responses,uniform_coordinates,width
100,100,880,880,black,legacy,legacy,legacy,0,congruent,uniform,1,undefined,1,h,0,0,0,0,0,0,0,0,0,0,0,0,0,0,0,0,9/28/19 13:00,1500,The main experiment item,yes,FlankerTask.osexp,C:\Users\Jeanette\Desktop\Jeanette Master's\AQM&ED,no,mono,no,18,no,white,no,no,768,legacy,0,0,C:/Users/Jeanette/Desktop/Jeanette Master's/AQM&ED/jh-subject-2.csv,legacy,Kafkaesque Koffka,3.2.8,0,h,h,NA,NA,NA,h,880,39902,NA,NA,NA,880,2,legacy,1024,2,48000,-16,experiment,HHHHH,2,even,NA,NA,2536,NA,NA,42821,42439,NA,NA,NA,2531,NA,42718,42821,43701,42716,Flanker Task,1,880,1,yes,1024
100,100,773.5,773.5,black,legacy,legacy,legacy,0,incongruent,uniform,1,undefined,1,h,1,1,0,0,0,1,0,0,0,1,0,0,1,1,1,1,9/28/19 13:00,1500,The main experiment item,yes,FlankerTask.osexp,C:\Users\Jeanette\Desktop\Jeanette Master's\AQM&ED,no,mono,no,18,no,white,no,no,768,legacy,1,1,C:/Users/Jeanette/Desktop/Jeanette Master's/AQM&ED/jh-subject-2.csv,legacy,Kafkaesque Koffka,3.2.8,0,h,h,NA,NA,NA,h,667,39902,NA,NA,NA,667,2,legacy,1024,2,48000,-16,experiment,SSHSS,2,even,NA,43753,2536,NA,NA,44953,42439,NA,NA,NA,2531,NA,44849,44954,45621,44846,Flanker Task,2,1547,2,yes,1024
100,100,684.3333333,684.3333333,black,legacy,legacy,legacy,0,congruent,uniform,1,undefined,1,h,2,2,0,0,0,2,0,0,0,2,0,0,2,2,2,2,9/28/19 13:00,1500,The main experiment item,yes,FlankerTask.osexp,C:\Users\Jeanette\Desktop\Jeanette Master's\AQM&ED,no,mono,no,18,no,white,no,no,768,legacy,2,2,C:/Users/Jeanette/Desktop/Jeanette Master's/AQM&ED/jh-subject-2.csv,legacy,Kafkaesque Koffka,3.2.8,0,h,h,NA,NA,NA,h,506,39902,NA,NA,NA,506,2,legacy,1024,2,48000,-16,experiment,HHHHH,2,even,NA,45654,2536,NA,NA,46867,42439,NA,NA,NA,2531,NA,46762,46867,47373,46759,Flanker Task,3,2053,3,yes,1024
100,100,664,664,black,legacy,legacy,legacy,0,congruent,uniform,1,undefined,1,s,3,3,0,0,0,3,0,0,0,3,0,0,3,3,3,3,9/28/19 13:00,1500,The main experiment item,yes,FlankerTask.osexp,C:\Users\Jeanette\Desktop\Jeanette Master's\AQM&ED,no,mono,no,18,no,white,no,no,768,legacy,3,3,C:/Users/Jeanette/Desktop/Jeanette Master's/AQM&ED/jh-subject-2.csv,legacy,Kafkaesque Koffka,3.2.8,0,s,h,NA,NA,NA,s,603,39902,NA,NA,NA,603,2,legacy,1024,2,48000,-16,experiment,SSSSS,2,even,NA,47403,2536,NA,NA,48610,42439,NA,NA,NA,2531,NA,48505,48610,49214,48502,Flanker Task,4,2656,4,yes,1024
100,100,646,646,black,legacy,legacy,legacy,0,congruent,uniform,1,undefined,1,h,4,4,0,0,0,4,0,0,0,4,0,0,4,4,4,4,9/28/19 13:00,1500,The main experiment item,yes,FlankerTask.osexp,C:\Users\Jeanette\Desktop\Jeanette Master's\AQM&ED,no,mono,no,18,no,white,no,no,768,legacy,4,4,C:/Users/Jeanette/Desktop/Jeanette Master's/AQM&ED/jh-subject-2.csv,legacy,Kafkaesque Koffka,3.2.8,0,h,h,NA,NA,NA,h,574,39902,NA,NA,NA,574,2,legacy,1024,2,48000,-16,experiment,HHHHH,2,even,NA,49272,2536,NA,NA,50462,42439,NA,NA,NA,2531,NA,50357,50463,51038,50354,Flanker Task,5,3230,5,yes,1024
100,100,671.3333333,671.3333333,black,legacy,legacy,legacy,0,incongruent,uniform,1,undefined,1,s,5,5,0,0,0,5,0,0,0,5,0,0,5,5,5,5,9/28/19 13:00,1500,The main experiment item,yes,FlankerTask.osexp,C:\Users\Jeanette\Desktop\Jeanette Master's\AQM&ED,no,mono,no,18,no,white,no,no,768,legacy,5,5,C:/Users/Jeanette/Desktop/Jeanette Master's/AQM&ED/jh-subject-2.csv,legacy,Kafkaesque Koffka,3.2.8,0,s,h,NA,NA,NA,s,798,39902,NA,NA,NA,798,2,legacy,1024,2,48000,-16,experiment,HHSHH,2,even,NA,51063,2536,NA,NA,52271,42439,NA,NA,NA,2531,NA,52166,52271,53070,52163,Flanker Task,6,4028,6,yes,1024
100,100,646,646,black,legacy,legacy,legacy,0,congruent,uniform,1,undefined,1,h,6,6,0,0,0,6,0,0,0,6,0,0,6,6,6,6,9/28/19 13:00,1500,The main experiment item,yes,FlankerTask.osexp,C:\Users\Jeanette\Desktop\Jeanette Master's\AQM&ED,no,mono,no,18,no,white,no,no,768,legacy,6,6,C:/Users/Jeanette/Desktop/Jeanette Master's/AQM&ED/jh-subject-2.csv,legacy,Kafkaesque Koffka,3.2.8,0,h,h,NA,NA,NA,h,494,39902,NA,NA,NA,494,2,legacy,1024,2,48000,-16,experiment,HHHHH,2,even,NA,53105,2536,NA,NA,54311,42439,NA,NA,NA,2531,NA,54205,54311,54806,54202,Flanker Task,7,4522,7,yes,1024
100,100,641.875,641.875,black,legacy,legacy,legacy,0,incongruent,uniform,1,undefined,1,h,7,7,0,0,0,7,0,0,0,7,0,0,7,7,7,7,9/28/19 13:00,1500,The main experiment item,yes,FlankerTask.osexp,C:\Users\Jeanette\Desktop\Jeanette Master's\AQM&ED,no,mono,no,18,no,white,no,no,768,legacy,7,7,C:/Users/Jeanette/Desktop/Jeanette Master's/AQM&ED/jh-subject-2.csv,legacy,Kafkaesque Koffka,3.2.8,0,h,h,NA,NA,NA,h,613,39902,NA,NA,NA,613,2,legacy,1024,2,48000,-16,experiment,SSHSS,2,even,NA,54838,2536,NA,NA,56048,42439,NA,NA,NA,2531,NA,55943,56048,56662,55940,Flanker Task,8,5135,8,yes,1024
100,100,639.1111111,639.1111111,black,legacy,legacy,legacy,0,incongruent,uniform,1,undefined,1,s,8,8,0,0,0,8,0,0,0,8,0,0,8,8,8,8,9/28/19 13:00,1500,The main experiment item,yes,FlankerTask.osexp,C:\Users\Jeanette\Desktop\Jeanette Master's\AQM&ED,no,mono,no,18,no,white,no,no,768,legacy,8,8,C:/Users/Jeanette/Desktop/Jeanette Master's/AQM&ED/jh-subject-2.csv,legacy,Kafkaesque Koffka,3.2.8,0,s,h,NA,NA,NA,s,617,39902,NA,NA,NA,617,2,legacy,1024,2,48000,-16,experiment,HHSHH,2,even,NA,56680,2536,NA,NA,57884,42439,NA,NA,NA,2531,NA,57779,57884,58501,57776,Flanker Task,9,5752,9,yes,1024
100,100,634.3,634.3,black,legacy,legacy,legacy,0,congruent,uniform,1,undefined,1,s,9,9,0,0,0,9,0,0,0,9,0,0,9,9,9,9,9/28/19 13:00,1500,The main experiment item,yes,FlankerTask.osexp,C:\Users\Jeanette\Desktop\Jeanette Master's\AQM&ED,no,mono,no,18,no,white,no,no,768,legacy,9,9,C:/Users/Jeanette/Desktop/Jeanette Master's/AQM&ED/jh-subject-2.csv,legacy,Kafkaesque Koffka,3.2.8,0,s,h,NA,NA,NA,s,591,39902,NA,NA,NA,591,2,legacy,1024,2,48000,-16,experiment,SSSSS,2,even,NA,58530,2536,NA,NA,59742,42439,NA,NA,NA,2531,NA,59637,59742,60334,59634,Flanker Task,10,6343,10,yes,1024
100,100,623.5454545,623.5454545,black,legacy,legacy,legacy,0,congruent,uniform,1,undefined,1,h,10,10,0,0,0,10,0,0,0,10,0,0,10,10,10,10,9/28/19 13:00,1500,The main experiment item,yes,FlankerTask.osexp,C:\Users\Jeanette\Desktop\Jeanette Master's\AQM&ED,no,mono,no,18,no,white,no,no,768,legacy,10,10,C:/Users/Jeanette/Desktop/Jeanette Master's/AQM&ED/jh-subject-2.csv,legacy,Kafkaesque Koffka,3.2.8,0,h,h,NA,NA,NA,h,516,39902,NA,NA,NA,516,2,legacy,1024,2,48000,-16,experiment,HHHHH,2,even,NA,60364,2536,NA,NA,61569,42439,NA,NA,NA,2531,NA,61464,61569,62086,61461,Flanker Task,11,6859,11,yes,1024
100,100,623.0833333,623.0833333,black,legacy,legacy,legacy,0,incongruent,uniform,1,undefined,1,h,11,11,0,0,0,11,0,0,0,11,0,0,11,11,11,11,9/28/19 13:00,1500,The main experiment item,yes,FlankerTask.osexp,C:\Users\Jeanette\Desktop\Jeanette Master's\AQM&ED,no,mono,no,18,no,white,no,no,768,legacy,11,11,C:/Users/Jeanette/Desktop/Jeanette Master's/AQM&ED/jh-subject-2.csv,legacy,Kafkaesque Koffka,3.2.8,0,h,h,NA,NA,NA,h,618,39902,NA,NA,NA,618,2,legacy,1024,2,48000,-16,experiment,SSHSS,2,even,NA,62114,2536,NA,NA,63315,42439,NA,NA,NA,2531,NA,63212,63315,63934,63209,Flanker Task,12,7477,12,yes,1024
100,100,618.8461538,618.8461538,black,legacy,legacy,legacy,0,incongruent,uniform,1,undefined,1,h,12,12,0,0,0,12,0,0,0,12,0,0,12,12,12,12,9/28/19 13:00,1500,The main experiment item,yes,FlankerTask.osexp,C:\Users\Jeanette\Desktop\Jeanette Master's\AQM&ED,no,mono,no,18,no,white,no,no,768,legacy,12,12,C:/Users/Jeanette/Desktop/Jeanette Master's/AQM&ED/jh-subject-2.csv,legacy,Kafkaesque Koffka,3.2.8,0,h,h,NA,NA,NA,h,568,39902,NA,NA,NA,568,2,legacy,1024,2,48000,-16,experiment,SSHSS,2,even,NA,63964,2536,NA,NA,65173,42439,NA,NA,NA,2531,NA,65068,65173,65741,65065,Flanker Task,13,8045,13,yes,1024
100,100,610.4285714,610.4285714,black,legacy,legacy,legacy,0,incongruent,uniform,1,undefined,1,h,13,13,0,0,0,13,0,0,0,13,0,0,13,13,13,13,9/28/19 13:00,1500,The main experiment item,yes,FlankerTask.osexp,C:\Users\Jeanette\Desktop\Jeanette Master's\AQM&ED,no,mono,no,18,no,white,no,no,768,legacy,13,13,C:/Users/Jeanette/Desktop/Jeanette Master's/AQM&ED/jh-subject-2.csv,legacy,Kafkaesque Koffka,3.2.8,0,h,h,NA,NA,NA,h,501,39902,NA,NA,NA,501,2,legacy,1024,2,48000,-16,experiment,SSHSS,2,even,NA,65773,2536,NA,NA,66960,42439,NA,NA,NA,2531,NA,66855,66960,67461,66852,Flanker Task,14,8546,14,yes,1024
100,100,608.4,608.4,black,legacy,legacy,legacy,0,incongruent,uniform,1,undefined,1,s,14,14,0,0,0,14,0,0,0,14,0,0,14,14,14,14,9/28/19 13:00,1500,The main experiment item,yes,FlankerTask.osexp,C:\Users\Jeanette\Desktop\Jeanette Master's\AQM&ED,no,mono,no,18,no,white,no,no,768,legacy,14,14,C:/Users/Jeanette/Desktop/Jeanette Master's/AQM&ED/jh-subject-2.csv,legacy,Kafkaesque Koffka,3.2.8,0,s,h,NA,NA,NA,s,580,39902,NA,NA,NA,580,2,legacy,1024,2,48000,-16,experiment,HHSHH,2,even,NA,67489,2536,NA,NA,68729,42439,NA,NA,NA,2531,NA,68623,68729,69309,68620,Flanker Task,15,9126,15,yes,1024
100,100,607,607,black,legacy,legacy,legacy,0,incongruent,uniform,1,undefined,1,s,15,15,0,0,0,15,0,0,0,15,0,0,15,15,15,15,9/28/19 13:00,1500,The main experiment item,yes,FlankerTask.osexp,C:\Users\Jeanette\Desktop\Jeanette Master's\AQM&ED,no,mono,no,18,no,white,no,no,768,legacy,15,15,C:/Users/Jeanette/Desktop/Jeanette Master's/AQM&ED/jh-subject-2.csv,legacy,Kafkaesque Koffka,3.2.8,0,s,h,NA,NA,NA,s,586,39902,NA,NA,NA,586,2,legacy,1024,2,48000,-16,experiment,HHSHH,2,even,NA,69339,2536,NA,NA,70547,42439,NA,NA,NA,2531,NA,70442,70547,71133,70439,Flanker Task,16,9712,16,yes,1024
100,100,608.3529412,608.3529412,black,legacy,legacy,legacy,0,incongruent,uniform,1,undefined,1,h,16,16,0,0,0,16,0,0,0,16,0,0,16,16,16,16,9/28/19 13:00,1500,The main experiment item,yes,FlankerTask.osexp,C:\Users\Jeanette\Desktop\Jeanette Master's\AQM&ED,no,mono,no,18,no,white,no,no,768,legacy,16,16,C:/Users/Jeanette/Desktop/Jeanette Master's/AQM&ED/jh-subject-2.csv,legacy,Kafkaesque Koffka,3.2.8,0,h,h,NA,NA,NA,h,630,39902,NA,NA,NA,630,2,legacy,1024,2,48000,-16,experiment,SSHSS,2,even,NA,71156,2536,NA,NA,72351,42439,NA,NA,NA,2531,NA,72246,72351,72981,72243,Flanker Task,17,10342,17,yes,1024
100,100,602,602,black,legacy,legacy,legacy,0,incongruent,uniform,1,undefined,1,h,17,17,0,0,0,17,0,0,0,17,0,0,17,17,17,17,9/28/19 13:00,1500,The main experiment item,yes,FlankerTask.osexp,C:\Users\Jeanette\Desktop\Jeanette Master's\AQM&ED,no,mono,no,18,no,white,no,no,768,legacy,17,17,C:/Users/Jeanette/Desktop/Jeanette Master's/AQM&ED/jh-subject-2.csv,legacy,Kafkaesque Koffka,3.2.8,0,h,h,NA,NA,NA,h,494,39902,NA,NA,NA,494,2,legacy,1024,2,48000,-16,experiment,SSHSS,2,even,NA,73015,2536,NA,NA,74223,42439,NA,NA,NA,2531,NA,74121,74223,74717,74118,Flanker Task,18,10836,18,yes,1024
100,100,599.0526316,599.0526316,black,legacy,legacy,legacy,0,incongruent,uniform,1,undefined,1,s,18,18,0,0,0,18,0,0,0,18,0,0,18,18,18,18,9/28/19 13:00,1500,The main experiment item,yes,FlankerTask.osexp,C:\Users\Jeanette\Desktop\Jeanette Master's\AQM&ED,no,mono,no,18,no,white,no,no,768,legacy,18,18,C:/Users/Jeanette/Desktop/Jeanette Master's/AQM&ED/jh-subject-2.csv,legacy,Kafkaesque Koffka,3.2.8,0,s,h,NA,NA,NA,s,546,39902,NA,NA,NA,546,2,legacy,1024,2,48000,-16,experiment,HHSHH,2,even,NA,74748,2536,NA,NA,75931,42439,NA,NA,NA,2531,NA,75825,75931,76478,75822,Flanker Task,19,11382,19,yes,1024
100,100,593.25,593.25,black,legacy,legacy,legacy,0,incongruent,uniform,1,undefined,1,h,19,19,0,0,0,19,0,0,0,19,0,0,19,19,19,19,9/28/19 13:00,1500,The main experiment item,yes,FlankerTask.osexp,C:\Users\Jeanette\Desktop\Jeanette Master's\AQM&ED,no,mono,no,18,no,white,no,no,768,legacy,19,19,C:/Users/Jeanette/Desktop/Jeanette Master's/AQM&ED/jh-subject-2.csv,legacy,Kafkaesque Koffka,3.2.8,0,h,h,NA,NA,NA,h,483,39902,NA,NA,NA,483,2,legacy,1024,2,48000,-16,experiment,SSHSS,2,even,NA,76507,2536,NA,NA,77714,42439,NA,NA,NA,2531,NA,77608,77714,78198,77605,Flanker Task,20,11865,20,yes,1024
100,100,588.2380952,588.2380952,black,legacy,legacy,legacy,0,congruent,uniform,1,undefined,1,h,20,20,0,0,0,20,0,0,0,20,0,0,20,20,20,20,9/28/19 13:00,1500,The main experiment item,yes,FlankerTask.osexp,C:\Users\Jeanette\Desktop\Jeanette Master's\AQM&ED,no,mono,no,18,no,white,no,no,768,legacy,20,20,C:/Users/Jeanette/Desktop/Jeanette Master's/AQM&ED/jh-subject-2.csv,legacy,Kafkaesque Koffka,3.2.8,0,h,h,NA,NA,NA,h,488,39902,NA,NA,NA,488,2,legacy,1024,2,48000,-16,experiment,HHHHH,2,even,NA,78223,2536,NA,NA,79428,42439,NA,NA,NA,2531,NA,79323,79429,79917,79319,Flanker Task,21,12353,21,yes,1024
100,100,584.0454545,584.0454545,black,legacy,legacy,legacy,0,congruent,uniform,1,undefined,1,h,21,21,0,0,0,21,0,0,0,21,0,0,21,21,21,21,9/28/19 13:00,1500,The main experiment item,yes,FlankerTask.osexp,C:\Users\Jeanette\Desktop\Jeanette Master's\AQM&ED,no,mono,no,18,no,white,no,no,768,legacy,21,21,C:/Users/Jeanette/Desktop/Jeanette Master's/AQM&ED/jh-subject-2.csv,legacy,Kafkaesque Koffka,3.2.8,0,h,h,NA,NA,NA,h,496,39902,NA,NA,NA,496,2,legacy,1024,2,48000,-16,experiment,HHHHH,2,even,NA,79948,2536,NA,NA,81157,42439,NA,NA,NA,2531,NA,81052,81157,81653,81049,Flanker Task,22,12849,22,yes,1024
100,100,582.2608696,582.2608696,black,legacy,legacy,legacy,0,congruent,uniform,1,undefined,1,h,22,22,0,0,0,22,0,0,0,22,0,0,22,22,22,22,9/28/19 13:00,1500,The main experiment item,yes,FlankerTask.osexp,C:\Users\Jeanette\Desktop\Jeanette Master's\AQM&ED,no,mono,no,18,no,white,no,no,768,legacy,22,22,C:/Users/Jeanette/Desktop/Jeanette Master's/AQM&ED/jh-subject-2.csv,legacy,Kafkaesque Koffka,3.2.8,0,h,h,NA,NA,NA,h,543,39902,NA,NA,NA,543,2,legacy,1024,2,48000,-16,experiment,HHHHH,2,even,NA,81674,2536,NA,NA,82854,42439,NA,NA,NA,2531,NA,82749,82854,83397,82746,Flanker Task,23,13392,23,yes,1024
100,100,579.375,579.375,black,legacy,legacy,legacy,0,congruent,uniform,1,undefined,1,h,23,23,0,0,0,23,0,0,0,23,0,0,23,23,23,23,9/28/19 13:00,1500,The main experiment item,yes,FlankerTask.osexp,C:\Users\Jeanette\Desktop\Jeanette Master's\AQM&ED,no,mono,no,18,no,white,no,no,768,legacy,23,23,C:/Users/Jeanette/Desktop/Jeanette Master's/AQM&ED/jh-subject-2.csv,legacy,Kafkaesque Koffka,3.2.8,0,h,h,NA,NA,NA,h,513,39902,NA,NA,NA,513,2,legacy,1024,2,48000,-16,experiment,HHHHH,2,even,NA,83433,2536,NA,NA,84620,42439,NA,NA,NA,2531,NA,84515,84620,85133,84512,Flanker Task,24,13905,24,yes,1024
100,100,574.72,574.72,black,legacy,legacy,legacy,0,congruent,uniform,1,undefined,1,s,24,24,0,0,0,24,0,0,0,24,0,0,24,24,24,24,9/28/19 13:00,1500,The main experiment item,yes,FlankerTask.osexp,C:\Users\Jeanette\Desktop\Jeanette Master's\AQM&ED,no,mono,no,18,no,white,no,no,768,legacy,24,24,C:/Users/Jeanette/Desktop/Jeanette Master's/AQM&ED/jh-subject-2.csv,legacy,Kafkaesque Koffka,3.2.8,0,s,h,NA,NA,NA,s,463,39902,NA,NA,NA,463,2,legacy,1024,2,48000,-16,experiment,SSSSS,2,even,NA,85208,2536,NA,NA,86397,42439,NA,NA,NA,2531,NA,86292,86397,86862,86289,Flanker Task,25,14368,25,yes,1024
100,100,571.7692308,571.7692308,black,legacy,legacy,legacy,0,congruent,uniform,1,undefined,1,s,25,25,0,0,0,25,0,0,0,25,0,0,25,25,25,25,9/28/19 13:00,1500,The main experiment item,yes,FlankerTask.osexp,C:\Users\Jeanette\Desktop\Jeanette Master's\AQM&ED,no,mono,no,18,no,white,no,no,768,legacy,25,25,C:/Users/Jeanette/Desktop/Jeanette Master's/AQM&ED/jh-subject-2.csv,legacy,Kafkaesque Koffka,3.2.8,0,s,h,NA,NA,NA,s,498,39902,NA,NA,NA,498,2,legacy,1024,2,48000,-16,experiment,SSSSS,2,even,NA,86890,2536,NA,NA,88075,42439,NA,NA,NA,2531,NA,87970,88075,88573,87967,Flanker Task,26,14866,26,yes,1024
100,100,569.7407407,569.7407407,black,legacy,legacy,legacy,0,incongruent,uniform,1,undefined,1,h,26,26,0,0,0,26,0,0,0,26,0,0,26,26,26,26,9/28/19 13:00,1500,The main experiment item,yes,FlankerTask.osexp,C:\Users\Jeanette\Desktop\Jeanette Master's\AQM&ED,no,mono,no,18,no,white,no,no,768,legacy,26,26,C:/Users/Jeanette/Desktop/Jeanette Master's/AQM&ED/jh-subject-2.csv,legacy,Kafkaesque Koffka,3.2.8,0,h,h,NA,NA,NA,h,517,39902,NA,NA,NA,517,2,legacy,1024,2,48000,-16,experiment,SSHSS,2,even,NA,88608,2536,NA,NA,89824,42439,NA,NA,NA,2531,NA,89719,89824,90342,89716,Flanker Task,27,15383,27,yes,1024
100,100,567.9642857,567.9642857,black,legacy,legacy,legacy,0,incongruent,uniform,1,undefined,1,h,27,27,0,0,0,27,0,0,0,27,0,0,27,27,27,27,9/28/19 13:00,1500,The main experiment item,yes,FlankerTask.osexp,C:\Users\Jeanette\Desktop\Jeanette Master's\AQM&ED,no,mono,no,18,no,white,no,no,768,legacy,27,27,C:/Users/Jeanette/Desktop/Jeanette Master's/AQM&ED/jh-subject-2.csv,legacy,Kafkaesque Koffka,3.2.8,0,h,h,NA,NA,NA,h,520,39902,NA,NA,NA,520,2,legacy,1024,2,48000,-16,experiment,SSHSS,2,even,NA,90366,2536,NA,NA,91573,42439,NA,NA,NA,2531,NA,91468,91573,92093,91465,Flanker Task,28,15903,28,yes,1024
100,100,562.6896552,562.6896552,black,legacy,legacy,legacy,0,congruent,uniform,1,undefined,1,h,28,28,0,0,0,28,0,0,0,28,0,0,28,28,28,28,9/28/19 13:00,1500,The main experiment item,yes,FlankerTask.osexp,C:\Users\Jeanette\Desktop\Jeanette Master's\AQM&ED,no,mono,no,18,no,white,no,no,768,legacy,28,28,C:/Users/Jeanette/Desktop/Jeanette Master's/AQM&ED/jh-subject-2.csv,legacy,Kafkaesque Koffka,3.2.8,0,h,h,NA,NA,NA,h,415,39902,NA,NA,NA,415,2,legacy,1024,2,48000,-16,experiment,HHHHH,2,even,NA,92115,2536,NA,NA,93318,42439,NA,NA,NA,2531,NA,93212,93318,93733,93208,Flanker Task,29,16318,29,yes,1024
100,100,564,564,black,legacy,legacy,legacy,0,incongruent,uniform,1,undefined,1,s,29,29,0,0,0,29,0,0,0,29,0,0,29,29,29,29,9/28/19 13:00,1500,The main experiment item,yes,FlankerTask.osexp,C:\Users\Jeanette\Desktop\Jeanette Master's\AQM&ED,no,mono,no,18,no,white,no,no,768,legacy,29,29,C:/Users/Jeanette/Desktop/Jeanette Master's/AQM&ED/jh-subject-2.csv,legacy,Kafkaesque Koffka,3.2.8,0,s,h,NA,NA,NA,s,602,39902,NA,NA,NA,602,2,legacy,1024,2,48000,-16,experiment,HHSHH,2,even,NA,93750,2536,NA,NA,94938,42439,NA,NA,NA,2531,NA,94833,94938,95541,94830,Flanker Task,30,16920,30,yes,1024
100,100,562.0322581,562.0322581,black,legacy,legacy,legacy,0,congruent,uniform,1,undefined,1,s,30,30,0,0,0,30,0,0,0,30,0,0,30,30,30,30,9/28/19 13:00,1500,The main experiment item,yes,FlankerTask.osexp,C:\Users\Jeanette\Desktop\Jeanette Master's\AQM&ED,no,mono,no,18,no,white,no,no,768,legacy,30,30,C:/Users/Jeanette/Desktop/Jeanette Master's/AQM&ED/jh-subject-2.csv,legacy,Kafkaesque Koffka,3.2.8,0,s,h,NA,NA,NA,s,503,39902,NA,NA,NA,503,2,legacy,1024,2,48000,-16,experiment,SSSSS,2,even,NA,95566,2536,NA,NA,96782,42439,NA,NA,NA,2531,NA,96677,96782,97286,96674,Flanker Task,31,17423,31,yes,1024
100,100,559.40625,559.40625,black,legacy,legacy,legacy,0,incongruent,uniform,1,undefined,1,s,31,31,0,0,0,31,0,0,0,31,0,0,31,31,31,31,9/28/19 13:00,1500,The main experiment item,yes,FlankerTask.osexp,C:\Users\Jeanette\Desktop\Jeanette Master's\AQM&ED,no,mono,no,18,no,white,no,no,768,legacy,31,31,C:/Users/Jeanette/Desktop/Jeanette Master's/AQM&ED/jh-subject-2.csv,legacy,Kafkaesque Koffka,3.2.8,0,s,h,NA,NA,NA,s,478,39902,NA,NA,NA,478,2,legacy,1024,2,48000,-16,experiment,HHSHH,2,even,NA,97300,2536,NA,NA,98487,42439,NA,NA,NA,2531,NA,98382,98487,98965,98379,Flanker Task,32,17901,32,yes,1024
100,100,557.030303,557.030303,black,legacy,legacy,legacy,0,incongruent,uniform,1,undefined,1,s,32,32,0,0,0,32,0,0,0,32,0,0,32,32,32,32,9/28/19 13:00,1500,The main experiment item,yes,FlankerTask.osexp,C:\Users\Jeanette\Desktop\Jeanette Master's\AQM&ED,no,mono,no,18,no,white,no,no,768,legacy,32,32,C:/Users/Jeanette/Desktop/Jeanette Master's/AQM&ED/jh-subject-2.csv,legacy,Kafkaesque Koffka,3.2.8,0,s,h,NA,NA,NA,s,481,39902,NA,NA,NA,481,2,legacy,1024,2,48000,-16,experiment,HHSHH,2,even,NA,99042,2536,NA,NA,100228,42439,NA,NA,NA,2531,NA,100123,100228,100709,100120,Flanker Task,33,18382,33,yes,1024
100,100,554.7647059,554.7647059,black,legacy,legacy,legacy,0,incongruent,uniform,1,undefined,1,s,33,33,0,0,0,33,0,0,0,33,0,0,33,33,33,33,9/28/19 13:00,1500,The main experiment item,yes,FlankerTask.osexp,C:\Users\Jeanette\Desktop\Jeanette Master's\AQM&ED,no,mono,no,18,no,white,no,no,768,legacy,33,33,C:/Users/Jeanette/Desktop/Jeanette Master's/AQM&ED/jh-subject-2.csv,legacy,Kafkaesque Koffka,3.2.8,0,s,h,NA,NA,NA,s,480,39902,NA,NA,NA,480,2,legacy,1024,2,48000,-16,experiment,HHSHH,2,even,NA,100742,2536,NA,NA,101932,42439,NA,NA,NA,2531,NA,101827,101932,102413,101823,Flanker Task,34,18862,34,yes,1024
100,100,551.6,551.6,black,legacy,legacy,legacy,0,congruent,uniform,1,undefined,1,s,34,34,0,0,0,34,0,0,0,34,0,0,34,34,34,34,9/28/19 13:00,1500,The main experiment item,yes,FlankerTask.osexp,C:\Users\Jeanette\Desktop\Jeanette Master's\AQM&ED,no,mono,no,18,no,white,no,no,768,legacy,34,34,C:/Users/Jeanette/Desktop/Jeanette Master's/AQM&ED/jh-subject-2.csv,legacy,Kafkaesque Koffka,3.2.8,0,s,h,NA,NA,NA,s,444,39902,NA,NA,NA,444,2,legacy,1024,2,48000,-16,experiment,SSSSS,2,even,NA,102443,2536,NA,NA,103681,42439,NA,NA,NA,2531,NA,103575,103681,104125,103572,Flanker Task,35,19306,35,yes,1024
100,100,548.7222222,548.7222222,black,legacy,legacy,legacy,0,congruent,uniform,1,undefined,1,h,35,35,0,0,0,35,0,0,0,35,0,0,35,35,35,35,9/28/19 13:00,1500,The main experiment item,yes,FlankerTask.osexp,C:\Users\Jeanette\Desktop\Jeanette Master's\AQM&ED,no,mono,no,18,no,white,no,no,768,legacy,35,35,C:/Users/Jeanette/Desktop/Jeanette Master's/AQM&ED/jh-subject-2.csv,legacy,Kafkaesque Koffka,3.2.8,0,h,h,NA,NA,NA,h,448,39902,NA,NA,NA,448,2,legacy,1024,2,48000,-16,experiment,HHHHH,2,even,NA,104150,2536,NA,NA,105365,42439,NA,NA,NA,2531,NA,105260,105365,105814,105257,Flanker Task,36,19754,36,yes,1024
100,100,546.2702703,546.2702703,black,legacy,legacy,legacy,0,incongruent,uniform,1,undefined,1,h,36,36,0,0,0,36,0,0,0,36,0,0,36,36,36,36,9/28/19 13:00,1500,The main experiment item,yes,FlankerTask.osexp,C:\Users\Jeanette\Desktop\Jeanette Master's\AQM&ED,no,mono,no,18,no,white,no,no,768,legacy,36,36,C:/Users/Jeanette/Desktop/Jeanette Master's/AQM&ED/jh-subject-2.csv,legacy,Kafkaesque Koffka,3.2.8,0,h,h,NA,NA,NA,h,458,39902,NA,NA,NA,458,2,legacy,1024,2,48000,-16,experiment,SSHSS,2,even,NA,105842,2536,NA,NA,107051,42439,NA,NA,NA,2531,NA,106945,107051,107510,106942,Flanker Task,37,20212,37,yes,1024
100,100,544.3421053,544.3421053,black,legacy,legacy,legacy,0,congruent,uniform,1,undefined,1,h,37,37,0,0,0,37,0,0,0,37,0,0,37,37,37,37,9/28/19 13:00,1500,The main experiment item,yes,FlankerTask.osexp,C:\Users\Jeanette\Desktop\Jeanette Master's\AQM&ED,no,mono,no,18,no,white,no,no,768,legacy,37,37,C:/Users/Jeanette/Desktop/Jeanette Master's/AQM&ED/jh-subject-2.csv,legacy,Kafkaesque Koffka,3.2.8,0,h,h,NA,NA,NA,h,473,39902,NA,NA,NA,473,2,legacy,1024,2,48000,-16,experiment,HHHHH,2,even,NA,107546,2536,NA,NA,108756,42439,NA,NA,NA,2531,NA,108651,108756,109229,108648,Flanker Task,38,20685,38,yes,1024
100,100,545.6923077,545.6923077,black,legacy,legacy,legacy,0,incongruent,uniform,1,undefined,1,s,38,38,0,0,0,38,0,0,0,38,0,0,38,38,38,38,9/28/19 13:00,1500,The main experiment item,yes,FlankerTask.osexp,C:\Users\Jeanette\Desktop\Jeanette Master's\AQM&ED,no,mono,no,18,no,white,no,no,768,legacy,38,38,C:/Users/Jeanette/Desktop/Jeanette Master's/AQM&ED/jh-subject-2.csv,legacy,Kafkaesque Koffka,3.2.8,0,s,h,NA,NA,NA,s,597,39902,NA,NA,NA,597,2,legacy,1024,2,48000,-16,experiment,HHSHH,2,even,NA,109259,2536,NA,NA,110448,42439,NA,NA,NA,2531,NA,110343,110448,111045,110340,Flanker Task,39,21282,39,yes,1024
100,100,545.65,545.65,black,legacy,legacy,legacy,0,incongruent,uniform,1,undefined,1,s,39,39,0,0,0,39,0,0,0,39,0,0,39,39,39,39,9/28/19 13:00,1500,The main experiment item,yes,FlankerTask.osexp,C:\Users\Jeanette\Desktop\Jeanette Master's\AQM&ED,no,mono,no,18,no,white,no,no,768,legacy,39,39,C:/Users/Jeanette/Desktop/Jeanette Master's/AQM&ED/jh-subject-2.csv,legacy,Kafkaesque Koffka,3.2.8,0,s,h,NA,NA,NA,s,544,39902,NA,NA,NA,544,2,legacy,1024,2,48000,-16,experiment,HHSHH,2,even,NA,111067,2536,NA,NA,112261,42439,NA,NA,NA,2531,NA,112156,112261,112805,112153,Flanker Task,40,21826,40,yes,1024
100,100,543.6341463,543.6341463,black,legacy,legacy,legacy,0,congruent,uniform,1,undefined,1,h,40,40,0,0,0,40,0,0,0,40,0,0,40,40,40,40,9/28/19 13:00,1500,The main experiment item,yes,FlankerTask.osexp,C:\Users\Jeanette\Desktop\Jeanette Master's\AQM&ED,no,mono,no,18,no,white,no,no,768,legacy,40,40,C:/Users/Jeanette/Desktop/Jeanette Master's/AQM&ED/jh-subject-2.csv,legacy,Kafkaesque Koffka,3.2.8,0,h,h,NA,NA,NA,h,463,39902,NA,NA,NA,463,2,legacy,1024,2,48000,-16,experiment,HHHHH,2,even,NA,112827,2536,NA,NA,114021,42439,NA,NA,NA,2531,NA,113916,114021,114485,113913,Flanker Task,41,22289,41,yes,1024
100,100,540.6904762,540.6904762,black,legacy,legacy,legacy,0,congruent,uniform,1,undefined,1,s,41,41,0,0,0,41,0,0,0,41,0,0,41,41,41,41,9/28/19 13:00,1500,The main experiment item,yes,FlankerTask.osexp,C:\Users\Jeanette\Desktop\Jeanette Master's\AQM&ED,no,mono,no,18,no,white,no,no,768,legacy,41,41,C:/Users/Jeanette/Desktop/Jeanette Master's/AQM&ED/jh-subject-2.csv,legacy,Kafkaesque Koffka,3.2.8,0,s,h,NA,NA,NA,s,420,39902,NA,NA,NA,420,2,legacy,1024,2,48000,-16,experiment,SSSSS,2,even,NA,114509,2536,NA,NA,115721,42439,NA,NA,NA,2531,NA,115616,115721,116141,115613,Flanker Task,42,22709,42,yes,1024
100,100,538.6046512,538.6046512,black,legacy,legacy,legacy,0,incongruent,uniform,1,undefined,1,s,42,42,0,0,0,42,0,0,0,42,0,0,42,42,42,42,9/28/19 13:00,1500,The main experiment item,yes,FlankerTask.osexp,C:\Users\Jeanette\Desktop\Jeanette Master's\AQM&ED,no,mono,no,18,no,white,no,no,768,legacy,42,42,C:/Users/Jeanette/Desktop/Jeanette Master's/AQM&ED/jh-subject-2.csv,legacy,Kafkaesque Koffka,3.2.8,0,s,h,NA,NA,NA,s,451,39902,NA,NA,NA,451,2,legacy,1024,2,48000,-16,experiment,HHSHH,2,even,NA,116169,2536,NA,NA,117345,42439,NA,NA,NA,2531,NA,117243,117345,117797,117240,Flanker Task,43,23160,43,yes,1024
100,100,537.6136364,537.6136364,black,legacy,legacy,legacy,0,congruent,uniform,1,undefined,1,s,43,43,0,0,0,43,0,0,0,43,0,0,43,43,43,43,9/28/19 13:00,1500,The main experiment item,yes,FlankerTask.osexp,C:\Users\Jeanette\Desktop\Jeanette Master's\AQM&ED,no,mono,no,18,no,white,no,no,768,legacy,43,43,C:/Users/Jeanette/Desktop/Jeanette Master's/AQM&ED/jh-subject-2.csv,legacy,Kafkaesque Koffka,3.2.8,0,s,h,NA,NA,NA,s,495,39902,NA,NA,NA,495,2,legacy,1024,2,48000,-16,experiment,SSSSS,2,even,NA,117861,2536,NA,NA,119077,42439,NA,NA,NA,2531,NA,118972,119077,119573,118968,Flanker Task,44,23655,44,yes,1024
100,100,536.5777778,536.5777778,black,legacy,legacy,legacy,0,congruent,uniform,1,undefined,1,s,44,44,0,0,0,44,0,0,0,44,0,0,44,44,44,44,9/28/19 13:00,1500,The main experiment item,yes,FlankerTask.osexp,C:\Users\Jeanette\Desktop\Jeanette Master's\AQM&ED,no,mono,no,18,no,white,no,no,768,legacy,44,44,C:/Users/Jeanette/Desktop/Jeanette Master's/AQM&ED/jh-subject-2.csv,legacy,Kafkaesque Koffka,3.2.8,0,s,h,NA,NA,NA,s,491,39902,NA,NA,NA,491,2,legacy,1024,2,48000,-16,experiment,SSSSS,2,even,NA,119602,2536,NA,NA,120818,42439,NA,NA,NA,2531,NA,120712,120818,121310,120709,Flanker Task,45,24146,45,yes,1024
100,100,534.2173913,534.2173913,black,legacy,legacy,legacy,0,congruent,uniform,1,undefined,1,h,45,45,0,0,0,45,0,0,0,45,0,0,45,45,45,45,9/28/19 13:00,1500,The main experiment item,yes,FlankerTask.osexp,C:\Users\Jeanette\Desktop\Jeanette Master's\AQM&ED,no,mono,no,18,no,white,no,no,768,legacy,45,45,C:/Users/Jeanette/Desktop/Jeanette Master's/AQM&ED/jh-subject-2.csv,legacy,Kafkaesque Koffka,3.2.8,0,h,h,NA,NA,NA,h,428,39902,NA,NA,NA,428,2,legacy,1024,2,48000,-16,experiment,HHHHH,2,even,NA,121336,2536,NA,NA,122536,42439,NA,NA,NA,2531,NA,122431,122536,122965,122428,Flanker Task,46,24574,46,yes,1024
100,100,531.7234043,531.7234043,black,legacy,legacy,legacy,0,incongruent,uniform,1,undefined,1,h,46,46,0,0,0,46,0,0,0,46,0,0,46,46,46,46,9/28/19 13:00,1500,The main experiment item,yes,FlankerTask.osexp,C:\Users\Jeanette\Desktop\Jeanette Master's\AQM&ED,no,mono,no,18,no,white,no,no,768,legacy,46,46,C:/Users/Jeanette/Desktop/Jeanette Master's/AQM&ED/jh-subject-2.csv,legacy,Kafkaesque Koffka,3.2.8,0,h,h,NA,NA,NA,h,417,39902,NA,NA,NA,417,2,legacy,1024,2,48000,-16,experiment,SSHSS,2,even,NA,122986,2536,NA,NA,124187,42439,NA,NA,NA,2531,NA,124082,124187,124605,124079,Flanker Task,47,24991,47,yes,1024
97.91666667,97.91666667,529.0416667,529.0416667,black,legacy,legacy,legacy,0,incongruent,uniform,0,undefined,0,h,47,47,0,0,0,47,0,0,0,47,0,0,47,47,47,47,9/28/19 13:00,1500,The main experiment item,yes,FlankerTask.osexp,C:\Users\Jeanette\Desktop\Jeanette Master's\AQM&ED,no,mono,no,18,no,white,no,no,768,legacy,47,47,C:/Users/Jeanette/Desktop/Jeanette Master's/AQM&ED/jh-subject-2.csv,legacy,Kafkaesque Koffka,3.2.8,0,s,h,NA,NA,NA,s,403,39902,NA,NA,NA,403,2,legacy,1024,2,48000,-16,experiment,SSHSS,2,even,NA,124637,2536,NA,NA,125834,42439,NA,NA,NA,2531,NA,125732,125834,126237,125729,Flanker Task,47,25394,48,yes,1024
97.95918367,97.95918367,528.5306122,528.5306122,black,legacy,legacy,legacy,0,congruent,uniform,1,undefined,1,s,48,48,0,0,0,48,0,0,0,48,0,0,48,48,48,48,9/28/19 13:00,1500,The main experiment item,yes,FlankerTask.osexp,C:\Users\Jeanette\Desktop\Jeanette Master's\AQM&ED,no,mono,no,18,no,white,no,no,768,legacy,48,48,C:/Users/Jeanette/Desktop/Jeanette Master's/AQM&ED/jh-subject-2.csv,legacy,Kafkaesque Koffka,3.2.8,0,s,h,NA,NA,NA,s,504,39902,NA,NA,NA,504,2,legacy,1024,2,48000,-16,experiment,SSSSS,2,even,NA,126766,2536,NA,NA,127972,42439,NA,NA,126261,2531,NA,127866,127972,128477,127863,Flanker Task,48,25898,49,yes,1024
98,98,528.32,528.32,black,legacy,legacy,legacy,0,incongruent,uniform,1,undefined,1,h,49,49,0,0,0,49,0,0,0,49,0,0,49,49,49,49,9/28/19 13:00,1500,The main experiment item,yes,FlankerTask.osexp,C:\Users\Jeanette\Desktop\Jeanette Master's\AQM&ED,no,mono,no,18,no,white,no,no,768,legacy,49,49,C:/Users/Jeanette/Desktop/Jeanette Master's/AQM&ED/jh-subject-2.csv,legacy,Kafkaesque Koffka,3.2.8,0,h,h,NA,NA,NA,h,518,39902,NA,NA,NA,518,2,legacy,1024,2,48000,-16,experiment,SSHSS,2,even,NA,128495,2536,NA,NA,129703,42439,NA,NA,126261,2531,NA,129598,129703,130222,129595,Flanker Task,49,26416,50,yes,1024
98.03921569,98.03921569,527.7254902,527.7254902,black,legacy,legacy,legacy,0,congruent,uniform,1,undefined,1,s,50,50,0,0,0,50,0,0,0,50,0,0,50,50,50,50,9/28/19 13:00,1500,The main experiment item,yes,FlankerTask.osexp,C:\Users\Jeanette\Desktop\Jeanette Master's\AQM&ED,no,mono,no,18,no,white,no,no,768,legacy,50,50,C:/Users/Jeanette/Desktop/Jeanette Master's/AQM&ED/jh-subject-2.csv,legacy,Kafkaesque Koffka,3.2.8,0,s,h,NA,NA,NA,s,498,39902,NA,NA,NA,498,2,legacy,1024,2,48000,-16,experiment,SSSSS,2,even,NA,130245,2536,NA,NA,131443,42439,NA,NA,126261,2531,NA,131338,131443,131942,131334,Flanker Task,50,26914,51,yes,1024
98.07692308,98.07692308,527.3846154,527.3846154,black,legacy,legacy,legacy,0,congruent,uniform,1,undefined,1,s,51,51,0,0,0,51,0,0,0,51,0,0,51,51,51,51,9/28/19 13:00,1500,The main experiment item,yes,FlankerTask.osexp,C:\Users\Jeanette\Desktop\Jeanette Master's\AQM&ED,no,mono,no,18,no,white,no,no,768,legacy,51,51,C:/Users/Jeanette/Desktop/Jeanette Master's/AQM&ED/jh-subject-2.csv,legacy,Kafkaesque Koffka,3.2.8,0,s,h,NA,NA,NA,s,510,39902,NA,NA,NA,510,2,legacy,1024,2,48000,-16,experiment,SSSSS,2,even,NA,131962,2536,NA,NA,133173,42439,NA,NA,126261,2531,NA,133071,133174,133685,133068,Flanker Task,51,27424,52,yes,1024
98.11320755,98.11320755,527.0566038,527.0566038,black,legacy,legacy,legacy,0,congruent,uniform,1,undefined,1,s,52,52,0,0,0,52,0,0,0,52,0,0,52,52,52,52,9/28/19 13:00,1500,The main experiment item,yes,FlankerTask.osexp,C:\Users\Jeanette\Desktop\Jeanette Master's\AQM&ED,no,mono,no,18,no,white,no,no,768,legacy,52,52,C:/Users/Jeanette/Desktop/Jeanette Master's/AQM&ED/jh-subject-2.csv,legacy,Kafkaesque Koffka,3.2.8,0,s,h,NA,NA,NA,s,510,39902,NA,NA,NA,510,2,legacy,1024,2,48000,-16,experiment,SSSSS,2,even,NA,133704,2536,NA,NA,134895,42439,NA,NA,126261,2531,NA,134792,134895,135405,134789,Flanker Task,52,27934,53,yes,1024
98.14814815,98.14814815,526.8148148,526.8148148,black,legacy,legacy,legacy,0,incongruent,uniform,1,undefined,1,h,53,53,0,0,0,53,0,0,0,53,0,0,53,53,53,53,9/28/19 13:00,1500,The main experiment item,yes,FlankerTask.osexp,C:\Users\Jeanette\Desktop\Jeanette Master's\AQM&ED,no,mono,no,18,no,white,no,no,768,legacy,53,53,C:/Users/Jeanette/Desktop/Jeanette Master's/AQM&ED/jh-subject-2.csv,legacy,Kafkaesque Koffka,3.2.8,0,h,h,NA,NA,NA,h,514,39902,NA,NA,NA,514,2,legacy,1024,2,48000,-16,experiment,SSHSS,2,even,NA,135429,2536,NA,NA,136618,42439,NA,NA,126261,2531,NA,136513,136618,137133,136510,Flanker Task,53,28448,54,yes,1024
98.18181818,98.18181818,527.5636364,527.5636364,black,legacy,legacy,legacy,0,incongruent,uniform,1,undefined,1,h,54,54,0,0,0,54,0,0,0,54,0,0,54,54,54,54,9/28/19 13:00,1500,The main experiment item,yes,FlankerTask.osexp,C:\Users\Jeanette\Desktop\Jeanette Master's\AQM&ED,no,mono,no,18,no,white,no,no,768,legacy,54,54,C:/Users/Jeanette/Desktop/Jeanette Master's/AQM&ED/jh-subject-2.csv,legacy,Kafkaesque Koffka,3.2.8,0,h,h,NA,NA,NA,h,568,39902,NA,NA,NA,568,2,legacy,1024,2,48000,-16,experiment,SSHSS,2,even,NA,137162,2536,NA,NA,138356,42439,NA,NA,126261,2531,NA,138251,138356,138925,138248,Flanker Task,54,29016,55,yes,1024
98.21428571,98.21428571,527.2142857,527.2142857,black,legacy,legacy,legacy,0,incongruent,uniform,1,undefined,1,s,55,55,0,0,0,55,0,0,0,55,0,0,55,55,55,55,9/28/19 13:00,1500,The main experiment item,yes,FlankerTask.osexp,C:\Users\Jeanette\Desktop\Jeanette Master's\AQM&ED,no,mono,no,18,no,white,no,no,768,legacy,55,55,C:/Users/Jeanette/Desktop/Jeanette Master's/AQM&ED/jh-subject-2.csv,legacy,Kafkaesque Koffka,3.2.8,0,s,h,NA,NA,NA,s,508,39902,NA,NA,NA,508,2,legacy,1024,2,48000,-16,experiment,HHSHH,2,even,NA,138962,2536,NA,NA,140168,42439,NA,NA,126261,2531,NA,140063,140168,140677,140060,Flanker Task,55,29524,56,yes,1024
98.24561404,98.24561404,528.0350877,528.0350877,black,legacy,legacy,legacy,0,congruent,uniform,1,undefined,1,h,56,56,0,0,0,56,0,0,0,56,0,0,56,56,56,56,9/28/19 13:00,1500,The main experiment item,yes,FlankerTask.osexp,C:\Users\Jeanette\Desktop\Jeanette Master's\AQM&ED,no,mono,no,18,no,white,no,no,768,legacy,56,56,C:/Users/Jeanette/Desktop/Jeanette Master's/AQM&ED/jh-subject-2.csv,legacy,Kafkaesque Koffka,3.2.8,0,h,h,NA,NA,NA,h,574,39902,NA,NA,NA,574,2,legacy,1024,2,48000,-16,experiment,HHHHH,2,even,NA,140698,2536,NA,NA,141895,42439,NA,NA,126261,2531,NA,141789,141895,142470,141786,Flanker Task,56,30098,57,yes,1024
98.27586207,98.27586207,531.3275862,531.3275862,black,legacy,legacy,legacy,0,incongruent,uniform,1,undefined,1,s,57,57,0,0,0,57,0,0,0,57,0,0,57,57,57,57,9/28/19 13:00,1500,The main experiment item,yes,FlankerTask.osexp,C:\Users\Jeanette\Desktop\Jeanette Master's\AQM&ED,no,mono,no,18,no,white,no,no,768,legacy,57,57,C:/Users/Jeanette/Desktop/Jeanette Master's/AQM&ED/jh-subject-2.csv,legacy,Kafkaesque Koffka,3.2.8,0,s,h,NA,NA,NA,s,719,39902,NA,NA,NA,719,2,legacy,1024,2,48000,-16,experiment,HHSHH,2,even,NA,142497,2536,NA,NA,143708,42439,NA,NA,126261,2531,NA,143603,143709,144429,143599,Flanker Task,57,30817,58,yes,1024
98.30508475,98.30508475,530.8135593,530.8135593,black,legacy,legacy,legacy,0,incongruent,uniform,1,undefined,1,s,58,58,0,0,0,58,0,0,0,58,0,0,58,58,58,58,9/28/19 13:00,1500,The main experiment item,yes,FlankerTask.osexp,C:\Users\Jeanette\Desktop\Jeanette Master's\AQM&ED,no,mono,no,18,no,white,no,no,768,legacy,58,58,C:/Users/Jeanette/Desktop/Jeanette Master's/AQM&ED/jh-subject-2.csv,legacy,Kafkaesque Koffka,3.2.8,0,s,h,NA,NA,NA,s,501,39902,NA,NA,NA,501,2,legacy,1024,2,48000,-16,experiment,HHSHH,2,even,NA,144476,2536,NA,NA,145671,42439,NA,NA,126261,2531,NA,145566,145671,146173,145563,Flanker Task,58,31318,59,yes,1024
98.33333333,98.33333333,530.3166667,530.3166667,black,legacy,legacy,legacy,0,congruent,uniform,1,undefined,1,h,59,59,0,0,0,59,0,0,0,59,0,0,59,59,59,59,9/28/19 13:00,1500,The main experiment item,yes,FlankerTask.osexp,C:\Users\Jeanette\Desktop\Jeanette Master's\AQM&ED,no,mono,no,18,no,white,no,no,768,legacy,59,59,C:/Users/Jeanette/Desktop/Jeanette Master's/AQM&ED/jh-subject-2.csv,legacy,Kafkaesque Koffka,3.2.8,0,h,h,NA,NA,NA,h,501,39902,NA,NA,NA,501,2,legacy,1024,2,48000,-16,experiment,HHHHH,2,even,NA,146205,2536,NA,NA,147407,42439,NA,NA,126261,2531,NA,147302,147407,147909,147299,Flanker Task,59,31819,60,yes,1024
98.36065574,98.36065574,529.3278689,529.3278689,black,legacy,legacy,legacy,0,incongruent,uniform,1,undefined,1,s,60,60,0,0,0,60,0,0,0,60,0,0,60,60,60,60,9/28/19 13:00,1500,The main experiment item,yes,FlankerTask.osexp,C:\Users\Jeanette\Desktop\Jeanette Master's\AQM&ED,no,mono,no,18,no,white,no,no,768,legacy,60,60,C:/Users/Jeanette/Desktop/Jeanette Master's/AQM&ED/jh-subject-2.csv,legacy,Kafkaesque Koffka,3.2.8,0,s,h,NA,NA,NA,s,470,39902,NA,NA,NA,470,2,legacy,1024,2,48000,-16,experiment,HHSHH,2,even,NA,147933,2536,NA,NA,149165,42439,NA,NA,126261,2531,NA,149060,149166,149637,149057,Flanker Task,60,32289,61,yes,1024
98.38709677,98.38709677,528.9193548,528.9193548,black,legacy,legacy,legacy,0,incongruent,uniform,1,undefined,1,s,61,61,0,0,0,61,0,0,0,61,0,0,61,61,61,61,9/28/19 13:00,1500,The main experiment item,yes,FlankerTask.osexp,C:\Users\Jeanette\Desktop\Jeanette Master's\AQM&ED,no,mono,no,18,no,white,no,no,768,legacy,61,61,C:/Users/Jeanette/Desktop/Jeanette Master's/AQM&ED/jh-subject-2.csv,legacy,Kafkaesque Koffka,3.2.8,0,s,h,NA,NA,NA,s,504,39902,NA,NA,NA,504,2,legacy,1024,2,48000,-16,experiment,HHSHH,2,even,NA,149666,2536,NA,NA,150876,42439,NA,NA,126261,2531,NA,150771,150876,151381,150768,Flanker Task,61,32793,62,yes,1024
98.41269841,98.41269841,529.5396825,529.5396825,black,legacy,legacy,legacy,0,congruent,uniform,1,undefined,1,s,62,62,0,0,0,62,0,0,0,62,0,0,62,62,62,62,9/28/19 13:00,1500,The main experiment item,yes,FlankerTask.osexp,C:\Users\Jeanette\Desktop\Jeanette Master's\AQM&ED,no,mono,no,18,no,white,no,no,768,legacy,62,62,C:/Users/Jeanette/Desktop/Jeanette Master's/AQM&ED/jh-subject-2.csv,legacy,Kafkaesque Koffka,3.2.8,0,s,h,NA,NA,NA,s,568,39902,NA,NA,NA,568,2,legacy,1024,2,48000,-16,experiment,SSSSS,2,even,NA,151399,2536,NA,NA,152596,42439,NA,NA,126261,2531,NA,152491,152596,153165,152488,Flanker Task,62,33361,63,yes,1024
98.4375,98.4375,528.5,528.5,black,legacy,legacy,legacy,0,incongruent,uniform,1,undefined,1,h,63,63,0,0,0,63,0,0,0,63,0,0,63,63,63,63,9/28/19 13:00,1500,The main experiment item,yes,FlankerTask.osexp,C:\Users\Jeanette\Desktop\Jeanette Master's\AQM&ED,no,mono,no,18,no,white,no,no,768,legacy,63,63,C:/Users/Jeanette/Desktop/Jeanette Master's/AQM&ED/jh-subject-2.csv,legacy,Kafkaesque Koffka,3.2.8,0,h,h,NA,NA,NA,h,463,39902,NA,NA,NA,463,2,legacy,1024,2,48000,-16,experiment,SSHSS,2,even,NA,153189,2536,NA,NA,154429,42439,NA,NA,126261,2531,NA,154320,154430,154894,154317,Flanker Task,63,33824,64,yes,1024
98.46153846,98.46153846,527.7076923,527.7076923,black,legacy,legacy,legacy,0,incongruent,uniform,1,undefined,1,h,64,64,0,0,0,64,0,0,0,64,0,0,64,64,64,64,9/28/19 13:00,1500,The main experiment item,yes,FlankerTask.osexp,C:\Users\Jeanette\Desktop\Jeanette Master's\AQM&ED,no,mono,no,18,no,white,no,no,768,legacy,64,64,C:/Users/Jeanette/Desktop/Jeanette Master's/AQM&ED/jh-subject-2.csv,legacy,Kafkaesque Koffka,3.2.8,0,h,h,NA,NA,NA,h,477,39902,NA,NA,NA,477,2,legacy,1024,2,48000,-16,experiment,SSHSS,2,even,NA,154917,2536,NA,NA,156128,42439,NA,NA,126261,2531,NA,156023,156128,156606,156020,Flanker Task,64,34301,65,yes,1024
98.48484848,98.48484848,527.1666667,527.1666667,black,legacy,legacy,legacy,0,incongruent,uniform,1,undefined,1,s,65,65,0,0,0,65,0,0,0,65,0,0,65,65,65,65,9/28/19 13:00,1500,The main experiment item,yes,FlankerTask.osexp,C:\Users\Jeanette\Desktop\Jeanette Master's\AQM&ED,no,mono,no,18,no,white,no,no,768,legacy,65,65,C:/Users/Jeanette/Desktop/Jeanette Master's/AQM&ED/jh-subject-2.csv,legacy,Kafkaesque Koffka,3.2.8,0,s,h,NA,NA,NA,s,492,39902,NA,NA,NA,492,2,legacy,1024,2,48000,-16,experiment,HHSHH,2,even,NA,156625,2536,NA,NA,157840,42439,NA,NA,126261,2531,NA,157735,157840,158333,157732,Flanker Task,65,34793,66,yes,1024
98.50746269,98.50746269,526.9402985,526.9402985,black,legacy,legacy,legacy,0,congruent,uniform,1,undefined,1,s,66,66,0,0,0,66,0,0,0,66,0,0,66,66,66,66,9/28/19 13:00,1500,The main experiment item,yes,FlankerTask.osexp,C:\Users\Jeanette\Desktop\Jeanette Master's\AQM&ED,no,mono,no,18,no,white,no,no,768,legacy,66,66,C:/Users/Jeanette/Desktop/Jeanette Master's/AQM&ED/jh-subject-2.csv,legacy,Kafkaesque Koffka,3.2.8,0,s,h,NA,NA,NA,s,512,39902,NA,NA,NA,512,2,legacy,1024,2,48000,-16,experiment,SSSSS,2,even,NA,158358,2536,NA,NA,159579,42439,NA,NA,126261,2531,NA,159474,159580,160093,159471,Flanker Task,66,35305,67,yes,1024
98.52941176,98.52941176,526.4117647,526.4117647,black,legacy,legacy,legacy,0,congruent,uniform,1,undefined,1,s,67,67,0,0,0,67,0,0,0,67,0,0,67,67,67,67,9/28/19 13:00,1500,The main experiment item,yes,FlankerTask.osexp,C:\Users\Jeanette\Desktop\Jeanette Master's\AQM&ED,no,mono,no,18,no,white,no,no,768,legacy,67,67,C:/Users/Jeanette/Desktop/Jeanette Master's/AQM&ED/jh-subject-2.csv,legacy,Kafkaesque Koffka,3.2.8,0,s,h,NA,NA,NA,s,491,39902,NA,NA,NA,491,2,legacy,1024,2,48000,-16,experiment,SSSSS,2,even,NA,160136,2536,NA,NA,161329,42439,NA,NA,126261,2531,NA,161224,161329,161821,161221,Flanker Task,67,35796,68,yes,1024
98.55072464,98.55072464,526.5942029,526.5942029,black,legacy,legacy,legacy,0,congruent,uniform,1,undefined,1,s,68,68,0,0,0,68,0,0,0,68,0,0,68,68,68,68,9/28/19 13:00,1500,The main experiment item,yes,FlankerTask.osexp,C:\Users\Jeanette\Desktop\Jeanette Master's\AQM&ED,no,mono,no,18,no,white,no,no,768,legacy,68,68,C:/Users/Jeanette/Desktop/Jeanette Master's/AQM&ED/jh-subject-2.csv,legacy,Kafkaesque Koffka,3.2.8,0,s,h,NA,NA,NA,s,539,39902,NA,NA,NA,539,2,legacy,1024,2,48000,-16,experiment,SSSSS,2,even,NA,161842,2536,NA,NA,163034,42439,NA,NA,126261,2531,NA,162929,163034,163574,162926,Flanker Task,68,36335,69,yes,1024
98.57142857,98.57142857,526.1,526.1,black,legacy,legacy,legacy,0,congruent,uniform,1,undefined,1,h,69,69,0,0,0,69,0,0,0,69,0,0,69,69,69,69,9/28/19 13:00,1500,The main experiment item,yes,FlankerTask.osexp,C:\Users\Jeanette\Desktop\Jeanette Master's\AQM&ED,no,mono,no,18,no,white,no,no,768,legacy,69,69,C:/Users/Jeanette/Desktop/Jeanette Master's/AQM&ED/jh-subject-2.csv,legacy,Kafkaesque Koffka,3.2.8,0,h,h,NA,NA,NA,h,492,39902,NA,NA,NA,492,2,legacy,1024,2,48000,-16,experiment,HHHHH,2,even,NA,163600,2536,NA,NA,164808,42439,NA,NA,126261,2531,NA,164703,164809,165302,164700,Flanker Task,69,36827,70,yes,1024
97.18309859,97.18309859,525.9859155,525.9859155,black,legacy,legacy,legacy,0,incongruent,uniform,0,undefined,0,h,70,70,0,0,0,70,0,0,0,70,0,0,70,70,70,70,9/28/19 13:00,1500,The main experiment item,yes,FlankerTask.osexp,C:\Users\Jeanette\Desktop\Jeanette Master's\AQM&ED,no,mono,no,18,no,white,no,no,768,legacy,70,70,C:/Users/Jeanette/Desktop/Jeanette Master's/AQM&ED/jh-subject-2.csv,legacy,Kafkaesque Koffka,3.2.8,0,s,h,NA,NA,NA,s,518,39902,NA,NA,NA,518,2,legacy,1024,2,48000,-16,experiment,SSHSS,2,even,NA,165318,2536,NA,NA,166534,42439,NA,NA,126261,2531,NA,166429,166534,167056,166426,Flanker Task,69,37345,71,yes,1024
97.22222222,97.22222222,526.3055556,526.3055556,black,legacy,legacy,legacy,0,congruent,uniform,1,undefined,1,h,71,71,0,0,0,71,0,0,0,71,0,0,71,71,71,71,9/28/19 13:00,1500,The main experiment item,yes,FlankerTask.osexp,C:\Users\Jeanette\Desktop\Jeanette Master's\AQM&ED,no,mono,no,18,no,white,no,no,768,legacy,71,71,C:/Users/Jeanette/Desktop/Jeanette Master's/AQM&ED/jh-subject-2.csv,legacy,Kafkaesque Koffka,3.2.8,0,h,h,NA,NA,NA,h,549,39902,NA,NA,NA,549,2,legacy,1024,2,48000,-16,experiment,HHHHH,2,even,NA,167590,2536,NA,NA,168792,42439,NA,NA,167084,2531,NA,168687,168792,169342,168684,Flanker Task,70,37894,72,yes,1024
97.26027397,97.26027397,526.3972603,526.3972603,black,legacy,legacy,legacy,0,incongruent,uniform,1,undefined,1,s,72,72,0,0,0,72,0,0,0,72,0,0,72,72,72,72,9/28/19 13:00,1500,The main experiment item,yes,FlankerTask.osexp,C:\Users\Jeanette\Desktop\Jeanette Master's\AQM&ED,no,mono,no,18,no,white,no,no,768,legacy,72,72,C:/Users/Jeanette/Desktop/Jeanette Master's/AQM&ED/jh-subject-2.csv,legacy,Kafkaesque Koffka,3.2.8,0,s,h,NA,NA,NA,s,533,39902,NA,NA,NA,533,2,legacy,1024,2,48000,-16,experiment,HHSHH,2,even,NA,169367,2536,NA,NA,170568,42439,NA,NA,167084,2531,NA,170463,170568,171102,170460,Flanker Task,71,38427,73,yes,1024
97.2972973,97.2972973,526.027027,526.027027,black,legacy,legacy,legacy,0,congruent,uniform,1,undefined,1,s,73,73,0,0,0,73,0,0,0,73,0,0,73,73,73,73,9/28/19 13:00,1500,The main experiment item,yes,FlankerTask.osexp,C:\Users\Jeanette\Desktop\Jeanette Master's\AQM&ED,no,mono,no,18,no,white,no,no,768,legacy,73,73,C:/Users/Jeanette/Desktop/Jeanette Master's/AQM&ED/jh-subject-2.csv,legacy,Kafkaesque Koffka,3.2.8,0,s,h,NA,NA,NA,s,499,39902,NA,NA,NA,499,2,legacy,1024,2,48000,-16,experiment,SSSSS,2,even,NA,171119,2536,NA,NA,172329,42439,NA,NA,167084,2531,NA,172226,172330,172830,172223,Flanker Task,72,38926,74,yes,1024
97.33333333,97.33333333,527.1333333,527.1333333,black,legacy,legacy,legacy,0,congruent,uniform,1,undefined,1,s,74,74,0,0,0,74,0,0,0,74,0,0,74,74,74,74,9/28/19 13:00,1500,The main experiment item,yes,FlankerTask.osexp,C:\Users\Jeanette\Desktop\Jeanette Master's\AQM&ED,no,mono,no,18,no,white,no,no,768,legacy,74,74,C:/Users/Jeanette/Desktop/Jeanette Master's/AQM&ED/jh-subject-2.csv,legacy,Kafkaesque Koffka,3.2.8,0,s,h,NA,NA,NA,s,609,39902,NA,NA,NA,609,2,legacy,1024,2,48000,-16,experiment,SSSSS,2,even,NA,172852,2536,NA,NA,174068,42439,NA,NA,167084,2531,NA,173963,174068,174678,173960,Flanker Task,73,39535,75,yes,1024
97.36842105,97.36842105,527,527,black,legacy,legacy,legacy,0,congruent,uniform,1,undefined,1,h,75,75,0,0,0,75,0,0,0,75,0,0,75,75,75,75,9/28/19 13:00,1500,The main experiment item,yes,FlankerTask.osexp,C:\Users\Jeanette\Desktop\Jeanette Master's\AQM&ED,no,mono,no,18,no,white,no,no,768,legacy,75,75,C:/Users/Jeanette/Desktop/Jeanette Master's/AQM&ED/jh-subject-2.csv,legacy,Kafkaesque Koffka,3.2.8,0,h,h,NA,NA,NA,h,517,39902,NA,NA,NA,517,2,legacy,1024,2,48000,-16,experiment,HHHHH,2,even,NA,174700,2536,NA,NA,175911,42439,NA,NA,167084,2531,NA,175806,175911,176429,175803,Flanker Task,74,40052,76,yes,1024
97.4025974,97.4025974,526.8571429,526.8571429,black,legacy,legacy,legacy,0,congruent,uniform,1,undefined,1,h,76,76,0,0,0,76,0,0,0,76,0,0,76,76,76,76,9/28/19 13:00,1500,The main experiment item,yes,FlankerTask.osexp,C:\Users\Jeanette\Desktop\Jeanette Master's\AQM&ED,no,mono,no,18,no,white,no,no,768,legacy,76,76,C:/Users/Jeanette/Desktop/Jeanette Master's/AQM&ED/jh-subject-2.csv,legacy,Kafkaesque Koffka,3.2.8,0,h,h,NA,NA,NA,h,516,39902,NA,NA,NA,516,2,legacy,1024,2,48000,-16,experiment,HHHHH,2,even,NA,176452,2536,NA,NA,177648,42439,NA,NA,167084,2531,NA,177542,177648,178165,177539,Flanker Task,75,40568,77,yes,1024
97.43589744,97.43589744,526.8589744,526.8589744,black,legacy,legacy,legacy,0,incongruent,uniform,1,undefined,1,h,77,77,0,0,0,77,0,0,0,77,0,0,77,77,77,77,9/28/19 13:00,1500,The main experiment item,yes,FlankerTask.osexp,C:\Users\Jeanette\Desktop\Jeanette Master's\AQM&ED,no,mono,no,18,no,white,no,no,768,legacy,77,77,C:/Users/Jeanette/Desktop/Jeanette Master's/AQM&ED/jh-subject-2.csv,legacy,Kafkaesque Koffka,3.2.8,0,h,h,NA,NA,NA,h,527,39902,NA,NA,NA,527,2,legacy,1024,2,48000,-16,experiment,SSHSS,2,even,NA,178200,2536,NA,NA,179412,42439,NA,NA,167084,2531,NA,179307,179413,179941,179304,Flanker Task,76,41095,78,yes,1024
97.46835443,97.46835443,526.8481013,526.8481013,black,legacy,legacy,legacy,0,incongruent,uniform,1,undefined,1,s,78,78,0,0,0,78,0,0,0,78,0,0,78,78,78,78,9/28/19 13:00,1500,The main experiment item,yes,FlankerTask.osexp,C:\Users\Jeanette\Desktop\Jeanette Master's\AQM&ED,no,mono,no,18,no,white,no,no,768,legacy,78,78,C:/Users/Jeanette/Desktop/Jeanette Master's/AQM&ED/jh-subject-2.csv,legacy,Kafkaesque Koffka,3.2.8,0,s,h,NA,NA,NA,s,526,39902,NA,NA,NA,526,2,legacy,1024,2,48000,-16,experiment,HHSHH,2,even,NA,179960,2536,NA,NA,181174,42439,NA,NA,167084,2531,NA,181069,181174,181701,181066,Flanker Task,77,41621,79,yes,1024
97.5,97.5,528.625,528.625,black,legacy,legacy,legacy,0,congruent,uniform,1,undefined,1,s,79,79,0,0,0,79,0,0,0,79,0,0,79,79,79,79,9/28/19 13:00,1500,The main experiment item,yes,FlankerTask.osexp,C:\Users\Jeanette\Desktop\Jeanette Master's\AQM&ED,no,mono,no,18,no,white,no,no,768,legacy,79,79,C:/Users/Jeanette/Desktop/Jeanette Master's/AQM&ED/jh-subject-2.csv,legacy,Kafkaesque Koffka,3.2.8,0,s,h,NA,NA,NA,s,669,39902,NA,NA,NA,669,2,legacy,1024,2,48000,-16,experiment,SSSSS,2,even,NA,181719,2536,NA,NA,182944,42439,NA,NA,167084,2531,NA,182839,182944,183614,182836,Flanker Task,78,42290,80,yes,1024
97.5308642,97.5308642,529.2716049,529.2716049,black,legacy,legacy,legacy,0,Incongruent,uniform,1,undefined,1,s,80,80,0,0,0,80,0,0,0,80,0,0,80,80,80,80,9/28/19 13:00,600,The main experiment item,yes,FlankerTask.osexp,C:\Users\Jeanette\Desktop\Jeanette Master's\AQM&ED,no,mono,no,18,no,white,no,no,768,legacy,0,79,C:/Users/Jeanette/Desktop/Jeanette Master's/AQM&ED/jh-subject-2.csv,legacy,Kafkaesque Koffka,3.2.8,0,s,h,h,NA,NA,s,581,39902,39203,NA,NA,581,2,legacy,1024,2,48000,-16,experiment,HHSHH,2,even,NA,183635,2536,184673,NA,224054,42439,223877,NA,167084,2531,NA,223949,224055,224640,223947,Flanker Task,79,42871,81,yes,1024
97.56097561,97.56097561,529.6097561,529.6097561,black,legacy,legacy,legacy,0,Incongruent,uniform,1,undefined,1,s,81,81,0,0,0,81,0,0,0,81,0,0,81,81,81,81,9/28/19 13:00,600,The main experiment item,yes,FlankerTask.osexp,C:\Users\Jeanette\Desktop\Jeanette Master's\AQM&ED,no,mono,no,18,no,white,no,no,768,legacy,1,79,C:/Users/Jeanette/Desktop/Jeanette Master's/AQM&ED/jh-subject-2.csv,legacy,Kafkaesque Koffka,3.2.8,0,s,h,h,NA,NA,s,557,39902,39203,NA,NA,557,2,legacy,1024,2,48000,-16,experiment,HHSHH,2,even,NA,224665,2536,184673,NA,225879,42439,223877,NA,167084,2531,NA,225774,225879,226437,225770,Flanker Task,80,43428,82,yes,1024
97.59036145,97.59036145,528.7108434,528.7108434,black,legacy,legacy,legacy,0,Congruent,uniform,1,undefined,1,h,82,82,0,0,0,82,0,0,0,82,0,0,82,82,82,82,9/28/19 13:00,600,The main experiment item,yes,FlankerTask.osexp,C:\Users\Jeanette\Desktop\Jeanette Master's\AQM&ED,no,mono,no,18,no,white,no,no,768,legacy,2,79,C:/Users/Jeanette/Desktop/Jeanette Master's/AQM&ED/jh-subject-2.csv,legacy,Kafkaesque Koffka,3.2.8,0,h,h,h,NA,NA,h,455,39902,39203,NA,NA,455,2,legacy,1024,2,48000,-16,experiment,HHHHH,2,even,NA,226457,2536,184673,NA,227661,42439,223877,NA,167084,2531,NA,227556,227661,228117,227553,Flanker Task,81,43883,83,yes,1024
97.61904762,97.61904762,527.9642857,527.9642857,black,legacy,legacy,legacy,0,Congruent,uniform,1,undefined,1,h,83,83,0,0,0,83,0,0,0,83,0,0,83,83,83,83,9/28/19 13:00,600,The main experiment item,yes,FlankerTask.osexp,C:\Users\Jeanette\Desktop\Jeanette Master's\AQM&ED,no,mono,no,18,no,white,no,no,768,legacy,3,79,C:/Users/Jeanette/Desktop/Jeanette Master's/AQM&ED/jh-subject-2.csv,legacy,Kafkaesque Koffka,3.2.8,0,h,h,h,NA,NA,h,466,39902,39203,NA,NA,466,2,legacy,1024,2,48000,-16,experiment,HHHHH,2,even,NA,228155,2536,184673,NA,229362,42439,223877,NA,167084,2531,NA,229257,229362,229829,229254,Flanker Task,82,44349,84,yes,1024
97.64705882,97.64705882,526.6588235,526.6588235,black,legacy,legacy,legacy,0,Incongruent,uniform,1,undefined,1,s,84,84,0,0,0,84,0,0,0,84,0,0,84,84,84,84,9/28/19 13:00,600,The main experiment item,yes,FlankerTask.osexp,C:\Users\Jeanette\Desktop\Jeanette Master's\AQM&ED,no,mono,no,18,no,white,no,no,768,legacy,4,79,C:/Users/Jeanette/Desktop/Jeanette Master's/AQM&ED/jh-subject-2.csv,legacy,Kafkaesque Koffka,3.2.8,0,s,h,h,NA,NA,s,417,39902,39203,NA,NA,417,2,legacy,1024,2,48000,-16,experiment,HHSHH,2,even,NA,229849,2536,184673,NA,231075,42439,223877,NA,167084,2531,NA,230970,231075,231493,230967,Flanker Task,83,44766,85,yes,1024
97.6744186,97.6744186,525.8372093,525.8372093,black,legacy,legacy,legacy,0,Incongruent,uniform,1,undefined,1,h,85,85,0,0,0,85,0,0,0,85,0,0,85,85,85,85,9/28/19 13:00,600,The main experiment item,yes,FlankerTask.osexp,C:\Users\Jeanette\Desktop\Jeanette Master's\AQM&ED,no,mono,no,18,no,white,no,no,768,legacy,5,79,C:/Users/Jeanette/Desktop/Jeanette Master's/AQM&ED/jh-subject-2.csv,legacy,Kafkaesque Koffka,3.2.8,0,h,h,h,NA,NA,h,456,39902,39203,NA,NA,456,2,legacy,1024,2,48000,-16,experiment,SSHSS,2,even,NA,231514,2536,184673,NA,232724,42439,223877,NA,167084,2531,NA,232618,232724,233181,232615,Flanker Task,84,45222,86,yes,1024
97.70114943,97.70114943,524.183908,524.183908,black,legacy,legacy,legacy,0,Congruent,uniform,1,undefined,1,s,86,86,0,0,0,86,0,0,0,86,0,0,86,86,86,86,9/28/19 13:00,600,The main experiment item,yes,FlankerTask.osexp,C:\Users\Jeanette\Desktop\Jeanette Master's\AQM&ED,no,mono,no,18,no,white,no,no,768,legacy,6,79,C:/Users/Jeanette/Desktop/Jeanette Master's/AQM&ED/jh-subject-2.csv,legacy,Kafkaesque Koffka,3.2.8,0,s,h,h,NA,NA,s,382,39902,39203,NA,NA,382,2,legacy,1024,2,48000,-16,experiment,SSSSS,2,even,NA,233200,2536,184673,NA,234421,42439,223877,NA,167084,2531,NA,234316,234422,234805,234313,Flanker Task,85,45604,87,yes,1024
97.72727273,97.72727273,523.1477273,523.1477273,black,legacy,legacy,legacy,0,Congruent,uniform,1,undefined,1,s,87,87,0,0,0,87,0,0,0,87,0,0,87,87,87,87,9/28/19 13:00,600,The main experiment item,yes,FlankerTask.osexp,C:\Users\Jeanette\Desktop\Jeanette Master's\AQM&ED,no,mono,no,18,no,white,no,no,768,legacy,7,79,C:/Users/Jeanette/Desktop/Jeanette Master's/AQM&ED/jh-subject-2.csv,legacy,Kafkaesque Koffka,3.2.8,0,s,h,h,NA,NA,s,433,39902,39203,NA,NA,433,2,legacy,1024,2,48000,-16,experiment,SSSSS,2,even,NA,234825,2536,184673,NA,236002,42439,223877,NA,167084,2531,NA,235897,236003,236437,235894,Flanker Task,86,46037,88,yes,1024
97.75280899,97.75280899,522.2921348,522.2921348,black,legacy,legacy,legacy,0,Congruent,uniform,1,undefined,1,s,88,88,0,0,0,88,0,0,0,88,0,0,88,88,88,88,9/28/19 13:00,600,The main experiment item,yes,FlankerTask.osexp,C:\Users\Jeanette\Desktop\Jeanette Master's\AQM&ED,no,mono,no,18,no,white,no,no,768,legacy,8,79,C:/Users/Jeanette/Desktop/Jeanette Master's/AQM&ED/jh-subject-2.csv,legacy,Kafkaesque Koffka,3.2.8,0,s,h,h,NA,NA,s,447,39902,39203,NA,NA,447,2,legacy,1024,2,48000,-16,experiment,SSSSS,2,even,NA,236466,2536,184673,NA,237653,42439,223877,NA,167084,2531,NA,237548,237653,238101,237545,Flanker Task,87,46484,89,yes,1024
97.77777778,97.77777778,521.8888889,521.8888889,black,legacy,legacy,legacy,0,Incongruent,uniform,1,undefined,1,h,89,89,0,0,0,89,0,0,0,89,0,0,89,89,89,89,9/28/19 13:00,600,The main experiment item,yes,FlankerTask.osexp,C:\Users\Jeanette\Desktop\Jeanette Master's\AQM&ED,no,mono,no,18,no,white,no,no,768,legacy,9,79,C:/Users/Jeanette/Desktop/Jeanette Master's/AQM&ED/jh-subject-2.csv,legacy,Kafkaesque Koffka,3.2.8,0,h,h,h,NA,NA,h,486,39902,39203,NA,NA,486,2,legacy,1024,2,48000,-16,experiment,SSHSS,2,even,NA,238142,2536,184673,NA,239349,42439,223877,NA,167084,2531,NA,239244,239350,239837,239241,Flanker Task,88,46970,90,yes,1024
97.8021978,97.8021978,521,521,black,legacy,legacy,legacy,0,Congruent,uniform,1,undefined,1,h,90,90,0,0,0,90,0,0,0,90,0,0,90,90,90,90,9/28/19 13:00,600,The main experiment item,yes,FlankerTask.osexp,C:\Users\Jeanette\Desktop\Jeanette Master's\AQM&ED,no,mono,no,18,no,white,no,no,768,legacy,10,79,C:/Users/Jeanette/Desktop/Jeanette Master's/AQM&ED/jh-subject-2.csv,legacy,Kafkaesque Koffka,3.2.8,0,h,h,h,NA,NA,h,441,39902,39203,NA,NA,441,2,legacy,1024,2,48000,-16,experiment,HHHHH,2,even,NA,239865,2536,184673,NA,241067,42439,223877,NA,167084,2531,NA,240962,241067,241513,240959,Flanker Task,89,47411,91,yes,1024
97.82608696,97.82608696,519.8478261,519.8478261,black,legacy,legacy,legacy,0,Congruent,uniform,1,undefined,1,h,91,91,0,0,0,91,0,0,0,91,0,0,91,91,91,91,9/28/19 13:00,600,The main experiment item,yes,FlankerTask.osexp,C:\Users\Jeanette\Desktop\Jeanette Master's\AQM&ED,no,mono,no,18,no,white,no,no,768,legacy,11,79,C:/Users/Jeanette/Desktop/Jeanette Master's/AQM&ED/jh-subject-2.csv,legacy,Kafkaesque Koffka,3.2.8,0,h,h,h,NA,NA,h,415,39902,39203,NA,NA,415,2,legacy,1024,2,48000,-16,experiment,HHHHH,2,even,NA,241534,2536,184673,NA,242733,42439,223877,NA,167084,2531,NA,242628,242733,243149,242625,Flanker Task,90,47826,92,yes,1024
97.84946237,97.84946237,519.8494624,519.8494624,black,legacy,legacy,legacy,0,Incongruent,uniform,1,undefined,1,s,92,92,0,0,0,92,0,0,0,92,0,0,92,92,92,92,9/28/19 13:00,600,The main experiment item,yes,FlankerTask.osexp,C:\Users\Jeanette\Desktop\Jeanette Master's\AQM&ED,no,mono,no,18,no,white,no,no,768,legacy,12,79,C:/Users/Jeanette/Desktop/Jeanette Master's/AQM&ED/jh-subject-2.csv,legacy,Kafkaesque Koffka,3.2.8,0,s,h,h,NA,NA,s,520,39902,39203,NA,NA,520,2,legacy,1024,2,48000,-16,experiment,HHSHH,2,even,NA,243174,2536,184673,NA,244372,42439,223877,NA,167084,2531,NA,244266,244372,244893,244263,Flanker Task,91,48346,93,yes,1024
97.87234043,97.87234043,518.7021277,518.7021277,black,legacy,legacy,legacy,0,Congruent,uniform,1,undefined,1,h,93,93,0,0,0,93,0,0,0,93,0,0,93,93,93,93,9/28/19 13:00,600,The main experiment item,yes,FlankerTask.osexp,C:\Users\Jeanette\Desktop\Jeanette Master's\AQM&ED,no,mono,no,18,no,white,no,no,768,legacy,13,79,C:/Users/Jeanette/Desktop/Jeanette Master's/AQM&ED/jh-subject-2.csv,legacy,Kafkaesque Koffka,3.2.8,0,h,h,h,NA,NA,h,412,39902,39203,NA,NA,412,2,legacy,1024,2,48000,-16,experiment,HHHHH,2,even,NA,244918,2536,184673,NA,246128,42439,223877,NA,167084,2531,NA,246023,246128,246541,246020,Flanker Task,92,48758,94,yes,1024
97.89473684,97.89473684,517.4947368,517.4947368,black,legacy,legacy,legacy,0,Congruent,uniform,1,undefined,1,s,94,94,0,0,0,94,0,0,0,94,0,0,94,94,94,94,9/28/19 13:00,600,The main experiment item,yes,FlankerTask.osexp,C:\Users\Jeanette\Desktop\Jeanette Master's\AQM&ED,no,mono,no,18,no,white,no,no,768,legacy,14,79,C:/Users/Jeanette/Desktop/Jeanette Master's/AQM&ED/jh-subject-2.csv,legacy,Kafkaesque Koffka,3.2.8,0,s,h,h,NA,NA,s,404,39902,39203,NA,NA,404,2,legacy,1024,2,48000,-16,experiment,SSSSS,2,even,NA,246568,2536,184673,NA,247782,42439,223877,NA,167084,2531,NA,247677,247783,248189,247673,Flanker Task,93,49162,95,yes,1024
97.91666667,97.91666667,516.8854167,516.8854167,black,legacy,legacy,legacy,0,Incongruent,uniform,1,undefined,1,s,95,95,0,0,0,95,0,0,0,95,0,0,95,95,95,95,9/28/19 13:00,600,The main experiment item,yes,FlankerTask.osexp,C:\Users\Jeanette\Desktop\Jeanette Master's\AQM&ED,no,mono,no,18,no,white,no,no,768,legacy,15,79,C:/Users/Jeanette/Desktop/Jeanette Master's/AQM&ED/jh-subject-2.csv,legacy,Kafkaesque Koffka,3.2.8,0,s,h,h,NA,NA,s,459,39902,39203,NA,NA,459,2,legacy,1024,2,48000,-16,experiment,HHSHH,2,even,NA,248232,2536,184673,NA,249433,42439,223877,NA,167084,2531,NA,249328,249433,249893,249325,Flanker Task,94,49621,96,yes,1024
97.93814433,97.93814433,515.9072165,515.9072165,black,legacy,legacy,legacy,0,Congruent,uniform,1,undefined,1,h,96,96,0,0,0,96,0,0,0,96,0,0,96,96,96,96,9/28/19 13:00,600,The main experiment item,yes,FlankerTask.osexp,C:\Users\Jeanette\Desktop\Jeanette Master's\AQM&ED,no,mono,no,18,no,white,no,no,768,legacy,16,79,C:/Users/Jeanette/Desktop/Jeanette Master's/AQM&ED/jh-subject-2.csv,legacy,Kafkaesque Koffka,3.2.8,0,h,h,h,NA,NA,h,422,39902,39203,NA,NA,422,2,legacy,1024,2,48000,-16,experiment,HHHHH,2,even,NA,249910,2536,184673,NA,251133,42439,223877,NA,167084,2531,NA,251028,251133,251557,251025,Flanker Task,95,50043,97,yes,1024
97.95918367,97.95918367,514.9387755,514.9387755,black,legacy,legacy,legacy,0,Congruent,uniform,1,undefined,1,s,97,97,0,0,0,97,0,0,0,97,0,0,97,97,97,97,9/28/19 13:00,600,The main experiment item,yes,FlankerTask.osexp,C:\Users\Jeanette\Desktop\Jeanette Master's\AQM&ED,no,mono,no,18,no,white,no,no,768,legacy,17,79,C:/Users/Jeanette/Desktop/Jeanette Master's/AQM&ED/jh-subject-2.csv,legacy,Kafkaesque Koffka,3.2.8,0,s,h,h,NA,NA,s,421,39902,39203,NA,NA,421,2,legacy,1024,2,48000,-16,experiment,SSSSS,2,even,NA,251592,2536,184673,NA,252783,42439,223877,NA,167084,2531,NA,252678,252783,253205,252675,Flanker Task,96,50464,98,yes,1024
97.97979798,97.97979798,514.2525253,514.2525253,black,legacy,legacy,legacy,0,Congruent,uniform,1,undefined,1,h,98,98,0,0,0,98,0,0,0,98,0,0,98,98,98,98,9/28/19 13:00,600,The main experiment item,yes,FlankerTask.osexp,C:\Users\Jeanette\Desktop\Jeanette Master's\AQM&ED,no,mono,no,18,no,white,no,no,768,legacy,18,79,C:/Users/Jeanette/Desktop/Jeanette Master's/AQM&ED/jh-subject-2.csv,legacy,Kafkaesque Koffka,3.2.8,0,h,h,h,NA,NA,h,447,39902,39203,NA,NA,447,2,legacy,1024,2,48000,-16,experiment,HHHHH,2,even,NA,253227,2536,184673,NA,254412,42439,223877,NA,167084,2531,NA,254307,254412,254861,254304,Flanker Task,97,50911,99,yes,1024
98,98,513.58,513.58,black,legacy,legacy,legacy,0,Incongruent,uniform,1,undefined,1,h,99,99,0,0,0,99,0,0,0,99,0,0,99,99,99,99,9/28/19 13:00,600,The main experiment item,yes,FlankerTask.osexp,C:\Users\Jeanette\Desktop\Jeanette Master's\AQM&ED,no,mono,no,18,no,white,no,no,768,legacy,19,79,C:/Users/Jeanette/Desktop/Jeanette Master's/AQM&ED/jh-subject-2.csv,legacy,Kafkaesque Koffka,3.2.8,0,h,h,h,NA,NA,h,447,39902,39203,NA,NA,447,2,legacy,1024,2,48000,-16,experiment,SSHSS,2,even,NA,254891,2536,184673,NA,256077,42439,223877,NA,167084,2531,NA,255972,256077,256525,255968,Flanker Task,98,51358,100,yes,1024
98.01980198,98.01980198,513.2574257,513.2574257,black,legacy,legacy,legacy,0,Incongruent,uniform,1,undefined,1,s,100,100,0,0,0,100,0,0,0,100,0,0,100,100,100,100,9/28/19 13:00,600,The main experiment item,yes,FlankerTask.osexp,C:\Users\Jeanette\Desktop\Jeanette Master's\AQM&ED,no,mono,no,18,no,white,no,no,768,legacy,20,79,C:/Users/Jeanette/Desktop/Jeanette Master's/AQM&ED/jh-subject-2.csv,legacy,Kafkaesque Koffka,3.2.8,0,s,h,h,NA,NA,s,481,39902,39203,NA,NA,481,2,legacy,1024,2,48000,-16,experiment,HHSHH,2,even,NA,256544,2536,184673,NA,257747,42439,223877,NA,167084,2531,NA,257641,257747,258229,257638,Flanker Task,99,51839,101,yes,1024
98.03921569,98.03921569,512.7352941,512.7352941,black,legacy,legacy,legacy,0,Congruent,uniform,1,undefined,1,s,101,101,0,0,0,101,0,0,0,101,0,0,101,101,101,101,9/28/19 13:00,600,The main experiment item,yes,FlankerTask.osexp,C:\Users\Jeanette\Desktop\Jeanette Master's\AQM&ED,no,mono,no,18,no,white,no,no,768,legacy,21,79,C:/Users/Jeanette/Desktop/Jeanette Master's/AQM&ED/jh-subject-2.csv,legacy,Kafkaesque Koffka,3.2.8,0,s,h,h,NA,NA,s,460,39902,39203,NA,NA,460,2,legacy,1024,2,48000,-16,experiment,SSSSS,2,even,NA,258250,2536,184673,NA,259448,42439,223877,NA,167084,2531,NA,259345,259448,259909,259342,Flanker Task,100,52299,102,yes,1024
98.05825243,98.05825243,511.7087379,511.7087379,black,legacy,legacy,legacy,0,Incongruent,uniform,1,undefined,1,h,102,102,0,0,0,102,0,0,0,102,0,0,102,102,102,102,9/28/19 13:00,600,The main experiment item,yes,FlankerTask.osexp,C:\Users\Jeanette\Desktop\Jeanette Master's\AQM&ED,no,mono,no,18,no,white,no,no,768,legacy,22,79,C:/Users/Jeanette/Desktop/Jeanette Master's/AQM&ED/jh-subject-2.csv,legacy,Kafkaesque Koffka,3.2.8,0,h,h,h,NA,NA,h,407,39902,39203,NA,NA,407,2,legacy,1024,2,48000,-16,experiment,SSHSS,2,even,NA,259927,2536,184673,NA,261132,42439,223877,NA,167084,2531,NA,261027,261132,261541,261024,Flanker Task,101,52706,103,yes,1024
98.07692308,98.07692308,515.0384615,515.0384615,black,legacy,legacy,legacy,0,Incongruent,uniform,1,undefined,1,h,103,103,0,0,0,103,0,0,0,103,0,0,103,103,103,103,9/28/19 13:00,600,The main experiment item,yes,FlankerTask.osexp,C:\Users\Jeanette\Desktop\Jeanette Master's\AQM&ED,no,mono,no,18,no,white,no,no,768,legacy,23,79,C:/Users/Jeanette/Desktop/Jeanette Master's/AQM&ED/jh-subject-2.csv,legacy,Kafkaesque Koffka,3.2.8,0,h,h,h,NA,NA,h,858,39902,39203,NA,NA,858,2,legacy,1024,2,48000,-16,experiment,SSHSS,2,even,NA,261561,2536,184673,NA,262753,42439,223877,NA,167084,2531,NA,262648,262754,263617,262645,Flanker Task,102,53564,104,yes,1024
98.0952381,98.0952381,514.1428571,514.1428571,black,legacy,legacy,legacy,0,Congruent,uniform,1,undefined,1,s,104,104,0,0,0,104,0,0,0,104,0,0,104,104,104,104,9/28/19 13:00,600,The main experiment item,yes,FlankerTask.osexp,C:\Users\Jeanette\Desktop\Jeanette Master's\AQM&ED,no,mono,no,18,no,white,no,no,768,legacy,24,79,C:/Users/Jeanette/Desktop/Jeanette Master's/AQM&ED/jh-subject-2.csv,legacy,Kafkaesque Koffka,3.2.8,0,s,h,h,NA,NA,s,421,39902,39203,NA,NA,421,2,legacy,1024,2,48000,-16,experiment,SSSSS,2,even,263642,264149,2536,184673,NA,265359,42439,223877,NA,167084,2531,NA,265254,265359,265781,265251,Flanker Task,103,53985,105,yes,1024
98.11320755,98.11320755,513.1037736,513.1037736,black,legacy,legacy,legacy,0,Incongruent,uniform,1,undefined,1,h,105,105,0,0,0,105,0,0,0,105,0,0,105,105,105,105,9/28/19 13:00,600,The main experiment item,yes,FlankerTask.osexp,C:\Users\Jeanette\Desktop\Jeanette Master's\AQM&ED,no,mono,no,18,no,white,no,no,768,legacy,25,79,C:/Users/Jeanette/Desktop/Jeanette Master's/AQM&ED/jh-subject-2.csv,legacy,Kafkaesque Koffka,3.2.8,0,h,h,h,NA,NA,h,404,39902,39203,NA,NA,404,2,legacy,1024,2,48000,-16,experiment,SSHSS,2,even,263642,265803,2536,184673,NA,266992,42439,223877,NA,167084,2531,NA,266887,266992,267397,266884,Flanker Task,104,54389,106,yes,1024
98.13084112,98.13084112,512.0280374,512.0280374,black,legacy,legacy,legacy,0,Congruent,uniform,1,undefined,1,h,106,106,0,0,0,106,0,0,0,106,0,0,106,106,106,106,9/28/19 13:00,600,The main experiment item,yes,FlankerTask.osexp,C:\Users\Jeanette\Desktop\Jeanette Master's\AQM&ED,no,mono,no,18,no,white,no,no,768,legacy,26,79,C:/Users/Jeanette/Desktop/Jeanette Master's/AQM&ED/jh-subject-2.csv,legacy,Kafkaesque Koffka,3.2.8,0,h,h,h,NA,NA,h,398,39902,39203,NA,NA,398,2,legacy,1024,2,48000,-16,experiment,HHHHH,2,even,263642,267420,2536,184673,NA,268614,42439,223877,NA,167084,2531,NA,268509,268614,269013,268506,Flanker Task,105,54787,107,yes,1024
98.14814815,98.14814815,511.7777778,511.7777778,black,legacy,legacy,legacy,0,Incongruent,uniform,1,undefined,1,s,107,107,0,0,0,107,0,0,0,107,0,0,107,107,107,107,9/28/19 13:00,600,The main experiment item,yes,FlankerTask.osexp,C:\Users\Jeanette\Desktop\Jeanette Master's\AQM&ED,no,mono,no,18,no,white,no,no,768,legacy,27,79,C:/Users/Jeanette/Desktop/Jeanette Master's/AQM&ED/jh-subject-2.csv,legacy,Kafkaesque Koffka,3.2.8,0,s,h,h,NA,NA,s,485,39902,39203,NA,NA,485,2,legacy,1024,2,48000,-16,experiment,HHSHH,2,even,263642,269037,2536,184673,NA,270247,42439,223877,NA,167084,2531,NA,270142,270247,270734,270139,Flanker Task,106,55272,108,yes,1024
98.16513761,98.16513761,511.6972477,511.6972477,black,legacy,legacy,legacy,0,Incongruent,uniform,1,undefined,1,s,108,108,0,0,0,108,0,0,0,108,0,0,108,108,108,108,9/28/19 13:00,600,The main experiment item,yes,FlankerTask.osexp,C:\Users\Jeanette\Desktop\Jeanette Master's\AQM&ED,no,mono,no,18,no,white,no,no,768,legacy,28,79,C:/Users/Jeanette/Desktop/Jeanette Master's/AQM&ED/jh-subject-2.csv,legacy,Kafkaesque Koffka,3.2.8,0,s,h,h,NA,NA,s,503,39902,39203,NA,NA,503,2,legacy,1024,2,48000,-16,experiment,HHSHH,2,even,263642,270754,2536,184673,NA,271948,42439,223877,NA,167084,2531,NA,271842,271949,272454,271834,Flanker Task,107,55775,109,yes,1024
98.18181818,98.18181818,510.5454545,510.5454545,black,legacy,legacy,legacy,0,Incongruent,uniform,1,undefined,1,h,109,109,0,0,0,109,0,0,0,109,0,0,109,109,109,109,9/28/19 13:00,600,The main experiment item,yes,FlankerTask.osexp,C:\Users\Jeanette\Desktop\Jeanette Master's\AQM&ED,no,mono,no,18,no,white,no,no,768,legacy,29,79,C:/Users/Jeanette/Desktop/Jeanette Master's/AQM&ED/jh-subject-2.csv,legacy,Kafkaesque Koffka,3.2.8,0,h,h,h,NA,NA,h,385,39902,39203,NA,NA,385,2,legacy,1024,2,48000,-16,experiment,SSHSS,2,even,263642,272481,2536,184673,NA,273698,42439,223877,NA,167084,2531,NA,273592,273698,274085,273589,Flanker Task,108,56160,110,yes,1024
98.1981982,98.1981982,509.6846847,509.6846847,black,legacy,legacy,legacy,0,Congruent,uniform,1,undefined,1,h,110,110,0,0,0,110,0,0,0,110,0,0,110,110,110,110,9/28/19 13:00,600,The main experiment item,yes,FlankerTask.osexp,C:\Users\Jeanette\Desktop\Jeanette Master's\AQM&ED,no,mono,no,18,no,white,no,no,768,legacy,30,79,C:/Users/Jeanette/Desktop/Jeanette Master's/AQM&ED/jh-subject-2.csv,legacy,Kafkaesque Koffka,3.2.8,0,h,h,h,NA,NA,h,415,39902,39203,NA,NA,415,2,legacy,1024,2,48000,-16,experiment,HHHHH,2,even,263642,274112,2536,184673,NA,275325,42439,223877,NA,167084,2531,NA,275219,275325,275741,275216,Flanker Task,109,56575,111,yes,1024
98.21428571,98.21428571,509.0803571,509.0803571,black,legacy,legacy,legacy,0,Congruent,uniform,1,undefined,1,h,111,111,0,0,0,111,0,0,0,111,0,0,111,111,111,111,9/28/19 13:00,600,The main experiment item,yes,FlankerTask.osexp,C:\Users\Jeanette\Desktop\Jeanette Master's\AQM&ED,no,mono,no,18,no,white,no,no,768,legacy,31,79,C:/Users/Jeanette/Desktop/Jeanette Master's/AQM&ED/jh-subject-2.csv,legacy,Kafkaesque Koffka,3.2.8,0,h,h,h,NA,NA,h,442,39902,39203,NA,NA,442,2,legacy,1024,2,48000,-16,experiment,HHHHH,2,even,263642,275769,2536,184673,NA,276953,42439,223877,NA,167084,2531,NA,276848,276953,277397,276845,Flanker Task,110,57017,112,yes,1024
98.2300885,98.2300885,508.6460177,508.6460177,black,legacy,legacy,legacy,0,Incongruent,uniform,1,undefined,1,h,112,112,0,0,0,112,0,0,0,112,0,0,112,112,112,112,9/28/19 13:00,600,The main experiment item,yes,FlankerTask.osexp,C:\Users\Jeanette\Desktop\Jeanette Master's\AQM&ED,no,mono,no,18,no,white,no,no,768,legacy,32,79,C:/Users/Jeanette/Desktop/Jeanette Master's/AQM&ED/jh-subject-2.csv,legacy,Kafkaesque Koffka,3.2.8,0,h,h,h,NA,NA,h,460,39902,39203,NA,NA,460,2,legacy,1024,2,48000,-16,experiment,SSHSS,2,even,263642,277438,2536,184673,NA,278648,42439,223877,NA,167084,2531,NA,278542,278648,279109,278539,Flanker Task,111,57477,113,yes,1024
98.24561404,98.24561404,508.5701754,508.5701754,black,legacy,legacy,legacy,0,Incongruent,uniform,1,undefined,1,s,113,113,0,0,0,113,0,0,0,113,0,0,113,113,113,113,9/28/19 13:00,600,The main experiment item,yes,FlankerTask.osexp,C:\Users\Jeanette\Desktop\Jeanette Master's\AQM&ED,no,mono,no,18,no,white,no,no,768,legacy,33,79,C:/Users/Jeanette/Desktop/Jeanette Master's/AQM&ED/jh-subject-2.csv,legacy,Kafkaesque Koffka,3.2.8,0,s,h,h,NA,NA,s,500,39902,39203,NA,NA,500,2,legacy,1024,2,48000,-16,experiment,HHSHH,2,even,263642,279148,2536,184673,NA,280359,42439,223877,NA,167084,2531,NA,280254,280359,280861,280251,Flanker Task,112,57977,114,yes,1024
98.26086957,98.26086957,509.6782609,509.6782609,black,legacy,legacy,legacy,0,Incongruent,uniform,1,undefined,1,s,114,114,0,0,0,114,0,0,0,114,0,0,114,114,114,114,9/28/19 13:00,600,The main experiment item,yes,FlankerTask.osexp,C:\Users\Jeanette\Desktop\Jeanette Master's\AQM&ED,no,mono,no,18,no,white,no,no,768,legacy,34,79,C:/Users/Jeanette/Desktop/Jeanette Master's/AQM&ED/jh-subject-2.csv,legacy,Kafkaesque Koffka,3.2.8,0,s,h,h,NA,NA,s,636,39902,39203,NA,NA,636,2,legacy,1024,2,48000,-16,experiment,HHSHH,2,even,263642,280914,2536,184673,NA,282127,42439,223877,NA,167084,2531,NA,282022,282127,282765,282019,Flanker Task,113,58613,115,yes,1024
97.4137931,97.4137931,508.362069,508.362069,black,legacy,legacy,legacy,0,Incongruent,uniform,0,undefined,0,s,115,115,0,0,0,115,0,0,0,115,0,0,115,115,115,115,9/28/19 13:00,600,The main experiment item,yes,FlankerTask.osexp,C:\Users\Jeanette\Desktop\Jeanette Master's\AQM&ED,no,mono,no,18,no,white,no,no,768,legacy,35,79,C:/Users/Jeanette/Desktop/Jeanette Master's/AQM&ED/jh-subject-2.csv,legacy,Kafkaesque Koffka,3.2.8,0,h,h,h,NA,NA,h,357,39902,39203,NA,NA,357,2,legacy,1024,2,48000,-16,experiment,HHSHH,2,even,282794,283299,2536,184673,NA,284535,42439,223877,NA,167084,2531,NA,284430,284535,284893,284427,Flanker Task,113,58970,116,yes,1024
97.43589744,97.43589744,507.1880342,507.1880342,black,legacy,legacy,legacy,0,Congruent,uniform,1,undefined,1,s,116,116,0,0,0,116,0,0,0,116,0,0,116,116,116,116,9/28/19 13:00,600,The main experiment item,yes,FlankerTask.osexp,C:\Users\Jeanette\Desktop\Jeanette Master's\AQM&ED,no,mono,no,18,no,white,no,no,768,legacy,36,79,C:/Users/Jeanette/Desktop/Jeanette Master's/AQM&ED/jh-subject-2.csv,legacy,Kafkaesque Koffka,3.2.8,0,s,h,h,NA,NA,s,371,39902,39203,NA,NA,371,2,legacy,1024,2,48000,-16,experiment,SSSSS,2,even,282794,285427,2536,184673,NA,286648,42439,223877,NA,284922,2531,NA,286543,286648,287021,286540,Flanker Task,114,59341,117,yes,1024
97.45762712,97.45762712,506.4915254,506.4915254,black,legacy,legacy,legacy,0,Congruent,uniform,1,undefined,1,s,117,117,0,0,0,117,0,0,0,117,0,0,117,117,117,117,9/28/19 13:00,600,The main experiment item,yes,FlankerTask.osexp,C:\Users\Jeanette\Desktop\Jeanette Master's\AQM&ED,no,mono,no,18,no,white,no,no,768,legacy,37,79,C:/Users/Jeanette/Desktop/Jeanette Master's/AQM&ED/jh-subject-2.csv,legacy,Kafkaesque Koffka,3.2.8,0,s,h,h,NA,NA,s,425,39902,39203,NA,NA,425,2,legacy,1024,2,48000,-16,experiment,SSSSS,2,even,282794,287038,2536,184673,NA,288235,42439,223877,NA,284922,2531,NA,288130,288235,288662,288127,Flanker Task,115,59766,118,yes,1024
97.4789916,97.4789916,506.4957983,506.4957983,black,legacy,legacy,legacy,0,Congruent,uniform,1,undefined,1,h,118,118,0,0,0,118,0,0,0,118,0,0,118,118,118,118,9/28/19 13:00,600,The main experiment item,yes,FlankerTask.osexp,C:\Users\Jeanette\Desktop\Jeanette Master's\AQM&ED,no,mono,no,18,no,white,no,no,768,legacy,38,79,C:/Users/Jeanette/Desktop/Jeanette Master's/AQM&ED/jh-subject-2.csv,legacy,Kafkaesque Koffka,3.2.8,0,h,h,h,NA,NA,h,507,39902,39203,NA,NA,507,2,legacy,1024,2,48000,-16,experiment,HHHHH,2,even,282794,288681,2536,184673,NA,289896,42439,223877,NA,284922,2531,NA,289791,289897,290405,289788,Flanker Task,116,60273,119,yes,1024
97.5,97.5,506.5166667,506.5166667,black,legacy,legacy,legacy,0,Incongruent,uniform,1,undefined,1,h,119,119,0,0,0,119,0,0,0,119,0,0,119,119,119,119,9/28/19 13:00,600,The main experiment item,yes,FlankerTask.osexp,C:\Users\Jeanette\Desktop\Jeanette Master's\AQM&ED,no,mono,no,18,no,white,no,no,768,legacy,39,79,C:/Users/Jeanette/Desktop/Jeanette Master's/AQM&ED/jh-subject-2.csv,legacy,Kafkaesque Koffka,3.2.8,0,h,h,h,NA,NA,h,509,39902,39203,NA,NA,509,2,legacy,1024,2,48000,-16,experiment,SSHSS,2,even,282794,290423,2536,184673,NA,291623,42439,223877,NA,284922,2531,NA,291518,291623,292133,291515,Flanker Task,117,60782,120,yes,1024
97.52066116,97.52066116,505.5950413,505.5950413,black,legacy,legacy,legacy,0,Congruent,uniform,1,undefined,1,s,120,120,0,0,0,120,0,0,0,120,0,0,120,120,120,120,9/28/19 13:00,600,The main experiment item,yes,FlankerTask.osexp,C:\Users\Jeanette\Desktop\Jeanette Master's\AQM&ED,no,mono,no,18,no,white,no,no,768,legacy,40,79,C:/Users/Jeanette/Desktop/Jeanette Master's/AQM&ED/jh-subject-2.csv,legacy,Kafkaesque Koffka,3.2.8,0,s,h,h,NA,NA,s,395,39902,39203,NA,NA,395,2,legacy,1024,2,48000,-16,experiment,SSSSS,2,even,282794,292173,2536,184673,NA,293361,42439,223877,NA,284922,2531,NA,293256,293361,293757,293253,Flanker Task,118,61177,121,yes,1024
97.54098361,97.54098361,504.9836066,504.9836066,black,legacy,legacy,legacy,0,Congruent,uniform,1,undefined,1,h,121,121,0,0,0,121,0,0,0,121,0,0,121,121,121,121,9/28/19 13:00,600,The main experiment item,yes,FlankerTask.osexp,C:\Users\Jeanette\Desktop\Jeanette Master's\AQM&ED,no,mono,no,18,no,white,no,no,768,legacy,41,79,C:/Users/Jeanette/Desktop/Jeanette Master's/AQM&ED/jh-subject-2.csv,legacy,Kafkaesque Koffka,3.2.8,0,h,h,h,NA,NA,h,431,39902,39203,NA,NA,431,2,legacy,1024,2,48000,-16,experiment,HHHHH,2,even,282794,293787,2536,184673,NA,294973,42439,223877,NA,284922,2531,NA,294868,294973,295405,294865,Flanker Task,119,61608,122,yes,1024
97.56097561,97.56097561,504.0081301,504.0081301,black,legacy,legacy,legacy,0,Incongruent,uniform,1,undefined,1,s,122,122,0,0,0,122,0,0,0,122,0,0,122,122,122,122,9/28/19 13:00,600,The main experiment item,yes,FlankerTask.osexp,C:\Users\Jeanette\Desktop\Jeanette Master's\AQM&ED,no,mono,no,18,no,white,no,no,768,legacy,42,79,C:/Users/Jeanette/Desktop/Jeanette Master's/AQM&ED/jh-subject-2.csv,legacy,Kafkaesque Koffka,3.2.8,0,s,h,h,NA,NA,s,385,39902,39203,NA,NA,385,2,legacy,1024,2,48000,-16,experiment,HHSHH,2,even,282794,295423,2536,184673,NA,296626,42439,223877,NA,284922,2531,NA,296521,296626,297013,296518,Flanker Task,120,61993,123,yes,1024
97.58064516,97.58064516,503.2983871,503.2983871,black,legacy,legacy,legacy,0,Congruent,uniform,1,undefined,1,s,123,123,0,0,0,123,0,0,0,123,0,0,123,123,123,123,9/28/19 13:00,600,The main experiment item,yes,FlankerTask.osexp,C:\Users\Jeanette\Desktop\Jeanette Master's\AQM&ED,no,mono,no,18,no,white,no,no,768,legacy,43,79,C:/Users/Jeanette/Desktop/Jeanette Master's/AQM&ED/jh-subject-2.csv,legacy,Kafkaesque Koffka,3.2.8,0,s,h,h,NA,NA,s,416,39902,39203,NA,NA,416,2,legacy,1024,2,48000,-16,experiment,SSSSS,2,even,282794,297037,2536,184673,NA,298243,42439,223877,NA,284922,2531,NA,298138,298243,298661,298135,Flanker Task,121,62409,124,yes,1024
97.6,97.6,502.664,502.664,black,legacy,legacy,legacy,0,Incongruent,uniform,1,undefined,1,h,124,124,0,0,0,124,0,0,0,124,0,0,124,124,124,124,9/28/19 13:00,600,The main experiment item,yes,FlankerTask.osexp,C:\Users\Jeanette\Desktop\Jeanette Master's\AQM&ED,no,mono,no,18,no,white,no,no,768,legacy,44,79,C:/Users/Jeanette/Desktop/Jeanette Master's/AQM&ED/jh-subject-2.csv,legacy,Kafkaesque Koffka,3.2.8,0,h,h,h,NA,NA,h,424,39902,39203,NA,NA,424,2,legacy,1024,2,48000,-16,experiment,SSHSS,2,even,282794,298681,2536,184673,NA,299891,42439,223877,NA,284922,2531,NA,299785,299891,300317,299782,Flanker Task,122,62833,125,yes,1024
97.61904762,97.61904762,502.2222222,502.2222222,black,legacy,legacy,legacy,0,Congruent,uniform,1,undefined,1,h,125,125,0,0,0,125,0,0,0,125,0,0,125,125,125,125,9/28/19 13:00,600,The main experiment item,yes,FlankerTask.osexp,C:\Users\Jeanette\Desktop\Jeanette Master's\AQM&ED,no,mono,no,18,no,white,no,no,768,legacy,45,79,C:/Users/Jeanette/Desktop/Jeanette Master's/AQM&ED/jh-subject-2.csv,legacy,Kafkaesque Koffka,3.2.8,0,h,h,h,NA,NA,h,447,39902,39203,NA,NA,447,2,legacy,1024,2,48000,-16,experiment,HHHHH,2,even,282794,300346,2536,184673,NA,301548,42439,223877,NA,284922,2531,NA,301445,301549,301997,301442,Flanker Task,123,63280,126,yes,1024
97.63779528,97.63779528,501.8346457,501.8346457,black,legacy,legacy,legacy,0,Incongruent,uniform,1,undefined,1,h,126,126,0,0,0,126,0,0,0,126,0,0,126,126,126,126,9/28/19 13:00,600,The main experiment item,yes,FlankerTask.osexp,C:\Users\Jeanette\Desktop\Jeanette Master's\AQM&ED,no,mono,no,18,no,white,no,no,768,legacy,46,79,C:/Users/Jeanette/Desktop/Jeanette Master's/AQM&ED/jh-subject-2.csv,legacy,Kafkaesque Koffka,3.2.8,0,h,h,h,NA,NA,h,453,39902,39203,NA,NA,453,2,legacy,1024,2,48000,-16,experiment,SSHSS,2,even,282794,302033,2536,184673,NA,303247,42439,223877,NA,284922,2531,NA,303142,303247,303701,303138,Flanker Task,124,63733,127,yes,1024
97.65625,97.65625,501.5,501.5,black,legacy,legacy,legacy,0,Congruent,uniform,1,undefined,1,s,127,127,0,0,0,127,0,0,0,127,0,0,127,127,127,127,9/28/19 13:00,600,The main experiment item,yes,FlankerTask.osexp,C:\Users\Jeanette\Desktop\Jeanette Master's\AQM&ED,no,mono,no,18,no,white,no,no,768,legacy,47,79,C:/Users/Jeanette/Desktop/Jeanette Master's/AQM&ED/jh-subject-2.csv,legacy,Kafkaesque Koffka,3.2.8,0,s,h,h,NA,NA,s,459,39902,39203,NA,NA,459,2,legacy,1024,2,48000,-16,experiment,SSSSS,2,even,282794,303722,2536,184673,NA,304913,42439,223877,NA,284922,2531,NA,304807,304913,305373,304804,Flanker Task,125,64192,128,yes,1024
97.6744186,97.6744186,501.1705426,501.1705426,black,legacy,legacy,legacy,0,Incongruent,uniform,1,undefined,1,s,128,128,0,0,0,128,0,0,0,128,0,0,128,128,128,128,9/28/19 13:00,600,The main experiment item,yes,FlankerTask.osexp,C:\Users\Jeanette\Desktop\Jeanette Master's\AQM&ED,no,mono,no,18,no,white,no,no,768,legacy,48,79,C:/Users/Jeanette/Desktop/Jeanette Master's/AQM&ED/jh-subject-2.csv,legacy,Kafkaesque Koffka,3.2.8,0,s,h,h,NA,NA,s,459,39902,39203,NA,NA,459,2,legacy,1024,2,48000,-16,experiment,HHSHH,2,even,282794,305399,2536,184673,NA,306608,42439,223877,NA,284922,2531,NA,306502,306608,307069,306499,Flanker Task,126,64651,129,yes,1024
97.69230769,97.69230769,500.3461538,500.3461538,black,legacy,legacy,legacy,0,Congruent,uniform,1,undefined,1,h,129,129,0,0,0,129,0,0,0,129,0,0,129,129,129,129,9/28/19 13:00,600,The main experiment item,yes,FlankerTask.osexp,C:\Users\Jeanette\Desktop\Jeanette Master's\AQM&ED,no,mono,no,18,no,white,no,no,768,legacy,49,79,C:/Users/Jeanette/Desktop/Jeanette Master's/AQM&ED/jh-subject-2.csv,legacy,Kafkaesque Koffka,3.2.8,0,h,h,h,NA,NA,h,394,39902,39203,NA,NA,394,2,legacy,1024,2,48000,-16,experiment,HHHHH,2,even,282794,307091,2536,184673,NA,308298,42439,223877,NA,284922,2531,NA,308193,308298,308693,308190,Flanker Task,127,65045,130,yes,1024
97.70992366,97.70992366,499.8015267,499.8015267,black,legacy,legacy,legacy,0,Incongruent,uniform,1,undefined,1,s,130,130,0,0,0,130,0,0,0,130,0,0,130,130,130,130,9/28/19 13:00,600,The main experiment item,yes,FlankerTask.osexp,C:\Users\Jeanette\Desktop\Jeanette Master's\AQM&ED,no,mono,no,18,no,white,no,no,768,legacy,50,79,C:/Users/Jeanette/Desktop/Jeanette Master's/AQM&ED/jh-subject-2.csv,legacy,Kafkaesque Koffka,3.2.8,0,s,h,h,NA,NA,s,429,39902,39203,NA,NA,429,2,legacy,1024,2,48000,-16,experiment,HHSHH,2,even,282794,308722,2536,184673,NA,309934,42439,223877,NA,284922,2531,NA,309831,309935,310365,309828,Flanker Task,128,65474,131,yes,1024
97.72727273,97.72727273,499.5454545,499.5454545,black,legacy,legacy,legacy,0,Incongruent,uniform,1,undefined,1,h,131,131,0,0,0,131,0,0,0,131,0,0,131,131,131,131,9/28/19 13:00,600,The main experiment item,yes,FlankerTask.osexp,C:\Users\Jeanette\Desktop\Jeanette Master's\AQM&ED,no,mono,no,18,no,white,no,no,768,legacy,51,79,C:/Users/Jeanette/Desktop/Jeanette Master's/AQM&ED/jh-subject-2.csv,legacy,Kafkaesque Koffka,3.2.8,0,h,h,h,NA,NA,h,466,39902,39203,NA,NA,466,2,legacy,1024,2,48000,-16,experiment,SSHSS,2,even,282794,310383,2536,184673,NA,311578,42439,223877,NA,284922,2531,NA,311473,311578,312050,311469,Flanker Task,129,65940,132,yes,1024
97.7443609,97.7443609,498.9774436,498.9774436,black,legacy,legacy,legacy,0,Incongruent,uniform,1,undefined,1,h,132,132,0,0,0,132,0,0,0,132,0,0,132,132,132,132,9/28/19 13:00,600,The main experiment item,yes,FlankerTask.osexp,C:\Users\Jeanette\Desktop\Jeanette Master's\AQM&ED,no,mono,no,18,no,white,no,no,768,legacy,52,79,C:/Users/Jeanette/Desktop/Jeanette Master's/AQM&ED/jh-subject-2.csv,legacy,Kafkaesque Koffka,3.2.8,0,h,h,h,NA,NA,h,424,39902,39203,NA,NA,424,2,legacy,1024,2,48000,-16,experiment,SSHSS,2,even,282794,312075,2536,184673,NA,313284,42439,223877,NA,284922,2531,NA,313179,313284,313709,313175,Flanker Task,130,66364,133,yes,1024
97.76119403,97.76119403,498.2089552,498.2089552,black,legacy,legacy,legacy,0,Congruent,uniform,1,undefined,1,h,133,133,0,0,0,133,0,0,0,133,0,0,133,133,133,133,9/28/19 13:00,600,The main experiment item,yes,FlankerTask.osexp,C:\Users\Jeanette\Desktop\Jeanette Master's\AQM&ED,no,mono,no,18,no,white,no,no,768,legacy,53,79,C:/Users/Jeanette/Desktop/Jeanette Master's/AQM&ED/jh-subject-2.csv,legacy,Kafkaesque Koffka,3.2.8,0,h,h,h,NA,NA,h,396,39902,39203,NA,NA,396,2,legacy,1024,2,48000,-16,experiment,HHHHH,2,even,282794,313731,2536,184673,NA,314928,42439,223877,NA,284922,2531,NA,314822,314928,315325,314819,Flanker Task,131,66760,134,yes,1024
97.77777778,97.77777778,498.5037037,498.5037037,black,legacy,legacy,legacy,0,Incongruent,uniform,1,undefined,1,h,134,134,0,0,0,134,0,0,0,134,0,0,134,134,134,134,9/28/19 13:00,600,The main experiment item,yes,FlankerTask.osexp,C:\Users\Jeanette\Desktop\Jeanette Master's\AQM&ED,no,mono,no,18,no,white,no,no,768,legacy,54,79,C:/Users/Jeanette/Desktop/Jeanette Master's/AQM&ED/jh-subject-2.csv,legacy,Kafkaesque Koffka,3.2.8,0,h,h,h,NA,NA,h,538,39902,39203,NA,NA,538,2,legacy,1024,2,48000,-16,experiment,SSHSS,2,even,282794,315356,2536,184673,NA,316545,42439,223877,NA,284922,2531,NA,316440,316545,317085,316437,Flanker Task,132,67298,135,yes,1024
97.79411765,97.79411765,498.2426471,498.2426471,black,legacy,legacy,legacy,0,Incongruent,uniform,1,undefined,1,h,135,135,0,0,0,135,0,0,0,135,0,0,135,135,135,135,9/28/19 13:00,600,The main experiment item,yes,FlankerTask.osexp,C:\Users\Jeanette\Desktop\Jeanette Master's\AQM&ED,no,mono,no,18,no,white,no,no,768,legacy,55,79,C:/Users/Jeanette/Desktop/Jeanette Master's/AQM&ED/jh-subject-2.csv,legacy,Kafkaesque Koffka,3.2.8,0,h,h,h,NA,NA,h,463,39902,39203,NA,NA,463,2,legacy,1024,2,48000,-16,experiment,SSHSS,2,even,282794,317108,2536,184673,NA,318316,42439,223877,NA,284922,2531,NA,318211,318316,318781,318208,Flanker Task,133,67761,136,yes,1024
97.81021898,97.81021898,498.1532847,498.1532847,black,legacy,legacy,legacy,0,Incongruent,uniform,1,undefined,1,s,136,136,0,0,0,136,0,0,0,136,0,0,136,136,136,136,9/28/19 13:00,600,The main experiment item,yes,FlankerTask.osexp,C:\Users\Jeanette\Desktop\Jeanette Master's\AQM&ED,no,mono,no,18,no,white,no,no,768,legacy,56,79,C:/Users/Jeanette/Desktop/Jeanette Master's/AQM&ED/jh-subject-2.csv,legacy,Kafkaesque Koffka,3.2.8,0,s,h,h,NA,NA,s,486,39902,39203,NA,NA,486,2,legacy,1024,2,48000,-16,experiment,HHSHH,2,even,282794,318806,2536,184673,NA,320021,42439,223877,NA,284922,2531,NA,319916,320021,320508,319913,Flanker Task,134,68247,137,yes,1024
97.82608696,97.82608696,498.0652174,498.0652174,black,legacy,legacy,legacy,0,Incongruent,uniform,1,undefined,1,h,137,137,0,0,0,137,0,0,0,137,0,0,137,137,137,137,9/28/19 13:00,600,The main experiment item,yes,FlankerTask.osexp,C:\Users\Jeanette\Desktop\Jeanette Master's\AQM&ED,no,mono,no,18,no,white,no,no,768,legacy,57,79,C:/Users/Jeanette/Desktop/Jeanette Master's/AQM&ED/jh-subject-2.csv,legacy,Kafkaesque Koffka,3.2.8,0,h,h,h,NA,NA,h,486,39902,39203,NA,NA,486,2,legacy,1024,2,48000,-16,experiment,SSHSS,2,even,282794,320525,2536,184673,NA,321750,42439,223877,NA,284922,2531,NA,321645,321750,322237,321642,Flanker Task,135,68733,138,yes,1024
97.84172662,97.84172662,498.0863309,498.0863309,black,legacy,legacy,legacy,0,Congruent,uniform,1,undefined,1,h,138,138,0,0,0,138,0,0,0,138,0,0,138,138,138,138,9/28/19 13:00,600,The main experiment item,yes,FlankerTask.osexp,C:\Users\Jeanette\Desktop\Jeanette Master's\AQM&ED,no,mono,no,18,no,white,no,no,768,legacy,58,79,C:/Users/Jeanette/Desktop/Jeanette Master's/AQM&ED/jh-subject-2.csv,legacy,Kafkaesque Koffka,3.2.8,0,h,h,h,NA,NA,h,501,39902,39203,NA,NA,501,2,legacy,1024,2,48000,-16,experiment,HHHHH,2,even,282794,322265,2536,184673,NA,323454,42439,223877,NA,284922,2531,NA,323349,323454,323957,323346,Flanker Task,136,69234,139,yes,1024
97.85714286,97.85714286,497.6,497.6,black,legacy,legacy,legacy,0,Congruent,uniform,1,undefined,1,h,139,139,0,0,0,139,0,0,0,139,0,0,139,139,139,139,9/28/19 13:00,600,The main experiment item,yes,FlankerTask.osexp,C:\Users\Jeanette\Desktop\Jeanette Master's\AQM&ED,no,mono,no,18,no,white,no,no,768,legacy,59,79,C:/Users/Jeanette/Desktop/Jeanette Master's/AQM&ED/jh-subject-2.csv,legacy,Kafkaesque Koffka,3.2.8,0,h,h,h,NA,NA,h,430,39902,39203,NA,NA,430,2,legacy,1024,2,48000,-16,experiment,HHHHH,2,even,282794,323976,2536,184673,NA,325181,42439,223877,NA,284922,2531,NA,325076,325181,325613,325072,Flanker Task,137,69664,140,yes,1024
97.87234043,97.87234043,497.070922,497.070922,black,legacy,legacy,legacy,0,Incongruent,uniform,1,undefined,1,h,140,140,0,0,0,140,0,0,0,140,0,0,140,140,140,140,9/28/19 13:00,600,The main experiment item,yes,FlankerTask.osexp,C:\Users\Jeanette\Desktop\Jeanette Master's\AQM&ED,no,mono,no,18,no,white,no,no,768,legacy,60,79,C:/Users/Jeanette/Desktop/Jeanette Master's/AQM&ED/jh-subject-2.csv,legacy,Kafkaesque Koffka,3.2.8,0,h,h,h,NA,NA,h,423,39902,39203,NA,NA,423,2,legacy,1024,2,48000,-16,experiment,SSHSS,2,even,282794,325634,2536,184673,NA,326852,42439,223877,NA,284922,2531,NA,326747,326853,327277,326744,Flanker Task,138,70087,141,yes,1024
97.88732394,97.88732394,496.2183099,496.2183099,black,legacy,legacy,legacy,0,Congruent,uniform,1,undefined,1,s,141,141,0,0,0,141,0,0,0,141,0,0,141,141,141,141,9/28/19 13:00,600,The main experiment item,yes,FlankerTask.osexp,C:\Users\Jeanette\Desktop\Jeanette Master's\AQM&ED,no,mono,no,18,no,white,no,no,768,legacy,61,79,C:/Users/Jeanette/Desktop/Jeanette Master's/AQM&ED/jh-subject-2.csv,legacy,Kafkaesque Koffka,3.2.8,0,s,h,h,NA,NA,s,376,39902,39203,NA,NA,376,2,legacy,1024,2,48000,-16,experiment,SSSSS,2,even,282794,327299,2536,184673,NA,328492,42439,223877,NA,284922,2531,NA,328387,328492,328869,328383,Flanker Task,139,70463,142,yes,1024
97.9020979,97.9020979,495.6573427,495.6573427,black,legacy,legacy,legacy,0,Congruent,uniform,1,undefined,1,h,142,142,0,0,0,142,0,0,0,142,0,0,142,142,142,142,9/28/19 13:00,600,The main experiment item,yes,FlankerTask.osexp,C:\Users\Jeanette\Desktop\Jeanette Master's\AQM&ED,no,mono,no,18,no,white,no,no,768,legacy,62,79,C:/Users/Jeanette/Desktop/Jeanette Master's/AQM&ED/jh-subject-2.csv,legacy,Kafkaesque Koffka,3.2.8,0,h,h,h,NA,NA,h,416,39902,39203,NA,NA,416,2,legacy,1024,2,48000,-16,experiment,HHHHH,2,even,282794,328893,2536,184673,NA,330106,42439,223877,NA,284922,2531,NA,330001,330107,330525,329994,Flanker Task,140,70879,143,yes,1024
97.91666667,97.91666667,495.0347222,495.0347222,black,legacy,legacy,legacy,0,Congruent,uniform,1,undefined,1,s,143,143,0,0,0,143,0,0,0,143,0,0,143,143,143,143,9/28/19 13:00,600,The main experiment item,yes,FlankerTask.osexp,C:\Users\Jeanette\Desktop\Jeanette Master's\AQM&ED,no,mono,no,18,no,white,no,no,768,legacy,63,79,C:/Users/Jeanette/Desktop/Jeanette Master's/AQM&ED/jh-subject-2.csv,legacy,Kafkaesque Koffka,3.2.8,0,s,h,h,NA,NA,s,406,39902,39203,NA,NA,406,2,legacy,1024,2,48000,-16,experiment,SSSSS,2,even,282794,330579,2536,184673,NA,331781,42439,223877,NA,284922,2531,NA,331676,331781,332189,331673,Flanker Task,141,71285,144,yes,1024
97.93103448,97.93103448,494.5586207,494.5586207,black,legacy,legacy,legacy,0,Congruent,uniform,1,undefined,1,s,144,144,0,0,0,144,0,0,0,144,0,0,144,144,144,144,9/28/19 13:00,600,The main experiment item,yes,FlankerTask.osexp,C:\Users\Jeanette\Desktop\Jeanette Master's\AQM&ED,no,mono,no,18,no,white,no,no,768,legacy,64,79,C:/Users/Jeanette/Desktop/Jeanette Master's/AQM&ED/jh-subject-2.csv,legacy,Kafkaesque Koffka,3.2.8,0,s,h,h,NA,NA,s,426,39902,39203,NA,NA,426,2,legacy,1024,2,48000,-16,experiment,SSSSS,2,even,282794,332224,2536,184673,NA,333418,42439,223877,NA,284922,2531,NA,333313,333418,333845,333310,Flanker Task,142,71711,145,yes,1024
97.26027397,97.26027397,493.7671233,493.7671233,black,legacy,legacy,legacy,0,Incongruent,uniform,0,undefined,0,s,145,145,0,0,0,145,0,0,0,145,0,0,145,145,145,145,9/28/19 13:00,600,The main experiment item,yes,FlankerTask.osexp,C:\Users\Jeanette\Desktop\Jeanette Master's\AQM&ED,no,mono,no,18,no,white,no,no,768,legacy,65,79,C:/Users/Jeanette/Desktop/Jeanette Master's/AQM&ED/jh-subject-2.csv,legacy,Kafkaesque Koffka,3.2.8,0,h,h,h,NA,NA,h,379,39902,39203,NA,NA,379,2,legacy,1024,2,48000,-16,experiment,HHSHH,2,even,282794,333869,2536,184673,NA,335048,42439,223877,NA,284922,2531,NA,334946,335048,335429,334942,Flanker Task,142,72090,146,yes,1024
97.27891156,97.27891156,492.9931973,492.9931973,black,legacy,legacy,legacy,0,Incongruent,uniform,1,undefined,1,s,146,146,0,0,0,146,0,0,0,146,0,0,146,146,146,146,9/28/19 13:00,600,The main experiment item,yes,FlankerTask.osexp,C:\Users\Jeanette\Desktop\Jeanette Master's\AQM&ED,no,mono,no,18,no,white,no,no,768,legacy,66,79,C:/Users/Jeanette/Desktop/Jeanette Master's/AQM&ED/jh-subject-2.csv,legacy,Kafkaesque Koffka,3.2.8,0,s,h,h,NA,NA,s,380,39902,39203,NA,NA,380,2,legacy,1024,2,48000,-16,experiment,HHSHH,2,even,282794,335960,2536,184673,NA,337175,42439,223877,NA,335458,2531,NA,337069,337175,337557,337066,Flanker Task,143,72470,147,yes,1024
97.2972973,97.2972973,492.8581081,492.8581081,black,legacy,legacy,legacy,0,Incongruent,uniform,1,undefined,1,h,147,147,0,0,0,147,0,0,0,147,0,0,147,147,147,147,9/28/19 13:00,600,The main experiment item,yes,FlankerTask.osexp,C:\Users\Jeanette\Desktop\Jeanette Master's\AQM&ED,no,mono,no,18,no,white,no,no,768,legacy,67,79,C:/Users/Jeanette/Desktop/Jeanette Master's/AQM&ED/jh-subject-2.csv,legacy,Kafkaesque Koffka,3.2.8,0,h,h,h,NA,NA,h,473,39902,39203,NA,NA,473,2,legacy,1024,2,48000,-16,experiment,SSHSS,2,even,282794,337592,2536,184673,NA,338802,42439,223877,NA,335458,2531,NA,338697,338802,339277,338694,Flanker Task,144,72943,148,yes,1024
97.31543624,97.31543624,492.3825503,492.3825503,black,legacy,legacy,legacy,0,Incongruent,uniform,1,undefined,1,s,148,148,0,0,0,148,0,0,0,148,0,0,148,148,148,148,9/28/19 13:00,600,The main experiment item,yes,FlankerTask.osexp,C:\Users\Jeanette\Desktop\Jeanette Master's\AQM&ED,no,mono,no,18,no,white,no,no,768,legacy,68,79,C:/Users/Jeanette/Desktop/Jeanette Master's/AQM&ED/jh-subject-2.csv,legacy,Kafkaesque Koffka,3.2.8,0,s,h,h,NA,NA,s,422,39902,39203,NA,NA,422,2,legacy,1024,2,48000,-16,experiment,HHSHH,2,even,282794,339294,2536,184673,NA,340486,42439,223877,NA,335458,2531,NA,340381,340486,340909,340378,Flanker Task,145,73365,149,yes,1024
97.33333333,97.33333333,492.4,492.4,black,legacy,legacy,legacy,0,Incongruent,uniform,1,undefined,1,h,149,149,0,0,0,149,0,0,0,149,0,0,149,149,149,149,9/28/19 13:00,600,The main experiment item,yes,FlankerTask.osexp,C:\Users\Jeanette\Desktop\Jeanette Master's\AQM&ED,no,mono,no,18,no,white,no,no,768,legacy,69,79,C:/Users/Jeanette/Desktop/Jeanette Master's/AQM&ED/jh-subject-2.csv,legacy,Kafkaesque Koffka,3.2.8,0,h,h,h,NA,NA,h,495,39902,39203,NA,NA,495,2,legacy,1024,2,48000,-16,experiment,SSHSS,2,even,282794,340928,2536,184673,NA,342133,42439,223877,NA,335458,2531,NA,342028,342133,342634,342025,Flanker Task,146,73860,150,yes,1024
97.35099338,97.35099338,491.6821192,491.6821192,black,legacy,legacy,legacy,0,Congruent,uniform,1,undefined,1,s,150,150,0,0,0,150,0,0,0,150,0,0,150,150,150,150,9/28/19 13:00,600,The main experiment item,yes,FlankerTask.osexp,C:\Users\Jeanette\Desktop\Jeanette Master's\AQM&ED,no,mono,no,18,no,white,no,no,768,legacy,70,79,C:/Users/Jeanette/Desktop/Jeanette Master's/AQM&ED/jh-subject-2.csv,legacy,Kafkaesque Koffka,3.2.8,0,s,h,h,NA,NA,s,384,39902,39203,NA,NA,384,2,legacy,1024,2,48000,-16,experiment,SSSSS,2,even,282794,342661,2536,184673,NA,343867,42439,223877,NA,335458,2531,NA,343762,343867,344253,343759,Flanker Task,147,74244,151,yes,1024
97.36842105,97.36842105,491.1842105,491.1842105,black,legacy,legacy,legacy,0,Congruent,uniform,1,undefined,1,s,151,151,0,0,0,151,0,0,0,151,0,0,151,151,151,151,9/28/19 13:00,600,The main experiment item,yes,FlankerTask.osexp,C:\Users\Jeanette\Desktop\Jeanette Master's\AQM&ED,no,mono,no,18,no,white,no,no,768,legacy,71,79,C:/Users/Jeanette/Desktop/Jeanette Master's/AQM&ED/jh-subject-2.csv,legacy,Kafkaesque Koffka,3.2.8,0,s,h,h,NA,NA,s,416,39902,39203,NA,NA,416,2,legacy,1024,2,48000,-16,experiment,SSSSS,2,even,282794,344276,2536,184673,NA,345467,42439,223877,NA,335458,2531,NA,345365,345467,345884,345361,Flanker Task,148,74660,152,yes,1024
97.38562092,97.38562092,490.8039216,490.8039216,black,legacy,legacy,legacy,0,Incongruent,uniform,1,undefined,1,s,152,152,0,0,0,152,0,0,0,152,0,0,152,152,152,152,9/28/19 13:00,600,The main experiment item,yes,FlankerTask.osexp,C:\Users\Jeanette\Desktop\Jeanette Master's\AQM&ED,no,mono,no,18,no,white,no,no,768,legacy,72,79,C:/Users/Jeanette/Desktop/Jeanette Master's/AQM&ED/jh-subject-2.csv,legacy,Kafkaesque Koffka,3.2.8,0,s,h,h,NA,NA,s,433,39902,39203,NA,NA,433,2,legacy,1024,2,48000,-16,experiment,HHSHH,2,even,282794,345903,2536,184673,NA,347098,42439,223877,NA,335458,2531,NA,346992,347098,347533,346988,Flanker Task,149,75093,153,yes,1024
96.75324675,96.75324675,490.0779221,490.0779221,black,legacy,legacy,legacy,0,Incongruent,uniform,0,undefined,0,s,153,153,0,0,0,153,0,0,0,153,0,0,153,153,153,153,9/28/19 13:00,600,The main experiment item,yes,FlankerTask.osexp,C:\Users\Jeanette\Desktop\Jeanette Master's\AQM&ED,no,mono,no,18,no,white,no,no,768,legacy,73,79,C:/Users/Jeanette/Desktop/Jeanette Master's/AQM&ED/jh-subject-2.csv,legacy,Kafkaesque Koffka,3.2.8,0,h,h,h,NA,NA,h,379,39902,39203,NA,NA,379,2,legacy,1024,2,48000,-16,experiment,HHSHH,2,even,282794,347571,2536,184673,NA,348784,42439,223877,NA,335458,2531,NA,348679,348784,349165,348676,Flanker Task,149,75472,154,yes,1024
96.77419355,96.77419355,489.2774194,489.2774194,black,legacy,legacy,legacy,0,Congruent,uniform,1,undefined,1,s,154,154,0,0,0,154,0,0,0,154,0,0,154,154,154,154,9/28/19 13:00,600,The main experiment item,yes,FlankerTask.osexp,C:\Users\Jeanette\Desktop\Jeanette Master's\AQM&ED,no,mono,no,18,no,white,no,no,768,legacy,74,79,C:/Users/Jeanette/Desktop/Jeanette Master's/AQM&ED/jh-subject-2.csv,legacy,Kafkaesque Koffka,3.2.8,0,s,h,h,NA,NA,s,366,39902,39203,NA,NA,366,2,legacy,1024,2,48000,-16,experiment,SSSSS,2,even,282794,349701,2536,184673,NA,350917,42439,223877,NA,349195,2531,NA,350812,350917,351285,350809,Flanker Task,150,75838,155,yes,1024
96.79487179,96.79487179,488.6025641,488.6025641,black,legacy,legacy,legacy,0,Congruent,uniform,1,undefined,1,s,155,155,0,0,0,155,0,0,0,155,0,0,155,155,155,155,9/28/19 13:00,600,The main experiment item,yes,FlankerTask.osexp,C:\Users\Jeanette\Desktop\Jeanette Master's\AQM&ED,no,mono,no,18,no,white,no,no,768,legacy,75,79,C:/Users/Jeanette/Desktop/Jeanette Master's/AQM&ED/jh-subject-2.csv,legacy,Kafkaesque Koffka,3.2.8,0,s,h,h,NA,NA,s,384,39902,39203,NA,NA,384,2,legacy,1024,2,48000,-16,experiment,SSSSS,2,even,282794,351397,2536,184673,NA,352579,42439,223877,NA,349195,2531,NA,352474,352579,352965,352471,Flanker Task,151,76222,156,yes,1024
96.81528662,96.81528662,488.0764331,488.0764331,black,legacy,legacy,legacy,0,Incongruent,uniform,1,undefined,1,h,156,156,0,0,0,156,0,0,0,156,0,0,156,156,156,156,9/28/19 13:00,600,The main experiment item,yes,FlankerTask.osexp,C:\Users\Jeanette\Desktop\Jeanette Master's\AQM&ED,no,mono,no,18,no,white,no,no,768,legacy,76,79,C:/Users/Jeanette/Desktop/Jeanette Master's/AQM&ED/jh-subject-2.csv,legacy,Kafkaesque Koffka,3.2.8,0,h,h,h,NA,NA,h,406,39902,39203,NA,NA,406,2,legacy,1024,2,48000,-16,experiment,SSHSS,2,even,282794,352993,2536,184673,NA,354212,42439,223877,NA,349195,2531,NA,354107,354213,354621,354104,Flanker Task,152,76628,157,yes,1024
96.83544304,96.83544304,487.7531646,487.7531646,black,legacy,legacy,legacy,0,Congruent,uniform,1,undefined,1,h,157,157,0,0,0,157,0,0,0,157,0,0,157,157,157,157,9/28/19 13:00,600,The main experiment item,yes,FlankerTask.osexp,C:\Users\Jeanette\Desktop\Jeanette Master's\AQM&ED,no,mono,no,18,no,white,no,no,768,legacy,77,79,C:/Users/Jeanette/Desktop/Jeanette Master's/AQM&ED/jh-subject-2.csv,legacy,Kafkaesque Koffka,3.2.8,0,h,h,h,NA,NA,h,437,39902,39203,NA,NA,437,2,legacy,1024,2,48000,-16,experiment,HHHHH,2,even,282794,354645,2536,184673,NA,355846,42439,223877,NA,349195,2531,NA,355741,355846,356290,355738,Flanker Task,153,77065,158,yes,1024
