"acc","accuracy","average_response_time","avg_rt","background","canvas_backend","clock_backend","color_backend","condition","correct","correct_instruction1_sketchpad","correct_keyboard_response","correct_response","count_Block1_loop","count_Block3_loop","count_block2_loop","count_errorfeedback_sketchpad","count_experiment","count_faster_sketchpad","count_finish_sketchpad","count_fixation_sketchpad","count_instruction1_sketchpad","count_instructions2_sketchpad","count_instructions3_sketchpad","count_isi_sketchpad","count_keyboard_response","count_logger_logger","count_sequence","count_stimulus_sketchpad","datetime","deadline","description","disable_garbage_collection","experiment_file","experiment_path","font_bold","font_family","font_italic","font_size","font_underline","foreground","form_clicks","fullscreen","height","keyboard_backend","live_row","live_row_Block1_loop","logfile","mouse_backend","opensesame_codename","opensesame_version","repeat_cycle","response","response_finish_sketchpad","response_instruction1_sketchpad","response_instructions2_sketchpad","response_instructions3_sketchpad","response_keyboard_response","response_time","response_time_finish_sketchpad","response_time_instruction1_sketchpad","response_time_instructions2_sketchpad","response_time_instructions3_sketchpad","response_time_keyboard_response","round_decimals","sampler_backend","sound_buf_size","sound_channels","sound_freq","sound_sample_size","start","stimulus","subject_nr","subject_parity","time_Block1_loop","time_Block3_loop","time_block2_loop","time_errorfeedback_sketchpad","time_experiment","time_faster_sketchpad","time_finish_sketchpad","time_fixation_sketchpad","time_instruction1_sketchpad","time_instructions2_sketchpad","time_instructions3_sketchpad","time_isi_sketchpad","time_keyboard_response","time_logger_logger","time_sequence","time_stimulus_sketchpad","title","total_correct","total_response_time","total_responses","width"
"100","100","1214","1214","#3d3846","legacy","legacy","legacy","congruent","1","undefined","1","h","0","0","0","0","0","0","0","0","0","0","0","0","0","0","0","0","Sun Sep 24 13:05:28 2023","1500","The main experiment item","False","Flankertask fixed.osexp","C:\Users\User","False","mono","False","18","no","white","no","yes","768","legacy","0","0","C:/Users/User/Desktop/data files/subject-2.csv","legacy","Melodramatic Milgram","4.0.5","0","h","NA","s","NA","NA","h","1214.0","NA","199562","NA","NA","1214","2","legacy","1024","2","48000","-16","experiment","HHHHH","2","even","200711","NA","NA","NA","1140","NA","NA","200763","1148","NA","NA","NA","200866","202080","200762","200865","Flankertask","1","1214.0","1","1024"
"100","100","1138","1138","#3d3846","legacy","legacy","legacy","incongruent","1","undefined","1","h","0","0","0","1","0","1","0","1","0","0","0","1","1","1","1","1","Sun Sep 24 13:05:28 2023","1500","The main experiment item","False","Flankertask fixed.osexp","C:\Users\User","False","mono","False","18","no","white","no","yes","768","legacy","1","1","C:/Users/User/Desktop/data files/subject-2.csv","legacy","Melodramatic Milgram","4.0.5","0","h","NA","s","NA","NA","h","1063.0","NA","199562","NA","NA","1063","2","legacy","1024","2","48000","-16","experiment","SSHSS","2","even","200711","NA","NA","NA","1140","NA","NA","203185","1148","NA","NA","202090","203286","204349","203183","203286","Flankertask","2","2277.0","2","1024"
"100","100","994","994","#3d3846","legacy","legacy","legacy","incongruent","1","undefined","1","h","0","0","0","2","0","2","0","2","0","0","0","2","2","2","2","2","Sun Sep 24 13:05:28 2023","1500","The main experiment item","False","Flankertask fixed.osexp","C:\Users\User","False","mono","False","18","no","white","no","yes","768","legacy","2","2","C:/Users/User/Desktop/data files/subject-2.csv","legacy","Melodramatic Milgram","4.0.5","0","h","NA","s","NA","NA","h","706.0","NA","199562","NA","NA","706","2","legacy","1024","2","48000","-16","experiment","SSHSS","2","even","200711","NA","NA","NA","1140","NA","NA","205455","1148","NA","NA","204357","205557","206263","205452","205557","Flankertask","3","2983.0","3","1024"
"100","100","932","932","#3d3846","legacy","legacy","legacy","incongruent","1","undefined","1","s","0","0","0","3","0","3","0","3","0","0","0","3","3","3","3","3","Sun Sep 24 13:05:28 2023","1500","The main experiment item","False","Flankertask fixed.osexp","C:\Users\User","False","mono","False","18","no","white","no","yes","768","legacy","3","3","C:/Users/User/Desktop/data files/subject-2.csv","legacy","Melodramatic Milgram","4.0.5","0","s","NA","s","NA","NA","s","747.0","NA","199562","NA","NA","747","2","legacy","1024","2","48000","-16","experiment","HHSHH","2","even","200711","NA","NA","NA","1140","NA","NA","207368","1148","NA","NA","206272","207469","208217","207366","207469","Flankertask","4","3730.0","4","1024"
"100","100","929","929","#3d3846","legacy","legacy","legacy","incongruent","1","undefined","1","h","0","0","0","4","0","4","0","4","0","0","0","4","4","4","4","4","Sun Sep 24 13:05:28 2023","1500","The main experiment item","False","Flankertask fixed.osexp","C:\Users\User","False","mono","False","18","no","white","no","yes","768","legacy","4","4","C:/Users/User/Desktop/data files/subject-2.csv","legacy","Melodramatic Milgram","4.0.5","0","h","NA","s","NA","NA","h","915.0","NA","199562","NA","NA","915","2","legacy","1024","2","48000","-16","experiment","SSHSS","2","even","200711","NA","NA","NA","1140","NA","NA","209323","1148","NA","NA","208224","209424","210339","209321","209424","Flankertask","5","4645.0","5","1024"
"100","100","868","868","#3d3846","legacy","legacy","legacy","incongruent","1","undefined","1","h","0","0","0","5","0","5","0","5","0","0","0","5","5","5","5","5","Sun Sep 24 13:05:28 2023","1500","The main experiment item","False","Flankertask fixed.osexp","C:\Users\User","False","mono","False","18","no","white","no","yes","768","legacy","5","5","C:/Users/User/Desktop/data files/subject-2.csv","legacy","Melodramatic Milgram","4.0.5","0","h","NA","s","NA","NA","h","565.0","NA","199562","NA","NA","565","2","legacy","1024","2","48000","-16","experiment","SSHSS","2","even","200711","NA","NA","NA","1140","NA","NA","211455","1148","NA","NA","210345","211558","212123","211452","211557","Flankertask","6","5210.0","6","1024"
"100","100","843","843","#3d3846","legacy","legacy","legacy","congruent","1","undefined","1","h","0","0","0","6","0","6","0","6","0","0","0","6","6","6","6","6","Sun Sep 24 13:05:28 2023","1500","The main experiment item","False","Flankertask fixed.osexp","C:\Users\User","False","mono","False","18","no","white","no","yes","768","legacy","6","6","C:/Users/User/Desktop/data files/subject-2.csv","legacy","Melodramatic Milgram","4.0.5","0","h","NA","s","NA","NA","h","693.0","NA","199562","NA","NA","693","2","legacy","1024","2","48000","-16","experiment","HHHHH","2","even","200711","NA","NA","NA","1140","NA","NA","213232","1148","NA","NA","212131","213333","214026","213229","213333","Flankertask","7","5903.0","7","1024"
"100","100","811","811","#3d3846","legacy","legacy","legacy","congruent","1","undefined","1","h","0","0","0","7","0","7","0","7","0","0","0","7","7","7","7","7","Sun Sep 24 13:05:28 2023","1500","The main experiment item","False","Flankertask fixed.osexp","C:\Users\User","False","mono","False","18","no","white","no","yes","768","legacy","7","7","C:/Users/User/Desktop/data files/subject-2.csv","legacy","Melodramatic Milgram","4.0.5","0","h","NA","s","NA","NA","h","590.0","NA","199562","NA","NA","590","2","legacy","1024","2","48000","-16","experiment","HHHHH","2","even","200711","NA","NA","NA","1140","NA","NA","215135","1148","NA","NA","214033","215236","215826","215132","215236","Flankertask","8","6493.0","8","1024"
"100","100","805","805","#3d3846","legacy","legacy","legacy","incongruent","1","undefined","1","s","0","0","0","8","0","8","0","8","0","0","0","8","8","8","8","8","Sun Sep 24 13:05:28 2023","1500","The main experiment item","False","Flankertask fixed.osexp","C:\Users\User","False","mono","False","18","no","white","no","yes","768","legacy","8","8","C:/Users/User/Desktop/data files/subject-2.csv","legacy","Melodramatic Milgram","4.0.5","0","s","NA","s","NA","NA","s","758.0","NA","199562","NA","NA","758","2","legacy","1024","2","48000","-16","experiment","HHSHH","2","even","200711","NA","NA","NA","1140","NA","NA","216940","1148","NA","NA","215829","217041","217800","216938","217041","Flankertask","9","7251.0","9","1024"
"100","100","796","796","#3d3846","legacy","legacy","legacy","congruent","1","undefined","1","h","0","0","0","9","0","9","0","9","0","0","0","9","9","9","9","9","Sun Sep 24 13:05:28 2023","1500","The main experiment item","False","Flankertask fixed.osexp","C:\Users\User","False","mono","False","18","no","white","no","yes","768","legacy","9","9","C:/Users/User/Desktop/data files/subject-2.csv","legacy","Melodramatic Milgram","4.0.5","0","h","NA","s","NA","NA","h","712.0","NA","199562","NA","NA","712","2","legacy","1024","2","48000","-16","experiment","HHHHH","2","even","200711","NA","NA","NA","1140","NA","NA","218911","1148","NA","NA","217807","219012","219725","218908","219012","Flankertask","10","7963.0","10","1024"
"100","100","768","768","#3d3846","legacy","legacy","legacy","incongruent","1","undefined","1","s","0","0","0","10","0","10","0","10","0","0","0","10","10","10","10","10","Sun Sep 24 13:05:28 2023","1500","The main experiment item","False","Flankertask fixed.osexp","C:\Users\User","False","mono","False","18","no","white","no","yes","768","legacy","10","10","C:/Users/User/Desktop/data files/subject-2.csv","legacy","Melodramatic Milgram","4.0.5","0","s","NA","s","NA","NA","s","487.0","NA","199562","NA","NA","487","2","legacy","1024","2","48000","-16","experiment","HHSHH","2","even","200711","NA","NA","NA","1140","NA","NA","220835","1148","NA","NA","219731","220936","221424","220832","220936","Flankertask","11","8450.0","11","1024"
"100","100","766","766","#3d3846","legacy","legacy","legacy","incongruent","1","undefined","1","s","0","0","0","11","0","11","0","11","0","0","0","11","11","11","11","11","Sun Sep 24 13:05:28 2023","1500","The main experiment item","False","Flankertask fixed.osexp","C:\Users\User","False","mono","False","18","no","white","no","yes","768","legacy","11","11","C:/Users/User/Desktop/data files/subject-2.csv","legacy","Melodramatic Milgram","4.0.5","0","s","NA","s","NA","NA","s","745.0","NA","199562","NA","NA","745","2","legacy","1024","2","48000","-16","experiment","HHSHH","2","even","200711","NA","NA","NA","1140","NA","NA","222528","1148","NA","NA","221432","222629","223375","222526","222629","Flankertask","12","9195.0","12","1024"
"100","100","759","759","#3d3846","legacy","legacy","legacy","congruent","1","undefined","1","s","0","0","0","12","0","12","0","12","0","0","0","12","12","12","12","12","Sun Sep 24 13:05:28 2023","1500","The main experiment item","False","Flankertask fixed.osexp","C:\Users\User","False","mono","False","18","no","white","no","yes","768","legacy","12","12","C:/Users/User/Desktop/data files/subject-2.csv","legacy","Melodramatic Milgram","4.0.5","0","s","NA","s","NA","NA","s","676.0","NA","199562","NA","NA","676","2","legacy","1024","2","48000","-16","experiment","SSSSS","2","even","200711","NA","NA","NA","1140","NA","NA","224485","1148","NA","NA","223382","224586","225263","224482","224586","Flankertask","13","9871.0","13","1024"
"100","100","746","746","#3d3846","legacy","legacy","legacy","congruent","1","undefined","1","h","0","0","0","13","0","13","0","13","0","0","0","13","13","13","13","13","Sun Sep 24 13:05:28 2023","1500","The main experiment item","False","Flankertask fixed.osexp","C:\Users\User","False","mono","False","18","no","white","no","yes","768","legacy","13","13","C:/Users/User/Desktop/data files/subject-2.csv","legacy","Melodramatic Milgram","4.0.5","0","h","NA","s","NA","NA","h","586.0","NA","199562","NA","NA","586","2","legacy","1024","2","48000","-16","experiment","HHHHH","2","even","200711","NA","NA","NA","1140","NA","NA","226374","1148","NA","NA","225271","226475","227061","226371","226475","Flankertask","14","10457.0","14","1024"
"100","100","738","738","#3d3846","legacy","legacy","legacy","congruent","1","undefined","1","h","0","0","0","14","0","14","0","14","0","0","0","14","14","14","14","14","Sun Sep 24 13:05:28 2023","1500","The main experiment item","False","Flankertask fixed.osexp","C:\Users\User","False","mono","False","18","no","white","no","yes","768","legacy","14","14","C:/Users/User/Desktop/data files/subject-2.csv","legacy","Melodramatic Milgram","4.0.5","0","h","NA","s","NA","NA","h","614.0","NA","199562","NA","NA","614","2","legacy","1024","2","48000","-16","experiment","HHHHH","2","even","200711","NA","NA","NA","1140","NA","NA","228165","1148","NA","NA","227067","228266","228880","228162","228266","Flankertask","15","11071.0","15","1024"
"100","100","722","722","#3d3846","legacy","legacy","legacy","congruent","1","undefined","1","h","0","0","0","15","0","15","0","15","0","0","0","15","15","15","15","15","Sun Sep 24 13:05:28 2023","1500","The main experiment item","False","Flankertask fixed.osexp","C:\Users\User","False","mono","False","18","no","white","no","yes","768","legacy","15","15","C:/Users/User/Desktop/data files/subject-2.csv","legacy","Melodramatic Milgram","4.0.5","0","h","NA","s","NA","NA","h","491.0","NA","199562","NA","NA","491","2","legacy","1024","2","48000","-16","experiment","HHHHH","2","even","200711","NA","NA","NA","1140","NA","NA","229989","1148","NA","NA","228887","230090","230582","229986","230090","Flankertask","16","11562.0","16","1024"
"100","100","707","707","#3d3846","legacy","legacy","legacy","congruent","1","undefined","1","h","0","0","0","16","0","16","0","16","0","0","0","16","16","16","16","16","Sun Sep 24 13:05:28 2023","1500","The main experiment item","False","Flankertask fixed.osexp","C:\Users\User","False","mono","False","18","no","white","no","yes","768","legacy","16","16","C:/Users/User/Desktop/data files/subject-2.csv","legacy","Melodramatic Milgram","4.0.5","0","h","NA","s","NA","NA","h","472.0","NA","199562","NA","NA","472","2","legacy","1024","2","48000","-16","experiment","HHHHH","2","even","200711","NA","NA","NA","1140","NA","NA","231694","1148","NA","NA","230589","231796","232268","231691","231796","Flankertask","17","12034.0","17","1024"
"100","100","709","709","#3d3846","legacy","legacy","legacy","incongruent","1","undefined","1","s","0","0","0","17","0","17","0","17","0","0","0","17","17","17","17","17","Sun Sep 24 13:05:28 2023","1500","The main experiment item","False","Flankertask fixed.osexp","C:\Users\User","False","mono","False","18","no","white","no","yes","768","legacy","17","17","C:/Users/User/Desktop/data files/subject-2.csv","legacy","Melodramatic Milgram","4.0.5","0","s","NA","s","NA","NA","s","740.0","NA","199562","NA","NA","740","2","legacy","1024","2","48000","-16","experiment","HHSHH","2","even","200711","NA","NA","NA","1140","NA","NA","233384","1148","NA","NA","232275","233486","234227","233382","233485","Flankertask","18","12774.0","18","1024"
"100","100","711","711","#3d3846","legacy","legacy","legacy","incongruent","1","undefined","1","h","0","0","0","18","0","18","0","18","0","0","0","18","18","18","18","18","Sun Sep 24 13:05:28 2023","1500","The main experiment item","False","Flankertask fixed.osexp","C:\Users\User","False","mono","False","18","no","white","no","yes","768","legacy","18","18","C:/Users/User/Desktop/data files/subject-2.csv","legacy","Melodramatic Milgram","4.0.5","0","h","NA","s","NA","NA","h","747.0","NA","199562","NA","NA","747","2","legacy","1024","2","48000","-16","experiment","SSHSS","2","even","200711","NA","NA","NA","1140","NA","NA","235331","1148","NA","NA","234234","235433","236180","235329","235432","Flankertask","19","13521.0","19","1024"
"100","100","701","701","#3d3846","legacy","legacy","legacy","incongruent","1","undefined","1","h","0","0","0","19","0","19","0","19","0","0","0","19","19","19","19","19","Sun Sep 24 13:05:28 2023","1500","The main experiment item","False","Flankertask fixed.osexp","C:\Users\User","False","mono","False","18","no","white","no","yes","768","legacy","19","19","C:/Users/User/Desktop/data files/subject-2.csv","legacy","Melodramatic Milgram","4.0.5","0","h","NA","s","NA","NA","h","513.0","NA","199562","NA","NA","513","2","legacy","1024","2","48000","-16","experiment","SSHSS","2","even","200711","NA","NA","NA","1140","NA","NA","237285","1148","NA","NA","236187","237386","237900","237282","237386","Flankertask","20","14034.0","20","1024"
"100","100","688","688","#3d3846","legacy","legacy","legacy","congruent","1","undefined","1","h","0","0","0","20","0","20","0","20","0","0","0","20","20","20","20","20","Sun Sep 24 13:05:28 2023","1500","The main experiment item","False","Flankertask fixed.osexp","C:\Users\User","False","mono","False","18","no","white","no","yes","768","legacy","20","20","C:/Users/User/Desktop/data files/subject-2.csv","legacy","Melodramatic Milgram","4.0.5","0","h","NA","s","NA","NA","h","432.0","NA","199562","NA","NA","432","2","legacy","1024","2","48000","-16","experiment","HHHHH","2","even","200711","NA","NA","NA","1140","NA","NA","239005","1148","NA","NA","237906","239106","239539","239002","239106","Flankertask","21","14466.0","21","1024"
"100","100","677","677","#3d3846","legacy","legacy","legacy","incongruent","1","undefined","1","s","0","0","0","21","0","21","0","21","0","0","0","21","21","21","21","21","Sun Sep 24 13:05:28 2023","1500","The main experiment item","False","Flankertask fixed.osexp","C:\Users\User","False","mono","False","18","no","white","no","yes","768","legacy","21","21","C:/Users/User/Desktop/data files/subject-2.csv","legacy","Melodramatic Milgram","4.0.5","0","s","NA","s","NA","NA","s","437.0","NA","199562","NA","NA","437","2","legacy","1024","2","48000","-16","experiment","HHSHH","2","even","200711","NA","NA","NA","1140","NA","NA","240640","1148","NA","NA","239546","240741","241178","240638","240741","Flankertask","22","14903.0","22","1024"
"100","100","674","674","#3d3846","legacy","legacy","legacy","congruent","1","undefined","1","s","0","0","0","22","0","22","0","22","0","0","0","22","22","22","22","22","Sun Sep 24 13:05:28 2023","1500","The main experiment item","False","Flankertask fixed.osexp","C:\Users\User","False","mono","False","18","no","white","no","yes","768","legacy","22","22","C:/Users/User/Desktop/data files/subject-2.csv","legacy","Melodramatic Milgram","4.0.5","0","s","NA","s","NA","NA","s","619.0","NA","199562","NA","NA","619","2","legacy","1024","2","48000","-16","experiment","SSSSS","2","even","200711","NA","NA","NA","1140","NA","NA","242282","1148","NA","NA","241185","242383","243003","242279","242383","Flankertask","23","15522.0","23","1024"
"100","100","672","672","#3d3846","legacy","legacy","legacy","incongruent","1","undefined","1","s","0","0","0","23","0","23","0","23","0","0","0","23","23","23","23","23","Sun Sep 24 13:05:28 2023","1500","The main experiment item","False","Flankertask fixed.osexp","C:\Users\User","False","mono","False","18","no","white","no","yes","768","legacy","23","23","C:/Users/User/Desktop/data files/subject-2.csv","legacy","Melodramatic Milgram","4.0.5","0","s","NA","s","NA","NA","s","627.0","NA","199562","NA","NA","627","2","legacy","1024","2","48000","-16","experiment","HHSHH","2","even","200711","NA","NA","NA","1140","NA","NA","244105","1148","NA","NA","243010","244206","244833","244102","244206","Flankertask","24","16149.0","24","1024"
"100","100","667","667","#3d3846","legacy","legacy","legacy","congruent","1","undefined","1","h","0","0","0","24","0","24","0","24","0","0","0","24","24","24","24","24","Sun Sep 24 13:05:28 2023","1500","The main experiment item","False","Flankertask fixed.osexp","C:\Users\User","False","mono","False","18","no","white","no","yes","768","legacy","24","24","C:/Users/User/Desktop/data files/subject-2.csv","legacy","Melodramatic Milgram","4.0.5","0","h","NA","s","NA","NA","h","538.0","NA","199562","NA","NA","538","2","legacy","1024","2","48000","-16","experiment","HHHHH","2","even","200711","NA","NA","NA","1140","NA","NA","245941","1148","NA","NA","244839","246043","246582","245938","246042","Flankertask","25","16687.0","25","1024"
"100","100","667","667","#3d3846","legacy","legacy","legacy","congruent","1","undefined","1","s","0","0","0","25","0","25","0","25","0","0","0","25","25","25","25","25","Sun Sep 24 13:05:28 2023","1500","The main experiment item","False","Flankertask fixed.osexp","C:\Users\User","False","mono","False","18","no","white","no","yes","768","legacy","25","25","C:/Users/User/Desktop/data files/subject-2.csv","legacy","Melodramatic Milgram","4.0.5","0","s","NA","s","NA","NA","s","660.0","NA","199562","NA","NA","660","2","legacy","1024","2","48000","-16","experiment","SSSSS","2","even","200711","NA","NA","NA","1140","NA","NA","247692","1148","NA","NA","246589","247793","248454","247689","247793","Flankertask","26","17347.0","26","1024"
"100","100","661","661","#3d3846","legacy","legacy","legacy","congruent","1","undefined","1","h","0","0","0","26","0","26","0","26","0","0","0","26","26","26","26","26","Sun Sep 24 13:05:28 2023","1500","The main experiment item","False","Flankertask fixed.osexp","C:\Users\User","False","mono","False","18","no","white","no","yes","768","legacy","26","26","C:/Users/User/Desktop/data files/subject-2.csv","legacy","Melodramatic Milgram","4.0.5","0","h","NA","s","NA","NA","h","510.0","NA","199562","NA","NA","510","2","legacy","1024","2","48000","-16","experiment","HHHHH","2","even","200711","NA","NA","NA","1140","NA","NA","249575","1148","NA","NA","248461","249676","250187","249572","249676","Flankertask","27","17857.0","27","1024"
"100","100","654","654","#3d3846","legacy","legacy","legacy","incongruent","1","undefined","1","s","0","0","0","27","0","27","0","27","0","0","0","27","27","27","27","27","Sun Sep 24 13:05:28 2023","1500","The main experiment item","False","Flankertask fixed.osexp","C:\Users\User","False","mono","False","18","no","white","no","yes","768","legacy","27","27","C:/Users/User/Desktop/data files/subject-2.csv","legacy","Melodramatic Milgram","4.0.5","0","s","NA","s","NA","NA","s","462.0","NA","199562","NA","NA","462","2","legacy","1024","2","48000","-16","experiment","HHSHH","2","even","200711","NA","NA","NA","1140","NA","NA","251295","1148","NA","NA","250194","251396","251859","251291","251396","Flankertask","28","18319.0","28","1024"
"100","100","649","649","#3d3846","legacy","legacy","legacy","congruent","1","undefined","1","s","0","0","0","28","0","28","0","28","0","0","0","28","28","28","28","28","Sun Sep 24 13:05:28 2023","1500","The main experiment item","False","Flankertask fixed.osexp","C:\Users\User","False","mono","False","18","no","white","no","yes","768","legacy","28","28","C:/Users/User/Desktop/data files/subject-2.csv","legacy","Melodramatic Milgram","4.0.5","0","s","NA","s","NA","NA","s","519.0","NA","199562","NA","NA","519","2","legacy","1024","2","48000","-16","experiment","SSSSS","2","even","200711","NA","NA","NA","1140","NA","NA","252961","1148","NA","NA","251865","253063","253583","252958","253062","Flankertask","29","18838.0","29","1024"
"96","96","641","641","#3d3846","legacy","legacy","legacy","incongruent","0","undefined","0","h","0","0","0","29","0","29","0","29","0","0","0","29","29","29","29","29","Sun Sep 24 13:05:28 2023","1500","The main experiment item","False","Flankertask fixed.osexp","C:\Users\User","False","mono","False","18","no","white","no","yes","768","legacy","29","29","C:/Users/User/Desktop/data files/subject-2.csv","legacy","Melodramatic Milgram","4.0.5","0","s","NA","s","NA","NA","s","414.0","NA","199562","NA","NA","414","2","legacy","1024","2","48000","-16","experiment","SSHSS","2","even","200711","NA","NA","NA","1140","NA","NA","254688","1148","NA","NA","253589","254789","255204","254686","254789","Flankertask","29","19252.0","30","1024"
"93","93","633","633","#3d3846","legacy","legacy","legacy","incongruent","0","undefined","0","s","0","0","0","30","0","30","0","30","0","0","0","30","30","30","30","30","Sun Sep 24 13:05:28 2023","1500","The main experiment item","False","Flankertask fixed.osexp","C:\Users\User","False","mono","False","18","no","white","no","yes","768","legacy","30","30","C:/Users/User/Desktop/data files/subject-2.csv","legacy","Melodramatic Milgram","4.0.5","0","h","NA","s","NA","NA","h","399.0","NA","199562","NA","NA","399","2","legacy","1024","2","48000","-16","experiment","HHSHH","2","even","200711","NA","NA","255211","1140","NA","NA","256808","1148","NA","NA","255712","256911","257310","256805","256910","Flankertask","29","19651.0","31","1024"
"93","93","630","630","#3d3846","legacy","legacy","legacy","congruent","1","undefined","1","h","0","0","0","31","0","31","0","31","0","0","0","31","31","31","31","31","Sun Sep 24 13:05:28 2023","1500","The main experiment item","False","Flankertask fixed.osexp","C:\Users\User","False","mono","False","18","no","white","no","yes","768","legacy","31","31","C:/Users/User/Desktop/data files/subject-2.csv","legacy","Melodramatic Milgram","4.0.5","0","h","NA","s","NA","NA","h","511.0","NA","199562","NA","NA","511","2","legacy","1024","2","48000","-16","experiment","HHHHH","2","even","200711","NA","NA","257317","1140","NA","NA","258914","1148","NA","NA","257818","259015","259527","258911","259015","Flankertask","30","20162.0","32","1024"
"93","93","633","633","#3d3846","legacy","legacy","legacy","congruent","1","undefined","1","s","0","0","0","32","0","32","0","32","0","0","0","32","32","32","32","32","Sun Sep 24 13:05:28 2023","1500","The main experiment item","False","Flankertask fixed.osexp","C:\Users\User","False","mono","False","18","no","white","no","yes","768","legacy","32","32","C:/Users/User/Desktop/data files/subject-2.csv","legacy","Melodramatic Milgram","4.0.5","0","s","NA","s","NA","NA","s","731.0","NA","199562","NA","NA","731","2","legacy","1024","2","48000","-16","experiment","SSSSS","2","even","200711","NA","NA","257317","1140","NA","NA","260635","1148","NA","NA","259533","260736","261468","260632","260736","Flankertask","31","20893.0","33","1024"
"94","94","630","630","#3d3846","legacy","legacy","legacy","congruent","1","undefined","1","s","0","0","0","33","0","33","0","33","0","0","0","33","33","33","33","33","Sun Sep 24 13:05:28 2023","1500","The main experiment item","False","Flankertask fixed.osexp","C:\Users\User","False","mono","False","18","no","white","no","yes","768","legacy","33","33","C:/Users/User/Desktop/data files/subject-2.csv","legacy","Melodramatic Milgram","4.0.5","0","s","NA","s","NA","NA","s","533.0","NA","199562","NA","NA","533","2","legacy","1024","2","48000","-16","experiment","SSSSS","2","even","200711","NA","NA","257317","1140","NA","NA","262569","1148","NA","NA","261474","262670","263204","262567","262670","Flankertask","32","21426.0","34","1024"
"94","94","630","630","#3d3846","legacy","legacy","legacy","incongruent","1","undefined","1","h","0","0","0","34","0","34","0","34","0","0","0","34","34","34","34","34","Sun Sep 24 13:05:28 2023","1500","The main experiment item","False","Flankertask fixed.osexp","C:\Users\User","False","mono","False","18","no","white","no","yes","768","legacy","34","34","C:/Users/User/Desktop/data files/subject-2.csv","legacy","Melodramatic Milgram","4.0.5","0","h","NA","s","NA","NA","h","645.0","NA","199562","NA","NA","645","2","legacy","1024","2","48000","-16","experiment","SSHSS","2","even","200711","NA","NA","257317","1140","NA","NA","264310","1148","NA","NA","263211","264412","265057","264307","264411","Flankertask","33","22071.0","35","1024"
"94","94","629","629","#3d3846","legacy","legacy","legacy","congruent","1","undefined","1","s","0","0","0","35","0","35","0","35","0","0","0","35","35","35","35","35","Sun Sep 24 13:05:28 2023","1500","The main experiment item","False","Flankertask fixed.osexp","C:\Users\User","False","mono","False","18","no","white","no","yes","768","legacy","35","35","C:/Users/User/Desktop/data files/subject-2.csv","legacy","Melodramatic Milgram","4.0.5","0","s","NA","s","NA","NA","s","606.0","NA","199562","NA","NA","606","2","legacy","1024","2","48000","-16","experiment","SSSSS","2","even","200711","NA","NA","257317","1140","NA","NA","266170","1148","NA","NA","265064","266271","266878","266168","266271","Flankertask","34","22677.0","36","1024"
"94","94","627","627","#3d3846","legacy","legacy","legacy","incongruent","1","undefined","1","h","0","0","0","36","0","36","0","36","0","0","0","36","36","36","36","36","Sun Sep 24 13:05:28 2023","1500","The main experiment item","False","Flankertask fixed.osexp","C:\Users\User","False","mono","False","18","no","white","no","yes","768","legacy","36","36","C:/Users/User/Desktop/data files/subject-2.csv","legacy","Melodramatic Milgram","4.0.5","0","h","NA","s","NA","NA","h","535.0","NA","199562","NA","NA","535","2","legacy","1024","2","48000","-16","experiment","SSHSS","2","even","200711","NA","NA","257317","1140","NA","NA","267989","1148","NA","NA","266885","268090","268626","267986","268090","Flankertask","35","23212.0","37","1024"
"92","92","623","623","#3d3846","legacy","legacy","legacy","incongruent","0","undefined","0","s","0","0","0","37","0","37","0","37","0","0","0","37","37","37","37","37","Sun Sep 24 13:05:28 2023","1500","The main experiment item","False","Flankertask fixed.osexp","C:\Users\User","False","mono","False","18","no","white","no","yes","768","legacy","37","37","C:/Users/User/Desktop/data files/subject-2.csv","legacy","Melodramatic Milgram","4.0.5","0","h","NA","s","NA","NA","h","480.0","NA","199562","NA","NA","480","2","legacy","1024","2","48000","-16","experiment","HHSHH","2","even","200711","NA","NA","257317","1140","NA","NA","269734","1148","NA","NA","268632","269835","270316","269731","269835","Flankertask","35","23692.0","38","1024"
"92","92","626","626","#3d3846","legacy","legacy","legacy","incongruent","1","undefined","1","s","0","0","0","38","0","38","0","38","0","0","0","38","38","38","38","38","Sun Sep 24 13:05:28 2023","1500","The main experiment item","False","Flankertask fixed.osexp","C:\Users\User","False","mono","False","18","no","white","no","yes","768","legacy","38","38","C:/Users/User/Desktop/data files/subject-2.csv","legacy","Melodramatic Milgram","4.0.5","0","s","NA","s","NA","NA","s","758.0","NA","199562","NA","NA","758","2","legacy","1024","2","48000","-16","experiment","HHSHH","2","even","200711","NA","NA","270323","1140","NA","NA","271920","1148","NA","NA","270824","272021","272780","271917","272021","Flankertask","36","24450.0","39","1024"
"92","92","625","625","#3d3846","legacy","legacy","legacy","incongruent","1","undefined","1","h","0","0","0","39","0","39","0","39","0","0","0","39","39","39","39","39","Sun Sep 24 13:05:28 2023","1500","The main experiment item","False","Flankertask fixed.osexp","C:\Users\User","False","mono","False","18","no","white","no","yes","768","legacy","39","39","C:/Users/User/Desktop/data files/subject-2.csv","legacy","Melodramatic Milgram","4.0.5","0","h","NA","s","NA","NA","h","568.0","NA","199562","NA","NA","568","2","legacy","1024","2","48000","-16","experiment","SSHSS","2","even","200711","NA","NA","270323","1140","NA","NA","273882","1148","NA","NA","272786","273985","274553","273881","273984","Flankertask","37","25018.0","40","1024"
"92","92","625","625","#3d3846","legacy","legacy","legacy","congruent","1","undefined","1","h","0","0","0","40","0","40","0","40","0","0","0","40","40","40","40","40","Sun Sep 24 13:05:28 2023","1500","The main experiment item","False","Flankertask fixed.osexp","C:\Users\User","False","mono","False","18","no","white","no","yes","768","legacy","40","40","C:/Users/User/Desktop/data files/subject-2.csv","legacy","Melodramatic Milgram","4.0.5","0","h","NA","s","NA","NA","h","646.0","NA","199562","NA","NA","646","2","legacy","1024","2","48000","-16","experiment","HHHHH","2","even","200711","NA","NA","270323","1140","NA","NA","275655","1148","NA","NA","274559","275756","276402","275653","275756","Flankertask","38","25664.0","41","1024"
"92","92","629","629","#3d3846","legacy","legacy","legacy","congruent","1","undefined","1","s","0","0","0","41","0","41","0","41","0","0","0","41","41","41","41","41","Sun Sep 24 13:05:28 2023","1500","The main experiment item","False","Flankertask fixed.osexp","C:\Users\User","False","mono","False","18","no","white","no","yes","768","legacy","41","41","C:/Users/User/Desktop/data files/subject-2.csv","legacy","Melodramatic Milgram","4.0.5","0","s","NA","s","NA","NA","s","784.0","NA","199562","NA","NA","784","2","legacy","1024","2","48000","-16","experiment","SSSSS","2","even","200711","NA","NA","270323","1140","NA","NA","277513","1148","NA","NA","276408","277614","278398","277509","277614","Flankertask","39","26448.0","42","1024"
"93","93","626","626","#3d3846","legacy","legacy","legacy","congruent","1","undefined","1","s","0","0","0","42","0","42","0","42","0","0","0","42","42","42","42","42","Sun Sep 24 13:05:28 2023","1500","The main experiment item","False","Flankertask fixed.osexp","C:\Users\User","False","mono","False","18","no","white","no","yes","768","legacy","42","42","C:/Users/User/Desktop/data files/subject-2.csv","legacy","Melodramatic Milgram","4.0.5","0","s","NA","s","NA","NA","s","499.0","NA","199562","NA","NA","499","2","legacy","1024","2","48000","-16","experiment","SSSSS","2","even","200711","NA","NA","270323","1140","NA","NA","279509","1148","NA","NA","278405","279610","280109","279506","279610","Flankertask","40","26947.0","43","1024"
"93","93","625","625","#3d3846","legacy","legacy","legacy","incongruent","1","undefined","1","s","0","0","0","43","0","43","0","43","0","0","0","43","43","43","43","43","Sun Sep 24 13:05:28 2023","1500","The main experiment item","False","Flankertask fixed.osexp","C:\Users\User","False","mono","False","18","no","white","no","yes","768","legacy","43","43","C:/Users/User/Desktop/data files/subject-2.csv","legacy","Melodramatic Milgram","4.0.5","0","s","NA","s","NA","NA","s","592.0","NA","199562","NA","NA","592","2","legacy","1024","2","48000","-16","experiment","HHSHH","2","even","200711","NA","NA","270323","1140","NA","NA","281239","1148","NA","NA","280116","281340","281933","281235","281340","Flankertask","41","27539.0","44","1024"
"93","93","626","626","#3d3846","legacy","legacy","legacy","incongruent","1","undefined","1","s","0","0","0","44","0","44","0","44","0","0","0","44","44","44","44","44","Sun Sep 24 13:05:28 2023","1500","The main experiment item","False","Flankertask fixed.osexp","C:\Users\User","False","mono","False","18","no","white","no","yes","768","legacy","44","44","C:/Users/User/Desktop/data files/subject-2.csv","legacy","Melodramatic Milgram","4.0.5","0","s","NA","s","NA","NA","s","660.0","NA","199562","NA","NA","660","2","legacy","1024","2","48000","-16","experiment","HHSHH","2","even","200711","NA","NA","270323","1140","NA","NA","283061","1148","NA","NA","281939","283162","283822","283060","283162","Flankertask","42","28199.0","45","1024"
"93","93","625","625","#3d3846","legacy","legacy","legacy","congruent","1","undefined","1","s","0","0","0","45","0","45","0","45","0","0","0","45","45","45","45","45","Sun Sep 24 13:05:28 2023","1500","The main experiment item","False","Flankertask fixed.osexp","C:\Users\User","False","mono","False","18","no","white","no","yes","768","legacy","45","45","C:/Users/User/Desktop/data files/subject-2.csv","legacy","Melodramatic Milgram","4.0.5","0","s","NA","s","NA","NA","s","576.0","NA","199562","NA","NA","576","2","legacy","1024","2","48000","-16","experiment","SSSSS","2","even","200711","NA","NA","270323","1140","NA","NA","284931","1148","NA","NA","283829","285032","285609","284929","285032","Flankertask","43","28775.0","46","1024"
"93","93","627","627","#3d3846","legacy","legacy","legacy","incongruent","1","undefined","1","s","0","0","0","46","0","46","0","46","0","0","0","46","46","46","46","46","Sun Sep 24 13:05:28 2023","1500","The main experiment item","False","Flankertask fixed.osexp","C:\Users\User","False","mono","False","18","no","white","no","yes","768","legacy","46","46","C:/Users/User/Desktop/data files/subject-2.csv","legacy","Melodramatic Milgram","4.0.5","0","s","NA","s","NA","NA","s","737.0","NA","199562","NA","NA","737","2","legacy","1024","2","48000","-16","experiment","HHSHH","2","even","200711","NA","NA","270323","1140","NA","NA","286710","1148","NA","NA","285616","286812","287550","286709","286811","Flankertask","44","29512.0","47","1024"
"93","93","625","625","#3d3846","legacy","legacy","legacy","congruent","1","undefined","1","s","0","0","0","47","0","47","0","47","0","0","0","47","47","47","47","47","Sun Sep 24 13:05:28 2023","1500","The main experiment item","False","Flankertask fixed.osexp","C:\Users\User","False","mono","False","18","no","white","no","yes","768","legacy","47","47","C:/Users/User/Desktop/data files/subject-2.csv","legacy","Melodramatic Milgram","4.0.5","0","s","NA","s","NA","NA","s","497.0","NA","199562","NA","NA","497","2","legacy","1024","2","48000","-16","experiment","SSSSS","2","even","200711","NA","NA","270323","1140","NA","NA","288655","1148","NA","NA","287558","288756","289254","288652","288756","Flankertask","45","30009.0","48","1024"
"93","93","626","626","#3d3846","legacy","legacy","legacy","incongruent","1","undefined","1","s","0","0","0","48","0","48","0","48","0","0","0","48","48","48","48","48","Sun Sep 24 13:05:28 2023","1500","The main experiment item","False","Flankertask fixed.osexp","C:\Users\User","False","mono","False","18","no","white","no","yes","768","legacy","48","48","C:/Users/User/Desktop/data files/subject-2.csv","legacy","Melodramatic Milgram","4.0.5","0","s","NA","s","NA","NA","s","681.0","NA","199562","NA","NA","681","2","legacy","1024","2","48000","-16","experiment","HHSHH","2","even","200711","NA","NA","270323","1140","NA","NA","290354","1148","NA","NA","289260","290455","291137","290352","290455","Flankertask","46","30690.0","49","1024"
"94","94","623","623","#3d3846","legacy","legacy","legacy","congruent","1","undefined","1","s","0","0","0","49","0","49","0","49","0","0","0","49","49","49","49","49","Sun Sep 24 13:05:28 2023","1500","The main experiment item","False","Flankertask fixed.osexp","C:\Users\User","False","mono","False","18","no","white","no","yes","768","legacy","49","49","C:/Users/User/Desktop/data files/subject-2.csv","legacy","Melodramatic Milgram","4.0.5","0","s","NA","s","NA","NA","s","480.0","NA","199562","NA","NA","480","2","legacy","1024","2","48000","-16","experiment","SSSSS","2","even","200711","NA","NA","270323","1140","NA","NA","292239","1148","NA","NA","291144","292340","292821","292237","292340","Flankertask","47","31170.0","50","1024"
"94","94","621","621","#3d3846","legacy","legacy","legacy","congruent","1","undefined","1","h","0","0","0","50","0","50","0","50","0","0","0","50","50","50","50","50","Sun Sep 24 13:05:28 2023","1500","The main experiment item","False","Flankertask fixed.osexp","C:\Users\User","False","mono","False","18","no","white","no","yes","768","legacy","50","50","C:/Users/User/Desktop/data files/subject-2.csv","legacy","Melodramatic Milgram","4.0.5","0","h","NA","s","NA","NA","h","517.0","NA","199562","NA","NA","517","2","legacy","1024","2","48000","-16","experiment","HHHHH","2","even","200711","NA","NA","270323","1140","NA","NA","293931","1148","NA","NA","292828","294032","294550","293928","294032","Flankertask","48","31687.0","51","1024"
"94","94","620","620","#3d3846","legacy","legacy","legacy","congruent","1","undefined","1","s","0","0","0","51","0","51","0","51","0","0","0","51","51","51","51","51","Sun Sep 24 13:05:28 2023","1500","The main experiment item","False","Flankertask fixed.osexp","C:\Users\User","False","mono","False","18","no","white","no","yes","768","legacy","51","51","C:/Users/User/Desktop/data files/subject-2.csv","legacy","Melodramatic Milgram","4.0.5","0","s","NA","s","NA","NA","s","573.0","NA","199562","NA","NA","573","2","legacy","1024","2","48000","-16","experiment","SSSSS","2","even","200711","NA","NA","270323","1140","NA","NA","295654","1148","NA","NA","294556","295755","296329","295652","295755","Flankertask","49","32260.0","52","1024"
"94","94","622","622","#3d3846","legacy","legacy","legacy","incongruent","1","undefined","1","s","0","0","0","52","0","52","0","52","0","0","0","52","52","52","52","52","Sun Sep 24 13:05:28 2023","1500","The main experiment item","False","Flankertask fixed.osexp","C:\Users\User","False","mono","False","18","no","white","no","yes","768","legacy","52","52","C:/Users/User/Desktop/data files/subject-2.csv","legacy","Melodramatic Milgram","4.0.5","0","s","NA","s","NA","NA","s","755.0","NA","199562","NA","NA","755","2","legacy","1024","2","48000","-16","experiment","HHSHH","2","even","200711","NA","NA","270323","1140","NA","NA","297434","1148","NA","NA","296336","297535","298290","297431","297535","Flankertask","50","33015.0","53","1024"
"94","94","623","623","#3d3846","legacy","legacy","legacy","incongruent","1","undefined","1","h","0","0","0","53","0","53","0","53","0","0","0","53","53","53","53","53","Sun Sep 24 13:05:28 2023","1500","The main experiment item","False","Flankertask fixed.osexp","C:\Users\User","False","mono","False","18","no","white","no","yes","768","legacy","53","53","C:/Users/User/Desktop/data files/subject-2.csv","legacy","Melodramatic Milgram","4.0.5","0","h","NA","s","NA","NA","h","642.0","NA","199562","NA","NA","642","2","legacy","1024","2","48000","-16","experiment","SSHSS","2","even","200711","NA","NA","270323","1140","NA","NA","299417","1148","NA","NA","298297","299518","300160","299415","299518","Flankertask","51","33657.0","54","1024"
"94","94","622","622","#3d3846","legacy","legacy","legacy","incongruent","1","undefined","1","h","0","0","0","54","0","54","0","54","0","0","0","54","54","54","54","54","Sun Sep 24 13:05:28 2023","1500","The main experiment item","False","Flankertask fixed.osexp","C:\Users\User","False","mono","False","18","no","white","no","yes","768","legacy","54","54","C:/Users/User/Desktop/data files/subject-2.csv","legacy","Melodramatic Milgram","4.0.5","0","h","NA","s","NA","NA","h","557.0","NA","199562","NA","NA","557","2","legacy","1024","2","48000","-16","experiment","SSHSS","2","even","200711","NA","NA","270323","1140","NA","NA","301263","1148","NA","NA","300167","301364","301921","301261","301364","Flankertask","52","34214.0","55","1024"
"94","94","621","621","#3d3846","legacy","legacy","legacy","incongruent","1","undefined","1","h","0","0","0","55","0","55","0","55","0","0","0","55","55","55","55","55","Sun Sep 24 13:05:28 2023","1500","The main experiment item","False","Flankertask fixed.osexp","C:\Users\User","False","mono","False","18","no","white","no","yes","768","legacy","55","55","C:/Users/User/Desktop/data files/subject-2.csv","legacy","Melodramatic Milgram","4.0.5","0","h","NA","s","NA","NA","h","611.0","NA","199562","NA","NA","611","2","legacy","1024","2","48000","-16","experiment","SSHSS","2","even","200711","NA","NA","270323","1140","NA","NA","303022","1148","NA","NA","301927","303123","303735","303020","303123","Flankertask","53","34825.0","56","1024"
"94","94","621","621","#3d3846","legacy","legacy","legacy","congruent","1","undefined","1","s","0","0","0","56","0","56","0","56","0","0","0","56","56","56","56","56","Sun Sep 24 13:05:28 2023","1500","The main experiment item","False","Flankertask fixed.osexp","C:\Users\User","False","mono","False","18","no","white","no","yes","768","legacy","56","56","C:/Users/User/Desktop/data files/subject-2.csv","legacy","Melodramatic Milgram","4.0.5","0","s","NA","s","NA","NA","s","596.0","NA","199562","NA","NA","596","2","legacy","1024","2","48000","-16","experiment","SSSSS","2","even","200711","NA","NA","270323","1140","NA","NA","304845","1148","NA","NA","303742","304947","305544","304842","304946","Flankertask","54","35421.0","57","1024"
"94","94","621","621","#3d3846","legacy","legacy","legacy","congruent","1","undefined","1","h","0","0","0","57","0","57","0","57","0","0","0","57","57","57","57","57","Sun Sep 24 13:05:28 2023","1500","The main experiment item","False","Flankertask fixed.osexp","C:\Users\User","False","mono","False","18","no","white","no","yes","768","legacy","57","57","C:/Users/User/Desktop/data files/subject-2.csv","legacy","Melodramatic Milgram","4.0.5","0","h","NA","s","NA","NA","h","631.0","NA","199562","NA","NA","631","2","legacy","1024","2","48000","-16","experiment","HHHHH","2","even","200711","NA","NA","270323","1140","NA","NA","306644","1148","NA","NA","305550","306745","307376","306642","306745","Flankertask","55","36052.0","58","1024"
"94","94","619","619","#3d3846","legacy","legacy","legacy","incongruent","1","undefined","1","s","0","0","0","58","0","58","0","58","0","0","0","58","58","58","58","58","Sun Sep 24 13:05:28 2023","1500","The main experiment item","False","Flankertask fixed.osexp","C:\Users\User","False","mono","False","18","no","white","no","yes","768","legacy","58","58","C:/Users/User/Desktop/data files/subject-2.csv","legacy","Melodramatic Milgram","4.0.5","0","s","NA","s","NA","NA","s","519.0","NA","199562","NA","NA","519","2","legacy","1024","2","48000","-16","experiment","HHSHH","2","even","200711","NA","NA","270323","1140","NA","NA","308480","1148","NA","NA","307382","308581","309102","308478","308581","Flankertask","56","36571.0","59","1024"
"95","95","617","617","#3d3846","legacy","legacy","legacy","congruent","1","undefined","1","s","0","0","0","59","0","59","0","59","0","0","0","59","59","59","59","59","Sun Sep 24 13:05:28 2023","1500","The main experiment item","False","Flankertask fixed.osexp","C:\Users\User","False","mono","False","18","no","white","no","yes","768","legacy","59","59","C:/Users/User/Desktop/data files/subject-2.csv","legacy","Melodramatic Milgram","4.0.5","0","s","NA","s","NA","NA","s","502.0","NA","199562","NA","NA","502","2","legacy","1024","2","48000","-16","experiment","SSSSS","2","even","200711","NA","NA","270323","1140","NA","NA","310207","1148","NA","NA","309109","310308","310811","310204","310308","Flankertask","57","37073.0","60","1024"
"95","95","617","617","#3d3846","legacy","legacy","legacy","incongruent","1","undefined","1","h","0","0","0","60","0","60","0","60","0","0","0","60","60","60","60","60","Sun Sep 24 13:05:28 2023","1500","The main experiment item","False","Flankertask fixed.osexp","C:\Users\User","False","mono","False","18","no","white","no","yes","768","legacy","60","60","C:/Users/User/Desktop/data files/subject-2.csv","legacy","Melodramatic Milgram","4.0.5","0","h","NA","s","NA","NA","h","608.0","NA","199562","NA","NA","608","2","legacy","1024","2","48000","-16","experiment","SSHSS","2","even","200711","NA","NA","270323","1140","NA","NA","311911","1148","NA","NA","310818","312012","312621","311910","312012","Flankertask","58","37681.0","61","1024"
"95","95","618","618","#3d3846","legacy","legacy","legacy","incongruent","1","undefined","1","h","0","0","0","61","0","61","0","61","0","0","0","61","61","61","61","61","Sun Sep 24 13:05:28 2023","1500","The main experiment item","False","Flankertask fixed.osexp","C:\Users\User","False","mono","False","18","no","white","no","yes","768","legacy","61","61","C:/Users/User/Desktop/data files/subject-2.csv","legacy","Melodramatic Milgram","4.0.5","0","h","NA","s","NA","NA","h","678.0","NA","199562","NA","NA","678","2","legacy","1024","2","48000","-16","experiment","SSHSS","2","even","200711","NA","NA","270323","1140","NA","NA","313724","1148","NA","NA","312628","313825","314504","313722","313825","Flankertask","59","38359.0","62","1024"
"95","95","620","620","#3d3846","legacy","legacy","legacy","incongruent","1","undefined","1","s","0","0","0","62","0","62","0","62","0","0","0","62","62","62","62","62","Sun Sep 24 13:05:28 2023","1500","The main experiment item","False","Flankertask fixed.osexp","C:\Users\User","False","mono","False","18","no","white","no","yes","768","legacy","62","62","C:/Users/User/Desktop/data files/subject-2.csv","legacy","Melodramatic Milgram","4.0.5","0","s","NA","s","NA","NA","s","743.0","NA","199562","NA","NA","743","2","legacy","1024","2","48000","-16","experiment","HHSHH","2","even","200711","NA","NA","270323","1140","NA","NA","315618","1148","NA","NA","314511","315719","316463","315616","315719","Flankertask","60","39102.0","63","1024"
"95","95","621","621","#3d3846","legacy","legacy","legacy","congruent","1","undefined","1","s","0","0","0","63","0","63","0","63","0","0","0","63","63","63","63","63","Sun Sep 24 13:05:28 2023","1500","The main experiment item","False","Flankertask fixed.osexp","C:\Users\User","False","mono","False","18","no","white","no","yes","768","legacy","63","63","C:/Users/User/Desktop/data files/subject-2.csv","legacy","Melodramatic Milgram","4.0.5","0","s","NA","s","NA","NA","s","644.0","NA","199562","NA","NA","644","2","legacy","1024","2","48000","-16","experiment","SSSSS","2","even","200711","NA","NA","270323","1140","NA","NA","317571","1148","NA","NA","316469","317673","318318","317568","317672","Flankertask","61","39746.0","64","1024"
"95","95","619","619","#3d3846","legacy","legacy","legacy","congruent","1","undefined","1","h","0","0","0","64","0","64","0","64","0","0","0","64","64","64","64","64","Sun Sep 24 13:05:28 2023","1500","The main experiment item","False","Flankertask fixed.osexp","C:\Users\User","False","mono","False","18","no","white","no","yes","768","legacy","64","64","C:/Users/User/Desktop/data files/subject-2.csv","legacy","Melodramatic Milgram","4.0.5","0","h","NA","s","NA","NA","h","536.0","NA","199562","NA","NA","536","2","legacy","1024","2","48000","-16","experiment","HHHHH","2","even","200711","NA","NA","270323","1140","NA","NA","319427","1148","NA","NA","318324","319528","320065","319423","319528","Flankertask","62","40282.0","65","1024"
"95","95","618","618","#3d3846","legacy","legacy","legacy","congruent","1","undefined","1","h","0","0","0","65","0","65","0","65","0","0","0","65","65","65","65","65","Sun Sep 24 13:05:28 2023","1500","The main experiment item","False","Flankertask fixed.osexp","C:\Users\User","False","mono","False","18","no","white","no","yes","768","legacy","65","65","C:/Users/User/Desktop/data files/subject-2.csv","legacy","Melodramatic Milgram","4.0.5","0","h","NA","s","NA","NA","h","550.0","NA","199562","NA","NA","550","2","legacy","1024","2","48000","-16","experiment","HHHHH","2","even","200711","NA","NA","270323","1140","NA","NA","321167","1148","NA","NA","320072","321268","321819","321164","321268","Flankertask","63","40832.0","66","1024"
"95","95","619","619","#3d3846","legacy","legacy","legacy","congruent","1","undefined","1","s","0","0","0","66","0","66","0","66","0","0","0","66","66","66","66","66","Sun Sep 24 13:05:28 2023","1500","The main experiment item","False","Flankertask fixed.osexp","C:\Users\User","False","mono","False","18","no","white","no","yes","768","legacy","66","66","C:/Users/User/Desktop/data files/subject-2.csv","legacy","Melodramatic Milgram","4.0.5","0","s","NA","s","NA","NA","s","650.0","NA","199562","NA","NA","650","2","legacy","1024","2","48000","-16","experiment","SSSSS","2","even","200711","NA","NA","270323","1140","NA","NA","322923","1148","NA","NA","321825","323025","323675","322921","323024","Flankertask","64","41482.0","67","1024"
"95","95","619","619","#3d3846","legacy","legacy","legacy","incongruent","1","undefined","1","h","0","0","0","67","0","67","0","67","0","0","0","67","67","67","67","67","Sun Sep 24 13:05:28 2023","1500","The main experiment item","False","Flankertask fixed.osexp","C:\Users\User","False","mono","False","18","no","white","no","yes","768","legacy","67","67","C:/Users/User/Desktop/data files/subject-2.csv","legacy","Melodramatic Milgram","4.0.5","0","h","NA","s","NA","NA","h","677.0","NA","199562","NA","NA","677","2","legacy","1024","2","48000","-16","experiment","SSHSS","2","even","200711","NA","NA","270323","1140","NA","NA","324747","1148","NA","NA","323682","324848","325526","324745","324848","Flankertask","65","42159.0","68","1024"
"95","95","619","619","#3d3846","legacy","legacy","legacy","congruent","1","undefined","1","s","0","0","0","68","0","68","0","68","0","0","0","68","68","68","68","68","Sun Sep 24 13:05:28 2023","1500","The main experiment item","False","Flankertask fixed.osexp","C:\Users\User","False","mono","False","18","no","white","no","yes","768","legacy","68","68","C:/Users/User/Desktop/data files/subject-2.csv","legacy","Melodramatic Milgram","4.0.5","0","s","NA","s","NA","NA","s","552.0","NA","199562","NA","NA","552","2","legacy","1024","2","48000","-16","experiment","SSSSS","2","even","200711","NA","NA","270323","1140","NA","NA","326628","1148","NA","NA","325534","326729","327282","326625","326729","Flankertask","66","42711.0","69","1024"
"95","95","619","619","#3d3846","legacy","legacy","legacy","congruent","1","undefined","1","s","0","0","0","69","0","69","0","69","0","0","0","69","69","69","69","69","Sun Sep 24 13:05:28 2023","1500","The main experiment item","False","Flankertask fixed.osexp","C:\Users\User","False","mono","False","18","no","white","no","yes","768","legacy","69","69","C:/Users/User/Desktop/data files/subject-2.csv","legacy","Melodramatic Milgram","4.0.5","0","s","NA","s","NA","NA","s","660.0","NA","199562","NA","NA","660","2","legacy","1024","2","48000","-16","experiment","SSSSS","2","even","200711","NA","NA","270323","1140","NA","NA","328383","1148","NA","NA","327288","328484","329145","328381","328484","Flankertask","67","43371.0","70","1024"
"95","95","617","617","#3d3846","legacy","legacy","legacy","congruent","1","undefined","1","h","0","0","0","70","0","70","0","70","0","0","0","70","70","70","70","70","Sun Sep 24 13:05:28 2023","1500","The main experiment item","False","Flankertask fixed.osexp","C:\Users\User","False","mono","False","18","no","white","no","yes","768","legacy","70","70","C:/Users/User/Desktop/data files/subject-2.csv","legacy","Melodramatic Milgram","4.0.5","0","h","NA","s","NA","NA","h","488.0","NA","199562","NA","NA","488","2","legacy","1024","2","48000","-16","experiment","HHHHH","2","even","200711","NA","NA","270323","1140","NA","NA","330252","1148","NA","NA","329152","330353","330842","330249","330353","Flankertask","68","43859.0","71","1024"
"95","95","616","616","#3d3846","legacy","legacy","legacy","incongruent","1","undefined","1","s","0","0","0","71","0","71","0","71","0","0","0","71","71","71","71","71","Sun Sep 24 13:05:28 2023","1500","The main experiment item","False","Flankertask fixed.osexp","C:\Users\User","False","mono","False","18","no","white","no","yes","768","legacy","71","71","C:/Users/User/Desktop/data files/subject-2.csv","legacy","Melodramatic Milgram","4.0.5","0","s","NA","s","NA","NA","s","563.0","NA","199562","NA","NA","563","2","legacy","1024","2","48000","-16","experiment","HHSHH","2","even","200711","NA","NA","270323","1140","NA","NA","331973","1148","NA","NA","330849","332074","332639","331970","332074","Flankertask","69","44422.0","72","1024"
"95","95","614","614","#3d3846","legacy","legacy","legacy","congruent","1","undefined","1","h","0","0","0","72","0","72","0","72","0","0","0","72","72","72","72","72","Sun Sep 24 13:05:28 2023","1500","The main experiment item","False","Flankertask fixed.osexp","C:\Users\User","False","mono","False","18","no","white","no","yes","768","legacy","72","72","C:/Users/User/Desktop/data files/subject-2.csv","legacy","Melodramatic Milgram","4.0.5","0","h","NA","s","NA","NA","h","448.0","NA","199562","NA","NA","448","2","legacy","1024","2","48000","-16","experiment","HHHHH","2","even","200711","NA","NA","270323","1140","NA","NA","333744","1148","NA","NA","332646","333845","334294","333742","333845","Flankertask","70","44870.0","73","1024"
"95","95","613","613","#3d3846","legacy","legacy","legacy","congruent","1","undefined","1","h","0","0","0","73","0","73","0","73","0","0","0","73","73","73","73","73","Sun Sep 24 13:05:28 2023","1500","The main experiment item","False","Flankertask fixed.osexp","C:\Users\User","False","mono","False","18","no","white","no","yes","768","legacy","73","73","C:/Users/User/Desktop/data files/subject-2.csv","legacy","Melodramatic Milgram","4.0.5","0","h","NA","s","NA","NA","h","562.0","NA","199562","NA","NA","562","2","legacy","1024","2","48000","-16","experiment","HHHHH","2","even","200711","NA","NA","270323","1140","NA","NA","335396","1148","NA","NA","334300","335497","336060","335394","335497","Flankertask","71","45432.0","74","1024"
"96","96","613","613","#3d3846","legacy","legacy","legacy","incongruent","1","undefined","1","h","0","0","0","74","0","74","0","74","0","0","0","74","74","74","74","74","Sun Sep 24 13:05:28 2023","1500","The main experiment item","False","Flankertask fixed.osexp","C:\Users\User","False","mono","False","18","no","white","no","yes","768","legacy","74","74","C:/Users/User/Desktop/data files/subject-2.csv","legacy","Melodramatic Milgram","4.0.5","0","h","NA","s","NA","NA","h","587.0","NA","199562","NA","NA","587","2","legacy","1024","2","48000","-16","experiment","SSHSS","2","even","200711","NA","NA","270323","1140","NA","NA","337165","1148","NA","NA","336066","337266","337854","337163","337266","Flankertask","72","46019.0","75","1024"
"96","96","612","612","#3d3846","legacy","legacy","legacy","incongruent","1","undefined","1","h","0","0","0","75","0","75","0","75","0","0","0","75","75","75","75","75","Sun Sep 24 13:05:28 2023","1500","The main experiment item","False","Flankertask fixed.osexp","C:\Users\User","False","mono","False","18","no","white","no","yes","768","legacy","75","75","C:/Users/User/Desktop/data files/subject-2.csv","legacy","Melodramatic Milgram","4.0.5","0","h","NA","s","NA","NA","h","524.0","NA","199562","NA","NA","524","2","legacy","1024","2","48000","-16","experiment","SSHSS","2","even","200711","NA","NA","270323","1140","NA","NA","338959","1148","NA","NA","337861","339060","339584","338957","339060","Flankertask","73","46543.0","76","1024"
"96","96","611","611","#3d3846","legacy","legacy","legacy","incongruent","1","undefined","1","h","0","0","0","76","0","76","0","76","0","0","0","76","76","76","76","76","Sun Sep 24 13:05:28 2023","1500","The main experiment item","False","Flankertask fixed.osexp","C:\Users\User","False","mono","False","18","no","white","no","yes","768","legacy","76","76","C:/Users/User/Desktop/data files/subject-2.csv","legacy","Melodramatic Milgram","4.0.5","0","h","NA","s","NA","NA","h","535.0","NA","199562","NA","NA","535","2","legacy","1024","2","48000","-16","experiment","SSHSS","2","even","200711","NA","NA","270323","1140","NA","NA","340686","1148","NA","NA","339591","340788","341324","340683","340787","Flankertask","74","47078.0","77","1024"
"96","96","611","611","#3d3846","legacy","legacy","legacy","congruent","1","undefined","1","s","0","0","0","77","0","77","0","77","0","0","0","77","77","77","77","77","Sun Sep 24 13:05:28 2023","1500","The main experiment item","False","Flankertask fixed.osexp","C:\Users\User","False","mono","False","18","no","white","no","yes","768","legacy","77","77","C:/Users/User/Desktop/data files/subject-2.csv","legacy","Melodramatic Milgram","4.0.5","0","s","NA","s","NA","NA","s","612.0","NA","199562","NA","NA","612","2","legacy","1024","2","48000","-16","experiment","SSSSS","2","even","200711","NA","NA","270323","1140","NA","NA","342432","1148","NA","NA","341331","342533","343147","342429","342533","Flankertask","75","47690.0","78","1024"
"96","96","613","613","#3d3846","legacy","legacy","legacy","incongruent","1","undefined","1","s","0","0","0","78","0","78","0","78","0","0","0","78","78","78","78","78","Sun Sep 24 13:05:28 2023","1500","The main experiment item","False","Flankertask fixed.osexp","C:\Users\User","False","mono","False","18","no","white","no","yes","768","legacy","78","78","C:/Users/User/Desktop/data files/subject-2.csv","legacy","Melodramatic Milgram","4.0.5","0","s","NA","s","NA","NA","s","781.0","NA","199562","NA","NA","781","2","legacy","1024","2","48000","-16","experiment","HHSHH","2","even","200711","NA","NA","270323","1140","NA","NA","344243","1148","NA","NA","343155","344345","345127","344241","344345","Flankertask","76","48471.0","79","1024"
"96","96","613","613","#3d3846","legacy","legacy","legacy","incongruent","1","undefined","1","h","0","0","0","79","0","79","0","79","0","0","0","79","79","79","79","79","Sun Sep 24 13:05:28 2023","1500","The main experiment item","False","Flankertask fixed.osexp","C:\Users\User","False","mono","False","18","no","white","no","yes","768","legacy","79","79","C:/Users/User/Desktop/data files/subject-2.csv","legacy","Melodramatic Milgram","4.0.5","0","h","NA","s","NA","NA","h","575.0","NA","199562","NA","NA","575","2","legacy","1024","2","48000","-16","experiment","SSHSS","2","even","200711","NA","NA","270323","1140","NA","NA","346228","1148","NA","NA","345133","346330","346906","346226","346330","Flankertask","77","49046.0","80","1024"
"96","96","612","612","#3d3846","legacy","legacy","legacy","congruent","1","undefined","1","s","0","0","0","80","0","80","0","80","0","0","0","80","80","80","80","80","Sun Sep 24 13:05:28 2023","600","The main experiment item","False","Flankertask fixed.osexp","C:\Users\User","False","mono","False","18","no","white","no","yes","768","legacy","0","79","C:/Users/User/Desktop/data files/subject-2.csv","legacy","Melodramatic Milgram","4.0.5","0","s","NA","s","s","NA","s","560.0","NA","199562","14595","NA","560","2","legacy","1024","2","48000","-16","experiment","SSSSS","2","even","200711","NA","362512","270323","1140","NA","NA","362596","1148","347915","NA","346913","362699","363260","362595","362697","Flankertask","78","49606.0","81","1024"
"96","96","610","610","#3d3846","legacy","legacy","legacy","congruent","1","undefined","1","s","0","0","0","81","0","81","0","81","0","0","0","81","81","81","81","81","Sun Sep 24 13:05:28 2023","600","The main experiment item","False","Flankertask fixed.osexp","C:\Users\User","False","mono","False","18","no","white","no","yes","768","legacy","1","79","C:/Users/User/Desktop/data files/subject-2.csv","legacy","Melodramatic Milgram","4.0.5","0","s","NA","s","s","NA","s","456.0","NA","199562","14595","NA","456","2","legacy","1024","2","48000","-16","experiment","SSSSS","2","even","200711","NA","362512","270323","1140","NA","NA","364356","1148","347915","NA","363268","364458","364915","364354","364457","Flankertask","79","50062.0","82","1024"
"96","96","608","608","#3d3846","legacy","legacy","legacy","congruent","1","undefined","1","s","0","0","0","82","0","82","0","82","0","0","0","82","82","82","82","82","Sun Sep 24 13:05:28 2023","600","The main experiment item","False","Flankertask fixed.osexp","C:\Users\User","False","mono","False","18","no","white","no","yes","768","legacy","2","79","C:/Users/User/Desktop/data files/subject-2.csv","legacy","Melodramatic Milgram","4.0.5","0","s","NA","s","s","NA","s","446.0","NA","199562","14595","NA","446","2","legacy","1024","2","48000","-16","experiment","SSSSS","2","even","200711","NA","362512","270323","1140","NA","NA","366020","1148","347915","NA","364921","366121","366568","366017","366121","Flankertask","80","50508.0","83","1024"
"96","96","607","607","#3d3846","legacy","legacy","legacy","incongruent","1","undefined","1","s","0","0","0","83","0","83","0","83","0","0","0","83","83","83","83","83","Sun Sep 24 13:05:28 2023","600","The main experiment item","False","Flankertask fixed.osexp","C:\Users\User","False","mono","False","18","no","white","no","yes","768","legacy","3","79","C:/Users/User/Desktop/data files/subject-2.csv","legacy","Melodramatic Milgram","4.0.5","0","s","NA","s","s","NA","s","481.0","NA","199562","14595","NA","481","2","legacy","1024","2","48000","-16","experiment","HHSHH","2","even","200711","NA","362512","270323","1140","NA","NA","367677","1148","347915","NA","366575","367778","368260","367674","367778","Flankertask","81","50989.0","84","1024"
"96","96","605","605","#3d3846","legacy","legacy","legacy","incongruent","1","undefined","1","s","0","0","0","84","0","84","0","84","0","0","0","84","84","84","84","84","Sun Sep 24 13:05:28 2023","600","The main experiment item","False","Flankertask fixed.osexp","C:\Users\User","False","mono","False","18","no","white","no","yes","768","legacy","4","79","C:/Users/User/Desktop/data files/subject-2.csv","legacy","Melodramatic Milgram","4.0.5","0","s","NA","s","s","NA","s","463.0","NA","199562","14595","NA","463","2","legacy","1024","2","48000","-16","experiment","HHSHH","2","even","200711","NA","362512","270323","1140","NA","NA","369368","1148","347915","NA","368267","369470","369935","369365","369469","Flankertask","82","51452.0","85","1024"
"96","96","603","603","#3d3846","legacy","legacy","legacy","congruent","1","undefined","1","s","0","0","0","85","0","85","0","85","0","0","0","85","85","85","85","85","Sun Sep 24 13:05:28 2023","600","The main experiment item","False","Flankertask fixed.osexp","C:\Users\User","False","mono","False","18","no","white","no","yes","768","legacy","5","79","C:/Users/User/Desktop/data files/subject-2.csv","legacy","Melodramatic Milgram","4.0.5","0","s","NA","s","s","NA","s","420.0","NA","199562","14595","NA","420","2","legacy","1024","2","48000","-16","experiment","SSSSS","2","even","200711","NA","362512","270323","1140","NA","NA","371038","1148","347915","NA","369941","371139","371560","371037","371139","Flankertask","83","51872.0","86","1024"
"96","96","601","601","#3d3846","legacy","legacy","legacy","congruent","1","undefined","1","s","0","0","0","86","0","86","0","86","0","0","0","86","86","86","86","86","Sun Sep 24 13:05:28 2023","600","The main experiment item","False","Flankertask fixed.osexp","C:\Users\User","False","mono","False","18","no","white","no","yes","768","legacy","6","79","C:/Users/User/Desktop/data files/subject-2.csv","legacy","Melodramatic Milgram","4.0.5","0","s","NA","s","s","NA","s","469.0","NA","199562","14595","NA","469","2","legacy","1024","2","48000","-16","experiment","SSSSS","2","even","200711","NA","362512","270323","1140","NA","NA","372668","1148","347915","NA","371568","372770","373240","372665","372769","Flankertask","84","52341.0","87","1024"
"96","96","600","600","#3d3846","legacy","legacy","legacy","incongruent","1","undefined","1","s","0","0","0","87","0","87","0","87","0","0","0","87","87","87","87","87","Sun Sep 24 13:05:28 2023","600","The main experiment item","False","Flankertask fixed.osexp","C:\Users\User","False","mono","False","18","no","white","no","yes","768","legacy","7","79","C:/Users/User/Desktop/data files/subject-2.csv","legacy","Melodramatic Milgram","4.0.5","0","s","NA","s","s","NA","s","489.0","NA","199562","14595","NA","489","2","legacy","1024","2","48000","-16","experiment","HHSHH","2","even","200711","NA","362512","270323","1140","NA","NA","374363","1148","347915","NA","373248","374464","374954","374360","374464","Flankertask","85","52830.0","88","1024"
"96","96","598","598","#3d3846","legacy","legacy","legacy","congruent","1","undefined","1","s","0","0","0","88","0","88","0","88","0","0","0","88","88","88","88","88","Sun Sep 24 13:05:28 2023","600","The main experiment item","False","Flankertask fixed.osexp","C:\Users\User","False","mono","False","18","no","white","no","yes","768","legacy","8","79","C:/Users/User/Desktop/data files/subject-2.csv","legacy","Melodramatic Milgram","4.0.5","0","s","NA","s","s","NA","s","415.0","NA","199562","14595","NA","415","2","legacy","1024","2","48000","-16","experiment","SSSSS","2","even","200711","NA","362512","270323","1140","NA","NA","376058","1148","347915","NA","374961","376159","376575","376055","376159","Flankertask","86","53245.0","89","1024"
"96","96","597","597","#3d3846","legacy","legacy","legacy","congruent","1","undefined","1","h","0","0","0","89","0","89","0","89","0","0","0","89","89","89","89","89","Sun Sep 24 13:05:28 2023","600","The main experiment item","False","Flankertask fixed.osexp","C:\Users\User","False","mono","False","18","no","white","no","yes","768","legacy","9","79","C:/Users/User/Desktop/data files/subject-2.csv","legacy","Melodramatic Milgram","4.0.5","0","h","NA","s","s","NA","h","561.0","NA","199562","14595","NA","561","2","legacy","1024","2","48000","-16","experiment","HHHHH","2","even","200711","NA","362512","270323","1140","NA","NA","377680","1148","347915","NA","376581","377781","378343","377677","377781","Flankertask","87","53806.0","90","1024"
"96","96","596","596","#3d3846","legacy","legacy","legacy","incongruent","1","undefined","1","h","0","0","0","90","0","90","0","90","0","0","0","90","90","90","90","90","Sun Sep 24 13:05:28 2023","600","The main experiment item","False","Flankertask fixed.osexp","C:\Users\User","False","mono","False","18","no","white","no","yes","768","legacy","10","79","C:/Users/User/Desktop/data files/subject-2.csv","legacy","Melodramatic Milgram","4.0.5","0","h","NA","s","s","NA","h","489.0","NA","199562","14595","NA","489","2","legacy","1024","2","48000","-16","experiment","SSHSS","2","even","200711","NA","362512","270323","1140","NA","NA","379450","1148","347915","NA","378350","379551","380041","379447","379551","Flankertask","88","54295.0","91","1024"
"96","96","595","595","#3d3846","legacy","legacy","legacy","congruent","1","undefined","1","h","0","0","0","91","0","91","0","91","0","0","0","91","91","91","91","91","Sun Sep 24 13:05:28 2023","600","The main experiment item","False","Flankertask fixed.osexp","C:\Users\User","False","mono","False","18","no","white","no","yes","768","legacy","11","79","C:/Users/User/Desktop/data files/subject-2.csv","legacy","Melodramatic Milgram","4.0.5","0","h","NA","s","s","NA","h","513.0","NA","199562","14595","NA","513","2","legacy","1024","2","48000","-16","experiment","HHHHH","2","even","200711","NA","362512","270323","1140","NA","NA","381143","1148","347915","NA","380047","381244","381758","381141","381244","Flankertask","89","54808.0","92","1024"
"96","96","595","595","#3d3846","legacy","legacy","legacy","incongruent","1","undefined","1","s","0","0","0","92","0","92","0","92","0","0","0","92","92","92","92","92","Sun Sep 24 13:05:28 2023","600","The main experiment item","False","Flankertask fixed.osexp","C:\Users\User","False","mono","False","18","no","white","no","yes","768","legacy","12","79","C:/Users/User/Desktop/data files/subject-2.csv","legacy","Melodramatic Milgram","4.0.5","0","s","NA","s","s","NA","s","619.0","NA","199562","14595","NA","619","2","legacy","1024","2","48000","-16","experiment","HHSHH","2","even","200711","NA","362512","270323","1140","NA","NA","382868","1148","347915","NA","381766","382970","383590","382865","382969","Flankertask","90","55427.0","93","1024"
"96","96","596","596","#3d3846","legacy","legacy","legacy","incongruent","1","undefined","1","h","0","0","0","93","0","93","0","93","0","0","0","93","93","93","93","93","Sun Sep 24 13:05:28 2023","600","The main experiment item","False","Flankertask fixed.osexp","C:\Users\User","False","mono","False","18","no","white","no","yes","768","legacy","13","79","C:/Users/User/Desktop/data files/subject-2.csv","legacy","Melodramatic Milgram","4.0.5","0","h","NA","s","s","NA","h","662.0","NA","199562","14595","NA","662","2","legacy","1024","2","48000","-16","experiment","SSHSS","2","even","200711","NA","362512","270323","1140","383597","NA","385189","1148","347915","NA","384098","385290","385954","385186","385290","Flankertask","91","56089.0","94","1024"
"96","96","595","595","#3d3846","legacy","legacy","legacy","congruent","1","undefined","1","h","0","0","0","94","0","94","0","94","0","0","0","94","94","94","94","94","Sun Sep 24 13:05:28 2023","600","The main experiment item","False","Flankertask fixed.osexp","C:\Users\User","False","mono","False","18","no","white","no","yes","768","legacy","14","79","C:/Users/User/Desktop/data files/subject-2.csv","legacy","Melodramatic Milgram","4.0.5","0","h","NA","s","s","NA","h","453.0","NA","199562","14595","NA","453","2","legacy","1024","2","48000","-16","experiment","HHHHH","2","even","200711","NA","362512","270323","1140","385961","NA","387556","1148","347915","NA","386462","387657","388111","387554","387657","Flankertask","92","56542.0","95","1024"
"96","96","593","593","#3d3846","legacy","legacy","legacy","congruent","1","undefined","1","s","0","0","0","95","0","95","0","95","0","0","0","95","95","95","95","95","Sun Sep 24 13:05:28 2023","600","The main experiment item","False","Flankertask fixed.osexp","C:\Users\User","False","mono","False","18","no","white","no","yes","768","legacy","15","79","C:/Users/User/Desktop/data files/subject-2.csv","legacy","Melodramatic Milgram","4.0.5","0","s","NA","s","s","NA","s","431.0","NA","199562","14595","NA","431","2","legacy","1024","2","48000","-16","experiment","SSSSS","2","even","200711","NA","362512","270323","1140","385961","NA","389212","1148","347915","NA","388119","389314","389746","389210","389314","Flankertask","93","56973.0","96","1024"
"95","95","592","592","#3d3846","legacy","legacy","legacy","incongruent","0","undefined","0","h","0","0","0","96","0","96","0","96","0","0","0","96","96","96","96","96","Sun Sep 24 13:05:28 2023","600","The main experiment item","False","Flankertask fixed.osexp","C:\Users\User","False","mono","False","18","no","white","no","yes","768","legacy","16","79","C:/Users/User/Desktop/data files/subject-2.csv","legacy","Melodramatic Milgram","4.0.5","0","s","NA","s","s","NA","s","467.0","NA","199562","14595","NA","467","2","legacy","1024","2","48000","-16","experiment","SSHSS","2","even","200711","NA","362512","270323","1140","385961","NA","390875","1148","347915","NA","389752","390976","391444","390873","390976","Flankertask","93","57440.0","97","1024"
"95","95","591","591","#3d3846","legacy","legacy","legacy","congruent","1","undefined","1","h","0","0","0","97","0","97","0","97","0","0","0","97","97","97","97","97","Sun Sep 24 13:05:28 2023","600","The main experiment item","False","Flankertask fixed.osexp","C:\Users\User","False","mono","False","18","no","white","no","yes","768","legacy","17","79","C:/Users/User/Desktop/data files/subject-2.csv","legacy","Melodramatic Milgram","4.0.5","0","h","NA","s","s","NA","h","505.0","NA","199562","14595","NA","505","2","legacy","1024","2","48000","-16","experiment","HHHHH","2","even","200711","NA","362512","391450","1140","385961","NA","393043","1148","347915","NA","391951","393145","393651","393041","393145","Flankertask","94","57945.0","98","1024"
"95","95","590","590","#3d3846","legacy","legacy","legacy","congruent","1","undefined","1","s","0","0","0","98","0","98","0","98","0","0","0","98","98","98","98","98","Sun Sep 24 13:05:28 2023","600","The main experiment item","False","Flankertask fixed.osexp","C:\Users\User","False","mono","False","18","no","white","no","yes","768","legacy","18","79","C:/Users/User/Desktop/data files/subject-2.csv","legacy","Melodramatic Milgram","4.0.5","0","s","NA","s","s","NA","s","476.0","NA","199562","14595","NA","476","2","legacy","1024","2","48000","-16","experiment","SSSSS","2","even","200711","NA","362512","391450","1140","385961","NA","394764","1148","347915","NA","393659","394865","395343","394762","394865","Flankertask","95","58421.0","99","1024"
"96","96","590","590","#3d3846","legacy","legacy","legacy","incongruent","1","undefined","1","s","0","0","0","99","0","99","0","99","0","0","0","99","99","99","99","99","Sun Sep 24 13:05:28 2023","600","The main experiment item","False","Flankertask fixed.osexp","C:\Users\User","False","mono","False","18","no","white","no","yes","768","legacy","19","79","C:/Users/User/Desktop/data files/subject-2.csv","legacy","Melodramatic Milgram","4.0.5","0","s","NA","s","s","NA","s","597.0","NA","199562","14595","NA","597","2","legacy","1024","2","48000","-16","experiment","HHSHH","2","even","200711","NA","362512","391450","1140","385961","NA","396457","1148","347915","NA","395350","396560","397159","396454","396560","Flankertask","96","59018.0","100","1024"
"95","95","588","588","#3d3846","legacy","legacy","legacy","incongruent","0","undefined","0","h","0","0","0","100","0","100","0","100","0","0","0","100","100","100","100","100","Sun Sep 24 13:05:28 2023","600","The main experiment item","False","Flankertask fixed.osexp","C:\Users\User","False","mono","False","18","no","white","no","yes","768","legacy","20","79","C:/Users/User/Desktop/data files/subject-2.csv","legacy","Melodramatic Milgram","4.0.5","0","s","NA","s","s","NA","s","429.0","NA","199562","14595","NA","429","2","legacy","1024","2","48000","-16","experiment","SSHSS","2","even","200711","NA","362512","391450","1140","385961","NA","398263","1148","347915","NA","397166","398365","398795","398260","398364","Flankertask","96","59447.0","101","1024"
"95","95","587","587","#3d3846","legacy","legacy","legacy","incongruent","1","undefined","1","h","0","0","0","101","0","101","0","101","0","0","0","101","101","101","101","101","Sun Sep 24 13:05:28 2023","600","The main experiment item","False","Flankertask fixed.osexp","C:\Users\User","False","mono","False","18","no","white","no","yes","768","legacy","21","79","C:/Users/User/Desktop/data files/subject-2.csv","legacy","Melodramatic Milgram","4.0.5","0","h","NA","s","s","NA","h","503.0","NA","199562","14595","NA","503","2","legacy","1024","2","48000","-16","experiment","SSHSS","2","even","200711","NA","362512","398803","1140","385961","NA","400399","1148","347915","NA","399304","400501","401005","400397","400501","Flankertask","97","59950.0","102","1024"
"95","95","587","587","#3d3846","legacy","legacy","legacy","incongruent","1","undefined","1","s","0","0","0","102","0","102","0","102","0","0","0","102","102","102","102","102","Sun Sep 24 13:05:28 2023","600","The main experiment item","False","Flankertask fixed.osexp","C:\Users\User","False","mono","False","18","no","white","no","yes","768","legacy","22","79","C:/Users/User/Desktop/data files/subject-2.csv","legacy","Melodramatic Milgram","4.0.5","0","s","NA","s","s","NA","s","588.0","NA","199562","14595","NA","588","2","legacy","1024","2","48000","-16","experiment","HHSHH","2","even","200711","NA","362512","398803","1140","385961","NA","402118","1148","347915","NA","401012","402219","402808","402115","402219","Flankertask","98","60538.0","103","1024"
"95","95","587","587","#3d3846","legacy","legacy","legacy","incongruent","1","undefined","1","s","0","0","0","103","0","103","0","103","0","0","0","103","103","103","103","103","Sun Sep 24 13:05:28 2023","600","The main experiment item","False","Flankertask fixed.osexp","C:\Users\User","False","mono","False","18","no","white","no","yes","768","legacy","23","79","C:/Users/User/Desktop/data files/subject-2.csv","legacy","Melodramatic Milgram","4.0.5","0","s","NA","s","s","NA","s","585.0","NA","199562","14595","NA","585","2","legacy","1024","2","48000","-16","experiment","HHSHH","2","even","200711","NA","362512","398803","1140","385961","NA","403914","1148","347915","NA","402816","404016","404603","403912","404015","Flankertask","99","61123.0","104","1024"
"95","95","587","587","#3d3846","legacy","legacy","legacy","incongruent","1","undefined","1","h","0","0","0","104","0","104","0","104","0","0","0","104","104","104","104","104","Sun Sep 24 13:05:28 2023","600","The main experiment item","False","Flankertask fixed.osexp","C:\Users\User","False","mono","False","18","no","white","no","yes","768","legacy","24","79","C:/Users/User/Desktop/data files/subject-2.csv","legacy","Melodramatic Milgram","4.0.5","0","h","NA","s","s","NA","h","548.0","NA","199562","14595","NA","548","2","legacy","1024","2","48000","-16","experiment","SSHSS","2","even","200711","NA","362512","398803","1140","385961","NA","405703","1148","347915","NA","404610","405804","406354","405701","405804","Flankertask","100","61671.0","105","1024"
"95","95","586","586","#3d3846","legacy","legacy","legacy","congruent","1","undefined","1","s","0","0","0","105","0","105","0","105","0","0","0","105","105","105","105","105","Sun Sep 24 13:05:28 2023","600","The main experiment item","False","Flankertask fixed.osexp","C:\Users\User","False","mono","False","18","no","white","no","yes","768","legacy","25","79","C:/Users/User/Desktop/data files/subject-2.csv","legacy","Melodramatic Milgram","4.0.5","0","s","NA","s","s","NA","s","522.0","NA","199562","14595","NA","522","2","legacy","1024","2","48000","-16","experiment","SSSSS","2","even","200711","NA","362512","398803","1140","385961","NA","407478","1148","347915","NA","406361","407579","408101","407476","407579","Flankertask","101","62193.0","106","1024"
"95","95","585","585","#3d3846","legacy","legacy","legacy","congruent","1","undefined","1","s","0","0","0","106","0","106","0","106","0","0","0","106","106","106","106","106","Sun Sep 24 13:05:28 2023","600","The main experiment item","False","Flankertask fixed.osexp","C:\Users\User","False","mono","False","18","no","white","no","yes","768","legacy","26","79","C:/Users/User/Desktop/data files/subject-2.csv","legacy","Melodramatic Milgram","4.0.5","0","s","NA","s","s","NA","s","505.0","NA","199562","14595","NA","505","2","legacy","1024","2","48000","-16","experiment","SSSSS","2","even","200711","NA","362512","398803","1140","385961","NA","409199","1148","347915","NA","408107","409300","409807","409197","409300","Flankertask","102","62698.0","107","1024"
"95","95","584","584","#3d3846","legacy","legacy","legacy","congruent","1","undefined","1","h","0","0","0","107","0","107","0","107","0","0","0","107","107","107","107","107","Sun Sep 24 13:05:28 2023","600","The main experiment item","False","Flankertask fixed.osexp","C:\Users\User","False","mono","False","18","no","white","no","yes","768","legacy","27","79","C:/Users/User/Desktop/data files/subject-2.csv","legacy","Melodramatic Milgram","4.0.5","0","h","NA","s","s","NA","h","447.0","NA","199562","14595","NA","447","2","legacy","1024","2","48000","-16","experiment","HHHHH","2","even","200711","NA","362512","398803","1140","385961","NA","410908","1148","347915","NA","409814","411009","411457","410905","411009","Flankertask","103","63145.0","108","1024"
"95","95","584","584","#3d3846","legacy","legacy","legacy","congruent","1","undefined","1","h","0","0","0","108","0","108","0","108","0","0","0","108","108","108","108","108","Sun Sep 24 13:05:28 2023","600","The main experiment item","False","Flankertask fixed.osexp","C:\Users\User","False","mono","False","18","no","white","no","yes","768","legacy","28","79","C:/Users/User/Desktop/data files/subject-2.csv","legacy","Melodramatic Milgram","4.0.5","0","h","NA","s","s","NA","h","563.0","NA","199562","14595","NA","563","2","legacy","1024","2","48000","-16","experiment","HHHHH","2","even","200711","NA","362512","398803","1140","385961","NA","412565","1148","347915","NA","411464","412666","413230","412562","412666","Flankertask","104","63708.0","109","1024"
"95","95","585","585","#3d3846","legacy","legacy","legacy","incongruent","1","undefined","1","s","0","0","0","109","0","109","0","109","0","0","0","109","109","109","109","109","Sun Sep 24 13:05:28 2023","600","The main experiment item","False","Flankertask fixed.osexp","C:\Users\User","False","mono","False","18","no","white","no","yes","768","legacy","29","79","C:/Users/User/Desktop/data files/subject-2.csv","legacy","Melodramatic Milgram","4.0.5","0","s","NA","s","s","NA","s","733.0","NA","199562","14595","NA","733","2","legacy","1024","2","48000","-16","experiment","HHSHH","2","even","200711","NA","362512","398803","1140","385961","NA","414334","1148","347915","NA","413237","414436","415170","414332","414435","Flankertask","105","64441.0","110","1024"
"95","95","585","585","#3d3846","legacy","legacy","legacy","congruent","1","undefined","1","h","0","0","0","110","0","110","0","110","0","0","0","110","110","110","110","110","Sun Sep 24 13:05:28 2023","600","The main experiment item","False","Flankertask fixed.osexp","C:\Users\User","False","mono","False","18","no","white","no","yes","768","legacy","30","79","C:/Users/User/Desktop/data files/subject-2.csv","legacy","Melodramatic Milgram","4.0.5","0","h","NA","s","s","NA","h","500.0","NA","199562","14595","NA","500","2","legacy","1024","2","48000","-16","experiment","HHHHH","2","even","200711","NA","362512","398803","1140","415177","NA","416764","1148","347915","NA","415678","416865","417366","416762","416865","Flankertask","106","64941.0","111","1024"
"95","95","583","583","#3d3846","legacy","legacy","legacy","incongruent","1","undefined","1","s","0","0","0","111","0","111","0","111","0","0","0","111","111","111","111","111","Sun Sep 24 13:05:28 2023","600","The main experiment item","False","Flankertask fixed.osexp","C:\Users\User","False","mono","False","18","no","white","no","yes","768","legacy","31","79","C:/Users/User/Desktop/data files/subject-2.csv","legacy","Melodramatic Milgram","4.0.5","0","s","NA","s","s","NA","s","453.0","NA","199562","14595","NA","453","2","legacy","1024","2","48000","-16","experiment","HHSHH","2","even","200711","NA","362512","398803","1140","415177","NA","418474","1148","347915","NA","417373","418576","419030","418471","418575","Flankertask","107","65394.0","112","1024"
"95","95","582","582","#3d3846","legacy","legacy","legacy","congruent","1","undefined","1","h","0","0","0","112","0","112","0","112","0","0","0","112","112","112","112","112","Sun Sep 24 13:05:28 2023","600","The main experiment item","False","Flankertask fixed.osexp","C:\Users\User","False","mono","False","18","no","white","no","yes","768","legacy","32","79","C:/Users/User/Desktop/data files/subject-2.csv","legacy","Melodramatic Milgram","4.0.5","0","h","NA","s","s","NA","h","475.0","NA","199562","14595","NA","475","2","legacy","1024","2","48000","-16","experiment","HHHHH","2","even","200711","NA","362512","398803","1140","415177","NA","420137","1148","347915","NA","419036","420239","420715","420134","420238","Flankertask","108","65869.0","113","1024"
"95","95","581","581","#3d3846","legacy","legacy","legacy","incongruent","1","undefined","1","h","0","0","0","113","0","113","0","113","0","0","0","113","113","113","113","113","Sun Sep 24 13:05:28 2023","600","The main experiment item","False","Flankertask fixed.osexp","C:\Users\User","False","mono","False","18","no","white","no","yes","768","legacy","33","79","C:/Users/User/Desktop/data files/subject-2.csv","legacy","Melodramatic Milgram","4.0.5","0","h","NA","s","s","NA","h","418.0","NA","199562","14595","NA","418","2","legacy","1024","2","48000","-16","experiment","SSHSS","2","even","200711","NA","362512","398803","1140","415177","NA","421824","1148","347915","NA","420721","421925","422343","421821","421925","Flankertask","109","66287.0","114","1024"
"95","95","580","580","#3d3846","legacy","legacy","legacy","incongruent","1","undefined","1","h","0","0","0","114","0","114","0","114","0","0","0","114","114","114","114","114","Sun Sep 24 13:05:28 2023","600","The main experiment item","False","Flankertask fixed.osexp","C:\Users\User","False","mono","False","18","no","white","no","yes","768","legacy","34","79","C:/Users/User/Desktop/data files/subject-2.csv","legacy","Melodramatic Milgram","4.0.5","0","h","NA","s","s","NA","h","422.0","NA","199562","14595","NA","422","2","legacy","1024","2","48000","-16","experiment","SSHSS","2","even","200711","NA","362512","398803","1140","415177","NA","423472","1148","347915","NA","422350","423574","423998","423469","423573","Flankertask","110","66709.0","115","1024"
"95","95","578","578","#3d3846","legacy","legacy","legacy","congruent","1","undefined","1","h","0","0","0","115","0","115","0","115","0","0","0","115","115","115","115","115","Sun Sep 24 13:05:28 2023","600","The main experiment item","False","Flankertask fixed.osexp","C:\Users\User","False","mono","False","18","no","white","no","yes","768","legacy","35","79","C:/Users/User/Desktop/data files/subject-2.csv","legacy","Melodramatic Milgram","4.0.5","0","h","NA","s","s","NA","h","450.0","NA","199562","14595","NA","450","2","legacy","1024","2","48000","-16","experiment","HHHHH","2","even","200711","NA","362512","398803","1140","415177","NA","425106","1148","347915","NA","424005","425207","425658","425104","425207","Flankertask","111","67159.0","116","1024"
"95","95","578","578","#3d3846","legacy","legacy","legacy","congruent","1","undefined","1","s","0","0","0","116","0","116","0","116","0","0","0","116","116","116","116","116","Sun Sep 24 13:05:28 2023","600","The main experiment item","False","Flankertask fixed.osexp","C:\Users\User","False","mono","False","18","no","white","no","yes","768","legacy","36","79","C:/Users/User/Desktop/data files/subject-2.csv","legacy","Melodramatic Milgram","4.0.5","0","s","NA","s","s","NA","s","521.0","NA","199562","14595","NA","521","2","legacy","1024","2","48000","-16","experiment","SSSSS","2","even","200711","NA","362512","398803","1140","415177","NA","426756","1148","347915","NA","425664","426857","427379","426753","426857","Flankertask","112","67680.0","117","1024"
"95","95","576","576","#3d3846","legacy","legacy","legacy","congruent","1","undefined","1","h","0","0","0","117","0","117","0","117","0","0","0","117","117","117","117","117","Sun Sep 24 13:05:28 2023","600","The main experiment item","False","Flankertask fixed.osexp","C:\Users\User","False","mono","False","18","no","white","no","yes","768","legacy","37","79","C:/Users/User/Desktop/data files/subject-2.csv","legacy","Melodramatic Milgram","4.0.5","0","h","NA","s","s","NA","h","384.0","NA","199562","14595","NA","384","2","legacy","1024","2","48000","-16","experiment","HHHHH","2","even","200711","NA","362512","398803","1140","415177","NA","428490","1148","347915","NA","427386","428591","428978","428487","428591","Flankertask","113","68064.0","118","1024"
"95","95","575","575","#3d3846","legacy","legacy","legacy","congruent","1","undefined","1","h","0","0","0","118","0","118","0","118","0","0","0","118","118","118","118","118","Sun Sep 24 13:05:28 2023","600","The main experiment item","False","Flankertask fixed.osexp","C:\Users\User","False","mono","False","18","no","white","no","yes","768","legacy","38","79","C:/Users/User/Desktop/data files/subject-2.csv","legacy","Melodramatic Milgram","4.0.5","0","h","NA","s","s","NA","h","472.0","NA","199562","14595","NA","472","2","legacy","1024","2","48000","-16","experiment","HHHHH","2","even","200711","NA","362512","398803","1140","415177","NA","430088","1148","347915","NA","428985","430190","430664","430085","430189","Flankertask","114","68536.0","119","1024"
"95","95","574","574","#3d3846","legacy","legacy","legacy","incongruent","1","undefined","1","h","0","0","0","119","0","119","0","119","0","0","0","119","119","119","119","119","Sun Sep 24 13:05:28 2023","600","The main experiment item","False","Flankertask fixed.osexp","C:\Users\User","False","mono","False","18","no","white","no","yes","768","legacy","39","79","C:/Users/User/Desktop/data files/subject-2.csv","legacy","Melodramatic Milgram","4.0.5","0","h","NA","s","s","NA","h","445.0","NA","199562","14595","NA","445","2","legacy","1024","2","48000","-16","experiment","SSHSS","2","even","200711","NA","362512","398803","1140","415177","NA","431774","1148","347915","NA","430671","431877","432325","431772","431877","Flankertask","115","68981.0","120","1024"
"95","95","573","573","#3d3846","legacy","legacy","legacy","congruent","1","undefined","1","h","0","0","0","120","0","120","0","120","0","0","0","120","120","120","120","120","Sun Sep 24 13:05:28 2023","600","The main experiment item","False","Flankertask fixed.osexp","C:\Users\User","False","mono","False","18","no","white","no","yes","768","legacy","40","79","C:/Users/User/Desktop/data files/subject-2.csv","legacy","Melodramatic Milgram","4.0.5","0","h","NA","s","s","NA","h","454.0","NA","199562","14595","NA","454","2","legacy","1024","2","48000","-16","experiment","HHHHH","2","even","200711","NA","362512","398803","1140","415177","NA","433433","1148","347915","NA","432333","433535","433991","433430","433534","Flankertask","116","69435.0","121","1024"
"95","95","572","572","#3d3846","legacy","legacy","legacy","congruent","1","undefined","1","h","0","0","0","121","0","121","0","121","0","0","0","121","121","121","121","121","Sun Sep 24 13:05:28 2023","600","The main experiment item","False","Flankertask fixed.osexp","C:\Users\User","False","mono","False","18","no","white","no","yes","768","legacy","41","79","C:/Users/User/Desktop/data files/subject-2.csv","legacy","Melodramatic Milgram","4.0.5","0","h","NA","s","s","NA","h","413.0","NA","199562","14595","NA","413","2","legacy","1024","2","48000","-16","experiment","HHHHH","2","even","200711","NA","362512","398803","1140","415177","NA","435101","1148","347915","NA","433999","435202","435617","435097","435202","Flankertask","117","69848.0","122","1024"
"95","95","571","571","#3d3846","legacy","legacy","legacy","incongruent","1","undefined","1","h","0","0","0","122","0","122","0","122","0","0","0","122","122","122","122","122","Sun Sep 24 13:05:28 2023","600","The main experiment item","False","Flankertask fixed.osexp","C:\Users\User","False","mono","False","18","no","white","no","yes","768","legacy","42","79","C:/Users/User/Desktop/data files/subject-2.csv","legacy","Melodramatic Milgram","4.0.5","0","h","NA","s","s","NA","h","416.0","NA","199562","14595","NA","416","2","legacy","1024","2","48000","-16","experiment","SSHSS","2","even","200711","NA","362512","398803","1140","415177","NA","436720","1148","347915","NA","435624","436822","437238","436717","436821","Flankertask","118","70264.0","123","1024"
"95","95","570","570","#3d3846","legacy","legacy","legacy","incongruent","1","undefined","1","h","0","0","0","123","0","123","0","123","0","0","0","123","123","123","123","123","Sun Sep 24 13:05:28 2023","600","The main experiment item","False","Flankertask fixed.osexp","C:\Users\User","False","mono","False","18","no","white","no","yes","768","legacy","43","79","C:/Users/User/Desktop/data files/subject-2.csv","legacy","Melodramatic Milgram","4.0.5","0","h","NA","s","s","NA","h","429.0","NA","199562","14595","NA","429","2","legacy","1024","2","48000","-16","experiment","SSHSS","2","even","200711","NA","362512","398803","1140","415177","NA","438347","1148","347915","NA","437245","438449","438880","438346","438448","Flankertask","119","70693.0","124","1024"
"96","96","569","569","#3d3846","legacy","legacy","legacy","congruent","1","undefined","1","s","0","0","0","124","0","124","0","124","0","0","0","124","124","124","124","124","Sun Sep 24 13:05:28 2023","600","The main experiment item","False","Flankertask fixed.osexp","C:\Users\User","False","mono","False","18","no","white","no","yes","768","legacy","44","79","C:/Users/User/Desktop/data files/subject-2.csv","legacy","Melodramatic Milgram","4.0.5","0","s","NA","s","s","NA","s","508.0","NA","199562","14595","NA","508","2","legacy","1024","2","48000","-16","experiment","SSSSS","2","even","200711","NA","362512","398803","1140","415177","NA","439989","1148","347915","NA","438887","440090","440601","439986","440090","Flankertask","120","71201.0","125","1024"
"96","96","568","568","#3d3846","legacy","legacy","legacy","congruent","1","undefined","1","h","0","0","0","125","0","125","0","125","0","0","0","125","125","125","125","125","Sun Sep 24 13:05:28 2023","600","The main experiment item","False","Flankertask fixed.osexp","C:\Users\User","False","mono","False","18","no","white","no","yes","768","legacy","45","79","C:/Users/User/Desktop/data files/subject-2.csv","legacy","Melodramatic Milgram","4.0.5","0","h","NA","s","s","NA","h","469.0","NA","199562","14595","NA","469","2","legacy","1024","2","48000","-16","experiment","HHHHH","2","even","200711","NA","362512","398803","1140","415177","NA","441711","1148","347915","NA","440608","441813","442284","441708","441812","Flankertask","121","71670.0","126","1024"
"96","96","568","568","#3d3846","legacy","legacy","legacy","congruent","1","undefined","1","h","0","0","0","126","0","126","0","126","0","0","0","126","126","126","126","126","Sun Sep 24 13:05:28 2023","600","The main experiment item","False","Flankertask fixed.osexp","C:\Users\User","False","mono","False","18","no","white","no","yes","768","legacy","46","79","C:/Users/User/Desktop/data files/subject-2.csv","legacy","Melodramatic Milgram","4.0.5","0","h","NA","s","s","NA","h","531.0","NA","199562","14595","NA","531","2","legacy","1024","2","48000","-16","experiment","HHHHH","2","even","200711","NA","362512","398803","1140","415177","NA","443400","1148","347915","NA","442291","443501","444033","443398","443501","Flankertask","122","72201.0","127","1024"
"95","95","567","567","#3d3846","legacy","legacy","legacy","incongruent","0","undefined","0","h","0","0","0","127","0","127","0","127","0","0","0","127","127","127","127","127","Sun Sep 24 13:05:28 2023","600","The main experiment item","False","Flankertask fixed.osexp","C:\Users\User","False","mono","False","18","no","white","no","yes","768","legacy","47","79","C:/Users/User/Desktop/data files/subject-2.csv","legacy","Melodramatic Milgram","4.0.5","0","s","NA","s","s","NA","s","395.0","NA","199562","14595","NA","395","2","legacy","1024","2","48000","-16","experiment","SSHSS","2","even","200711","NA","362512","398803","1140","415177","NA","445139","1148","347915","NA","444040","445241","445639","445136","445241","Flankertask","122","72596.0","128","1024"
"94","94","566","566","#3d3846","legacy","legacy","legacy","congruent","0","undefined","0","s","0","0","0","128","0","128","0","128","0","0","0","128","128","128","128","128","Sun Sep 24 13:05:28 2023","600","The main experiment item","False","Flankertask fixed.osexp","C:\Users\User","False","mono","False","18","no","white","no","yes","768","legacy","48","79","C:/Users/User/Desktop/data files/subject-2.csv","legacy","Melodramatic Milgram","4.0.5","0","h","NA","s","s","NA","h","531.0","NA","199562","14595","NA","531","2","legacy","1024","2","48000","-16","experiment","SSSSS","2","even","200711","NA","362512","445646","1140","415177","NA","447246","1148","347915","NA","446148","447348","447882","447242","447347","Flankertask","122","73127.0","129","1024"
"94","94","566","566","#3d3846","legacy","legacy","legacy","incongruent","1","undefined","1","h","0","0","0","129","0","129","0","129","0","0","0","129","129","129","129","129","Sun Sep 24 13:05:28 2023","600","The main experiment item","False","Flankertask fixed.osexp","C:\Users\User","False","mono","False","18","no","white","no","yes","768","legacy","49","79","C:/Users/User/Desktop/data files/subject-2.csv","legacy","Melodramatic Milgram","4.0.5","0","h","NA","s","s","NA","h","494.0","NA","199562","14595","NA","494","2","legacy","1024","2","48000","-16","experiment","SSHSS","2","even","200711","NA","362512","447889","1140","415177","NA","449486","1148","347915","NA","448391","449588","450084","449483","449587","Flankertask","123","73621.0","130","1024"
"94","94","565","565","#3d3846","legacy","legacy","legacy","incongruent","1","undefined","1","h","0","0","0","130","0","130","0","130","0","0","0","130","130","130","130","130","Sun Sep 24 13:05:28 2023","600","The main experiment item","False","Flankertask fixed.osexp","C:\Users\User","False","mono","False","18","no","white","no","yes","768","legacy","50","79","C:/Users/User/Desktop/data files/subject-2.csv","legacy","Melodramatic Milgram","4.0.5","0","h","NA","s","s","NA","h","486.0","NA","199562","14595","NA","486","2","legacy","1024","2","48000","-16","experiment","SSHSS","2","even","200711","NA","362512","447889","1140","415177","NA","451193","1148","347915","NA","450090","451294","451783","451191","451294","Flankertask","124","74107.0","131","1024"
