acc,accuracy,average_response_time,avg_rt,background,canvas_backend,clock_backend,color_backend,condition,correct,correct_instructions1,correct_keyboard_response,correct_response,count_ISI,count_block1,count_block2,count_block3,count_errorFeedback,count_experiment,count_faster,count_finish,count_fixation,count_instructions1,count_instructions2,count_instructions3,count_keyboard_response,count_logger,count_new_sketchpad,count_sequence,count_stimulus,datetime,deadline,description,disable_garbage_collection,experiment_file,experiment_path,font_bold,font_family,font_italic,font_size,font_underline,foreground,form_clicks,fullscreen,height,keyboard_backend,live_row,live_row_block1,logfile,mouse_backend,opensesame_codename,opensesame_version,repeat_cycle,response,response_finish,response_instructions1,response_instructions2,response_instructions3,response_keyboard_response,response_new_sketchpad,response_time,response_time_finish,response_time_instructions1,response_time_instructions2,response_time_instructions3,response_time_keyboard_response,response_time_new_sketchpad,round_decimals,sampler_backend,sound_buf_size,sound_channels,sound_freq,sound_sample_size,start,stimulus,subject_nr,subject_parity,time_ISI,time_block1,time_block2,time_block3,time_errorFeedback,time_experiment,time_faster,time_finish,time_fixation,time_instructions1,time_instructions2,time_instructions3,time_keyboard_response,time_logger,time_new_sketchpad,time_sequence,time_stimulus,title,total_correct,total_response_time,total_responses,width
100,100,903,903,black,legacy,legacy,legacy,incongruent,1,undefined,1,s,0,0,0,0,0,0,0,0,0,0,0,0,0,0,NA,0,0,Mon Sep 18 11:33:02 2023,1500,The main experiment item,TRUE,FlankerTask.osexp,C:\Users\Simone\Desktop,FALSE,mono,FALSE,18,no,white,no,yes,768,legacy,0,0,C:\Users\Simone\Desktop\defaultlog.csv,legacy,Melodramatic Milgram,4.0.5,0,s,NA,s,NA,NA,s,NA,903,NA,33649,NA,NA,903,NA,2,legacy,1024,2,48000,-16,experiment,HHSHH,2,even,NA,34991,NA,NA,NA,1338,NA,NA,35036,1341,NA,NA,35137,36040,NA,35035,35137,Flanker Task,1,903,1,1024
100,100,717,717,black,legacy,legacy,legacy,incongruent,1,undefined,1,h,1,0,0,0,1,0,1,0,1,0,0,0,1,1,NA,1,1,Mon Sep 18 11:33:02 2023,1500,The main experiment item,TRUE,FlankerTask.osexp,C:\Users\Simone\Desktop,FALSE,mono,FALSE,18,no,white,no,yes,768,legacy,1,1,C:\Users\Simone\Desktop\defaultlog.csv,legacy,Melodramatic Milgram,4.0.5,0,h,NA,s,NA,NA,h,NA,531,NA,33649,NA,NA,531,NA,2,legacy,1024,2,48000,-16,experiment,SSHSS,2,even,36047,34991,NA,NA,NA,1338,NA,NA,37075,1341,NA,NA,37176,37708,NA,37073,37176,Flanker Task,2,1434,2,1024
100,100,675,675,black,legacy,legacy,legacy,congruent ,1,undefined,1,h,2,0,0,0,2,0,2,0,2,0,0,0,2,2,NA,2,2,Mon Sep 18 11:33:02 2023,1500,The main experiment item,TRUE,FlankerTask.osexp,C:\Users\Simone\Desktop,FALSE,mono,FALSE,18,no,white,no,yes,768,legacy,2,2,C:\Users\Simone\Desktop\defaultlog.csv,legacy,Melodramatic Milgram,4.0.5,0,h,NA,s,NA,NA,h,NA,592,NA,33649,NA,NA,592,NA,2,legacy,1024,2,48000,-16,experiment,HHHHH,2,even,37712,34991,NA,NA,NA,1338,NA,NA,38741,1341,NA,NA,38842,39434,NA,38739,38842,Flanker Task,3,2026,3,1024
75,75,626,626,black,legacy,legacy,legacy,incongruent,0,undefined,0,h,3,0,0,0,3,0,3,0,3,0,0,0,3,3,NA,3,3,Mon Sep 18 11:33:02 2023,1500,The main experiment item,TRUE,FlankerTask.osexp,C:\Users\Simone\Desktop,FALSE,mono,FALSE,18,no,white,no,yes,768,legacy,3,3,C:\Users\Simone\Desktop\defaultlog.csv,legacy,Melodramatic Milgram,4.0.5,0,s,NA,s,NA,NA,s,NA,480,NA,33649,NA,NA,480,NA,2,legacy,1024,2,48000,-16,experiment,SSHSS,2,even,39438,34991,NA,NA,NA,1338,NA,NA,40468,1341,NA,NA,40569,41049,NA,40467,40569,Flanker Task,3,2506,4,1024
80,80,642,642,black,legacy,legacy,legacy,incongruent,1,undefined,1,h,4,0,0,0,4,0,4,0,4,0,0,0,4,4,NA,4,4,Mon Sep 18 11:33:02 2023,1500,The main experiment item,TRUE,FlankerTask.osexp,C:\Users\Simone\Desktop,FALSE,mono,FALSE,18,no,white,no,yes,768,legacy,4,4,C:\Users\Simone\Desktop\defaultlog.csv,legacy,Melodramatic Milgram,4.0.5,0,h,NA,s,NA,NA,h,NA,707,NA,33649,NA,NA,707,NA,2,legacy,1024,2,48000,-16,experiment,SSHSS,2,even,41554,34991,NA,NA,41053,1338,NA,NA,42578,1341,NA,NA,42679,43386,NA,42577,42679,Flanker Task,4,3213,5,1024
83,83,620,620,black,legacy,legacy,legacy,incongruent,1,undefined,1,h,5,0,0,0,5,0,5,0,5,0,0,0,5,5,NA,5,5,Mon Sep 18 11:33:02 2023,1500,The main experiment item,TRUE,FlankerTask.osexp,C:\Users\Simone\Desktop,FALSE,mono,FALSE,18,no,white,no,yes,768,legacy,5,5,C:\Users\Simone\Desktop\defaultlog.csv,legacy,Melodramatic Milgram,4.0.5,0,h,NA,s,NA,NA,h,NA,510,NA,33649,NA,NA,510,NA,2,legacy,1024,2,48000,-16,experiment,SSHSS,2,even,43390,34991,NA,NA,41053,1338,NA,NA,44421,1341,NA,NA,44522,45032,NA,44419,44522,Flanker Task,5,3723,6,1024
85,85,613,613,black,legacy,legacy,legacy,congruent ,1,undefined,1,s,6,0,0,0,6,0,6,0,6,0,0,0,6,6,NA,6,6,Mon Sep 18 11:33:02 2023,1500,The main experiment item,TRUE,FlankerTask.osexp,C:\Users\Simone\Desktop,FALSE,mono,FALSE,18,no,white,no,yes,768,legacy,6,6,C:\Users\Simone\Desktop\defaultlog.csv,legacy,Melodramatic Milgram,4.0.5,0,s,NA,s,NA,NA,s,NA,570,NA,33649,NA,NA,570,NA,2,legacy,1024,2,48000,-16,experiment,SSSSS,2,even,45036,34991,NA,NA,41053,1338,NA,NA,46063,1341,NA,NA,46164,46735,NA,46061,46164,Flanker Task,6,4293,7,1024
87,87,625,625,black,legacy,legacy,legacy,incongruent,1,undefined,1,s,7,0,0,0,7,0,7,0,7,0,0,0,7,7,NA,7,7,Mon Sep 18 11:33:02 2023,1500,The main experiment item,TRUE,FlankerTask.osexp,C:\Users\Simone\Desktop,FALSE,mono,FALSE,18,no,white,no,yes,768,legacy,7,7,C:\Users\Simone\Desktop\defaultlog.csv,legacy,Melodramatic Milgram,4.0.5,0,s,NA,s,NA,NA,s,NA,707,NA,33649,NA,NA,707,NA,2,legacy,1024,2,48000,-16,experiment,HHSHH,2,even,46739,34991,NA,NA,41053,1338,NA,NA,47770,1341,NA,NA,47871,48578,NA,47768,47871,Flanker Task,7,5000,8,1024
88,88,617,617,black,legacy,legacy,legacy,congruent ,1,undefined,1,h,8,0,0,0,8,0,8,0,8,0,0,0,8,8,NA,8,8,Mon Sep 18 11:33:02 2023,1500,The main experiment item,TRUE,FlankerTask.osexp,C:\Users\Simone\Desktop,FALSE,mono,FALSE,18,no,white,no,yes,768,legacy,8,8,C:\Users\Simone\Desktop\defaultlog.csv,legacy,Melodramatic Milgram,4.0.5,0,h,NA,s,NA,NA,h,NA,555,NA,33649,NA,NA,555,NA,2,legacy,1024,2,48000,-16,experiment,HHHHH,2,even,48582,34991,NA,NA,41053,1338,NA,NA,49611,1341,NA,NA,49712,50267,NA,49610,49712,Flanker Task,8,5555,9,1024
90,90,618,618,black,legacy,legacy,legacy,incongruent,1,undefined,1,h,9,0,0,0,9,0,9,0,9,0,0,0,9,9,NA,9,9,Mon Sep 18 11:33:02 2023,1500,The main experiment item,TRUE,FlankerTask.osexp,C:\Users\Simone\Desktop,FALSE,mono,FALSE,18,no,white,no,yes,768,legacy,9,9,C:\Users\Simone\Desktop\defaultlog.csv,legacy,Melodramatic Milgram,4.0.5,0,h,NA,s,NA,NA,h,NA,633,NA,33649,NA,NA,633,NA,2,legacy,1024,2,48000,-16,experiment,SSHSS,2,even,50271,34991,NA,NA,41053,1338,NA,NA,51297,1341,NA,NA,51398,52032,NA,51296,51398,Flanker Task,9,6188,10,1024
90,90,611,611,black,legacy,legacy,legacy,incongruent,1,undefined,1,h,10,0,0,0,10,0,10,0,10,0,0,0,10,10,NA,10,10,Mon Sep 18 11:33:02 2023,1500,The main experiment item,TRUE,FlankerTask.osexp,C:\Users\Simone\Desktop,FALSE,mono,FALSE,18,no,white,no,yes,768,legacy,10,10,C:\Users\Simone\Desktop\defaultlog.csv,legacy,Melodramatic Milgram,4.0.5,0,h,NA,s,NA,NA,h,NA,535,NA,33649,NA,NA,535,NA,2,legacy,1024,2,48000,-16,experiment,SSHSS,2,even,52036,34991,NA,NA,41053,1338,NA,NA,53064,1341,NA,NA,53165,53700,NA,53063,53165,Flanker Task,10,6723,11,1024
91,91,608,608,black,legacy,legacy,legacy,incongruent,1,undefined,1,s,11,0,0,0,11,0,11,0,11,0,0,0,11,11,NA,11,11,Mon Sep 18 11:33:02 2023,1500,The main experiment item,TRUE,FlankerTask.osexp,C:\Users\Simone\Desktop,FALSE,mono,FALSE,18,no,white,no,yes,768,legacy,11,11,C:\Users\Simone\Desktop\defaultlog.csv,legacy,Melodramatic Milgram,4.0.5,0,s,NA,s,NA,NA,s,NA,578,NA,33649,NA,NA,578,NA,2,legacy,1024,2,48000,-16,experiment,HHSHH,2,even,53707,34991,NA,NA,41053,1338,NA,NA,54742,1341,NA,NA,54843,55422,NA,54741,54843,Flanker Task,11,7301,12,1024
92,92,609,609,black,legacy,legacy,legacy,incongruent,1,undefined,1,s,12,0,0,0,12,0,12,0,12,0,0,0,12,12,NA,12,12,Mon Sep 18 11:33:02 2023,1500,The main experiment item,TRUE,FlankerTask.osexp,C:\Users\Simone\Desktop,FALSE,mono,FALSE,18,no,white,no,yes,768,legacy,12,12,C:\Users\Simone\Desktop\defaultlog.csv,legacy,Melodramatic Milgram,4.0.5,0,s,NA,s,NA,NA,s,NA,619,NA,33649,NA,NA,619,NA,2,legacy,1024,2,48000,-16,experiment,HHSHH,2,even,55426,34991,NA,NA,41053,1338,NA,NA,56456,1341,NA,NA,56557,57176,NA,56454,56557,Flanker Task,12,7920,13,1024
92,92,608,608,black,legacy,legacy,legacy,incongruent,1,undefined,1,s,13,0,0,0,13,0,13,0,13,0,0,0,13,13,NA,13,13,Mon Sep 18 11:33:02 2023,1500,The main experiment item,TRUE,FlankerTask.osexp,C:\Users\Simone\Desktop,FALSE,mono,FALSE,18,no,white,no,yes,768,legacy,13,13,C:\Users\Simone\Desktop\defaultlog.csv,legacy,Melodramatic Milgram,4.0.5,0,s,NA,s,NA,NA,s,NA,597,NA,33649,NA,NA,597,NA,2,legacy,1024,2,48000,-16,experiment,HHSHH,2,even,57180,34991,NA,NA,41053,1338,NA,NA,58205,1341,NA,NA,58307,58904,NA,58203,58307,Flanker Task,13,8517,14,1024
93,93,604,604,black,legacy,legacy,legacy,congruent ,1,undefined,1,h,14,0,0,0,14,0,14,0,14,0,0,0,14,14,NA,14,14,Mon Sep 18 11:33:02 2023,1500,The main experiment item,TRUE,FlankerTask.osexp,C:\Users\Simone\Desktop,FALSE,mono,FALSE,18,no,white,no,yes,768,legacy,14,14,C:\Users\Simone\Desktop\defaultlog.csv,legacy,Melodramatic Milgram,4.0.5,0,h,NA,s,NA,NA,h,NA,549,NA,33649,NA,NA,549,NA,2,legacy,1024,2,48000,-16,experiment,HHHHH,2,even,58908,34991,NA,NA,41053,1338,NA,NA,59936,1341,NA,NA,60037,60587,NA,59935,60037,Flanker Task,14,9066,15,1024
93,93,602,602,black,legacy,legacy,legacy,congruent ,1,undefined,1,s,15,0,0,0,15,0,15,0,15,0,0,0,15,15,NA,15,15,Mon Sep 18 11:33:02 2023,1500,The main experiment item,TRUE,FlankerTask.osexp,C:\Users\Simone\Desktop,FALSE,mono,FALSE,18,no,white,no,yes,768,legacy,15,15,C:\Users\Simone\Desktop\defaultlog.csv,legacy,Melodramatic Milgram,4.0.5,0,s,NA,s,NA,NA,s,NA,571,NA,33649,NA,NA,571,NA,2,legacy,1024,2,48000,-16,experiment,SSSSS,2,even,60591,34991,NA,NA,41053,1338,NA,NA,61621,1341,NA,NA,61722,62293,NA,61620,61722,Flanker Task,15,9637,16,1024
94,94,602,602,black,legacy,legacy,legacy,congruent ,1,undefined,1,s,16,0,0,0,16,0,16,0,16,0,0,0,16,16,NA,16,16,Mon Sep 18 11:33:02 2023,1500,The main experiment item,TRUE,FlankerTask.osexp,C:\Users\Simone\Desktop,FALSE,mono,FALSE,18,no,white,no,yes,768,legacy,16,16,C:\Users\Simone\Desktop\defaultlog.csv,legacy,Melodramatic Milgram,4.0.5,0,s,NA,s,NA,NA,s,NA,597,NA,33649,NA,NA,597,NA,2,legacy,1024,2,48000,-16,experiment,SSSSS,2,even,62297,34991,NA,NA,41053,1338,NA,NA,63322,1341,NA,NA,63423,64021,NA,63321,63423,Flanker Task,16,10234,17,1024
94,94,599,599,black,legacy,legacy,legacy,incongruent,1,undefined,1,s,17,0,0,0,17,0,17,0,17,0,0,0,17,17,NA,17,17,Mon Sep 18 11:33:02 2023,1500,The main experiment item,TRUE,FlankerTask.osexp,C:\Users\Simone\Desktop,FALSE,mono,FALSE,18,no,white,no,yes,768,legacy,17,17,C:\Users\Simone\Desktop\defaultlog.csv,legacy,Melodramatic Milgram,4.0.5,0,s,NA,s,NA,NA,s,NA,548,NA,33649,NA,NA,548,NA,2,legacy,1024,2,48000,-16,experiment,HHSHH,2,even,64023,34991,NA,NA,41053,1338,NA,NA,65048,1341,NA,NA,65149,65697,NA,65047,65149,Flanker Task,17,10782,18,1024
94,94,596,596,black,legacy,legacy,legacy,congruent ,1,undefined,1,h,18,0,0,0,18,0,18,0,18,0,0,0,18,18,NA,18,18,Mon Sep 18 11:33:02 2023,1500,The main experiment item,TRUE,FlankerTask.osexp,C:\Users\Simone\Desktop,FALSE,mono,FALSE,18,no,white,no,yes,768,legacy,18,18,C:\Users\Simone\Desktop\defaultlog.csv,legacy,Melodramatic Milgram,4.0.5,0,h,NA,s,NA,NA,h,NA,552,NA,33649,NA,NA,552,NA,2,legacy,1024,2,48000,-16,experiment,HHHHH,2,even,65701,34991,NA,NA,41053,1338,NA,NA,66728,1341,NA,NA,66829,67382,NA,66727,66829,Flanker Task,18,11334,19,1024
95,95,595,595,black,legacy,legacy,legacy,incongruent,1,undefined,1,s,19,0,0,0,19,0,19,0,19,0,0,0,19,19,NA,19,19,Mon Sep 18 11:33:02 2023,1500,The main experiment item,TRUE,FlankerTask.osexp,C:\Users\Simone\Desktop,FALSE,mono,FALSE,18,no,white,no,yes,768,legacy,19,19,C:\Users\Simone\Desktop\defaultlog.csv,legacy,Melodramatic Milgram,4.0.5,0,s,NA,s,NA,NA,s,NA,571,NA,33649,NA,NA,571,NA,2,legacy,1024,2,48000,-16,experiment,HHSHH,2,even,67386,34991,NA,NA,41053,1338,NA,NA,68415,1341,NA,NA,68516,69087,NA,68414,68516,Flanker Task,19,11905,20,1024
95,95,596,596,black,legacy,legacy,legacy,incongruent,1,undefined,1,h,20,0,0,0,20,0,20,0,20,0,0,0,20,20,NA,20,20,Mon Sep 18 11:33:02 2023,1500,The main experiment item,TRUE,FlankerTask.osexp,C:\Users\Simone\Desktop,FALSE,mono,FALSE,18,no,white,no,yes,768,legacy,20,20,C:\Users\Simone\Desktop\defaultlog.csv,legacy,Melodramatic Milgram,4.0.5,0,h,NA,s,NA,NA,h,NA,626,NA,33649,NA,NA,626,NA,2,legacy,1024,2,48000,-16,experiment,SSHSS,2,even,69091,34991,NA,NA,41053,1338,NA,NA,70125,1341,NA,NA,70226,70853,NA,70124,70226,Flanker Task,20,12531,21,1024
95,95,596,596,black,legacy,legacy,legacy,incongruent,1,undefined,1,s,21,0,0,0,21,0,21,0,21,0,0,0,21,21,NA,21,21,Mon Sep 18 11:33:02 2023,1500,The main experiment item,TRUE,FlankerTask.osexp,C:\Users\Simone\Desktop,FALSE,mono,FALSE,18,no,white,no,yes,768,legacy,21,21,C:\Users\Simone\Desktop\defaultlog.csv,legacy,Melodramatic Milgram,4.0.5,0,s,NA,s,NA,NA,s,NA,585,NA,33649,NA,NA,585,NA,2,legacy,1024,2,48000,-16,experiment,HHSHH,2,even,70856,34991,NA,NA,41053,1338,NA,NA,71888,1341,NA,NA,71989,72575,NA,71887,71989,Flanker Task,21,13116,22,1024
95,95,595,595,black,legacy,legacy,legacy,incongruent,1,undefined,1,h,22,0,0,0,22,0,22,0,22,0,0,0,22,22,NA,22,22,Mon Sep 18 11:33:02 2023,1500,The main experiment item,TRUE,FlankerTask.osexp,C:\Users\Simone\Desktop,FALSE,mono,FALSE,18,no,white,no,yes,768,legacy,22,22,C:\Users\Simone\Desktop\defaultlog.csv,legacy,Melodramatic Milgram,4.0.5,0,h,NA,s,NA,NA,h,NA,569,NA,33649,NA,NA,569,NA,2,legacy,1024,2,48000,-16,experiment,SSHSS,2,even,72579,34991,NA,NA,41053,1338,NA,NA,73605,1341,NA,NA,73706,74276,NA,73604,73706,Flanker Task,22,13685,23,1024
95,95,596,596,black,legacy,legacy,legacy,incongruent,1,undefined,1,h,23,0,0,0,23,0,23,0,23,0,0,0,23,23,NA,23,23,Mon Sep 18 11:33:02 2023,1500,The main experiment item,TRUE,FlankerTask.osexp,C:\Users\Simone\Desktop,FALSE,mono,FALSE,18,no,white,no,yes,768,legacy,23,23,C:\Users\Simone\Desktop\defaultlog.csv,legacy,Melodramatic Milgram,4.0.5,0,h,NA,s,NA,NA,h,NA,625,NA,33649,NA,NA,625,NA,2,legacy,1024,2,48000,-16,experiment,SSHSS,2,even,74280,34991,NA,NA,41053,1338,NA,NA,75309,1341,NA,NA,75410,76036,NA,75308,75410,Flanker Task,23,14310,24,1024
96,96,592,592,black,legacy,legacy,legacy,incongruent,1,undefined,1,s,24,0,0,0,24,0,24,0,24,0,0,0,24,24,NA,24,24,Mon Sep 18 11:33:02 2023,1500,The main experiment item,TRUE,FlankerTask.osexp,C:\Users\Simone\Desktop,FALSE,mono,FALSE,18,no,white,no,yes,768,legacy,24,24,C:\Users\Simone\Desktop\defaultlog.csv,legacy,Melodramatic Milgram,4.0.5,0,s,NA,s,NA,NA,s,NA,507,NA,33649,NA,NA,507,NA,2,legacy,1024,2,48000,-16,experiment,HHSHH,2,even,76040,34991,NA,NA,41053,1338,NA,NA,77067,1341,NA,NA,77169,77677,NA,77066,77169,Flanker Task,24,14817,25,1024
96,96,591,591,black,legacy,legacy,legacy,congruent ,1,undefined,1,h,25,0,0,0,25,0,25,0,25,0,0,0,25,25,NA,25,25,Mon Sep 18 11:33:02 2023,1500,The main experiment item,TRUE,FlankerTask.osexp,C:\Users\Simone\Desktop,FALSE,mono,FALSE,18,no,white,no,yes,768,legacy,25,25,C:\Users\Simone\Desktop\defaultlog.csv,legacy,Melodramatic Milgram,4.0.5,0,h,NA,s,NA,NA,h,NA,573,NA,33649,NA,NA,573,NA,2,legacy,1024,2,48000,-16,experiment,HHHHH,2,even,77681,34991,NA,NA,41053,1338,NA,NA,78706,1341,NA,NA,78807,79380,NA,78705,78807,Flanker Task,25,15390,26,1024
96,96,589,589,black,legacy,legacy,legacy,congruent ,1,undefined,1,s,26,0,0,0,26,0,26,0,26,0,0,0,26,26,NA,26,26,Mon Sep 18 11:33:02 2023,1500,The main experiment item,TRUE,FlankerTask.osexp,C:\Users\Simone\Desktop,FALSE,mono,FALSE,18,no,white,no,yes,768,legacy,26,26,C:\Users\Simone\Desktop\defaultlog.csv,legacy,Melodramatic Milgram,4.0.5,0,s,NA,s,NA,NA,s,NA,534,NA,33649,NA,NA,534,NA,2,legacy,1024,2,48000,-16,experiment,SSSSS,2,even,79383,34991,NA,NA,41053,1338,NA,NA,80411,1341,NA,NA,80512,81046,NA,80409,80512,Flanker Task,26,15924,27,1024
96,96,586,586,black,legacy,legacy,legacy,incongruent,1,undefined,1,h,27,0,0,0,27,0,27,0,27,0,0,0,27,27,NA,27,27,Mon Sep 18 11:33:02 2023,1500,The main experiment item,TRUE,FlankerTask.osexp,C:\Users\Simone\Desktop,FALSE,mono,FALSE,18,no,white,no,yes,768,legacy,27,27,C:\Users\Simone\Desktop\defaultlog.csv,legacy,Melodramatic Milgram,4.0.5,0,h,NA,s,NA,NA,h,NA,498,NA,33649,NA,NA,498,NA,2,legacy,1024,2,48000,-16,experiment,SSHSS,2,even,81050,34991,NA,NA,41053,1338,NA,NA,82074,1341,NA,NA,82175,82674,NA,82072,82175,Flanker Task,27,16422,28,1024
96,96,583,583,black,legacy,legacy,legacy,incongruent,1,undefined,1,h,28,0,0,0,28,0,28,0,28,0,0,0,28,28,NA,28,28,Mon Sep 18 11:33:02 2023,1500,The main experiment item,TRUE,FlankerTask.osexp,C:\Users\Simone\Desktop,FALSE,mono,FALSE,18,no,white,no,yes,768,legacy,28,28,C:\Users\Simone\Desktop\defaultlog.csv,legacy,Melodramatic Milgram,4.0.5,0,h,NA,s,NA,NA,h,NA,500,NA,33649,NA,NA,500,NA,2,legacy,1024,2,48000,-16,experiment,SSHSS,2,even,82678,34991,NA,NA,41053,1338,NA,NA,83704,1341,NA,NA,83805,84306,NA,83702,83805,Flanker Task,28,16922,29,1024
96,96,583,583,black,legacy,legacy,legacy,incongruent,1,undefined,1,s,29,0,0,0,29,0,29,0,29,0,0,0,29,29,NA,29,29,Mon Sep 18 11:33:02 2023,1500,The main experiment item,TRUE,FlankerTask.osexp,C:\Users\Simone\Desktop,FALSE,mono,FALSE,18,no,white,no,yes,768,legacy,29,29,C:\Users\Simone\Desktop\defaultlog.csv,legacy,Melodramatic Milgram,4.0.5,0,s,NA,s,NA,NA,s,NA,591,NA,33649,NA,NA,591,NA,2,legacy,1024,2,48000,-16,experiment,HHSHH,2,even,84312,34991,NA,NA,41053,1338,NA,NA,85351,1341,NA,NA,85452,86043,NA,85349,85452,Flanker Task,29,17513,30,1024
96,96,581,581,black,legacy,legacy,legacy,congruent ,1,undefined,1,h,30,0,0,0,30,0,30,0,30,0,0,0,30,30,NA,30,30,Mon Sep 18 11:33:02 2023,1500,The main experiment item,TRUE,FlankerTask.osexp,C:\Users\Simone\Desktop,FALSE,mono,FALSE,18,no,white,no,yes,768,legacy,30,30,C:\Users\Simone\Desktop\defaultlog.csv,legacy,Melodramatic Milgram,4.0.5,0,h,NA,s,NA,NA,h,NA,518,NA,33649,NA,NA,518,NA,2,legacy,1024,2,48000,-16,experiment,HHHHH,2,even,86047,34991,NA,NA,41053,1338,NA,NA,87075,1341,NA,NA,87176,87694,NA,87074,87176,Flanker Task,30,18031,31,1024
96,96,579,579,black,legacy,legacy,legacy,incongruent,1,undefined,1,s,31,0,0,0,31,0,31,0,31,0,0,0,31,31,NA,31,31,Mon Sep 18 11:33:02 2023,1500,The main experiment item,TRUE,FlankerTask.osexp,C:\Users\Simone\Desktop,FALSE,mono,FALSE,18,no,white,no,yes,768,legacy,31,31,C:\Users\Simone\Desktop\defaultlog.csv,legacy,Melodramatic Milgram,4.0.5,0,s,NA,s,NA,NA,s,NA,515,NA,33649,NA,NA,515,NA,2,legacy,1024,2,48000,-16,experiment,HHSHH,2,even,87698,34991,NA,NA,41053,1338,NA,NA,88723,1341,NA,NA,88824,89339,NA,88721,88824,Flanker Task,31,18546,32,1024
96,96,577,577,black,legacy,legacy,legacy,incongruent,1,undefined,1,h,32,0,0,0,32,0,32,0,32,0,0,0,32,32,NA,32,32,Mon Sep 18 11:33:02 2023,1500,The main experiment item,TRUE,FlankerTask.osexp,C:\Users\Simone\Desktop,FALSE,mono,FALSE,18,no,white,no,yes,768,legacy,32,32,C:\Users\Simone\Desktop\defaultlog.csv,legacy,Melodramatic Milgram,4.0.5,0,h,NA,s,NA,NA,h,NA,502,NA,33649,NA,NA,502,NA,2,legacy,1024,2,48000,-16,experiment,SSHSS,2,even,89343,34991,NA,NA,41053,1338,NA,NA,90370,1341,NA,NA,90471,90973,NA,90369,90471,Flanker Task,32,19048,33,1024
97,97,583,583,black,legacy,legacy,legacy,incongruent,1,undefined,1,h,33,0,0,0,33,0,33,0,33,0,0,0,33,33,NA,33,33,Mon Sep 18 11:33:02 2023,1500,The main experiment item,TRUE,FlankerTask.osexp,C:\Users\Simone\Desktop,FALSE,mono,FALSE,18,no,white,no,yes,768,legacy,33,33,C:\Users\Simone\Desktop\defaultlog.csv,legacy,Melodramatic Milgram,4.0.5,0,h,NA,s,NA,NA,h,NA,806,NA,33649,NA,NA,806,NA,2,legacy,1024,2,48000,-16,experiment,SSHSS,2,even,90977,34991,NA,NA,41053,1338,NA,NA,92004,1341,NA,NA,92105,92911,NA,92002,92105,Flanker Task,33,19854,34,1024
97,97,583,583,black,legacy,legacy,legacy,incongruent,1,undefined,1,s,34,0,0,0,34,0,34,0,34,0,0,0,34,34,NA,34,34,Mon Sep 18 11:33:02 2023,1500,The main experiment item,TRUE,FlankerTask.osexp,C:\Users\Simone\Desktop,FALSE,mono,FALSE,18,no,white,no,yes,768,legacy,34,34,C:\Users\Simone\Desktop\defaultlog.csv,legacy,Melodramatic Milgram,4.0.5,0,s,NA,s,NA,NA,s,NA,579,NA,33649,NA,NA,579,NA,2,legacy,1024,2,48000,-16,experiment,HHSHH,2,even,92915,34991,NA,NA,41053,1338,NA,NA,93943,1341,NA,NA,94044,94623,NA,93941,94044,Flanker Task,34,20433,35,1024
97,97,581,581,black,legacy,legacy,legacy,congruent ,1,undefined,1,h,35,0,0,0,35,0,35,0,35,0,0,0,35,35,NA,35,35,Mon Sep 18 11:33:02 2023,1500,The main experiment item,TRUE,FlankerTask.osexp,C:\Users\Simone\Desktop,FALSE,mono,FALSE,18,no,white,no,yes,768,legacy,35,35,C:\Users\Simone\Desktop\defaultlog.csv,legacy,Melodramatic Milgram,4.0.5,0,h,NA,s,NA,NA,h,NA,502,NA,33649,NA,NA,502,NA,2,legacy,1024,2,48000,-16,experiment,HHHHH,2,even,94626,34991,NA,NA,41053,1338,NA,NA,95651,1341,NA,NA,95752,96255,NA,95649,95752,Flanker Task,35,20935,36,1024
97,97,580,580,black,legacy,legacy,legacy,incongruent,1,undefined,1,h,36,0,0,0,36,0,36,0,36,0,0,0,36,36,NA,36,36,Mon Sep 18 11:33:02 2023,1500,The main experiment item,TRUE,FlankerTask.osexp,C:\Users\Simone\Desktop,FALSE,mono,FALSE,18,no,white,no,yes,768,legacy,36,36,C:\Users\Simone\Desktop\defaultlog.csv,legacy,Melodramatic Milgram,4.0.5,0,h,NA,s,NA,NA,h,NA,527,NA,33649,NA,NA,527,NA,2,legacy,1024,2,48000,-16,experiment,SSHSS,2,even,96258,34991,NA,NA,41053,1338,NA,NA,97286,1341,NA,NA,97387,97915,NA,97285,97387,Flanker Task,36,21462,37,1024
97,97,582,582,black,legacy,legacy,legacy,incongruent,1,undefined,1,s,37,0,0,0,37,0,37,0,37,0,0,0,37,37,NA,37,37,Mon Sep 18 11:33:02 2023,1500,The main experiment item,TRUE,FlankerTask.osexp,C:\Users\Simone\Desktop,FALSE,mono,FALSE,18,no,white,no,yes,768,legacy,37,37,C:\Users\Simone\Desktop\defaultlog.csv,legacy,Melodramatic Milgram,4.0.5,0,s,NA,s,NA,NA,s,NA,654,NA,33649,NA,NA,654,NA,2,legacy,1024,2,48000,-16,experiment,HHSHH,2,even,97919,34991,NA,NA,41053,1338,NA,NA,98950,1341,NA,NA,99051,99706,NA,98949,99051,Flanker Task,37,22116,38,1024
97,97,580,580,black,legacy,legacy,legacy,congruent ,1,undefined,1,s,38,0,0,0,38,0,38,0,38,0,0,0,38,38,NA,38,38,Mon Sep 18 11:33:02 2023,1500,The main experiment item,TRUE,FlankerTask.osexp,C:\Users\Simone\Desktop,FALSE,mono,FALSE,18,no,white,no,yes,768,legacy,38,38,C:\Users\Simone\Desktop\defaultlog.csv,legacy,Melodramatic Milgram,4.0.5,0,s,NA,s,NA,NA,s,NA,540,NA,33649,NA,NA,540,NA,2,legacy,1024,2,48000,-16,experiment,SSSSS,2,even,99710,34991,NA,NA,41053,1338,NA,NA,100745,1341,NA,NA,100846,101387,NA,100743,100846,Flanker Task,38,22656,39,1024
97,97,584,584,black,legacy,legacy,legacy,incongruent,1,undefined,1,s,39,0,0,0,39,0,39,0,39,0,0,0,39,39,NA,39,39,Mon Sep 18 11:33:02 2023,1500,The main experiment item,TRUE,FlankerTask.osexp,C:\Users\Simone\Desktop,FALSE,mono,FALSE,18,no,white,no,yes,768,legacy,39,39,C:\Users\Simone\Desktop\defaultlog.csv,legacy,Melodramatic Milgram,4.0.5,0,s,NA,s,NA,NA,s,NA,733,NA,33649,NA,NA,733,NA,2,legacy,1024,2,48000,-16,experiment,HHSHH,2,even,101391,34991,NA,NA,41053,1338,NA,NA,102417,1341,NA,NA,102518,103251,NA,102416,102518,Flanker Task,39,23389,40,1024
97,97,584,584,black,legacy,legacy,legacy,incongruent,1,undefined,1,s,40,0,0,0,40,0,40,0,40,0,0,0,40,40,NA,40,40,Mon Sep 18 11:33:02 2023,1500,The main experiment item,TRUE,FlankerTask.osexp,C:\Users\Simone\Desktop,FALSE,mono,FALSE,18,no,white,no,yes,768,legacy,40,40,C:\Users\Simone\Desktop\defaultlog.csv,legacy,Melodramatic Milgram,4.0.5,0,s,NA,s,NA,NA,s,NA,577,NA,33649,NA,NA,577,NA,2,legacy,1024,2,48000,-16,experiment,HHSHH,2,even,103255,34991,NA,NA,41053,1338,NA,NA,104285,1341,NA,NA,104386,104963,NA,104283,104386,Flanker Task,40,23966,41,1024
97,97,583,583,black,legacy,legacy,legacy,congruent ,1,undefined,1,s,41,0,0,0,41,0,41,0,41,0,0,0,41,41,NA,41,41,Mon Sep 18 11:33:02 2023,1500,The main experiment item,TRUE,FlankerTask.osexp,C:\Users\Simone\Desktop,FALSE,mono,FALSE,18,no,white,no,yes,768,legacy,41,41,C:\Users\Simone\Desktop\defaultlog.csv,legacy,Melodramatic Milgram,4.0.5,0,s,NA,s,NA,NA,s,NA,526,NA,33649,NA,NA,526,NA,2,legacy,1024,2,48000,-16,experiment,SSSSS,2,even,104967,34991,NA,NA,41053,1338,NA,NA,105999,1341,NA,NA,106100,106626,NA,105998,106100,Flanker Task,41,24492,42,1024
97,97,581,581,black,legacy,legacy,legacy,incongruent,1,undefined,1,s,42,0,0,0,42,0,42,0,42,0,0,0,42,42,NA,42,42,Mon Sep 18 11:33:02 2023,1500,The main experiment item,TRUE,FlankerTask.osexp,C:\Users\Simone\Desktop,FALSE,mono,FALSE,18,no,white,no,yes,768,legacy,42,42,C:\Users\Simone\Desktop\defaultlog.csv,legacy,Melodramatic Milgram,4.0.5,0,s,NA,s,NA,NA,s,NA,530,NA,33649,NA,NA,530,NA,2,legacy,1024,2,48000,-16,experiment,HHSHH,2,even,106629,34991,NA,NA,41053,1338,NA,NA,107654,1341,NA,NA,107755,108285,NA,107652,107755,Flanker Task,42,25022,43,1024
97,97,580,580,black,legacy,legacy,legacy,congruent ,1,undefined,1,h,43,0,0,0,43,0,43,0,43,0,0,0,43,43,NA,43,43,Mon Sep 18 11:33:02 2023,1500,The main experiment item,TRUE,FlankerTask.osexp,C:\Users\Simone\Desktop,FALSE,mono,FALSE,18,no,white,no,yes,768,legacy,43,43,C:\Users\Simone\Desktop\defaultlog.csv,legacy,Melodramatic Milgram,4.0.5,0,h,NA,s,NA,NA,h,NA,527,NA,33649,NA,NA,527,NA,2,legacy,1024,2,48000,-16,experiment,HHHHH,2,even,108289,34991,NA,NA,41053,1338,NA,NA,109313,1341,NA,NA,109414,109941,NA,109312,109414,Flanker Task,43,25549,44,1024
97,97,578,578,black,legacy,legacy,legacy,congruent ,1,undefined,1,s,44,0,0,0,44,0,44,0,44,0,0,0,44,44,NA,44,44,Mon Sep 18 11:33:02 2023,1500,The main experiment item,TRUE,FlankerTask.osexp,C:\Users\Simone\Desktop,FALSE,mono,FALSE,18,no,white,no,yes,768,legacy,44,44,C:\Users\Simone\Desktop\defaultlog.csv,legacy,Melodramatic Milgram,4.0.5,0,s,NA,s,NA,NA,s,NA,491,NA,33649,NA,NA,491,NA,2,legacy,1024,2,48000,-16,experiment,SSSSS,2,even,109945,34991,NA,NA,41053,1338,NA,NA,110972,1341,NA,NA,111073,111564,NA,110971,111073,Flanker Task,44,26040,45,1024
97,97,577,577,black,legacy,legacy,legacy,incongruent,1,undefined,1,s,45,0,0,0,45,0,45,0,45,0,0,0,45,45,NA,45,45,Mon Sep 18 11:33:02 2023,1500,The main experiment item,TRUE,FlankerTask.osexp,C:\Users\Simone\Desktop,FALSE,mono,FALSE,18,no,white,no,yes,768,legacy,45,45,C:\Users\Simone\Desktop\defaultlog.csv,legacy,Melodramatic Milgram,4.0.5,0,s,NA,s,NA,NA,s,NA,513,NA,33649,NA,NA,513,NA,2,legacy,1024,2,48000,-16,experiment,HHSHH,2,even,111568,34991,NA,NA,41053,1338,NA,NA,112595,1341,NA,NA,112696,113209,NA,112594,112696,Flanker Task,45,26553,46,1024
97,97,577,577,black,legacy,legacy,legacy,incongruent,1,undefined,1,s,46,0,0,0,46,0,46,0,46,0,0,0,46,46,NA,46,46,Mon Sep 18 11:33:02 2023,1500,The main experiment item,TRUE,FlankerTask.osexp,C:\Users\Simone\Desktop,FALSE,mono,FALSE,18,no,white,no,yes,768,legacy,46,46,C:\Users\Simone\Desktop\defaultlog.csv,legacy,Melodramatic Milgram,4.0.5,0,s,NA,s,NA,NA,s,NA,581,NA,33649,NA,NA,581,NA,2,legacy,1024,2,48000,-16,experiment,HHSHH,2,even,113213,34991,NA,NA,41053,1338,NA,NA,114243,1341,NA,NA,114344,114926,NA,114242,114344,Flanker Task,46,27134,47,1024
97,97,577,577,black,legacy,legacy,legacy,incongruent,1,undefined,1,h,47,0,0,0,47,0,47,0,47,0,0,0,47,47,NA,47,47,Mon Sep 18 11:33:02 2023,1500,The main experiment item,TRUE,FlankerTask.osexp,C:\Users\Simone\Desktop,FALSE,mono,FALSE,18,no,white,no,yes,768,legacy,47,47,C:\Users\Simone\Desktop\defaultlog.csv,legacy,Melodramatic Milgram,4.0.5,0,h,NA,s,NA,NA,h,NA,568,NA,33649,NA,NA,568,NA,2,legacy,1024,2,48000,-16,experiment,SSHSS,2,even,114932,34991,NA,NA,41053,1338,NA,NA,115967,1341,NA,NA,116068,116636,NA,115965,116068,Flanker Task,47,27702,48,1024
97,97,577,577,black,legacy,legacy,legacy,congruent ,1,undefined,1,h,48,0,0,0,48,0,48,0,48,0,0,0,48,48,NA,48,48,Mon Sep 18 11:33:02 2023,1500,The main experiment item,TRUE,FlankerTask.osexp,C:\Users\Simone\Desktop,FALSE,mono,FALSE,18,no,white,no,yes,768,legacy,48,48,C:\Users\Simone\Desktop\defaultlog.csv,legacy,Melodramatic Milgram,4.0.5,0,h,NA,s,NA,NA,h,NA,616,NA,33649,NA,NA,616,NA,2,legacy,1024,2,48000,-16,experiment,HHHHH,2,even,116640,34991,NA,NA,41053,1338,NA,NA,117666,1341,NA,NA,117767,118383,NA,117664,117767,Flanker Task,48,28318,49,1024
98,98,574,574,black,legacy,legacy,legacy,congruent ,1,undefined,1,h,49,0,0,0,49,0,49,0,49,0,0,0,49,49,NA,49,49,Mon Sep 18 11:33:02 2023,1500,The main experiment item,TRUE,FlankerTask.osexp,C:\Users\Simone\Desktop,FALSE,mono,FALSE,18,no,white,no,yes,768,legacy,49,49,C:\Users\Simone\Desktop\defaultlog.csv,legacy,Melodramatic Milgram,4.0.5,0,h,NA,s,NA,NA,h,NA,427,NA,33649,NA,NA,427,NA,2,legacy,1024,2,48000,-16,experiment,HHHHH,2,even,118385,34991,NA,NA,41053,1338,NA,NA,119415,1341,NA,NA,119516,119943,NA,119413,119516,Flanker Task,49,28745,50,1024
98,98,571,571,black,legacy,legacy,legacy,congruent ,1,undefined,1,s,50,0,0,0,50,0,50,0,50,0,0,0,50,50,NA,50,50,Mon Sep 18 11:33:02 2023,1500,The main experiment item,TRUE,FlankerTask.osexp,C:\Users\Simone\Desktop,FALSE,mono,FALSE,18,no,white,no,yes,768,legacy,50,50,C:\Users\Simone\Desktop\defaultlog.csv,legacy,Melodramatic Milgram,4.0.5,0,s,NA,s,NA,NA,s,NA,405,NA,33649,NA,NA,405,NA,2,legacy,1024,2,48000,-16,experiment,SSSSS,2,even,119947,34991,NA,NA,41053,1338,NA,NA,120980,1341,NA,NA,121081,121486,NA,120978,121081,Flanker Task,50,29150,51,1024
98,98,571,571,black,legacy,legacy,legacy,congruent ,1,undefined,1,s,51,0,0,0,51,0,51,0,51,0,0,0,51,51,NA,51,51,Mon Sep 18 11:33:02 2023,1500,The main experiment item,TRUE,FlankerTask.osexp,C:\Users\Simone\Desktop,FALSE,mono,FALSE,18,no,white,no,yes,768,legacy,51,51,C:\Users\Simone\Desktop\defaultlog.csv,legacy,Melodramatic Milgram,4.0.5,0,s,NA,s,NA,NA,s,NA,547,NA,33649,NA,NA,547,NA,2,legacy,1024,2,48000,-16,experiment,SSSSS,2,even,121490,34991,NA,NA,41053,1338,NA,NA,122516,1341,NA,NA,122617,123164,NA,122514,122617,Flanker Task,51,29697,52,1024
98,98,568,568,black,legacy,legacy,legacy,congruent ,1,undefined,1,h,52,0,0,0,52,0,52,0,52,0,0,0,52,52,NA,52,52,Mon Sep 18 11:33:02 2023,1500,The main experiment item,TRUE,FlankerTask.osexp,C:\Users\Simone\Desktop,FALSE,mono,FALSE,18,no,white,no,yes,768,legacy,52,52,C:\Users\Simone\Desktop\defaultlog.csv,legacy,Melodramatic Milgram,4.0.5,0,h,NA,s,NA,NA,h,NA,448,NA,33649,NA,NA,448,NA,2,legacy,1024,2,48000,-16,experiment,HHHHH,2,even,123168,34991,NA,NA,41053,1338,NA,NA,124195,1341,NA,NA,124296,124744,NA,124194,124296,Flanker Task,52,30145,53,1024
98,98,567,567,black,legacy,legacy,legacy,congruent ,1,undefined,1,h,53,0,0,0,53,0,53,0,53,0,0,0,53,53,NA,53,53,Mon Sep 18 11:33:02 2023,1500,The main experiment item,TRUE,FlankerTask.osexp,C:\Users\Simone\Desktop,FALSE,mono,FALSE,18,no,white,no,yes,768,legacy,53,53,C:\Users\Simone\Desktop\defaultlog.csv,legacy,Melodramatic Milgram,4.0.5,0,h,NA,s,NA,NA,h,NA,519,NA,33649,NA,NA,519,NA,2,legacy,1024,2,48000,-16,experiment,HHHHH,2,even,124748,34991,NA,NA,41053,1338,NA,NA,125771,1341,NA,NA,125872,126391,NA,125769,125872,Flanker Task,53,30664,54,1024
98,98,565,565,black,legacy,legacy,legacy,congruent ,1,undefined,1,s,54,0,0,0,54,0,54,0,54,0,0,0,54,54,NA,54,54,Mon Sep 18 11:33:02 2023,1500,The main experiment item,TRUE,FlankerTask.osexp,C:\Users\Simone\Desktop,FALSE,mono,FALSE,18,no,white,no,yes,768,legacy,54,54,C:\Users\Simone\Desktop\defaultlog.csv,legacy,Melodramatic Milgram,4.0.5,0,s,NA,s,NA,NA,s,NA,456,NA,33649,NA,NA,456,NA,2,legacy,1024,2,48000,-16,experiment,SSSSS,2,even,126395,34991,NA,NA,41053,1338,NA,NA,127424,1341,NA,NA,127525,127981,NA,127422,127525,Flanker Task,54,31120,55,1024
98,98,565,565,black,legacy,legacy,legacy,congruent ,1,undefined,1,s,55,0,0,0,55,0,55,0,55,0,0,0,55,55,NA,55,55,Mon Sep 18 11:33:02 2023,1500,The main experiment item,TRUE,FlankerTask.osexp,C:\Users\Simone\Desktop,FALSE,mono,FALSE,18,no,white,no,yes,768,legacy,55,55,C:\Users\Simone\Desktop\defaultlog.csv,legacy,Melodramatic Milgram,4.0.5,0,s,NA,s,NA,NA,s,NA,533,NA,33649,NA,NA,533,NA,2,legacy,1024,2,48000,-16,experiment,SSSSS,2,even,127985,34991,NA,NA,41053,1338,NA,NA,129015,1341,NA,NA,129116,129650,NA,129012,129116,Flanker Task,55,31653,56,1024
98,98,563,563,black,legacy,legacy,legacy,incongruent,1,undefined,1,h,56,0,0,0,56,0,56,0,56,0,0,0,56,56,NA,56,56,Mon Sep 18 11:33:02 2023,1500,The main experiment item,TRUE,FlankerTask.osexp,C:\Users\Simone\Desktop,FALSE,mono,FALSE,18,no,white,no,yes,768,legacy,56,56,C:\Users\Simone\Desktop\defaultlog.csv,legacy,Melodramatic Milgram,4.0.5,0,h,NA,s,NA,NA,h,NA,492,NA,33649,NA,NA,492,NA,2,legacy,1024,2,48000,-16,experiment,SSHSS,2,even,129653,34991,NA,NA,41053,1338,NA,NA,130689,1341,NA,NA,130791,131284,NA,130688,130790,Flanker Task,56,32145,57,1024
98,98,563,563,black,legacy,legacy,legacy,incongruent,1,undefined,1,s,57,0,0,0,57,0,57,0,57,0,0,0,57,57,NA,57,57,Mon Sep 18 11:33:02 2023,1500,The main experiment item,TRUE,FlankerTask.osexp,C:\Users\Simone\Desktop,FALSE,mono,FALSE,18,no,white,no,yes,768,legacy,57,57,C:\Users\Simone\Desktop\defaultlog.csv,legacy,Melodramatic Milgram,4.0.5,0,s,NA,s,NA,NA,s,NA,562,NA,33649,NA,NA,562,NA,2,legacy,1024,2,48000,-16,experiment,HHSHH,2,even,131288,34991,NA,NA,41053,1338,NA,NA,132317,1341,NA,NA,132418,132980,NA,132316,132418,Flanker Task,57,32707,58,1024
98,98,562,562,black,legacy,legacy,legacy,congruent ,1,undefined,1,s,58,0,0,0,58,0,58,0,58,0,0,0,58,58,NA,58,58,Mon Sep 18 11:33:02 2023,1500,The main experiment item,TRUE,FlankerTask.osexp,C:\Users\Simone\Desktop,FALSE,mono,FALSE,18,no,white,no,yes,768,legacy,58,58,C:\Users\Simone\Desktop\defaultlog.csv,legacy,Melodramatic Milgram,4.0.5,0,s,NA,s,NA,NA,s,NA,474,NA,33649,NA,NA,474,NA,2,legacy,1024,2,48000,-16,experiment,SSSSS,2,even,132984,34991,NA,NA,41053,1338,NA,NA,134014,1341,NA,NA,134115,134590,NA,134012,134115,Flanker Task,58,33181,59,1024
98,98,560,560,black,legacy,legacy,legacy,congruent ,1,undefined,1,s,59,0,0,0,59,0,59,0,59,0,0,0,59,59,NA,59,59,Mon Sep 18 11:33:02 2023,1500,The main experiment item,TRUE,FlankerTask.osexp,C:\Users\Simone\Desktop,FALSE,mono,FALSE,18,no,white,no,yes,768,legacy,59,59,C:\Users\Simone\Desktop\defaultlog.csv,legacy,Melodramatic Milgram,4.0.5,0,s,NA,s,NA,NA,s,NA,429,NA,33649,NA,NA,429,NA,2,legacy,1024,2,48000,-16,experiment,SSSSS,2,even,134593,34991,NA,NA,41053,1338,NA,NA,135620,1341,NA,NA,135721,136151,NA,135619,135721,Flanker Task,59,33610,60,1024
98,98,564,564,black,legacy,legacy,legacy,incongruent,1,undefined,1,s,60,0,0,0,60,0,60,0,60,0,0,0,60,60,NA,60,60,Mon Sep 18 11:33:02 2023,1500,The main experiment item,TRUE,FlankerTask.osexp,C:\Users\Simone\Desktop,FALSE,mono,FALSE,18,no,white,no,yes,768,legacy,60,60,C:\Users\Simone\Desktop\defaultlog.csv,legacy,Melodramatic Milgram,4.0.5,0,s,NA,s,NA,NA,s,NA,824,NA,33649,NA,NA,824,NA,2,legacy,1024,2,48000,-16,experiment,HHSHH,2,even,136155,34991,NA,NA,41053,1338,NA,NA,137183,1341,NA,NA,137284,138108,NA,137181,137284,Flanker Task,60,34434,61,1024
98,98,563,563,black,legacy,legacy,legacy,incongruent,1,undefined,1,h,61,0,0,0,61,0,61,0,61,0,0,0,61,61,NA,61,61,Mon Sep 18 11:33:02 2023,1500,The main experiment item,TRUE,FlankerTask.osexp,C:\Users\Simone\Desktop,FALSE,mono,FALSE,18,no,white,no,yes,768,legacy,61,61,C:\Users\Simone\Desktop\defaultlog.csv,legacy,Melodramatic Milgram,4.0.5,0,h,NA,s,NA,NA,h,NA,531,NA,33649,NA,NA,531,NA,2,legacy,1024,2,48000,-16,experiment,SSHSS,2,even,138112,34991,NA,NA,41053,1338,NA,NA,139139,1341,NA,NA,139240,139772,NA,139138,139240,Flanker Task,61,34965,62,1024
98,98,562,562,black,legacy,legacy,legacy,congruent ,1,undefined,1,h,62,0,0,0,62,0,62,0,62,0,0,0,62,62,NA,62,62,Mon Sep 18 11:33:02 2023,1500,The main experiment item,TRUE,FlankerTask.osexp,C:\Users\Simone\Desktop,FALSE,mono,FALSE,18,no,white,no,yes,768,legacy,62,62,C:\Users\Simone\Desktop\defaultlog.csv,legacy,Melodramatic Milgram,4.0.5,0,h,NA,s,NA,NA,h,NA,500,NA,33649,NA,NA,500,NA,2,legacy,1024,2,48000,-16,experiment,HHHHH,2,even,139776,34991,NA,NA,41053,1338,NA,NA,140805,1341,NA,NA,140906,141407,NA,140803,140906,Flanker Task,62,35465,63,1024
98,98,561,561,black,legacy,legacy,legacy,congruent ,1,undefined,1,s,63,0,0,0,63,0,63,0,63,0,0,0,63,63,NA,63,63,Mon Sep 18 11:33:02 2023,1500,The main experiment item,TRUE,FlankerTask.osexp,C:\Users\Simone\Desktop,FALSE,mono,FALSE,18,no,white,no,yes,768,legacy,63,63,C:\Users\Simone\Desktop\defaultlog.csv,legacy,Melodramatic Milgram,4.0.5,0,s,NA,s,NA,NA,s,NA,469,NA,33649,NA,NA,469,NA,2,legacy,1024,2,48000,-16,experiment,SSSSS,2,even,141411,34991,NA,NA,41053,1338,NA,NA,142439,1341,NA,NA,142540,143010,NA,142437,142540,Flanker Task,63,35934,64,1024
98,98,560,560,black,legacy,legacy,legacy,incongruent,1,undefined,1,h,64,0,0,0,64,0,64,0,64,0,0,0,64,64,NA,64,64,Mon Sep 18 11:33:02 2023,1500,The main experiment item,TRUE,FlankerTask.osexp,C:\Users\Simone\Desktop,FALSE,mono,FALSE,18,no,white,no,yes,768,legacy,64,64,C:\Users\Simone\Desktop\defaultlog.csv,legacy,Melodramatic Milgram,4.0.5,0,h,NA,s,NA,NA,h,NA,481,NA,33649,NA,NA,481,NA,2,legacy,1024,2,48000,-16,experiment,SSHSS,2,even,143014,34991,NA,NA,41053,1338,NA,NA,144040,1341,NA,NA,144142,144623,NA,144039,144142,Flanker Task,64,36415,65,1024
98,98,558,558,black,legacy,legacy,legacy,congruent ,1,undefined,1,h,65,0,0,0,65,0,65,0,65,0,0,0,65,65,NA,65,65,Mon Sep 18 11:33:02 2023,1500,The main experiment item,TRUE,FlankerTask.osexp,C:\Users\Simone\Desktop,FALSE,mono,FALSE,18,no,white,no,yes,768,legacy,65,65,C:\Users\Simone\Desktop\defaultlog.csv,legacy,Melodramatic Milgram,4.0.5,0,h,NA,s,NA,NA,h,NA,457,NA,33649,NA,NA,457,NA,2,legacy,1024,2,48000,-16,experiment,HHHHH,2,even,144629,34991,NA,NA,41053,1338,NA,NA,145673,1341,NA,NA,145774,146231,NA,145671,145774,Flanker Task,65,36872,66,1024
98,98,556,556,black,legacy,legacy,legacy,congruent ,1,undefined,1,h,66,0,0,0,66,0,66,0,66,0,0,0,66,66,NA,66,66,Mon Sep 18 11:33:02 2023,1500,The main experiment item,TRUE,FlankerTask.osexp,C:\Users\Simone\Desktop,FALSE,mono,FALSE,18,no,white,no,yes,768,legacy,66,66,C:\Users\Simone\Desktop\defaultlog.csv,legacy,Melodramatic Milgram,4.0.5,0,h,NA,s,NA,NA,h,NA,441,NA,33649,NA,NA,441,NA,2,legacy,1024,2,48000,-16,experiment,HHHHH,2,even,146235,34991,NA,NA,41053,1338,NA,NA,147260,1341,NA,NA,147361,147803,NA,147258,147361,Flanker Task,66,37313,67,1024
98,98,554,554,black,legacy,legacy,legacy,congruent ,1,undefined,1,h,67,0,0,0,67,0,67,0,67,0,0,0,67,67,NA,67,67,Mon Sep 18 11:33:02 2023,1500,The main experiment item,TRUE,FlankerTask.osexp,C:\Users\Simone\Desktop,FALSE,mono,FALSE,18,no,white,no,yes,768,legacy,67,67,C:\Users\Simone\Desktop\defaultlog.csv,legacy,Melodramatic Milgram,4.0.5,0,h,NA,s,NA,NA,h,NA,405,NA,33649,NA,NA,405,NA,2,legacy,1024,2,48000,-16,experiment,HHHHH,2,even,147807,34991,NA,NA,41053,1338,NA,NA,148837,1341,NA,NA,148938,149343,NA,148835,148938,Flanker Task,67,37718,68,1024
98,98,554,554,black,legacy,legacy,legacy,congruent ,1,undefined,1,s,68,0,0,0,68,0,68,0,68,0,0,0,68,68,NA,68,68,Mon Sep 18 11:33:02 2023,1500,The main experiment item,TRUE,FlankerTask.osexp,C:\Users\Simone\Desktop,FALSE,mono,FALSE,18,no,white,no,yes,768,legacy,68,68,C:\Users\Simone\Desktop\defaultlog.csv,legacy,Melodramatic Milgram,4.0.5,0,s,NA,s,NA,NA,s,NA,509,NA,33649,NA,NA,509,NA,2,legacy,1024,2,48000,-16,experiment,SSSSS,2,even,149347,34991,NA,NA,41053,1338,NA,NA,150371,1341,NA,NA,150472,150981,NA,150370,150472,Flanker Task,68,38227,69,1024
98,98,552,552,black,legacy,legacy,legacy,incongruent,1,undefined,1,h,69,0,0,0,69,0,69,0,69,0,0,0,69,69,NA,69,69,Mon Sep 18 11:33:02 2023,1500,The main experiment item,TRUE,FlankerTask.osexp,C:\Users\Simone\Desktop,FALSE,mono,FALSE,18,no,white,no,yes,768,legacy,69,69,C:\Users\Simone\Desktop\defaultlog.csv,legacy,Melodramatic Milgram,4.0.5,0,h,NA,s,NA,NA,h,NA,478,NA,33649,NA,NA,478,NA,2,legacy,1024,2,48000,-16,experiment,SSHSS,2,even,150985,34991,NA,NA,41053,1338,NA,NA,152015,1341,NA,NA,152116,152595,NA,152013,152116,Flanker Task,69,38705,70,1024
98,98,552,552,black,legacy,legacy,legacy,congruent ,1,undefined,1,s,70,0,0,0,70,0,70,0,70,0,0,0,70,70,NA,70,70,Mon Sep 18 11:33:02 2023,1500,The main experiment item,TRUE,FlankerTask.osexp,C:\Users\Simone\Desktop,FALSE,mono,FALSE,18,no,white,no,yes,768,legacy,70,70,C:\Users\Simone\Desktop\defaultlog.csv,legacy,Melodramatic Milgram,4.0.5,0,s,NA,s,NA,NA,s,NA,521,NA,33649,NA,NA,521,NA,2,legacy,1024,2,48000,-16,experiment,SSSSS,2,even,152599,34991,NA,NA,41053,1338,NA,NA,153627,1341,NA,NA,153728,154249,NA,153626,153728,Flanker Task,70,39226,71,1024
98,98,552,552,black,legacy,legacy,legacy,incongruent,1,undefined,1,h,71,0,0,0,71,0,71,0,71,0,0,0,71,71,NA,71,71,Mon Sep 18 11:33:02 2023,1500,The main experiment item,TRUE,FlankerTask.osexp,C:\Users\Simone\Desktop,FALSE,mono,FALSE,18,no,white,no,yes,768,legacy,71,71,C:\Users\Simone\Desktop\defaultlog.csv,legacy,Melodramatic Milgram,4.0.5,0,h,NA,s,NA,NA,h,NA,578,NA,33649,NA,NA,578,NA,2,legacy,1024,2,48000,-16,experiment,SSHSS,2,even,154253,34991,NA,NA,41053,1338,NA,NA,155281,1341,NA,NA,155382,155961,NA,155279,155382,Flanker Task,71,39804,72,1024
98,98,552,552,black,legacy,legacy,legacy,congruent ,1,undefined,1,h,72,0,0,0,72,0,72,0,72,0,0,0,72,72,NA,72,72,Mon Sep 18 11:33:02 2023,1500,The main experiment item,TRUE,FlankerTask.osexp,C:\Users\Simone\Desktop,FALSE,mono,FALSE,18,no,white,no,yes,768,legacy,72,72,C:\Users\Simone\Desktop\defaultlog.csv,legacy,Melodramatic Milgram,4.0.5,0,h,NA,s,NA,NA,h,NA,552,NA,33649,NA,NA,552,NA,2,legacy,1024,2,48000,-16,experiment,HHHHH,2,even,155965,34991,NA,NA,41053,1338,NA,NA,156996,1341,NA,NA,157097,157650,NA,156994,157097,Flanker Task,72,40356,73,1024
98,98,552,552,black,legacy,legacy,legacy,congruent ,1,undefined,1,h,73,0,0,0,73,0,73,0,73,0,0,0,73,73,NA,73,73,Mon Sep 18 11:33:02 2023,1500,The main experiment item,TRUE,FlankerTask.osexp,C:\Users\Simone\Desktop,FALSE,mono,FALSE,18,no,white,no,yes,768,legacy,73,73,C:\Users\Simone\Desktop\defaultlog.csv,legacy,Melodramatic Milgram,4.0.5,0,h,NA,s,NA,NA,h,NA,496,NA,33649,NA,NA,496,NA,2,legacy,1024,2,48000,-16,experiment,HHHHH,2,even,157653,34991,NA,NA,41053,1338,NA,NA,158680,1341,NA,NA,158781,159278,NA,158679,158781,Flanker Task,73,40852,74,1024
97,97,551,551,black,legacy,legacy,legacy,congruent ,0,undefined,0,s,74,0,0,0,74,0,74,0,74,0,0,0,74,74,NA,74,74,Mon Sep 18 11:33:02 2023,1500,The main experiment item,TRUE,FlankerTask.osexp,C:\Users\Simone\Desktop,FALSE,mono,FALSE,18,no,white,no,yes,768,legacy,74,74,C:\Users\Simone\Desktop\defaultlog.csv,legacy,Melodramatic Milgram,4.0.5,0,h,NA,s,NA,NA,h,NA,527,NA,33649,NA,NA,527,NA,2,legacy,1024,2,48000,-16,experiment,SSSSS,2,even,159281,34991,NA,NA,41053,1338,NA,NA,160317,1341,NA,NA,160419,160946,NA,160314,160419,Flanker Task,73,41379,75,1024
97,97,550,550,black,legacy,legacy,legacy,congruent ,1,undefined,1,s,75,0,0,0,75,0,75,0,75,0,0,0,75,75,NA,75,75,Mon Sep 18 11:33:02 2023,1500,The main experiment item,TRUE,FlankerTask.osexp,C:\Users\Simone\Desktop,FALSE,mono,FALSE,18,no,white,no,yes,768,legacy,75,75,C:\Users\Simone\Desktop\defaultlog.csv,legacy,Melodramatic Milgram,4.0.5,0,s,NA,s,NA,NA,s,NA,469,NA,33649,NA,NA,469,NA,2,legacy,1024,2,48000,-16,experiment,SSSSS,2,even,161451,34991,NA,NA,160950,1338,NA,NA,162474,1341,NA,NA,162575,163044,NA,162473,162575,Flanker Task,74,41848,76,1024
97,97,548,548,black,legacy,legacy,legacy,congruent ,1,undefined,1,s,76,0,0,0,76,0,76,0,76,0,0,0,76,76,NA,76,76,Mon Sep 18 11:33:02 2023,1500,The main experiment item,TRUE,FlankerTask.osexp,C:\Users\Simone\Desktop,FALSE,mono,FALSE,18,no,white,no,yes,768,legacy,76,76,C:\Users\Simone\Desktop\defaultlog.csv,legacy,Melodramatic Milgram,4.0.5,0,s,NA,s,NA,NA,s,NA,405,NA,33649,NA,NA,405,NA,2,legacy,1024,2,48000,-16,experiment,SSSSS,2,even,163048,34991,NA,NA,160950,1338,NA,NA,164076,1341,NA,NA,164177,164583,NA,164074,164177,Flanker Task,75,42253,77,1024
97,97,548,548,black,legacy,legacy,legacy,congruent ,1,undefined,1,h,77,0,0,0,77,0,77,0,77,0,0,0,77,77,NA,77,77,Mon Sep 18 11:33:02 2023,1500,The main experiment item,TRUE,FlankerTask.osexp,C:\Users\Simone\Desktop,FALSE,mono,FALSE,18,no,white,no,yes,768,legacy,77,77,C:\Users\Simone\Desktop\defaultlog.csv,legacy,Melodramatic Milgram,4.0.5,0,h,NA,s,NA,NA,h,NA,498,NA,33649,NA,NA,498,NA,2,legacy,1024,2,48000,-16,experiment,HHHHH,2,even,164587,34991,NA,NA,160950,1338,NA,NA,165613,1341,NA,NA,165714,166213,NA,165611,165714,Flanker Task,76,42751,78,1024
97,97,548,548,black,legacy,legacy,legacy,congruent ,1,undefined,1,h,78,0,0,0,78,0,78,0,78,0,0,0,78,78,NA,78,78,Mon Sep 18 11:33:02 2023,1500,The main experiment item,TRUE,FlankerTask.osexp,C:\Users\Simone\Desktop,FALSE,mono,FALSE,18,no,white,no,yes,768,legacy,78,78,C:\Users\Simone\Desktop\defaultlog.csv,legacy,Melodramatic Milgram,4.0.5,0,h,NA,s,NA,NA,h,NA,547,NA,33649,NA,NA,547,NA,2,legacy,1024,2,48000,-16,experiment,HHHHH,2,even,166217,34991,NA,NA,160950,1338,NA,NA,167243,1341,NA,NA,167345,167893,NA,167241,167344,Flanker Task,77,43298,79,1024
97,97,546,546,black,legacy,legacy,legacy,congruent ,1,undefined,1,s,79,0,0,0,79,0,79,0,79,0,0,0,79,79,NA,79,79,Mon Sep 18 11:33:02 2023,1500,The main experiment item,TRUE,FlankerTask.osexp,C:\Users\Simone\Desktop,FALSE,mono,FALSE,18,no,white,no,yes,768,legacy,79,79,C:\Users\Simone\Desktop\defaultlog.csv,legacy,Melodramatic Milgram,4.0.5,0,s,NA,s,NA,NA,s,NA,433,NA,33649,NA,NA,433,NA,2,legacy,1024,2,48000,-16,experiment,SSSSS,2,even,167896,34991,NA,NA,160950,1338,NA,NA,168929,1341,NA,NA,169030,169463,NA,168927,169030,Flanker Task,78,43731,80,1024
97,97,546,546,black,legacy,legacy,legacy,congruent ,1,undefined,1,s,80,0,0,0,80,0,80,0,80,0,0,0,80,80,NA,80,80,Mon Sep 18 11:33:02 2023,600,The main experiment item,TRUE,FlankerTask.osexp,C:\Users\Simone\Desktop,FALSE,mono,FALSE,18,no,white,no,yes,768,legacy,0,79,C:\Users\Simone\Desktop\defaultlog.csv,legacy,Melodramatic Milgram,4.0.5,0,s,NA,s,s,NA,s,NA,519,NA,33649,49492,NA,519,NA,2,legacy,1024,2,48000,-16,experiment,SSSSS,2,even,169467,34991,219960,NA,160950,1338,NA,NA,219996,1341,170468,NA,220097,220617,NA,219995,220097,Flanker Task,79,44250,81,1024
97,97,545,545,black,legacy,legacy,legacy,incongruent,1,undefined,1,h,81,0,0,0,81,0,81,0,81,0,0,0,81,81,NA,81,81,Mon Sep 18 11:33:02 2023,600,The main experiment item,TRUE,FlankerTask.osexp,C:\Users\Simone\Desktop,FALSE,mono,FALSE,18,no,white,no,yes,768,legacy,1,79,C:\Users\Simone\Desktop\defaultlog.csv,legacy,Melodramatic Milgram,4.0.5,0,h,NA,s,s,NA,h,NA,470,NA,33649,49492,NA,470,NA,2,legacy,1024,2,48000,-16,experiment,SSHSS,2,even,220621,34991,219960,NA,160950,1338,NA,NA,221652,1341,170468,NA,221753,222223,NA,221650,221753,Flanker Task,80,44720,82,1024
97,97,545,545,black,legacy,legacy,legacy,congruent ,1,undefined,1,h,82,0,0,0,82,0,82,0,82,0,0,0,82,82,NA,82,82,Mon Sep 18 11:33:02 2023,600,The main experiment item,TRUE,FlankerTask.osexp,C:\Users\Simone\Desktop,FALSE,mono,FALSE,18,no,white,no,yes,768,legacy,2,79,C:\Users\Simone\Desktop\defaultlog.csv,legacy,Melodramatic Milgram,4.0.5,0,h,NA,s,s,NA,h,NA,537,NA,33649,49492,NA,537,NA,2,legacy,1024,2,48000,-16,experiment,HHHHH,2,even,222227,34991,219960,NA,160950,1338,NA,NA,223254,1341,170468,NA,223355,223892,NA,223253,223355,Flanker Task,81,45257,83,1024
97,97,543,543,black,legacy,legacy,legacy,congruent ,1,undefined,1,h,83,0,0,0,83,0,83,0,83,0,0,0,83,83,NA,83,83,Mon Sep 18 11:33:02 2023,600,The main experiment item,TRUE,FlankerTask.osexp,C:\Users\Simone\Desktop,FALSE,mono,FALSE,18,no,white,no,yes,768,legacy,3,79,C:\Users\Simone\Desktop\defaultlog.csv,legacy,Melodramatic Milgram,4.0.5,0,h,NA,s,s,NA,h,NA,421,NA,33649,49492,NA,421,NA,2,legacy,1024,2,48000,-16,experiment,HHHHH,2,even,223895,34991,219960,NA,160950,1338,NA,NA,224921,1341,170468,NA,225022,225444,NA,224919,225022,Flanker Task,82,45678,84,1024
97,97,542,542,black,legacy,legacy,legacy,incongruent,1,undefined,1,h,84,0,0,0,84,0,84,0,84,0,0,0,84,84,NA,84,84,Mon Sep 18 11:33:02 2023,600,The main experiment item,TRUE,FlankerTask.osexp,C:\Users\Simone\Desktop,FALSE,mono,FALSE,18,no,white,no,yes,768,legacy,4,79,C:\Users\Simone\Desktop\defaultlog.csv,legacy,Melodramatic Milgram,4.0.5,0,h,NA,s,s,NA,h,NA,425,NA,33649,49492,NA,425,NA,2,legacy,1024,2,48000,-16,experiment,SSHSS,2,even,225448,34991,219960,NA,160950,1338,NA,NA,226475,1341,170468,NA,226576,227002,NA,226473,226576,Flanker Task,83,46103,85,1024
97,97,542,542,black,legacy,legacy,legacy,incongruent,1,undefined,1,h,85,0,0,0,85,0,85,0,85,0,0,0,85,85,NA,85,85,Mon Sep 18 11:33:02 2023,600,The main experiment item,TRUE,FlankerTask.osexp,C:\Users\Simone\Desktop,FALSE,mono,FALSE,18,no,white,no,yes,768,legacy,5,79,C:\Users\Simone\Desktop\defaultlog.csv,legacy,Melodramatic Milgram,4.0.5,0,h,NA,s,s,NA,h,NA,527,NA,33649,49492,NA,527,NA,2,legacy,1024,2,48000,-16,experiment,SSHSS,2,even,227006,34991,219960,NA,160950,1338,NA,NA,228035,1341,170468,NA,228136,228664,NA,228033,228136,Flanker Task,84,46630,86,1024
97,97,541,541,black,legacy,legacy,legacy,incongruent,1,undefined,1,h,86,0,0,0,86,0,86,0,86,0,0,0,86,86,NA,86,86,Mon Sep 18 11:33:02 2023,600,The main experiment item,TRUE,FlankerTask.osexp,C:\Users\Simone\Desktop,FALSE,mono,FALSE,18,no,white,no,yes,768,legacy,6,79,C:\Users\Simone\Desktop\defaultlog.csv,legacy,Melodramatic Milgram,4.0.5,0,h,NA,s,s,NA,h,NA,487,NA,33649,49492,NA,487,NA,2,legacy,1024,2,48000,-16,experiment,SSHSS,2,even,228667,34991,219960,NA,160950,1338,NA,NA,229692,1341,170468,NA,229793,230281,NA,229690,229793,Flanker Task,85,47117,87,1024
97,97,541,541,black,legacy,legacy,legacy,incongruent,1,undefined,1,s,87,0,0,0,87,0,87,0,87,0,0,0,87,87,NA,87,87,Mon Sep 18 11:33:02 2023,600,The main experiment item,TRUE,FlankerTask.osexp,C:\Users\Simone\Desktop,FALSE,mono,FALSE,18,no,white,no,yes,768,legacy,7,79,C:\Users\Simone\Desktop\defaultlog.csv,legacy,Melodramatic Milgram,4.0.5,0,s,NA,s,s,NA,s,NA,566,NA,33649,49492,NA,566,NA,2,legacy,1024,2,48000,-16,experiment,HHSHH,2,even,230285,34991,219960,NA,160950,1338,NA,NA,231311,1341,170468,NA,231412,231979,NA,231310,231412,Flanker Task,86,47683,88,1024
97,97,542,542,black,legacy,legacy,legacy,incongruent,1,undefined,1,s,88,0,0,0,88,0,88,0,88,0,0,0,88,88,NA,88,88,Mon Sep 18 11:33:02 2023,600,The main experiment item,TRUE,FlankerTask.osexp,C:\Users\Simone\Desktop,FALSE,mono,FALSE,18,no,white,no,yes,768,legacy,8,79,C:\Users\Simone\Desktop\defaultlog.csv,legacy,Melodramatic Milgram,4.0.5,0,s,NA,s,s,NA,s,NA,593,NA,33649,49492,NA,593,NA,2,legacy,1024,2,48000,-16,experiment,HHSHH,2,even,231982,34991,219960,NA,160950,1338,NA,NA,233010,1341,170468,NA,233111,233704,NA,233009,233111,Flanker Task,87,48276,89,1024
97,97,541,541,black,legacy,legacy,legacy,incongruent,1,undefined,1,s,89,0,0,0,89,0,89,0,89,0,0,0,89,89,NA,89,89,Mon Sep 18 11:33:02 2023,600,The main experiment item,TRUE,FlankerTask.osexp,C:\Users\Simone\Desktop,FALSE,mono,FALSE,18,no,white,no,yes,768,legacy,9,79,C:\Users\Simone\Desktop\defaultlog.csv,legacy,Melodramatic Milgram,4.0.5,0,s,NA,s,s,NA,s,NA,477,NA,33649,49492,NA,477,NA,2,legacy,1024,2,48000,-16,experiment,HHSHH,2,even,233708,34991,219960,NA,160950,1338,NA,NA,234742,1341,170468,NA,234843,235321,NA,234741,234843,Flanker Task,88,48753,90,1024
97,97,541,541,black,legacy,legacy,legacy,incongruent,1,undefined,1,h,90,0,0,0,90,0,90,0,90,0,0,0,90,90,NA,90,90,Mon Sep 18 11:33:02 2023,600,The main experiment item,TRUE,FlankerTask.osexp,C:\Users\Simone\Desktop,FALSE,mono,FALSE,18,no,white,no,yes,768,legacy,10,79,C:\Users\Simone\Desktop\defaultlog.csv,legacy,Melodramatic Milgram,4.0.5,0,h,NA,s,s,NA,h,NA,553,NA,33649,49492,NA,553,NA,2,legacy,1024,2,48000,-16,experiment,SSHSS,2,even,235323,34991,219960,NA,160950,1338,NA,NA,236346,1341,170468,NA,236447,237001,NA,236345,236447,Flanker Task,89,49306,91,1024
97,97,540,540,black,legacy,legacy,legacy,congruent ,1,undefined,1,h,91,0,0,0,91,0,91,0,91,0,0,0,91,91,NA,91,91,Mon Sep 18 11:33:02 2023,600,The main experiment item,TRUE,FlankerTask.osexp,C:\Users\Simone\Desktop,FALSE,mono,FALSE,18,no,white,no,yes,768,legacy,11,79,C:\Users\Simone\Desktop\defaultlog.csv,legacy,Melodramatic Milgram,4.0.5,0,h,NA,s,s,NA,h,NA,459,NA,33649,49492,NA,459,NA,2,legacy,1024,2,48000,-16,experiment,HHHHH,2,even,237004,34991,219960,NA,160950,1338,NA,NA,238030,1341,170468,NA,238131,238591,NA,238029,238131,Flanker Task,90,49765,92,1024
97,97,540,540,black,legacy,legacy,legacy,congruent ,1,undefined,1,h,92,0,0,0,92,0,92,0,92,0,0,0,92,92,NA,92,92,Mon Sep 18 11:33:02 2023,600,The main experiment item,TRUE,FlankerTask.osexp,C:\Users\Simone\Desktop,FALSE,mono,FALSE,18,no,white,no,yes,768,legacy,12,79,C:\Users\Simone\Desktop\defaultlog.csv,legacy,Melodramatic Milgram,4.0.5,0,h,NA,s,s,NA,h,NA,471,NA,33649,49492,NA,471,NA,2,legacy,1024,2,48000,-16,experiment,HHHHH,2,even,238595,34991,219960,NA,160950,1338,NA,NA,239625,1341,170468,NA,239726,240197,NA,239623,239726,Flanker Task,91,50236,93,1024
97,97,539,539,black,legacy,legacy,legacy,incongruent,1,undefined,1,s,93,0,0,0,93,0,93,0,93,0,0,0,93,93,NA,93,93,Mon Sep 18 11:33:02 2023,600,The main experiment item,TRUE,FlankerTask.osexp,C:\Users\Simone\Desktop,FALSE,mono,FALSE,18,no,white,no,yes,768,legacy,13,79,C:\Users\Simone\Desktop\defaultlog.csv,legacy,Melodramatic Milgram,4.0.5,0,s,NA,s,s,NA,s,NA,494,NA,33649,49492,NA,494,NA,2,legacy,1024,2,48000,-16,experiment,HHSHH,2,even,240199,34991,219960,NA,160950,1338,NA,NA,241228,1341,170468,NA,241329,241824,NA,241226,241329,Flanker Task,92,50730,94,1024
97,97,539,539,black,legacy,legacy,legacy,incongruent,1,undefined,1,h,94,0,0,0,94,0,94,0,94,0,0,0,94,94,NA,94,94,Mon Sep 18 11:33:02 2023,600,The main experiment item,TRUE,FlankerTask.osexp,C:\Users\Simone\Desktop,FALSE,mono,FALSE,18,no,white,no,yes,768,legacy,14,79,C:\Users\Simone\Desktop\defaultlog.csv,legacy,Melodramatic Milgram,4.0.5,0,h,NA,s,s,NA,h,NA,497,NA,33649,49492,NA,497,NA,2,legacy,1024,2,48000,-16,experiment,SSHSS,2,even,241828,34991,219960,NA,160950,1338,NA,NA,242856,1341,170468,NA,242957,243454,NA,242854,242957,Flanker Task,93,51227,95,1024
97,97,539,539,black,legacy,legacy,legacy,congruent ,1,undefined,1,h,95,0,0,0,95,0,95,0,95,0,0,0,95,95,NA,95,95,Mon Sep 18 11:33:02 2023,600,The main experiment item,TRUE,FlankerTask.osexp,C:\Users\Simone\Desktop,FALSE,mono,FALSE,18,no,white,no,yes,768,legacy,15,79,C:\Users\Simone\Desktop\defaultlog.csv,legacy,Melodramatic Milgram,4.0.5,0,h,NA,s,s,NA,h,NA,581,NA,33649,49492,NA,581,NA,2,legacy,1024,2,48000,-16,experiment,HHHHH,2,even,243459,34991,219960,NA,160950,1338,NA,NA,244485,1341,170468,NA,244586,245167,NA,244483,244586,Flanker Task,94,51808,96,1024
97,97,538,538,black,legacy,legacy,legacy,incongruent,1,undefined,1,h,96,0,0,0,96,0,96,0,96,0,0,0,96,96,NA,96,96,Mon Sep 18 11:33:02 2023,600,The main experiment item,TRUE,FlankerTask.osexp,C:\Users\Simone\Desktop,FALSE,mono,FALSE,18,no,white,no,yes,768,legacy,16,79,C:\Users\Simone\Desktop\defaultlog.csv,legacy,Melodramatic Milgram,4.0.5,0,h,NA,s,s,NA,h,NA,456,NA,33649,49492,NA,456,NA,2,legacy,1024,2,48000,-16,experiment,SSHSS,2,even,245171,34991,219960,NA,160950,1338,NA,NA,246196,1341,170468,NA,246297,246754,NA,246194,246297,Flanker Task,95,52264,97,1024
97,97,538,538,black,legacy,legacy,legacy,congruent ,1,undefined,1,s,97,0,0,0,97,0,97,0,97,0,0,0,97,97,NA,97,97,Mon Sep 18 11:33:02 2023,600,The main experiment item,TRUE,FlankerTask.osexp,C:\Users\Simone\Desktop,FALSE,mono,FALSE,18,no,white,no,yes,768,legacy,17,79,C:\Users\Simone\Desktop\defaultlog.csv,legacy,Melodramatic Milgram,4.0.5,0,s,NA,s,s,NA,s,NA,496,NA,33649,49492,NA,496,NA,2,legacy,1024,2,48000,-16,experiment,SSSSS,2,even,246758,34991,219960,NA,160950,1338,NA,NA,247784,1341,170468,NA,247885,248382,NA,247782,247885,Flanker Task,96,52760,98,1024
97,97,539,539,black,legacy,legacy,legacy,incongruent,1,undefined,1,h,98,0,0,0,98,0,98,0,98,0,0,0,98,98,NA,98,98,Mon Sep 18 11:33:02 2023,600,The main experiment item,TRUE,FlankerTask.osexp,C:\Users\Simone\Desktop,FALSE,mono,FALSE,18,no,white,no,yes,768,legacy,18,79,C:\Users\Simone\Desktop\defaultlog.csv,legacy,Melodramatic Milgram,4.0.5,0,h,NA,s,s,NA,h,NA,630,NA,33649,49492,NA,630,NA,2,legacy,1024,2,48000,-16,experiment,SSHSS,2,even,248386,34991,219960,NA,160950,1338,NA,NA,249425,1341,170468,NA,249526,250157,NA,249423,249526,Flanker Task,97,53390,99,1024
98,98,540,540,black,legacy,legacy,legacy,incongruent,1,undefined,1,s,99,0,0,0,99,0,99,0,99,0,0,0,99,99,NA,99,99,Mon Sep 18 11:33:02 2023,600,The main experiment item,TRUE,FlankerTask.osexp,C:\Users\Simone\Desktop,FALSE,mono,FALSE,18,no,white,no,yes,768,legacy,19,79,C:\Users\Simone\Desktop\defaultlog.csv,legacy,Melodramatic Milgram,4.0.5,0,s,NA,s,s,NA,s,NA,627,NA,33649,49492,NA,627,NA,2,legacy,1024,2,48000,-16,experiment,HHSHH,2,even,250662,34991,219960,NA,160950,1338,250161,NA,251685,1341,170468,NA,251786,252413,NA,251683,251786,Flanker Task,98,54017,100,1024
97,97,537,537,black,legacy,legacy,legacy,incongruent,0,undefined,0,h,100,0,0,0,100,0,100,0,100,0,0,0,100,100,NA,100,100,Mon Sep 18 11:33:02 2023,600,The main experiment item,TRUE,FlankerTask.osexp,C:\Users\Simone\Desktop,FALSE,mono,FALSE,18,no,white,no,yes,768,legacy,20,79,C:\Users\Simone\Desktop\defaultlog.csv,legacy,Melodramatic Milgram,4.0.5,0,s,NA,s,s,NA,s,NA,320,NA,33649,49492,NA,320,NA,2,legacy,1024,2,48000,-16,experiment,SSHSS,2,even,252918,34991,219960,NA,160950,1338,252417,NA,253940,1341,170468,NA,254041,254362,NA,253939,254041,Flanker Task,98,54337,101,1024
97,97,537,537,black,legacy,legacy,legacy,incongruent,1,undefined,1,s,101,0,0,0,101,0,101,0,101,0,0,0,101,101,NA,101,101,Mon Sep 18 11:33:02 2023,600,The main experiment item,TRUE,FlankerTask.osexp,C:\Users\Simone\Desktop,FALSE,mono,FALSE,18,no,white,no,yes,768,legacy,21,79,C:\Users\Simone\Desktop\defaultlog.csv,legacy,Melodramatic Milgram,4.0.5,0,s,NA,s,s,NA,s,NA,536,NA,33649,49492,NA,536,NA,2,legacy,1024,2,48000,-16,experiment,HHSHH,2,even,254867,34991,219960,NA,254366,1338,252417,NA,255890,1341,170468,NA,255991,256528,NA,255888,255991,Flanker Task,99,54873,102,1024
96,96,536,536,black,legacy,legacy,legacy,congruent ,0,undefined,0,h,102,0,0,0,102,0,102,0,102,0,0,0,102,102,NA,102,102,Mon Sep 18 11:33:02 2023,600,The main experiment item,TRUE,FlankerTask.osexp,C:\Users\Simone\Desktop,FALSE,mono,FALSE,18,no,white,no,yes,768,legacy,22,79,C:\Users\Simone\Desktop\defaultlog.csv,legacy,Melodramatic Milgram,4.0.5,0,s,NA,s,s,NA,s,NA,393,NA,33649,49492,NA,393,NA,2,legacy,1024,2,48000,-16,experiment,HHHHH,2,even,256532,34991,219960,NA,254366,1338,252417,NA,257560,1341,170468,NA,257661,258054,NA,257559,257661,Flanker Task,99,55266,103,1024
96,96,536,536,black,legacy,legacy,legacy,incongruent,1,undefined,1,h,103,0,0,0,103,0,103,0,103,0,0,0,103,103,NA,103,103,Mon Sep 18 11:33:02 2023,600,The main experiment item,TRUE,FlankerTask.osexp,C:\Users\Simone\Desktop,FALSE,mono,FALSE,18,no,white,no,yes,768,legacy,23,79,C:\Users\Simone\Desktop\defaultlog.csv,legacy,Melodramatic Milgram,4.0.5,0,h,NA,s,s,NA,h,NA,508,NA,33649,49492,NA,508,NA,2,legacy,1024,2,48000,-16,experiment,SSHSS,2,even,258559,34991,219960,NA,258058,1338,252417,NA,259581,1341,170468,NA,259682,260191,NA,259579,259682,Flanker Task,100,55774,104,1024
96,96,534,534,black,legacy,legacy,legacy,congruent ,1,undefined,1,s,104,0,0,0,104,0,104,0,104,0,0,0,104,104,NA,104,104,Mon Sep 18 11:33:02 2023,600,The main experiment item,TRUE,FlankerTask.osexp,C:\Users\Simone\Desktop,FALSE,mono,FALSE,18,no,white,no,yes,768,legacy,24,79,C:\Users\Simone\Desktop\defaultlog.csv,legacy,Melodramatic Milgram,4.0.5,0,s,NA,s,s,NA,s,NA,377,NA,33649,49492,NA,377,NA,2,legacy,1024,2,48000,-16,experiment,SSSSS,2,even,260195,34991,219960,NA,258058,1338,252417,NA,261223,1341,170468,NA,261324,261702,NA,261221,261324,Flanker Task,101,56151,105,1024
96,96,534,534,black,legacy,legacy,legacy,congruent ,1,undefined,1,s,105,0,0,0,105,0,105,0,105,0,0,0,105,105,NA,105,105,Mon Sep 18 11:33:02 2023,600,The main experiment item,TRUE,FlankerTask.osexp,C:\Users\Simone\Desktop,FALSE,mono,FALSE,18,no,white,no,yes,768,legacy,25,79,C:\Users\Simone\Desktop\defaultlog.csv,legacy,Melodramatic Milgram,4.0.5,0,s,NA,s,s,NA,s,NA,486,NA,33649,49492,NA,486,NA,2,legacy,1024,2,48000,-16,experiment,SSSSS,2,even,261706,34991,219960,NA,258058,1338,252417,NA,262729,1341,170468,NA,262830,263316,NA,262728,262830,Flanker Task,102,56637,106,1024
96,96,533,533,black,legacy,legacy,legacy,incongruent,1,undefined,1,h,106,0,0,0,106,0,106,0,106,0,0,0,106,106,NA,106,106,Mon Sep 18 11:33:02 2023,600,The main experiment item,TRUE,FlankerTask.osexp,C:\Users\Simone\Desktop,FALSE,mono,FALSE,18,no,white,no,yes,768,legacy,26,79,C:\Users\Simone\Desktop\defaultlog.csv,legacy,Melodramatic Milgram,4.0.5,0,h,NA,s,s,NA,h,NA,476,NA,33649,49492,NA,476,NA,2,legacy,1024,2,48000,-16,experiment,SSHSS,2,even,263320,34991,219960,NA,258058,1338,252417,NA,264352,1341,170468,NA,264453,264930,NA,264351,264453,Flanker Task,103,57113,107,1024
96,96,531,531,black,legacy,legacy,legacy,congruent ,1,undefined,1,s,107,0,0,0,107,0,107,0,107,0,0,0,107,107,NA,107,107,Mon Sep 18 11:33:02 2023,600,The main experiment item,TRUE,FlankerTask.osexp,C:\Users\Simone\Desktop,FALSE,mono,FALSE,18,no,white,no,yes,768,legacy,27,79,C:\Users\Simone\Desktop\defaultlog.csv,legacy,Melodramatic Milgram,4.0.5,0,s,NA,s,s,NA,s,NA,339,NA,33649,49492,NA,339,NA,2,legacy,1024,2,48000,-16,experiment,SSSSS,2,even,264934,34991,219960,NA,258058,1338,252417,NA,265972,1341,170468,NA,266073,266413,NA,265970,266073,Flanker Task,104,57452,108,1024
96,96,530,530,black,legacy,legacy,legacy,congruent ,1,undefined,1,h,108,0,0,0,108,0,108,0,108,0,0,0,108,108,NA,108,108,Mon Sep 18 11:33:02 2023,600,The main experiment item,TRUE,FlankerTask.osexp,C:\Users\Simone\Desktop,FALSE,mono,FALSE,18,no,white,no,yes,768,legacy,28,79,C:\Users\Simone\Desktop\defaultlog.csv,legacy,Melodramatic Milgram,4.0.5,0,h,NA,s,s,NA,h,NA,351,NA,33649,49492,NA,351,NA,2,legacy,1024,2,48000,-16,experiment,HHHHH,2,even,266417,34991,219960,NA,258058,1338,252417,NA,267439,1341,170468,NA,267540,267891,NA,267437,267540,Flanker Task,105,57803,109,1024
95,95,529,529,black,legacy,legacy,legacy,incongruent,0,undefined,0,h,109,0,0,0,109,0,109,0,109,0,0,0,109,109,NA,109,109,Mon Sep 18 11:33:02 2023,600,The main experiment item,TRUE,FlankerTask.osexp,C:\Users\Simone\Desktop,FALSE,mono,FALSE,18,no,white,no,yes,768,legacy,29,79,C:\Users\Simone\Desktop\defaultlog.csv,legacy,Melodramatic Milgram,4.0.5,0,s,NA,s,s,NA,s,NA,404,NA,33649,49492,NA,404,NA,2,legacy,1024,2,48000,-16,experiment,SSHSS,2,even,267895,34991,219960,NA,258058,1338,252417,NA,268924,1341,170468,NA,269025,269430,NA,268922,269025,Flanker Task,105,58207,110,1024
95,95,528,528,black,legacy,legacy,legacy,congruent ,1,undefined,1,h,110,0,0,0,110,0,110,0,110,0,0,0,110,110,NA,110,110,Mon Sep 18 11:33:02 2023,600,The main experiment item,TRUE,FlankerTask.osexp,C:\Users\Simone\Desktop,FALSE,mono,FALSE,18,no,white,no,yes,768,legacy,30,79,C:\Users\Simone\Desktop\defaultlog.csv,legacy,Melodramatic Milgram,4.0.5,0,h,NA,s,s,NA,h,NA,485,NA,33649,49492,NA,485,NA,2,legacy,1024,2,48000,-16,experiment,HHHHH,2,even,269935,34991,219960,NA,269434,1338,252417,NA,270959,1341,170468,NA,271060,271546,NA,270958,271060,Flanker Task,106,58692,111,1024
95,95,527,527,black,legacy,legacy,legacy,incongruent,1,undefined,1,s,111,0,0,0,111,0,111,0,111,0,0,0,111,111,NA,111,111,Mon Sep 18 11:33:02 2023,600,The main experiment item,TRUE,FlankerTask.osexp,C:\Users\Simone\Desktop,FALSE,mono,FALSE,18,no,white,no,yes,768,legacy,31,79,C:\Users\Simone\Desktop\defaultlog.csv,legacy,Melodramatic Milgram,4.0.5,0,s,NA,s,s,NA,s,NA,429,NA,33649,49492,NA,429,NA,2,legacy,1024,2,48000,-16,experiment,HHSHH,2,even,271550,34991,219960,NA,269434,1338,252417,NA,272576,1341,170468,NA,272677,273107,NA,272575,272677,Flanker Task,107,59121,112,1024
95,95,526,526,black,legacy,legacy,legacy,congruent ,1,undefined,1,h,112,0,0,0,112,0,112,0,112,0,0,0,112,112,NA,112,112,Mon Sep 18 11:33:02 2023,600,The main experiment item,TRUE,FlankerTask.osexp,C:\Users\Simone\Desktop,FALSE,mono,FALSE,18,no,white,no,yes,768,legacy,32,79,C:\Users\Simone\Desktop\defaultlog.csv,legacy,Melodramatic Milgram,4.0.5,0,h,NA,s,s,NA,h,NA,389,NA,33649,49492,NA,389,NA,2,legacy,1024,2,48000,-16,experiment,HHHHH,2,even,273111,34991,219960,NA,269434,1338,252417,NA,274139,1341,170468,NA,274240,274630,NA,274138,274240,Flanker Task,108,59510,113,1024
95,95,525,525,black,legacy,legacy,legacy,congruent ,1,undefined,1,h,113,0,0,0,113,0,113,0,113,0,0,0,113,113,NA,113,113,Mon Sep 18 11:33:02 2023,600,The main experiment item,TRUE,FlankerTask.osexp,C:\Users\Simone\Desktop,FALSE,mono,FALSE,18,no,white,no,yes,768,legacy,33,79,C:\Users\Simone\Desktop\defaultlog.csv,legacy,Melodramatic Milgram,4.0.5,0,h,NA,s,s,NA,h,NA,396,NA,33649,49492,NA,396,NA,2,legacy,1024,2,48000,-16,experiment,HHHHH,2,even,274633,34991,219960,NA,269434,1338,252417,NA,275663,1341,170468,NA,275764,276161,NA,275662,275764,Flanker Task,109,59906,114,1024
95,95,524,524,black,legacy,legacy,legacy,congruent ,1,undefined,1,s,114,0,0,0,114,0,114,0,114,0,0,0,114,114,NA,114,114,Mon Sep 18 11:33:02 2023,600,The main experiment item,TRUE,FlankerTask.osexp,C:\Users\Simone\Desktop,FALSE,mono,FALSE,18,no,white,no,yes,768,legacy,34,79,C:\Users\Simone\Desktop\defaultlog.csv,legacy,Melodramatic Milgram,4.0.5,0,s,NA,s,s,NA,s,NA,399,NA,33649,49492,NA,399,NA,2,legacy,1024,2,48000,-16,experiment,SSSSS,2,even,276165,34991,219960,NA,269434,1338,252417,NA,277194,1341,170468,NA,277295,277695,NA,277192,277295,Flanker Task,110,60305,115,1024
95,95,523,523,black,legacy,legacy,legacy,congruent ,1,undefined,1,s,115,0,0,0,115,0,115,0,115,0,0,0,115,115,NA,115,115,Mon Sep 18 11:33:02 2023,600,The main experiment item,TRUE,FlankerTask.osexp,C:\Users\Simone\Desktop,FALSE,mono,FALSE,18,no,white,no,yes,768,legacy,35,79,C:\Users\Simone\Desktop\defaultlog.csv,legacy,Melodramatic Milgram,4.0.5,0,s,NA,s,s,NA,s,NA,453,NA,33649,49492,NA,453,NA,2,legacy,1024,2,48000,-16,experiment,SSSSS,2,even,277698,34991,219960,NA,269434,1338,252417,NA,278722,1341,170468,NA,278823,279277,NA,278720,278823,Flanker Task,111,60758,116,1024
95,95,522,522,black,legacy,legacy,legacy,congruent ,1,undefined,1,s,116,0,0,0,116,0,116,0,116,0,0,0,116,116,NA,116,116,Mon Sep 18 11:33:02 2023,600,The main experiment item,TRUE,FlankerTask.osexp,C:\Users\Simone\Desktop,FALSE,mono,FALSE,18,no,white,no,yes,768,legacy,36,79,C:\Users\Simone\Desktop\defaultlog.csv,legacy,Melodramatic Milgram,4.0.5,0,s,NA,s,s,NA,s,NA,374,NA,33649,49492,NA,374,NA,2,legacy,1024,2,48000,-16,experiment,SSSSS,2,even,279281,34991,219960,NA,269434,1338,252417,NA,280317,1341,170468,NA,280418,280792,NA,280315,280418,Flanker Task,112,61132,117,1024
95,95,521,521,black,legacy,legacy,legacy,congruent ,1,undefined,1,s,117,0,0,0,117,0,117,0,117,0,0,0,117,117,NA,117,117,Mon Sep 18 11:33:02 2023,600,The main experiment item,TRUE,FlankerTask.osexp,C:\Users\Simone\Desktop,FALSE,mono,FALSE,18,no,white,no,yes,768,legacy,37,79,C:\Users\Simone\Desktop\defaultlog.csv,legacy,Melodramatic Milgram,4.0.5,0,s,NA,s,s,NA,s,NA,409,NA,33649,49492,NA,409,NA,2,legacy,1024,2,48000,-16,experiment,SSSSS,2,even,280797,34991,219960,NA,269434,1338,252417,NA,281819,1341,170468,NA,281920,282329,NA,281818,281920,Flanker Task,113,61541,118,1024
95,95,520,520,black,legacy,legacy,legacy,incongruent,1,undefined,1,h,118,0,0,0,118,0,118,0,118,0,0,0,118,118,NA,118,118,Mon Sep 18 11:33:02 2023,600,The main experiment item,TRUE,FlankerTask.osexp,C:\Users\Simone\Desktop,FALSE,mono,FALSE,18,no,white,no,yes,768,legacy,38,79,C:\Users\Simone\Desktop\defaultlog.csv,legacy,Melodramatic Milgram,4.0.5,0,h,NA,s,s,NA,h,NA,376,NA,33649,49492,NA,376,NA,2,legacy,1024,2,48000,-16,experiment,SSHSS,2,even,282333,34991,219960,NA,269434,1338,252417,NA,283360,1341,170468,NA,283461,283837,NA,283358,283461,Flanker Task,114,61917,119,1024
95,95,520,520,black,legacy,legacy,legacy,incongruent,1,undefined,1,h,119,0,0,0,119,0,119,0,119,0,0,0,119,119,NA,119,119,Mon Sep 18 11:33:02 2023,600,The main experiment item,TRUE,FlankerTask.osexp,C:\Users\Simone\Desktop,FALSE,mono,FALSE,18,no,white,no,yes,768,legacy,39,79,C:\Users\Simone\Desktop\defaultlog.csv,legacy,Melodramatic Milgram,4.0.5,0,h,NA,s,s,NA,h,NA,484,NA,33649,49492,NA,484,NA,2,legacy,1024,2,48000,-16,experiment,SSHSS,2,even,283840,34991,219960,NA,269434,1338,252417,NA,284865,1341,170468,NA,284966,285451,NA,284864,284966,Flanker Task,115,62401,120,1024
95,95,519,519,black,legacy,legacy,legacy,incongruent,1,undefined,1,s,120,0,0,0,120,0,120,0,120,0,0,0,120,120,NA,120,120,Mon Sep 18 11:33:02 2023,600,The main experiment item,TRUE,FlankerTask.osexp,C:\Users\Simone\Desktop,FALSE,mono,FALSE,18,no,white,no,yes,768,legacy,40,79,C:\Users\Simone\Desktop\defaultlog.csv,legacy,Melodramatic Milgram,4.0.5,0,s,NA,s,s,NA,s,NA,410,NA,33649,49492,NA,410,NA,2,legacy,1024,2,48000,-16,experiment,HHSHH,2,even,285454,34991,219960,NA,269434,1338,252417,NA,286481,1341,170468,NA,286582,286993,NA,286480,286582,Flanker Task,116,62811,121,1024
95,95,518,518,black,legacy,legacy,legacy,congruent ,1,undefined,1,s,121,0,0,0,121,0,121,0,121,0,0,0,121,121,NA,121,121,Mon Sep 18 11:33:02 2023,600,The main experiment item,TRUE,FlankerTask.osexp,C:\Users\Simone\Desktop,FALSE,mono,FALSE,18,no,white,no,yes,768,legacy,41,79,C:\Users\Simone\Desktop\defaultlog.csv,legacy,Melodramatic Milgram,4.0.5,0,s,NA,s,s,NA,s,NA,433,NA,33649,49492,NA,433,NA,2,legacy,1024,2,48000,-16,experiment,SSSSS,2,even,286997,34991,219960,NA,269434,1338,252417,NA,288023,1341,170468,NA,288124,288558,NA,288022,288124,Flanker Task,117,63244,122,1024
95,95,517,517,black,legacy,legacy,legacy,incongruent,1,undefined,1,h,122,0,0,0,122,0,122,0,122,0,0,0,122,122,NA,122,122,Mon Sep 18 11:33:02 2023,600,The main experiment item,TRUE,FlankerTask.osexp,C:\Users\Simone\Desktop,FALSE,mono,FALSE,18,no,white,no,yes,768,legacy,42,79,C:\Users\Simone\Desktop\defaultlog.csv,legacy,Melodramatic Milgram,4.0.5,0,h,NA,s,s,NA,h,NA,460,NA,33649,49492,NA,460,NA,2,legacy,1024,2,48000,-16,experiment,SSHSS,2,even,288562,34991,219960,NA,269434,1338,252417,NA,289593,1341,170468,NA,289695,290156,NA,289591,289694,Flanker Task,118,63704,123,1024
95,95,517,517,black,legacy,legacy,legacy,incongruent,0,undefined,0,s,123,0,0,0,123,0,123,0,123,0,0,0,123,123,NA,123,123,Mon Sep 18 11:33:02 2023,600,The main experiment item,TRUE,FlankerTask.osexp,C:\Users\Simone\Desktop,FALSE,mono,FALSE,18,no,white,no,yes,768,legacy,43,79,C:\Users\Simone\Desktop\defaultlog.csv,legacy,Melodramatic Milgram,4.0.5,0,h,NA,s,s,NA,h,NA,470,NA,33649,49492,NA,470,NA,2,legacy,1024,2,48000,-16,experiment,HHSHH,2,even,290160,34991,219960,NA,269434,1338,252417,NA,291185,1341,170468,NA,291286,291756,NA,291184,291286,Flanker Task,118,64174,124,1024
95,95,519,519,black,legacy,legacy,legacy,congruent ,1,undefined,1,s,124,0,0,0,124,0,124,0,124,0,0,0,124,124,NA,124,124,Mon Sep 18 11:33:02 2023,600,The main experiment item,TRUE,FlankerTask.osexp,C:\Users\Simone\Desktop,FALSE,mono,FALSE,18,no,white,no,yes,768,legacy,44,79,C:\Users\Simone\Desktop\defaultlog.csv,legacy,Melodramatic Milgram,4.0.5,0,s,NA,s,s,NA,s,NA,809,NA,33649,49492,NA,809,NA,2,legacy,1024,2,48000,-16,experiment,SSSSS,2,even,292261,34991,219960,NA,291760,1338,252417,NA,293284,1341,170468,NA,293385,294195,NA,293283,293385,Flanker Task,119,64983,125,1024
95,95,519,519,black,legacy,legacy,legacy,incongruent,1,undefined,1,h,125,0,0,0,125,0,125,0,125,0,0,0,125,125,NA,125,125,Mon Sep 18 11:33:02 2023,600,The main experiment item,TRUE,FlankerTask.osexp,C:\Users\Simone\Desktop,FALSE,mono,FALSE,18,no,white,no,yes,768,legacy,45,79,C:\Users\Simone\Desktop\defaultlog.csv,legacy,Melodramatic Milgram,4.0.5,0,h,NA,s,s,NA,h,NA,504,NA,33649,49492,NA,504,NA,2,legacy,1024,2,48000,-16,experiment,SSHSS,2,even,294700,34991,219960,NA,291760,1338,294199,NA,295732,1341,170468,NA,295833,296338,NA,295730,295833,Flanker Task,120,65487,126,1024
95,95,520,520,black,legacy,legacy,legacy,incongruent,1,undefined,1,s,126,0,0,0,126,0,126,0,126,0,0,0,126,126,NA,126,126,Mon Sep 18 11:33:02 2023,600,The main experiment item,TRUE,FlankerTask.osexp,C:\Users\Simone\Desktop,FALSE,mono,FALSE,18,no,white,no,yes,768,legacy,46,79,C:\Users\Simone\Desktop\defaultlog.csv,legacy,Melodramatic Milgram,4.0.5,0,s,NA,s,s,NA,s,NA,675,NA,33649,49492,NA,675,NA,2,legacy,1024,2,48000,-16,experiment,HHSHH,2,even,296344,34991,219960,NA,291760,1338,294199,NA,297374,1341,170468,NA,297475,298151,NA,297372,297475,Flanker Task,121,66162,127,1024
95,95,520,520,black,legacy,legacy,legacy,incongruent,1,undefined,1,s,127,0,0,0,127,0,127,0,127,0,0,0,127,127,NA,127,127,Mon Sep 18 11:33:02 2023,600,The main experiment item,TRUE,FlankerTask.osexp,C:\Users\Simone\Desktop,FALSE,mono,FALSE,18,no,white,no,yes,768,legacy,47,79,C:\Users\Simone\Desktop\defaultlog.csv,legacy,Melodramatic Milgram,4.0.5,0,s,NA,s,s,NA,s,NA,420,NA,33649,49492,NA,420,NA,2,legacy,1024,2,48000,-16,experiment,HHSHH,2,even,298656,34991,219960,NA,291760,1338,298155,NA,299680,1341,170468,NA,299781,300202,NA,299678,299781,Flanker Task,122,66582,128,1024
94,94,518,518,black,legacy,legacy,legacy,congruent ,0,undefined,0,s,128,0,0,0,128,0,128,0,128,0,0,0,128,128,NA,128,128,Mon Sep 18 11:33:02 2023,600,The main experiment item,TRUE,FlankerTask.osexp,C:\Users\Simone\Desktop,FALSE,mono,FALSE,18,no,white,no,yes,768,legacy,48,79,C:\Users\Simone\Desktop\defaultlog.csv,legacy,Melodramatic Milgram,4.0.5,0,h,NA,s,s,NA,h,NA,351,NA,33649,49492,NA,351,NA,2,legacy,1024,2,48000,-16,experiment,SSSSS,2,even,300206,34991,219960,NA,291760,1338,298155,NA,301236,1341,170468,NA,301337,301689,NA,301235,301337,Flanker Task,122,66933,129,1024
94,94,519,519,black,legacy,legacy,legacy,incongruent,1,undefined,1,h,129,0,0,0,129,0,129,0,129,0,0,0,129,129,NA,129,129,Mon Sep 18 11:33:02 2023,600,The main experiment item,TRUE,FlankerTask.osexp,C:\Users\Simone\Desktop,FALSE,mono,FALSE,18,no,white,no,yes,768,legacy,49,79,C:\Users\Simone\Desktop\defaultlog.csv,legacy,Melodramatic Milgram,4.0.5,0,h,NA,s,s,NA,h,NA,631,NA,33649,49492,NA,631,NA,2,legacy,1024,2,48000,-16,experiment,SSHSS,2,even,302193,34991,219960,NA,301692,1338,298155,NA,303215,1341,170468,NA,303316,303948,NA,303214,303316,Flanker Task,123,67564,130,1024
94,94,519,519,black,legacy,legacy,legacy,incongruent,1,undefined,1,h,130,0,0,0,130,0,130,0,130,0,0,0,130,130,NA,130,130,Mon Sep 18 11:33:02 2023,600,The main experiment item,TRUE,FlankerTask.osexp,C:\Users\Simone\Desktop,FALSE,mono,FALSE,18,no,white,no,yes,768,legacy,50,79,C:\Users\Simone\Desktop\defaultlog.csv,legacy,Melodramatic Milgram,4.0.5,0,h,NA,s,s,NA,h,NA,489,NA,33649,49492,NA,489,NA,2,legacy,1024,2,48000,-16,experiment,SSHSS,2,even,304452,34991,219960,NA,301692,1338,303951,NA,305476,1341,170468,NA,305577,306066,NA,305474,305577,Flanker Task,124,68053,131,1024
94,94,518,518,black,legacy,legacy,legacy,incongruent,1,undefined,1,s,131,0,0,0,131,0,131,0,131,0,0,0,131,131,NA,131,131,Mon Sep 18 11:33:02 2023,600,The main experiment item,TRUE,FlankerTask.osexp,C:\Users\Simone\Desktop,FALSE,mono,FALSE,18,no,white,no,yes,768,legacy,51,79,C:\Users\Simone\Desktop\defaultlog.csv,legacy,Melodramatic Milgram,4.0.5,0,s,NA,s,s,NA,s,NA,368,NA,33649,49492,NA,368,NA,2,legacy,1024,2,48000,-16,experiment,HHSHH,2,even,306071,34991,219960,NA,301692,1338,303951,NA,307097,1341,170468,NA,307198,307566,NA,307095,307198,Flanker Task,125,68421,132,1024
94,94,517,517,black,legacy,legacy,legacy,congruent ,1,undefined,1,s,132,0,0,0,132,0,132,0,132,0,0,0,132,132,NA,132,132,Mon Sep 18 11:33:02 2023,600,The main experiment item,TRUE,FlankerTask.osexp,C:\Users\Simone\Desktop,FALSE,mono,FALSE,18,no,white,no,yes,768,legacy,52,79,C:\Users\Simone\Desktop\defaultlog.csv,legacy,Melodramatic Milgram,4.0.5,0,s,NA,s,s,NA,s,NA,396,NA,33649,49492,NA,396,NA,2,legacy,1024,2,48000,-16,experiment,SSSSS,2,even,307571,34991,219960,NA,301692,1338,303951,NA,308597,1341,170468,NA,308698,309095,NA,308596,308698,Flanker Task,126,68817,133,1024
94,94,516,516,black,legacy,legacy,legacy,congruent ,1,undefined,1,s,133,0,0,0,133,0,133,0,133,0,0,0,133,133,NA,133,133,Mon Sep 18 11:33:02 2023,600,The main experiment item,TRUE,FlankerTask.osexp,C:\Users\Simone\Desktop,FALSE,mono,FALSE,18,no,white,no,yes,768,legacy,53,79,C:\Users\Simone\Desktop\defaultlog.csv,legacy,Melodramatic Milgram,4.0.5,0,s,NA,s,s,NA,s,NA,430,NA,33649,49492,NA,430,NA,2,legacy,1024,2,48000,-16,experiment,SSSSS,2,even,309099,34991,219960,NA,301692,1338,303951,NA,310123,1341,170468,NA,310224,310654,NA,310121,310224,Flanker Task,127,69247,134,1024
94,94,515,515,black,legacy,legacy,legacy,congruent ,1,undefined,1,s,134,0,0,0,134,0,134,0,134,0,0,0,134,134,NA,134,134,Mon Sep 18 11:33:02 2023,600,The main experiment item,TRUE,FlankerTask.osexp,C:\Users\Simone\Desktop,FALSE,mono,FALSE,18,no,white,no,yes,768,legacy,54,79,C:\Users\Simone\Desktop\defaultlog.csv,legacy,Melodramatic Milgram,4.0.5,0,s,NA,s,s,NA,s,NA,369,NA,33649,49492,NA,369,NA,2,legacy,1024,2,48000,-16,experiment,SSSSS,2,even,310658,34991,219960,NA,301692,1338,303951,NA,311692,1341,170468,NA,311793,312163,NA,311690,311793,Flanker Task,128,69616,135,1024
94,94,515,515,black,legacy,legacy,legacy,congruent ,1,undefined,1,h,135,0,0,0,135,0,135,0,135,0,0,0,135,135,NA,135,135,Mon Sep 18 11:33:02 2023,600,The main experiment item,TRUE,FlankerTask.osexp,C:\Users\Simone\Desktop,FALSE,mono,FALSE,18,no,white,no,yes,768,legacy,55,79,C:\Users\Simone\Desktop\defaultlog.csv,legacy,Melodramatic Milgram,4.0.5,0,h,NA,s,s,NA,h,NA,479,NA,33649,49492,NA,479,NA,2,legacy,1024,2,48000,-16,experiment,HHHHH,2,even,312167,34991,219960,NA,301692,1338,303951,NA,313191,1341,170468,NA,313292,313772,NA,313189,313292,Flanker Task,129,70095,136,1024
94,94,514,514,black,legacy,legacy,legacy,incongruent,1,undefined,1,s,136,0,0,0,136,0,136,0,136,0,0,0,136,136,NA,136,136,Mon Sep 18 11:33:02 2023,600,The main experiment item,TRUE,FlankerTask.osexp,C:\Users\Simone\Desktop,FALSE,mono,FALSE,18,no,white,no,yes,768,legacy,56,79,C:\Users\Simone\Desktop\defaultlog.csv,legacy,Melodramatic Milgram,4.0.5,0,s,NA,s,s,NA,s,NA,413,NA,33649,49492,NA,413,NA,2,legacy,1024,2,48000,-16,experiment,HHSHH,2,even,313776,34991,219960,NA,301692,1338,303951,NA,314802,1341,170468,NA,314903,315316,NA,314801,314903,Flanker Task,130,70508,137,1024
94,94,514,514,black,legacy,legacy,legacy,congruent ,1,undefined,1,h,137,0,0,0,137,0,137,0,137,0,0,0,137,137,NA,137,137,Mon Sep 18 11:33:02 2023,600,The main experiment item,TRUE,FlankerTask.osexp,C:\Users\Simone\Desktop,FALSE,mono,FALSE,18,no,white,no,yes,768,legacy,57,79,C:\Users\Simone\Desktop\defaultlog.csv,legacy,Melodramatic Milgram,4.0.5,0,h,NA,s,s,NA,h,NA,443,NA,33649,49492,NA,443,NA,2,legacy,1024,2,48000,-16,experiment,HHHHH,2,even,315321,34991,219960,NA,301692,1338,303951,NA,316345,1341,170468,NA,316446,316890,NA,316344,316446,Flanker Task,131,70951,138,1024
94,94,513,513,black,legacy,legacy,legacy,congruent ,1,undefined,1,h,138,0,0,0,138,0,138,0,138,0,0,0,138,138,NA,138,138,Mon Sep 18 11:33:02 2023,600,The main experiment item,TRUE,FlankerTask.osexp,C:\Users\Simone\Desktop,FALSE,mono,FALSE,18,no,white,no,yes,768,legacy,58,79,C:\Users\Simone\Desktop\defaultlog.csv,legacy,Melodramatic Milgram,4.0.5,0,h,NA,s,s,NA,h,NA,406,NA,33649,49492,NA,406,NA,2,legacy,1024,2,48000,-16,experiment,HHHHH,2,even,316894,34991,219960,NA,301692,1338,303951,NA,317923,1341,170468,NA,318024,318431,NA,317922,318024,Flanker Task,132,71357,139,1024
95,95,513,513,black,legacy,legacy,legacy,congruent ,1,undefined,1,h,139,0,0,0,139,0,139,0,139,0,0,0,139,139,NA,139,139,Mon Sep 18 11:33:02 2023,600,The main experiment item,TRUE,FlankerTask.osexp,C:\Users\Simone\Desktop,FALSE,mono,FALSE,18,no,white,no,yes,768,legacy,59,79,C:\Users\Simone\Desktop\defaultlog.csv,legacy,Melodramatic Milgram,4.0.5,0,h,NA,s,s,NA,h,NA,484,NA,33649,49492,NA,484,NA,2,legacy,1024,2,48000,-16,experiment,HHHHH,2,even,318435,34991,219960,NA,301692,1338,303951,NA,319459,1341,170468,NA,319560,320045,NA,319457,319560,Flanker Task,133,71841,140,1024
95,95,512,512,black,legacy,legacy,legacy,congruent ,1,undefined,1,h,140,0,0,0,140,0,140,0,140,0,0,0,140,140,NA,140,140,Mon Sep 18 11:33:02 2023,600,The main experiment item,TRUE,FlankerTask.osexp,C:\Users\Simone\Desktop,FALSE,mono,FALSE,18,no,white,no,yes,768,legacy,60,79,C:\Users\Simone\Desktop\defaultlog.csv,legacy,Melodramatic Milgram,4.0.5,0,h,NA,s,s,NA,h,NA,451,NA,33649,49492,NA,451,NA,2,legacy,1024,2,48000,-16,experiment,HHHHH,2,even,320049,34991,219960,NA,301692,1338,303951,NA,321078,1341,170468,NA,321179,321631,NA,321076,321179,Flanker Task,134,72292,141,1024
95,95,511,511,black,legacy,legacy,legacy,incongruent,1,undefined,1,s,141,0,0,0,141,0,141,0,141,0,0,0,141,141,NA,141,141,Mon Sep 18 11:33:02 2023,600,The main experiment item,TRUE,FlankerTask.osexp,C:\Users\Simone\Desktop,FALSE,mono,FALSE,18,no,white,no,yes,768,legacy,61,79,C:\Users\Simone\Desktop\defaultlog.csv,legacy,Melodramatic Milgram,4.0.5,0,s,NA,s,s,NA,s,NA,343,NA,33649,49492,NA,343,NA,2,legacy,1024,2,48000,-16,experiment,HHSHH,2,even,321635,34991,219960,NA,301692,1338,303951,NA,322666,1341,170468,NA,322767,323111,NA,322665,322767,Flanker Task,135,72635,142,1024
95,95,510,510,black,legacy,legacy,legacy,congruent ,1,undefined,1,h,142,0,0,0,142,0,142,0,142,0,0,0,142,142,NA,142,142,Mon Sep 18 11:33:02 2023,600,The main experiment item,TRUE,FlankerTask.osexp,C:\Users\Simone\Desktop,FALSE,mono,FALSE,18,no,white,no,yes,768,legacy,62,79,C:\Users\Simone\Desktop\defaultlog.csv,legacy,Melodramatic Milgram,4.0.5,0,h,NA,s,s,NA,h,NA,351,NA,33649,49492,NA,351,NA,2,legacy,1024,2,48000,-16,experiment,HHHHH,2,even,323116,34991,219960,NA,301692,1338,303951,NA,324144,1341,170468,NA,324245,324597,NA,324142,324245,Flanker Task,136,72986,143,1024
94,94,509,509,black,legacy,legacy,legacy,incongruent,0,undefined,0,s,143,0,0,0,143,0,143,0,143,0,0,0,143,143,NA,143,143,Mon Sep 18 11:33:02 2023,600,The main experiment item,TRUE,FlankerTask.osexp,C:\Users\Simone\Desktop,FALSE,mono,FALSE,18,no,white,no,yes,768,legacy,63,79,C:\Users\Simone\Desktop\defaultlog.csv,legacy,Melodramatic Milgram,4.0.5,0,h,NA,s,s,NA,h,NA,408,NA,33649,49492,NA,408,NA,2,legacy,1024,2,48000,-16,experiment,HHSHH,2,even,324601,34991,219960,NA,301692,1338,303951,NA,325636,1341,170468,NA,325737,326146,NA,325635,325737,Flanker Task,136,73394,144,1024
94,94,508,508,black,legacy,legacy,legacy,congruent ,1,undefined,1,s,144,0,0,0,144,0,144,0,144,0,0,0,144,144,NA,144,144,Mon Sep 18 11:33:02 2023,600,The main experiment item,TRUE,FlankerTask.osexp,C:\Users\Simone\Desktop,FALSE,mono,FALSE,18,no,white,no,yes,768,legacy,64,79,C:\Users\Simone\Desktop\defaultlog.csv,legacy,Melodramatic Milgram,4.0.5,0,s,NA,s,s,NA,s,NA,397,NA,33649,49492,NA,397,NA,2,legacy,1024,2,48000,-16,experiment,SSSSS,2,even,326651,34991,219960,NA,326150,1338,303951,NA,327673,1341,170468,NA,327774,328172,NA,327672,327774,Flanker Task,137,73791,145,1024
94,94,508,508,black,legacy,legacy,legacy,congruent ,1,undefined,1,s,145,0,0,0,145,0,145,0,145,0,0,0,145,145,NA,145,145,Mon Sep 18 11:33:02 2023,600,The main experiment item,TRUE,FlankerTask.osexp,C:\Users\Simone\Desktop,FALSE,mono,FALSE,18,no,white,no,yes,768,legacy,65,79,C:\Users\Simone\Desktop\defaultlog.csv,legacy,Melodramatic Milgram,4.0.5,0,s,NA,s,s,NA,s,NA,379,NA,33649,49492,NA,379,NA,2,legacy,1024,2,48000,-16,experiment,SSSSS,2,even,328178,34991,219960,NA,326150,1338,303951,NA,329202,1341,170468,NA,329303,329683,NA,329200,329303,Flanker Task,138,74170,146,1024
94,94,507,507,black,legacy,legacy,legacy,congruent ,1,undefined,1,s,146,0,0,0,146,0,146,0,146,0,0,0,146,146,NA,146,146,Mon Sep 18 11:33:02 2023,600,The main experiment item,TRUE,FlankerTask.osexp,C:\Users\Simone\Desktop,FALSE,mono,FALSE,18,no,white,no,yes,768,legacy,66,79,C:\Users\Simone\Desktop\defaultlog.csv,legacy,Melodramatic Milgram,4.0.5,0,s,NA,s,s,NA,s,NA,370,NA,33649,49492,NA,370,NA,2,legacy,1024,2,48000,-16,experiment,SSSSS,2,even,329687,34991,219960,NA,326150,1338,303951,NA,330710,1341,170468,NA,330812,331183,NA,330709,330811,Flanker Task,139,74540,147,1024
94,94,506,506,black,legacy,legacy,legacy,congruent ,1,undefined,1,s,147,0,0,0,147,0,147,0,147,0,0,0,147,147,NA,147,147,Mon Sep 18 11:33:02 2023,600,The main experiment item,TRUE,FlankerTask.osexp,C:\Users\Simone\Desktop,FALSE,mono,FALSE,18,no,white,no,yes,768,legacy,67,79,C:\Users\Simone\Desktop\defaultlog.csv,legacy,Melodramatic Milgram,4.0.5,0,s,NA,s,s,NA,s,NA,358,NA,33649,49492,NA,358,NA,2,legacy,1024,2,48000,-16,experiment,SSSSS,2,even,331185,34991,219960,NA,326150,1338,303951,NA,332211,1341,170468,NA,332313,332671,NA,332209,332313,Flanker Task,140,74898,148,1024
94,94,505,505,black,legacy,legacy,legacy,congruent ,1,undefined,1,h,148,0,0,0,148,0,148,0,148,0,0,0,148,148,NA,148,148,Mon Sep 18 11:33:02 2023,600,The main experiment item,TRUE,FlankerTask.osexp,C:\Users\Simone\Desktop,FALSE,mono,FALSE,18,no,white,no,yes,768,legacy,68,79,C:\Users\Simone\Desktop\defaultlog.csv,legacy,Melodramatic Milgram,4.0.5,0,h,NA,s,s,NA,h,NA,367,NA,33649,49492,NA,367,NA,2,legacy,1024,2,48000,-16,experiment,HHHHH,2,even,332675,34991,219960,NA,326150,1338,303951,NA,333698,1341,170468,NA,333799,334167,NA,333697,333799,Flanker Task,141,75265,149,1024
94,94,505,505,black,legacy,legacy,legacy,incongruent,1,undefined,1,h,149,0,0,0,149,0,149,0,149,0,0,0,149,149,NA,149,149,Mon Sep 18 11:33:02 2023,600,The main experiment item,TRUE,FlankerTask.osexp,C:\Users\Simone\Desktop,FALSE,mono,FALSE,18,no,white,no,yes,768,legacy,69,79,C:\Users\Simone\Desktop\defaultlog.csv,legacy,Melodramatic Milgram,4.0.5,0,h,NA,s,s,NA,h,NA,583,NA,33649,49492,NA,583,NA,2,legacy,1024,2,48000,-16,experiment,SSHSS,2,even,334171,34991,219960,NA,326150,1338,303951,NA,335198,1341,170468,NA,335299,335882,NA,335197,335299,Flanker Task,142,75848,150,1024
94,94,504,504,black,legacy,legacy,legacy,incongruent,1,undefined,1,s,150,0,0,0,150,0,150,0,150,0,0,0,150,150,NA,150,150,Mon Sep 18 11:33:02 2023,600,The main experiment item,TRUE,FlankerTask.osexp,C:\Users\Simone\Desktop,FALSE,mono,FALSE,18,no,white,no,yes,768,legacy,70,79,C:\Users\Simone\Desktop\defaultlog.csv,legacy,Melodramatic Milgram,4.0.5,0,s,NA,s,s,NA,s,NA,319,NA,33649,49492,NA,319,NA,2,legacy,1024,2,48000,-16,experiment,HHSHH,2,even,335886,34991,219960,NA,326150,1338,303951,NA,336911,1341,170468,NA,337012,337332,NA,336909,337012,Flanker Task,143,76167,151,1024
94,94,503,503,black,legacy,legacy,legacy,congruent ,0,undefined,0,s,151,0,0,0,151,0,151,0,151,0,0,0,151,151,NA,151,151,Mon Sep 18 11:33:02 2023,600,The main experiment item,TRUE,FlankerTask.osexp,C:\Users\Simone\Desktop,FALSE,mono,FALSE,18,no,white,no,yes,768,legacy,71,79,C:\Users\Simone\Desktop\defaultlog.csv,legacy,Melodramatic Milgram,4.0.5,0,h,NA,s,s,NA,h,NA,415,NA,33649,49492,NA,415,NA,2,legacy,1024,2,48000,-16,experiment,SSSSS,2,even,337336,34991,219960,NA,326150,1338,303951,NA,338358,1341,170468,NA,338459,338875,NA,338357,338459,Flanker Task,143,76582,152,1024
94,94,504,504,black,legacy,legacy,legacy,incongruent,1,undefined,1,h,152,0,0,0,152,0,152,0,152,0,0,0,152,152,NA,152,152,Mon Sep 18 11:33:02 2023,600,The main experiment item,TRUE,FlankerTask.osexp,C:\Users\Simone\Desktop,FALSE,mono,FALSE,18,no,white,no,yes,768,legacy,72,79,C:\Users\Simone\Desktop\defaultlog.csv,legacy,Melodramatic Milgram,4.0.5,0,h,NA,s,s,NA,h,NA,557,NA,33649,49492,NA,557,NA,2,legacy,1024,2,48000,-16,experiment,SSHSS,2,even,339380,34991,219960,NA,338879,1338,303951,NA,340410,1341,170468,NA,340511,341069,NA,340409,340511,Flanker Task,144,77139,153,1024
94,94,504,504,black,legacy,legacy,legacy,incongruent,1,undefined,1,s,153,0,0,0,153,0,153,0,153,0,0,0,153,153,NA,153,153,Mon Sep 18 11:33:02 2023,600,The main experiment item,TRUE,FlankerTask.osexp,C:\Users\Simone\Desktop,FALSE,mono,FALSE,18,no,white,no,yes,768,legacy,73,79,C:\Users\Simone\Desktop\defaultlog.csv,legacy,Melodramatic Milgram,4.0.5,0,s,NA,s,s,NA,s,NA,477,NA,33649,49492,NA,477,NA,2,legacy,1024,2,48000,-16,experiment,HHSHH,2,even,341073,34991,219960,NA,338879,1338,303951,NA,342100,1341,170468,NA,342201,342679,NA,342099,342201,Flanker Task,145,77616,154,1024
94,94,503,503,black,legacy,legacy,legacy,congruent ,1,undefined,1,h,154,0,0,0,154,0,154,0,154,0,0,0,154,154,NA,154,154,Mon Sep 18 11:33:02 2023,600,The main experiment item,TRUE,FlankerTask.osexp,C:\Users\Simone\Desktop,FALSE,mono,FALSE,18,no,white,no,yes,768,legacy,74,79,C:\Users\Simone\Desktop\defaultlog.csv,legacy,Melodramatic Milgram,4.0.5,0,h,NA,s,s,NA,h,NA,457,NA,33649,49492,NA,457,NA,2,legacy,1024,2,48000,-16,experiment,HHHHH,2,even,342683,34991,219960,NA,338879,1338,303951,NA,343708,1341,170468,NA,343809,344267,NA,343707,343809,Flanker Task,146,78073,155,1024
94,94,503,503,black,legacy,legacy,legacy,congruent ,1,undefined,1,h,155,0,0,0,155,0,155,0,155,0,0,0,155,155,NA,155,155,Mon Sep 18 11:33:02 2023,600,The main experiment item,TRUE,FlankerTask.osexp,C:\Users\Simone\Desktop,FALSE,mono,FALSE,18,no,white,no,yes,768,legacy,75,79,C:\Users\Simone\Desktop\defaultlog.csv,legacy,Melodramatic Milgram,4.0.5,0,h,NA,s,s,NA,h,NA,468,NA,33649,49492,NA,468,NA,2,legacy,1024,2,48000,-16,experiment,HHHHH,2,even,344271,34991,219960,NA,338879,1338,303951,NA,345297,1341,170468,NA,345398,345867,NA,345295,345398,Flanker Task,147,78541,156,1024
94,94,502,502,black,legacy,legacy,legacy,incongruent,1,undefined,1,s,156,0,0,0,156,0,156,0,156,0,0,0,156,156,NA,156,156,Mon Sep 18 11:33:02 2023,600,The main experiment item,TRUE,FlankerTask.osexp,C:\Users\Simone\Desktop,FALSE,mono,FALSE,18,no,white,no,yes,768,legacy,76,79,C:\Users\Simone\Desktop\defaultlog.csv,legacy,Melodramatic Milgram,4.0.5,0,s,NA,s,s,NA,s,NA,416,NA,33649,49492,NA,416,NA,2,legacy,1024,2,48000,-16,experiment,HHSHH,2,even,345871,34991,219960,NA,338879,1338,303951,NA,346899,1341,170468,NA,347000,347416,NA,346897,347000,Flanker Task,148,78957,157,1024
94,94,502,502,black,legacy,legacy,legacy,incongruent,1,undefined,1,s,157,0,0,0,157,0,157,0,157,0,0,0,157,157,NA,157,157,Mon Sep 18 11:33:02 2023,600,The main experiment item,TRUE,FlankerTask.osexp,C:\Users\Simone\Desktop,FALSE,mono,FALSE,18,no,white,no,yes,768,legacy,77,79,C:\Users\Simone\Desktop\defaultlog.csv,legacy,Melodramatic Milgram,4.0.5,0,s,NA,s,s,NA,s,NA,446,NA,33649,49492,NA,446,NA,2,legacy,1024,2,48000,-16,experiment,HHSHH,2,even,347420,34991,219960,NA,338879,1338,303951,NA,348448,1341,170468,NA,348549,348996,NA,348447,348549,Flanker Task,149,79403,158,1024
94,94,502,502,black,legacy,legacy,legacy,congruent ,1,undefined,1,h,158,0,0,0,158,0,158,0,158,0,0,0,158,158,NA,158,158,Mon Sep 18 11:33:02 2023,600,The main experiment item,TRUE,FlankerTask.osexp,C:\Users\Simone\Desktop,FALSE,mono,FALSE,18,no,white,no,yes,768,legacy,78,79,C:\Users\Simone\Desktop\defaultlog.csv,legacy,Melodramatic Milgram,4.0.5,0,h,NA,s,s,NA,h,NA,550,NA,33649,49492,NA,550,NA,2,legacy,1024,2,48000,-16,experiment,HHHHH,2,even,348999,34991,219960,NA,338879,1338,303951,NA,350025,1341,170468,NA,350126,350677,NA,350024,350126,Flanker Task,150,79953,159,1024
94,94,502,502,black,legacy,legacy,legacy,incongruent,1,undefined,1,s,159,0,0,0,159,0,159,0,159,0,0,0,159,159,NA,159,159,Mon Sep 18 11:33:02 2023,600,The main experiment item,TRUE,FlankerTask.osexp,C:\Users\Simone\Desktop,FALSE,mono,FALSE,18,no,white,no,yes,768,legacy,79,79,C:\Users\Simone\Desktop\defaultlog.csv,legacy,Melodramatic Milgram,4.0.5,0,s,NA,s,s,NA,s,NA,406,NA,33649,49492,NA,406,NA,2,legacy,1024,2,48000,-16,experiment,HHSHH,2,even,350681,34991,219960,NA,338879,1338,303951,NA,351711,1341,170468,NA,351812,352219,NA,351709,351812,Flanker Task,151,80359,160,1024
93,93,499,499,black,legacy,legacy,legacy,congruent ,0,undefined,0,h,160,0,0,0,160,0,160,0,160,0,0,0,160,160,NA,160,160,Mon Sep 18 11:33:02 2023,300,The main experiment item,TRUE,FlankerTask.osexp,C:\Users\Simone\Desktop,FALSE,mono,FALSE,18,no,white,no,yes,768,legacy,0,79,C:\Users\Simone\Desktop\defaultlog.csv,legacy,Melodramatic Milgram,4.0.5,0,s,NA,s,s,s,s,NA,16,NA,33649,49492,63257,16,NA,2,legacy,1024,2,48000,-16,experiment,HHHHH,2,even,352223,34991,219960,416482,338879,1338,303951,NA,416529,1341,170468,353224,416630,416647,NA,416528,416630,Flanker Task,151,80375,161,1024
93,93,499,499,black,legacy,legacy,legacy,incongruent,1,undefined,1,h,161,0,0,0,161,0,161,0,161,0,0,0,161,161,NA,161,161,Mon Sep 18 11:33:02 2023,300,The main experiment item,TRUE,FlankerTask.osexp,C:\Users\Simone\Desktop,FALSE,mono,FALSE,18,no,white,no,yes,768,legacy,1,79,C:\Users\Simone\Desktop\defaultlog.csv,legacy,Melodramatic Milgram,4.0.5,0,h,NA,s,s,s,h,NA,567,NA,33649,49492,63257,567,NA,2,legacy,1024,2,48000,-16,experiment,SSHSS,2,even,417155,34991,219960,416482,416652,1338,303951,NA,418179,1341,170468,353224,418280,418848,NA,418177,418280,Flanker Task,152,80942,162,1024
93,93,498,498,black,legacy,legacy,legacy,incongruent,0,undefined,0,h,162,0,0,0,162,0,162,0,162,0,0,0,162,162,NA,162,162,Mon Sep 18 11:33:02 2023,300,The main experiment item,TRUE,FlankerTask.osexp,C:\Users\Simone\Desktop,FALSE,mono,FALSE,18,no,white,no,yes,768,legacy,2,79,C:\Users\Simone\Desktop\defaultlog.csv,legacy,Melodramatic Milgram,4.0.5,0,s,NA,s,s,s,s,NA,316,NA,33649,49492,63257,316,NA,2,legacy,1024,2,48000,-16,experiment,SSHSS,2,even,419353,34991,219960,416482,416652,1338,418852,NA,420376,1341,170468,353224,420477,420795,NA,420375,420477,Flanker Task,152,81258,163,1024
92,92,497,497,black,legacy,legacy,legacy,incongruent,0,undefined,0,h,163,0,0,0,163,0,163,0,163,0,0,0,163,163,NA,163,163,Mon Sep 18 11:33:02 2023,300,The main experiment item,TRUE,FlankerTask.osexp,C:\Users\Simone\Desktop,FALSE,mono,FALSE,18,no,white,no,yes,768,legacy,3,79,C:\Users\Simone\Desktop\defaultlog.csv,legacy,Melodramatic Milgram,4.0.5,0,s,NA,s,s,s,s,NA,310,NA,33649,49492,63257,310,NA,2,legacy,1024,2,48000,-16,experiment,SSHSS,2,even,421801,34991,219960,416482,420799,1338,421300,NA,422827,1341,170468,353224,422928,423239,NA,422825,422928,Flanker Task,152,81568,164,1024
92,92,496,496,black,legacy,legacy,legacy,incongruent,1,undefined,1,h,164,0,0,0,164,0,164,0,164,0,0,0,164,164,NA,164,164,Mon Sep 18 11:33:02 2023,300,The main experiment item,TRUE,FlankerTask.osexp,C:\Users\Simone\Desktop,FALSE,mono,FALSE,18,no,white,no,yes,768,legacy,4,79,C:\Users\Simone\Desktop\defaultlog.csv,legacy,Melodramatic Milgram,4.0.5,0,h,NA,s,s,s,h,NA,306,NA,33649,49492,63257,306,NA,2,legacy,1024,2,48000,-16,experiment,SSHSS,2,even,424243,34991,219960,416482,423241,1338,423742,NA,425266,1341,170468,353224,425367,425674,NA,425264,425367,Flanker Task,153,81874,165,1024
92,92,495,495,black,legacy,legacy,legacy,congruent ,1,undefined,1,s,165,0,0,0,165,0,165,0,165,0,0,0,165,165,NA,165,165,Mon Sep 18 11:33:02 2023,300,The main experiment item,TRUE,FlankerTask.osexp,C:\Users\Simone\Desktop,FALSE,mono,FALSE,18,no,white,no,yes,768,legacy,5,79,C:\Users\Simone\Desktop\defaultlog.csv,legacy,Melodramatic Milgram,4.0.5,0,s,NA,s,s,s,s,NA,368,NA,33649,49492,63257,368,NA,2,legacy,1024,2,48000,-16,experiment,SSSSS,2,even,426178,34991,219960,416482,423241,1338,425677,NA,427202,1341,170468,353224,427303,427672,NA,427201,427303,Flanker Task,154,82242,166,1024
92,92,494,494,black,legacy,legacy,legacy,incongruent,0,undefined,0,h,166,0,0,0,166,0,166,0,166,0,0,0,166,166,NA,166,166,Mon Sep 18 11:33:02 2023,300,The main experiment item,TRUE,FlankerTask.osexp,C:\Users\Simone\Desktop,FALSE,mono,FALSE,18,no,white,no,yes,768,legacy,6,79,C:\Users\Simone\Desktop\defaultlog.csv,legacy,Melodramatic Milgram,4.0.5,0,s,NA,s,s,s,s,NA,270,NA,33649,49492,63257,270,NA,2,legacy,1024,2,48000,-16,experiment,SSHSS,2,even,428177,34991,219960,416482,423241,1338,427676,NA,429199,1341,170468,353224,429300,429571,NA,429198,429300,Flanker Task,154,82512,167,1024
92,92,493,493,black,legacy,legacy,legacy,congruent ,1,undefined,1,h,167,0,0,0,167,0,167,0,167,0,0,0,167,167,NA,167,167,Mon Sep 18 11:33:02 2023,300,The main experiment item,TRUE,FlankerTask.osexp,C:\Users\Simone\Desktop,FALSE,mono,FALSE,18,no,white,no,yes,768,legacy,7,79,C:\Users\Simone\Desktop\defaultlog.csv,legacy,Melodramatic Milgram,4.0.5,0,h,NA,s,s,s,h,NA,371,NA,33649,49492,63257,371,NA,2,legacy,1024,2,48000,-16,experiment,HHHHH,2,even,430075,34991,219960,416482,429574,1338,427676,NA,431103,1341,170468,353224,431204,431576,NA,431102,431204,Flanker Task,155,82883,168,1024
92,92,490,490,black,legacy,legacy,legacy,congruent ,1,undefined,1,h,168,0,0,0,168,0,168,0,168,0,0,0,168,168,NA,168,168,Mon Sep 18 11:33:02 2023,300,The main experiment item,TRUE,FlankerTask.osexp,C:\Users\Simone\Desktop,FALSE,mono,FALSE,18,no,white,no,yes,768,legacy,8,79,C:\Users\Simone\Desktop\defaultlog.csv,legacy,Melodramatic Milgram,4.0.5,0,h,NA,s,s,s,h,NA,35,NA,33649,49492,63257,35,NA,2,legacy,1024,2,48000,-16,experiment,HHHHH,2,even,432081,34991,219960,416482,429574,1338,431580,NA,433104,1341,170468,353224,433205,433241,NA,433102,433205,Flanker Task,156,82918,169,1024
92,92,487,487,black,legacy,legacy,legacy,congruent ,1,undefined,1,h,169,0,0,0,169,0,169,0,169,0,0,0,169,169,NA,169,169,Mon Sep 18 11:33:02 2023,300,The main experiment item,TRUE,FlankerTask.osexp,C:\Users\Simone\Desktop,FALSE,mono,FALSE,18,no,white,no,yes,768,legacy,9,79,C:\Users\Simone\Desktop\defaultlog.csv,legacy,Melodramatic Milgram,4.0.5,0,h,NA,s,s,s,h,NA,40,NA,33649,49492,63257,40,NA,2,legacy,1024,2,48000,-16,experiment,HHHHH,2,even,433246,34991,219960,416482,429574,1338,431580,NA,434275,1341,170468,353224,434376,434417,NA,434273,434376,Flanker Task,157,82958,170,1024
92,92,487,487,black,legacy,legacy,legacy,congruent ,1,undefined,1,s,170,0,0,0,170,0,170,0,170,0,0,0,170,170,NA,170,170,Mon Sep 18 11:33:02 2023,300,The main experiment item,TRUE,FlankerTask.osexp,C:\Users\Simone\Desktop,FALSE,mono,FALSE,18,no,white,no,yes,768,legacy,10,79,C:\Users\Simone\Desktop\defaultlog.csv,legacy,Melodramatic Milgram,4.0.5,0,s,NA,s,s,s,s,NA,464,NA,33649,49492,63257,464,NA,2,legacy,1024,2,48000,-16,experiment,SSSSS,2,even,434421,34991,219960,416482,429574,1338,431580,NA,435445,1341,170468,353224,435546,436011,NA,435444,435546,Flanker Task,158,83422,171,1024
91,91,487,487,black,legacy,legacy,legacy,incongruent,0,undefined,0,s,171,0,0,0,171,0,171,0,171,0,0,0,171,171,NA,171,171,Mon Sep 18 11:33:02 2023,300,The main experiment item,TRUE,FlankerTask.osexp,C:\Users\Simone\Desktop,FALSE,mono,FALSE,18,no,white,no,yes,768,legacy,11,79,C:\Users\Simone\Desktop\defaultlog.csv,legacy,Melodramatic Milgram,4.0.5,0,h,NA,s,s,s,h,NA,428,NA,33649,49492,63257,428,NA,2,legacy,1024,2,48000,-16,experiment,HHSHH,2,even,436516,34991,219960,416482,429574,1338,436015,NA,437539,1341,170468,353224,437640,438069,NA,437538,437640,Flanker Task,158,83850,172,1024
91,91,487,487,black,legacy,legacy,legacy,incongruent,1,undefined,1,s,172,0,0,0,172,0,172,0,172,0,0,0,172,172,NA,172,172,Mon Sep 18 11:33:02 2023,300,The main experiment item,TRUE,FlankerTask.osexp,C:\Users\Simone\Desktop,FALSE,mono,FALSE,18,no,white,no,yes,768,legacy,12,79,C:\Users\Simone\Desktop\defaultlog.csv,legacy,Melodramatic Milgram,4.0.5,0,s,NA,s,s,s,s,NA,414,NA,33649,49492,63257,414,NA,2,legacy,1024,2,48000,-16,experiment,HHSHH,2,even,439075,34991,219960,416482,438073,1338,438574,NA,440099,1341,170468,353224,440200,440615,NA,440098,440200,Flanker Task,159,84264,173,1024
91,91,486,486,black,legacy,legacy,legacy,congruent ,0,undefined,0,h,173,0,0,0,173,0,173,0,173,0,0,0,173,173,NA,173,173,Mon Sep 18 11:33:02 2023,300,The main experiment item,TRUE,FlankerTask.osexp,C:\Users\Simone\Desktop,FALSE,mono,FALSE,18,no,white,no,yes,768,legacy,13,79,C:\Users\Simone\Desktop\defaultlog.csv,legacy,Melodramatic Milgram,4.0.5,0,s,NA,s,s,s,s,NA,353,NA,33649,49492,63257,353,NA,2,legacy,1024,2,48000,-16,experiment,HHHHH,2,even,441118,34991,219960,416482,438073,1338,440617,NA,442142,1341,170468,353224,442243,442597,NA,442140,442243,Flanker Task,159,84617,174,1024
91,91,486,486,black,legacy,legacy,legacy,congruent ,1,undefined,1,s,174,0,0,0,174,0,174,0,174,0,0,0,174,174,NA,174,174,Mon Sep 18 11:33:02 2023,300,The main experiment item,TRUE,FlankerTask.osexp,C:\Users\Simone\Desktop,FALSE,mono,FALSE,18,no,white,no,yes,768,legacy,14,79,C:\Users\Simone\Desktop\defaultlog.csv,legacy,Melodramatic Milgram,4.0.5,0,s,NA,s,s,s,s,NA,479,NA,33649,49492,63257,479,NA,2,legacy,1024,2,48000,-16,experiment,SSSSS,2,even,443603,34991,219960,416482,442601,1338,443102,NA,444626,1341,170468,353224,444727,445207,NA,444625,444727,Flanker Task,160,85096,175,1024
