acc,accuracy,average_response_time,avg_rt,background,canvas_backend,clock_backend,color_backend,compensation,condition,coordinates,correct,correct_Instructions1,correct_KeyboardResponse,correct_response,count_Block1,count_Block2,count_Block3,count_ErrorFeedback,count_Faster,count_Finish,count_Fixation,count_ISI,count_Instructions1,count_Instructions2,count_Instructions3,count_KeyboardResponse,count_Logger,count_Sequence,count_experiment,count_stimulus,datetime,deadline,description,disable_garbage_collection,experiment_file,experiment_path,font_bold,font_family,font_italic,font_size,font_underline,foreground,form_clicks,fullscreen,height,keyboard_backend,live_row,live_row_Block1,logfile,mouse_backend,opensesame_codename,opensesame_version,repeat_cycle,response,response_Finish,response_Instructions1,response_Instructions2,response_Instructions3,response_KeyboardResponse,response_time,response_time_Finish,response_time_Instructions1,response_time_Instructions2,response_time_Instructions3,response_time_KeyboardResponse,round_decimals,sampler_backend,sound_buf_size,sound_channels,sound_freq,sound_sample_size,start,stimulus,subject_nr,subject_parity,time_Block1,time_Block2,time_Block3,time_ErrorFeedback,time_Faster,time_Finish,time_Fixation,time_ISI,time_Instructions1,time_Instructions2,time_Instructions3,time_KeyboardResponse,time_Logger,time_Sequence,time_experiment,time_stimulus,title,total_correct,total_response_time,total_responses,uniform_coordinates,width
0,0,478,478,black,legacy,legacy,legacy,0,Incongruent,uniform,0,undefined,0,h,0,0,0,0,0,0,0,0,0,0,0,0,0,0,0,0,Tue Sep 13 18:16:06 2022,1500,The main experiment item,yes,Lab 2.1 FlankerTask.osexp,C:\Users\Melissa\OneDrive\Desktop\ADVANCED QUANT,no,mono,no,18,no,white,no,no,768,legacy,0,0,C:/Users/Melissa/OneDrive/Desktop/ADVANCED QUANT/MM-subject-1.csv,legacy,Lentiform Loewenfeld,3.3.12,0,s,NA,s,NA,NA,s,478,NA,1045,NA,NA,478,2,legacy,1024,2,48000,-16,experiment,SSHSS,1,odd,2995,NA,NA,NA,NA,NA,3067,NA,1949,NA,NA,3173,3651,3066,1946,3171,Flanker Task,0,478,1,yes,1024
50,50,485,485,black,legacy,legacy,legacy,0,Incongruent,uniform,1,undefined,1,h,0,0,0,1,1,0,1,1,0,0,0,1,1,1,0,1,Tue Sep 13 18:16:06 2022,1500,The main experiment item,yes,Lab 2.1 FlankerTask.osexp,C:\Users\Melissa\OneDrive\Desktop\ADVANCED QUANT,no,mono,no,18,no,white,no,no,768,legacy,1,1,C:/Users/Melissa/OneDrive/Desktop/ADVANCED QUANT/MM-subject-1.csv,legacy,Lentiform Loewenfeld,3.3.12,0,h,NA,s,NA,NA,h,492,NA,1045,NA,NA,492,2,legacy,1024,2,48000,-16,experiment,SSHSS,1,odd,2995,NA,NA,3669,NA,NA,5274,4174,1949,NA,NA,5385,5878,5272,1946,5385,Flanker Task,1,970,2,yes,1024
66.66666667,66.66666667,487.3333333,487.3333333,black,legacy,legacy,legacy,0,Incongruent,uniform,1,undefined,1,h,0,0,0,2,2,0,2,2,0,0,0,2,2,2,0,2,Tue Sep 13 18:16:06 2022,1500,The main experiment item,yes,Lab 2.1 FlankerTask.osexp,C:\Users\Melissa\OneDrive\Desktop\ADVANCED QUANT,no,mono,no,18,no,white,no,no,768,legacy,2,2,C:/Users/Melissa/OneDrive/Desktop/ADVANCED QUANT/MM-subject-1.csv,legacy,Lentiform Loewenfeld,3.3.12,0,h,NA,s,NA,NA,h,492,NA,1045,NA,NA,492,2,legacy,1024,2,48000,-16,experiment,SSHSS,1,odd,2995,NA,NA,3669,NA,NA,6993,5893,1949,NA,NA,7099,7592,6991,1946,7099,Flanker Task,2,1462,3,yes,1024
75,75,484.75,484.75,black,legacy,legacy,legacy,0,Congruent,uniform,1,undefined,1,h,0,0,0,3,3,0,3,3,0,0,0,3,3,3,0,3,Tue Sep 13 18:16:06 2022,1500,The main experiment item,yes,Lab 2.1 FlankerTask.osexp,C:\Users\Melissa\OneDrive\Desktop\ADVANCED QUANT,no,mono,no,18,no,white,no,no,768,legacy,3,3,C:/Users/Melissa/OneDrive/Desktop/ADVANCED QUANT/MM-subject-1.csv,legacy,Lentiform Loewenfeld,3.3.12,0,h,NA,s,NA,NA,h,477,NA,1045,NA,NA,477,2,legacy,1024,2,48000,-16,experiment,HHHHH,1,odd,2995,NA,NA,3669,NA,NA,8686,7606,1949,NA,NA,8791,9269,8684,1946,8791,Flanker Task,3,1939,4,yes,1024
80,80,485.8,485.8,black,legacy,legacy,legacy,0,Congruent,uniform,1,undefined,1,s,0,0,0,4,4,0,4,4,0,0,0,4,4,4,0,4,Tue Sep 13 18:16:06 2022,1500,The main experiment item,yes,Lab 2.1 FlankerTask.osexp,C:\Users\Melissa\OneDrive\Desktop\ADVANCED QUANT,no,mono,no,18,no,white,no,no,768,legacy,4,4,C:/Users/Melissa/OneDrive/Desktop/ADVANCED QUANT/MM-subject-1.csv,legacy,Lentiform Loewenfeld,3.3.12,0,s,NA,s,NA,NA,s,490,NA,1045,NA,NA,490,2,legacy,1024,2,48000,-16,experiment,SSSSS,1,odd,2995,NA,NA,3669,NA,NA,10382,9283,1949,NA,NA,10487,10978,10380,1946,10487,Flanker Task,4,2429,5,yes,1024
83.33333333,83.33333333,468,468,black,legacy,legacy,legacy,0,Congruent,uniform,1,undefined,1,s,0,0,0,5,5,0,5,5,0,0,0,5,5,5,0,5,Tue Sep 13 18:16:06 2022,1500,The main experiment item,yes,Lab 2.1 FlankerTask.osexp,C:\Users\Melissa\OneDrive\Desktop\ADVANCED QUANT,no,mono,no,18,no,white,no,no,768,legacy,5,5,C:/Users/Melissa/OneDrive/Desktop/ADVANCED QUANT/MM-subject-1.csv,legacy,Lentiform Loewenfeld,3.3.12,0,s,NA,s,NA,NA,s,379,NA,1045,NA,NA,379,2,legacy,1024,2,48000,-16,experiment,SSSSS,1,odd,2995,NA,NA,3669,NA,NA,12085,10991,1949,NA,NA,12189,12569,12084,1946,12189,Flanker Task,5,2808,6,yes,1024
85.71428571,85.71428571,471.8571429,471.8571429,black,legacy,legacy,legacy,0,Incongruent,uniform,1,undefined,1,s,0,0,0,6,6,0,6,6,0,0,0,6,6,6,0,6,Tue Sep 13 18:16:06 2022,1500,The main experiment item,yes,Lab 2.1 FlankerTask.osexp,C:\Users\Melissa\OneDrive\Desktop\ADVANCED QUANT,no,mono,no,18,no,white,no,no,768,legacy,6,6,C:/Users/Melissa/OneDrive/Desktop/ADVANCED QUANT/MM-subject-1.csv,legacy,Lentiform Loewenfeld,3.3.12,0,s,NA,s,NA,NA,s,495,NA,1045,NA,NA,495,2,legacy,1024,2,48000,-16,experiment,HHSHH,1,odd,2995,NA,NA,3669,NA,NA,13697,12584,1949,NA,NA,13802,14297,13695,1946,13802,Flanker Task,6,3303,7,yes,1024
87.5,87.5,464.125,464.125,black,legacy,legacy,legacy,0,Incongruent,uniform,1,undefined,1,h,0,0,0,7,7,0,7,7,0,0,0,7,7,7,0,7,Tue Sep 13 18:16:06 2022,1500,The main experiment item,yes,Lab 2.1 FlankerTask.osexp,C:\Users\Melissa\OneDrive\Desktop\ADVANCED QUANT,no,mono,no,18,no,white,no,no,768,legacy,7,7,C:/Users/Melissa/OneDrive/Desktop/ADVANCED QUANT/MM-subject-1.csv,legacy,Lentiform Loewenfeld,3.3.12,0,h,NA,s,NA,NA,h,410,NA,1045,NA,NA,410,2,legacy,1024,2,48000,-16,experiment,SSHSS,1,odd,2995,NA,NA,3669,NA,NA,15395,14302,1949,NA,NA,15500,15910,15393,1946,15500,Flanker Task,7,3713,8,yes,1024
88.88888889,88.88888889,456.8888889,456.8888889,black,legacy,legacy,legacy,0,Incongruent,uniform,1,undefined,1,s,0,0,0,8,8,0,8,8,0,0,0,8,8,8,0,8,Tue Sep 13 18:16:06 2022,1500,The main experiment item,yes,Lab 2.1 FlankerTask.osexp,C:\Users\Melissa\OneDrive\Desktop\ADVANCED QUANT,no,mono,no,18,no,white,no,no,768,legacy,8,8,C:/Users/Melissa/OneDrive/Desktop/ADVANCED QUANT/MM-subject-1.csv,legacy,Lentiform Loewenfeld,3.3.12,0,s,NA,s,NA,NA,s,399,NA,1045,NA,NA,399,2,legacy,1024,2,48000,-16,experiment,HHSHH,1,odd,2995,NA,NA,3669,NA,NA,17025,15925,1949,NA,NA,17130,17530,17023,1946,17130,Flanker Task,8,4112,9,yes,1024
90,90,455.8,455.8,black,legacy,legacy,legacy,0,Congruent,uniform,1,undefined,1,h,0,0,0,9,9,0,9,9,0,0,0,9,9,9,0,9,Tue Sep 13 18:16:06 2022,1500,The main experiment item,yes,Lab 2.1 FlankerTask.osexp,C:\Users\Melissa\OneDrive\Desktop\ADVANCED QUANT,no,mono,no,18,no,white,no,no,768,legacy,9,9,C:/Users/Melissa/OneDrive/Desktop/ADVANCED QUANT/MM-subject-1.csv,legacy,Lentiform Loewenfeld,3.3.12,0,h,NA,s,NA,NA,h,446,NA,1045,NA,NA,446,2,legacy,1024,2,48000,-16,experiment,HHHHH,1,odd,2995,NA,NA,3669,NA,NA,18638,17544,1949,NA,NA,18743,19189,18636,1946,18743,Flanker Task,9,4558,10,yes,1024
90.90909091,90.90909091,452.0909091,452.0909091,black,legacy,legacy,legacy,0,Congruent,uniform,1,undefined,1,h,0,0,0,10,10,0,10,10,0,0,0,10,10,10,0,10,Tue Sep 13 18:16:06 2022,1500,The main experiment item,yes,Lab 2.1 FlankerTask.osexp,C:\Users\Melissa\OneDrive\Desktop\ADVANCED QUANT,no,mono,no,18,no,white,no,no,768,legacy,10,10,C:/Users/Melissa/OneDrive/Desktop/ADVANCED QUANT/MM-subject-1.csv,legacy,Lentiform Loewenfeld,3.3.12,0,h,NA,s,NA,NA,h,415,NA,1045,NA,NA,415,2,legacy,1024,2,48000,-16,experiment,HHHHH,1,odd,2995,NA,NA,3669,NA,NA,20303,19204,1949,NA,NA,20408,20823,20301,1946,20408,Flanker Task,10,4973,11,yes,1024
91.66666667,91.66666667,449.25,449.25,black,legacy,legacy,legacy,0,Incongruent,uniform,1,undefined,1,h,0,0,0,11,11,0,11,11,0,0,0,11,11,11,0,11,Tue Sep 13 18:16:06 2022,1500,The main experiment item,yes,Lab 2.1 FlankerTask.osexp,C:\Users\Melissa\OneDrive\Desktop\ADVANCED QUANT,no,mono,no,18,no,white,no,no,768,legacy,11,11,C:/Users/Melissa/OneDrive/Desktop/ADVANCED QUANT/MM-subject-1.csv,legacy,Lentiform Loewenfeld,3.3.12,0,h,NA,s,NA,NA,h,418,NA,1045,NA,NA,418,2,legacy,1024,2,48000,-16,experiment,SSHSS,1,odd,2995,NA,NA,3669,NA,NA,21956,20839,1949,NA,NA,22061,22480,21954,1946,22061,Flanker Task,11,5391,12,yes,1024
92.30769231,92.30769231,453.1538462,453.1538462,black,legacy,legacy,legacy,0,Incongruent,uniform,1,undefined,1,h,0,0,0,12,12,0,12,12,0,0,0,12,12,12,0,12,Tue Sep 13 18:16:06 2022,1500,The main experiment item,yes,Lab 2.1 FlankerTask.osexp,C:\Users\Melissa\OneDrive\Desktop\ADVANCED QUANT,no,mono,no,18,no,white,no,no,768,legacy,12,12,C:/Users/Melissa/OneDrive/Desktop/ADVANCED QUANT/MM-subject-1.csv,legacy,Lentiform Loewenfeld,3.3.12,0,h,NA,s,NA,NA,h,500,NA,1045,NA,NA,500,2,legacy,1024,2,48000,-16,experiment,SSHSS,1,odd,2995,NA,NA,3669,NA,NA,23582,22485,1949,NA,NA,23687,24187,23579,1946,23687,Flanker Task,12,5891,13,yes,1024
92.85714286,92.85714286,454.3571429,454.3571429,black,legacy,legacy,legacy,0,Incongruent,uniform,1,undefined,1,h,0,0,0,13,13,0,13,13,0,0,0,13,13,13,0,13,Tue Sep 13 18:16:06 2022,1500,The main experiment item,yes,Lab 2.1 FlankerTask.osexp,C:\Users\Melissa\OneDrive\Desktop\ADVANCED QUANT,no,mono,no,18,no,white,no,no,768,legacy,13,13,C:/Users/Melissa/OneDrive/Desktop/ADVANCED QUANT/MM-subject-1.csv,legacy,Lentiform Loewenfeld,3.3.12,0,h,NA,s,NA,NA,h,470,NA,1045,NA,NA,470,2,legacy,1024,2,48000,-16,experiment,SSHSS,1,odd,2995,NA,NA,3669,NA,NA,25298,24201,1949,NA,NA,25404,25875,25296,1946,25404,Flanker Task,13,6361,14,yes,1024
93.33333333,93.33333333,452.2,452.2,black,legacy,legacy,legacy,0,Congruent,uniform,1,undefined,1,h,0,0,0,14,14,0,14,14,0,0,0,14,14,14,0,14,Tue Sep 13 18:16:06 2022,1500,The main experiment item,yes,Lab 2.1 FlankerTask.osexp,C:\Users\Melissa\OneDrive\Desktop\ADVANCED QUANT,no,mono,no,18,no,white,no,no,768,legacy,14,14,C:/Users/Melissa/OneDrive/Desktop/ADVANCED QUANT/MM-subject-1.csv,legacy,Lentiform Loewenfeld,3.3.12,0,h,NA,s,NA,NA,h,422,NA,1045,NA,NA,422,2,legacy,1024,2,48000,-16,experiment,HHHHH,1,odd,2995,NA,NA,3669,NA,NA,26993,25887,1949,NA,NA,27096,27518,26991,1946,27095,Flanker Task,14,6783,15,yes,1024
93.75,93.75,444.25,444.25,black,legacy,legacy,legacy,0,Congruent,uniform,1,undefined,1,s,0,0,0,15,15,0,15,15,0,0,0,15,15,15,0,15,Tue Sep 13 18:16:06 2022,1500,The main experiment item,yes,Lab 2.1 FlankerTask.osexp,C:\Users\Melissa\OneDrive\Desktop\ADVANCED QUANT,no,mono,no,18,no,white,no,no,768,legacy,15,15,C:/Users/Melissa/OneDrive/Desktop/ADVANCED QUANT/MM-subject-1.csv,legacy,Lentiform Loewenfeld,3.3.12,0,s,NA,s,NA,NA,s,325,NA,1045,NA,NA,325,2,legacy,1024,2,48000,-16,experiment,SSSSS,1,odd,2995,NA,NA,3669,NA,NA,28630,27533,1949,NA,NA,28735,29062,28629,1946,28735,Flanker Task,15,7108,16,yes,1024
94.11764706,94.11764706,442.7647059,442.7647059,black,legacy,legacy,legacy,0,Congruent,uniform,1,undefined,1,s,0,0,0,16,16,0,16,16,0,0,0,16,16,16,0,16,Tue Sep 13 18:16:06 2022,1500,The main experiment item,yes,Lab 2.1 FlankerTask.osexp,C:\Users\Melissa\OneDrive\Desktop\ADVANCED QUANT,no,mono,no,18,no,white,no,no,768,legacy,16,16,C:/Users/Melissa/OneDrive/Desktop/ADVANCED QUANT/MM-subject-1.csv,legacy,Lentiform Loewenfeld,3.3.12,0,s,NA,s,NA,NA,s,419,NA,1045,NA,NA,419,2,legacy,1024,2,48000,-16,experiment,SSSSS,1,odd,2995,NA,NA,3669,NA,NA,30198,29077,1949,NA,NA,30303,30723,30196,1946,30303,Flanker Task,16,7527,17,yes,1024
94.44444444,94.44444444,440.3333333,440.3333333,black,legacy,legacy,legacy,0,Congruent,uniform,1,undefined,1,s,0,0,0,17,17,0,17,17,0,0,0,17,17,17,0,17,Tue Sep 13 18:16:06 2022,1500,The main experiment item,yes,Lab 2.1 FlankerTask.osexp,C:\Users\Melissa\OneDrive\Desktop\ADVANCED QUANT,no,mono,no,18,no,white,no,no,768,legacy,17,17,C:/Users/Melissa/OneDrive/Desktop/ADVANCED QUANT/MM-subject-1.csv,legacy,Lentiform Loewenfeld,3.3.12,0,s,NA,s,NA,NA,s,399,NA,1045,NA,NA,399,2,legacy,1024,2,48000,-16,experiment,SSSSS,1,odd,2995,NA,NA,3669,NA,NA,31834,30737,1949,NA,NA,31940,32340,31832,1946,31940,Flanker Task,17,7926,18,yes,1024
94.73684211,94.73684211,437.1052632,437.1052632,black,legacy,legacy,legacy,0,Congruent,uniform,1,undefined,1,s,0,0,0,18,18,0,18,18,0,0,0,18,18,18,0,18,Tue Sep 13 18:16:06 2022,1500,The main experiment item,yes,Lab 2.1 FlankerTask.osexp,C:\Users\Melissa\OneDrive\Desktop\ADVANCED QUANT,no,mono,no,18,no,white,no,no,768,legacy,18,18,C:/Users/Melissa/OneDrive/Desktop/ADVANCED QUANT/MM-subject-1.csv,legacy,Lentiform Loewenfeld,3.3.12,0,s,NA,s,NA,NA,s,379,NA,1045,NA,NA,379,2,legacy,1024,2,48000,-16,experiment,SSSSS,1,odd,2995,NA,NA,3669,NA,NA,33433,32355,1949,NA,NA,33538,33917,33430,1946,33538,Flanker Task,18,8305,19,yes,1024
95,95,435.45,435.45,black,legacy,legacy,legacy,0,Incongruent,uniform,1,undefined,1,s,0,0,0,19,19,0,19,19,0,0,0,19,19,19,0,19,Tue Sep 13 18:16:06 2022,1500,The main experiment item,yes,Lab 2.1 FlankerTask.osexp,C:\Users\Melissa\OneDrive\Desktop\ADVANCED QUANT,no,mono,no,18,no,white,no,no,768,legacy,19,19,C:/Users/Melissa/OneDrive/Desktop/ADVANCED QUANT/MM-subject-1.csv,legacy,Lentiform Loewenfeld,3.3.12,0,s,NA,s,NA,NA,s,404,NA,1045,NA,NA,404,2,legacy,1024,2,48000,-16,experiment,HHSHH,1,odd,2995,NA,NA,3669,NA,NA,35032,33931,1949,NA,NA,35138,35544,35030,1946,35138,Flanker Task,19,8709,20,yes,1024
95.23809524,95.23809524,433.3333333,433.3333333,black,legacy,legacy,legacy,0,Incongruent,uniform,1,undefined,1,s,0,0,0,20,20,0,20,20,0,0,0,20,20,20,0,20,Tue Sep 13 18:16:06 2022,1500,The main experiment item,yes,Lab 2.1 FlankerTask.osexp,C:\Users\Melissa\OneDrive\Desktop\ADVANCED QUANT,no,mono,no,18,no,white,no,no,768,legacy,20,20,C:/Users/Melissa/OneDrive/Desktop/ADVANCED QUANT/MM-subject-1.csv,legacy,Lentiform Loewenfeld,3.3.12,0,s,NA,s,NA,NA,s,391,NA,1045,NA,NA,391,2,legacy,1024,2,48000,-16,experiment,HHSHH,1,odd,2995,NA,NA,3669,NA,NA,36652,35558,1949,NA,NA,36753,37145,36650,1946,36753,Flanker Task,20,9100,21,yes,1024
95.45454545,95.45454545,429.7272727,429.7272727,black,legacy,legacy,legacy,0,Incongruent,uniform,1,undefined,1,s,0,0,0,21,21,0,21,21,0,0,0,21,21,21,0,21,Tue Sep 13 18:16:06 2022,1500,The main experiment item,yes,Lab 2.1 FlankerTask.osexp,C:\Users\Melissa\OneDrive\Desktop\ADVANCED QUANT,no,mono,no,18,no,white,no,no,768,legacy,21,21,C:/Users/Melissa/OneDrive/Desktop/ADVANCED QUANT/MM-subject-1.csv,legacy,Lentiform Loewenfeld,3.3.12,0,s,NA,s,NA,NA,s,354,NA,1045,NA,NA,354,2,legacy,1024,2,48000,-16,experiment,HHSHH,1,odd,2995,NA,NA,3669,NA,NA,38255,37159,1949,NA,NA,38364,38719,38253,1946,38364,Flanker Task,21,9454,22,yes,1024
95.65217391,95.65217391,430.3913043,430.3913043,black,legacy,legacy,legacy,0,Incongruent,uniform,1,undefined,1,h,0,0,0,22,22,0,22,22,0,0,0,22,22,22,0,22,Tue Sep 13 18:16:06 2022,1500,The main experiment item,yes,Lab 2.1 FlankerTask.osexp,C:\Users\Melissa\OneDrive\Desktop\ADVANCED QUANT,no,mono,no,18,no,white,no,no,768,legacy,22,22,C:/Users/Melissa/OneDrive/Desktop/ADVANCED QUANT/MM-subject-1.csv,legacy,Lentiform Loewenfeld,3.3.12,0,h,NA,s,NA,NA,h,445,NA,1045,NA,NA,445,2,legacy,1024,2,48000,-16,experiment,SSHSS,1,odd,2995,NA,NA,3669,NA,NA,39836,38733,1949,NA,NA,39942,40388,39834,1946,39941,Flanker Task,22,9899,23,yes,1024
95.83333333,95.83333333,431.3333333,431.3333333,black,legacy,legacy,legacy,0,Incongruent,uniform,1,undefined,1,h,0,0,0,23,23,0,23,23,0,0,0,23,23,23,0,23,Tue Sep 13 18:16:06 2022,1500,The main experiment item,yes,Lab 2.1 FlankerTask.osexp,C:\Users\Melissa\OneDrive\Desktop\ADVANCED QUANT,no,mono,no,18,no,white,no,no,768,legacy,23,23,C:/Users/Melissa/OneDrive/Desktop/ADVANCED QUANT/MM-subject-1.csv,legacy,Lentiform Loewenfeld,3.3.12,0,h,NA,s,NA,NA,h,453,NA,1045,NA,NA,453,2,legacy,1024,2,48000,-16,experiment,SSHSS,1,odd,2995,NA,NA,3669,NA,NA,41507,40400,1949,NA,NA,41613,42067,41504,1946,41611,Flanker Task,23,10352,24,yes,1024
96,96,429.6,429.6,black,legacy,legacy,legacy,0,Incongruent,uniform,1,undefined,1,h,0,0,0,24,24,0,24,24,0,0,0,24,24,24,0,24,Tue Sep 13 18:16:06 2022,1500,The main experiment item,yes,Lab 2.1 FlankerTask.osexp,C:\Users\Melissa\OneDrive\Desktop\ADVANCED QUANT,no,mono,no,18,no,white,no,no,768,legacy,24,24,C:/Users/Melissa/OneDrive/Desktop/ADVANCED QUANT/MM-subject-1.csv,legacy,Lentiform Loewenfeld,3.3.12,0,h,NA,s,NA,NA,h,388,NA,1045,NA,NA,388,2,legacy,1024,2,48000,-16,experiment,SSHSS,1,odd,2995,NA,NA,3669,NA,NA,43178,42079,1949,NA,NA,43284,43672,43177,1946,43284,Flanker Task,24,10740,25,yes,1024
96.15384615,96.15384615,426.9615385,426.9615385,black,legacy,legacy,legacy,0,Incongruent,uniform,1,undefined,1,s,0,0,0,25,25,0,25,25,0,0,0,25,25,25,0,25,Tue Sep 13 18:16:06 2022,1500,The main experiment item,yes,Lab 2.1 FlankerTask.osexp,C:\Users\Melissa\OneDrive\Desktop\ADVANCED QUANT,no,mono,no,18,no,white,no,no,768,legacy,25,25,C:/Users/Melissa/OneDrive/Desktop/ADVANCED QUANT/MM-subject-1.csv,legacy,Lentiform Loewenfeld,3.3.12,0,s,NA,s,NA,NA,s,361,NA,1045,NA,NA,361,2,legacy,1024,2,48000,-16,experiment,HHSHH,1,odd,2995,NA,NA,3669,NA,NA,44776,43686,1949,NA,NA,44882,45244,44774,1946,44881,Flanker Task,25,11101,26,yes,1024
96.2962963,96.2962963,424.2592593,424.2592593,black,legacy,legacy,legacy,0,Congruent,uniform,1,undefined,1,h,0,0,0,26,26,0,26,26,0,0,0,26,26,26,0,26,Tue Sep 13 18:16:06 2022,1500,The main experiment item,yes,Lab 2.1 FlankerTask.osexp,C:\Users\Melissa\OneDrive\Desktop\ADVANCED QUANT,no,mono,no,18,no,white,no,no,768,legacy,26,26,C:/Users/Melissa/OneDrive/Desktop/ADVANCED QUANT/MM-subject-1.csv,legacy,Lentiform Loewenfeld,3.3.12,0,h,NA,s,NA,NA,h,354,NA,1045,NA,NA,354,2,legacy,1024,2,48000,-16,experiment,HHHHH,1,odd,2995,NA,NA,3669,NA,NA,46336,45257,1949,NA,NA,46441,46796,46334,1946,46441,Flanker Task,26,11455,27,yes,1024
96.42857143,96.42857143,423.0714286,423.0714286,black,legacy,legacy,legacy,0,Congruent,uniform,1,undefined,1,h,0,0,0,27,27,0,27,27,0,0,0,27,27,27,0,27,Tue Sep 13 18:16:06 2022,1500,The main experiment item,yes,Lab 2.1 FlankerTask.osexp,C:\Users\Melissa\OneDrive\Desktop\ADVANCED QUANT,no,mono,no,18,no,white,no,no,768,legacy,27,27,C:/Users/Melissa/OneDrive/Desktop/ADVANCED QUANT/MM-subject-1.csv,legacy,Lentiform Loewenfeld,3.3.12,0,h,NA,s,NA,NA,h,391,NA,1045,NA,NA,391,2,legacy,1024,2,48000,-16,experiment,HHHHH,1,odd,2995,NA,NA,3669,NA,NA,47887,46810,1949,NA,NA,47992,48384,47886,1946,47992,Flanker Task,27,11846,28,yes,1024
96.55172414,96.55172414,420.9655172,420.9655172,black,legacy,legacy,legacy,0,Congruent,uniform,1,undefined,1,s,0,0,0,28,28,0,28,28,0,0,0,28,28,28,0,28,Tue Sep 13 18:16:06 2022,1500,The main experiment item,yes,Lab 2.1 FlankerTask.osexp,C:\Users\Melissa\OneDrive\Desktop\ADVANCED QUANT,no,mono,no,18,no,white,no,no,768,legacy,28,28,C:/Users/Melissa/OneDrive/Desktop/ADVANCED QUANT/MM-subject-1.csv,legacy,Lentiform Loewenfeld,3.3.12,0,s,NA,s,NA,NA,s,362,NA,1045,NA,NA,362,2,legacy,1024,2,48000,-16,experiment,SSSSS,1,odd,2995,NA,NA,3669,NA,NA,49500,48389,1949,NA,NA,49606,49970,49498,1946,49606,Flanker Task,28,12208,29,yes,1024
96.66666667,96.66666667,423.1333333,423.1333333,black,legacy,legacy,legacy,0,Incongruent,uniform,1,undefined,1,h,0,0,0,29,29,0,29,29,0,0,0,29,29,29,0,29,Tue Sep 13 18:16:06 2022,1500,The main experiment item,yes,Lab 2.1 FlankerTask.osexp,C:\Users\Melissa\OneDrive\Desktop\ADVANCED QUANT,no,mono,no,18,no,white,no,no,768,legacy,29,29,C:/Users/Melissa/OneDrive/Desktop/ADVANCED QUANT/MM-subject-1.csv,legacy,Lentiform Loewenfeld,3.3.12,0,h,NA,s,NA,NA,h,486,NA,1045,NA,NA,486,2,legacy,1024,2,48000,-16,experiment,SSHSS,1,odd,2995,NA,NA,3669,NA,NA,51084,49983,1949,NA,NA,51189,51676,51082,1946,51189,Flanker Task,29,12694,30,yes,1024
93.5483871,93.5483871,422.3548387,422.3548387,black,legacy,legacy,legacy,0,Incongruent,uniform,0,undefined,0,s,0,0,0,30,30,0,30,30,0,0,0,30,30,30,0,30,Tue Sep 13 18:16:06 2022,1500,The main experiment item,yes,Lab 2.1 FlankerTask.osexp,C:\Users\Melissa\OneDrive\Desktop\ADVANCED QUANT,no,mono,no,18,no,white,no,no,768,legacy,30,30,C:/Users/Melissa/OneDrive/Desktop/ADVANCED QUANT/MM-subject-1.csv,legacy,Lentiform Loewenfeld,3.3.12,0,h,NA,s,NA,NA,h,399,NA,1045,NA,NA,399,2,legacy,1024,2,48000,-16,experiment,HHSHH,1,odd,2995,NA,NA,3669,NA,NA,52785,51689,1949,NA,NA,52892,53292,52783,1946,52892,Flanker Task,29,13093,31,yes,1024
93.75,93.75,421.75,421.75,black,legacy,legacy,legacy,0,Incongruent,uniform,1,undefined,1,s,0,0,0,31,31,0,31,31,0,0,0,31,31,31,0,31,Tue Sep 13 18:16:06 2022,1500,The main experiment item,yes,Lab 2.1 FlankerTask.osexp,C:\Users\Melissa\OneDrive\Desktop\ADVANCED QUANT,no,mono,no,18,no,white,no,no,768,legacy,31,31,C:/Users/Melissa/OneDrive/Desktop/ADVANCED QUANT/MM-subject-1.csv,legacy,Lentiform Loewenfeld,3.3.12,0,s,NA,s,NA,NA,s,403,NA,1045,NA,NA,403,2,legacy,1024,2,48000,-16,experiment,HHSHH,1,odd,2995,NA,NA,53305,NA,NA,54913,53821,1949,NA,NA,55018,55421,54912,1946,55018,Flanker Task,30,13496,32,yes,1024
93.93939394,93.93939394,419.8181818,419.8181818,black,legacy,legacy,legacy,0,Congruent,uniform,1,undefined,1,h,0,0,0,32,32,0,32,32,0,0,0,32,32,32,0,32,Tue Sep 13 18:16:06 2022,1500,The main experiment item,yes,Lab 2.1 FlankerTask.osexp,C:\Users\Melissa\OneDrive\Desktop\ADVANCED QUANT,no,mono,no,18,no,white,no,no,768,legacy,32,32,C:/Users/Melissa/OneDrive/Desktop/ADVANCED QUANT/MM-subject-1.csv,legacy,Lentiform Loewenfeld,3.3.12,0,h,NA,s,NA,NA,h,358,NA,1045,NA,NA,358,2,legacy,1024,2,48000,-16,experiment,HHHHH,1,odd,2995,NA,NA,53305,NA,NA,56536,55434,1949,NA,NA,56639,56999,56534,1946,56639,Flanker Task,31,13854,33,yes,1024
94.11764706,94.11764706,421,421,black,legacy,legacy,legacy,0,Incongruent,uniform,1,undefined,1,h,0,0,0,33,33,0,33,33,0,0,0,33,33,33,0,33,Tue Sep 13 18:16:06 2022,1500,The main experiment item,yes,Lab 2.1 FlankerTask.osexp,C:\Users\Melissa\OneDrive\Desktop\ADVANCED QUANT,no,mono,no,18,no,white,no,no,768,legacy,33,33,C:/Users/Melissa/OneDrive/Desktop/ADVANCED QUANT/MM-subject-1.csv,legacy,Lentiform Loewenfeld,3.3.12,0,h,NA,s,NA,NA,h,460,NA,1045,NA,NA,460,2,legacy,1024,2,48000,-16,experiment,SSHSS,1,odd,2995,NA,NA,53305,NA,NA,58096,57015,1949,NA,NA,58201,58662,58095,1946,58201,Flanker Task,32,14314,34,yes,1024
94.28571429,94.28571429,421.5142857,421.5142857,black,legacy,legacy,legacy,0,Congruent,uniform,1,undefined,1,h,0,0,0,34,34,0,34,34,0,0,0,34,34,34,0,34,Tue Sep 13 18:16:06 2022,1500,The main experiment item,yes,Lab 2.1 FlankerTask.osexp,C:\Users\Melissa\OneDrive\Desktop\ADVANCED QUANT,no,mono,no,18,no,white,no,no,768,legacy,34,34,C:/Users/Melissa/OneDrive/Desktop/ADVANCED QUANT/MM-subject-1.csv,legacy,Lentiform Loewenfeld,3.3.12,0,h,NA,s,NA,NA,h,439,NA,1045,NA,NA,439,2,legacy,1024,2,48000,-16,experiment,HHHHH,1,odd,2995,NA,NA,53305,NA,NA,59771,58675,1949,NA,NA,59876,60316,59768,1946,59875,Flanker Task,33,14753,35,yes,1024
94.44444444,94.44444444,422.4166667,422.4166667,black,legacy,legacy,legacy,0,Incongruent,uniform,1,undefined,1,s,0,0,0,35,35,0,35,35,0,0,0,35,35,35,0,35,Tue Sep 13 18:16:06 2022,1500,The main experiment item,yes,Lab 2.1 FlankerTask.osexp,C:\Users\Melissa\OneDrive\Desktop\ADVANCED QUANT,no,mono,no,18,no,white,no,no,768,legacy,35,35,C:/Users/Melissa/OneDrive/Desktop/ADVANCED QUANT/MM-subject-1.csv,legacy,Lentiform Loewenfeld,3.3.12,0,s,NA,s,NA,NA,s,454,NA,1045,NA,NA,454,2,legacy,1024,2,48000,-16,experiment,HHSHH,1,odd,2995,NA,NA,53305,NA,NA,61433,60334,1949,NA,NA,61538,61994,61430,1946,61538,Flanker Task,34,15207,36,yes,1024
94.59459459,94.59459459,420.7027027,420.7027027,black,legacy,legacy,legacy,0,Congruent,uniform,1,undefined,1,h,0,0,0,36,36,0,36,36,0,0,0,36,36,36,0,36,Tue Sep 13 18:16:06 2022,1500,The main experiment item,yes,Lab 2.1 FlankerTask.osexp,C:\Users\Melissa\OneDrive\Desktop\ADVANCED QUANT,no,mono,no,18,no,white,no,no,768,legacy,36,36,C:/Users/Melissa/OneDrive/Desktop/ADVANCED QUANT/MM-subject-1.csv,legacy,Lentiform Loewenfeld,3.3.12,0,h,NA,s,NA,NA,h,359,NA,1045,NA,NA,359,2,legacy,1024,2,48000,-16,experiment,HHHHH,1,odd,2995,NA,NA,53305,NA,NA,63103,61999,1949,NA,NA,63209,63568,63096,1946,63209,Flanker Task,35,15566,37,yes,1024
94.73684211,94.73684211,420.7894737,420.7894737,black,legacy,legacy,legacy,0,Incongruent,uniform,1,undefined,1,s,0,0,0,37,37,0,37,37,0,0,0,37,37,37,0,37,Tue Sep 13 18:16:06 2022,1500,The main experiment item,yes,Lab 2.1 FlankerTask.osexp,C:\Users\Melissa\OneDrive\Desktop\ADVANCED QUANT,no,mono,no,18,no,white,no,no,768,legacy,37,37,C:/Users/Melissa/OneDrive/Desktop/ADVANCED QUANT/MM-subject-1.csv,legacy,Lentiform Loewenfeld,3.3.12,0,s,NA,s,NA,NA,s,424,NA,1045,NA,NA,424,2,legacy,1024,2,48000,-16,experiment,HHSHH,1,odd,2995,NA,NA,53305,NA,NA,64660,63582,1949,NA,NA,64766,65191,64658,1946,64766,Flanker Task,36,15990,38,yes,1024
94.87179487,94.87179487,422.8461538,422.8461538,black,legacy,legacy,legacy,0,Incongruent,uniform,1,undefined,1,s,0,0,0,38,38,0,38,38,0,0,0,38,38,38,0,38,Tue Sep 13 18:16:06 2022,1500,The main experiment item,yes,Lab 2.1 FlankerTask.osexp,C:\Users\Melissa\OneDrive\Desktop\ADVANCED QUANT,no,mono,no,18,no,white,no,no,768,legacy,38,38,C:/Users/Melissa/OneDrive/Desktop/ADVANCED QUANT/MM-subject-1.csv,legacy,Lentiform Loewenfeld,3.3.12,0,s,NA,s,NA,NA,s,501,NA,1045,NA,NA,501,2,legacy,1024,2,48000,-16,experiment,HHSHH,1,odd,2995,NA,NA,53305,NA,NA,66297,65207,1949,NA,NA,66403,66905,66295,1946,66403,Flanker Task,37,16491,39,yes,1024
95,95,428.175,428.175,black,legacy,legacy,legacy,0,Congruent,uniform,1,undefined,1,s,0,0,0,39,39,0,39,39,0,0,0,39,39,39,0,39,Tue Sep 13 18:16:06 2022,1500,The main experiment item,yes,Lab 2.1 FlankerTask.osexp,C:\Users\Melissa\OneDrive\Desktop\ADVANCED QUANT,no,mono,no,18,no,white,no,no,768,legacy,39,39,C:/Users/Melissa/OneDrive/Desktop/ADVANCED QUANT/MM-subject-1.csv,legacy,Lentiform Loewenfeld,3.3.12,0,s,NA,s,NA,NA,s,636,NA,1045,NA,NA,636,2,legacy,1024,2,48000,-16,experiment,SSSSS,1,odd,2995,NA,NA,53305,NA,NA,68009,66919,1949,NA,NA,68114,68751,68007,1946,68114,Flanker Task,38,17127,40,yes,1024
95.12195122,95.12195122,430.8780488,430.8780488,black,legacy,legacy,legacy,0,Incongruent,uniform,1,undefined,1,h,0,0,0,40,40,0,40,40,0,0,0,40,40,40,0,40,Tue Sep 13 18:16:06 2022,1500,The main experiment item,yes,Lab 2.1 FlankerTask.osexp,C:\Users\Melissa\OneDrive\Desktop\ADVANCED QUANT,no,mono,no,18,no,white,no,no,768,legacy,40,40,C:/Users/Melissa/OneDrive/Desktop/ADVANCED QUANT/MM-subject-1.csv,legacy,Lentiform Loewenfeld,3.3.12,0,h,NA,s,NA,NA,h,539,NA,1045,NA,NA,539,2,legacy,1024,2,48000,-16,experiment,SSHSS,1,odd,2995,NA,NA,53305,NA,NA,69848,68755,1949,NA,NA,69953,70494,69845,1946,69953,Flanker Task,39,17666,41,yes,1024
95.23809524,95.23809524,430.8809524,430.8809524,black,legacy,legacy,legacy,0,Congruent,uniform,1,undefined,1,h,0,0,0,41,41,0,41,41,0,0,0,41,41,41,0,41,Tue Sep 13 18:16:06 2022,1500,The main experiment item,yes,Lab 2.1 FlankerTask.osexp,C:\Users\Melissa\OneDrive\Desktop\ADVANCED QUANT,no,mono,no,18,no,white,no,no,768,legacy,41,41,C:/Users/Melissa/OneDrive/Desktop/ADVANCED QUANT/MM-subject-1.csv,legacy,Lentiform Loewenfeld,3.3.12,0,h,NA,s,NA,NA,h,431,NA,1045,NA,NA,431,2,legacy,1024,2,48000,-16,experiment,HHHHH,1,odd,2995,NA,NA,53305,NA,NA,71603,70509,1949,NA,NA,71708,72139,71601,1946,71708,Flanker Task,40,18097,42,yes,1024
95.34883721,95.34883721,431.3488372,431.3488372,black,legacy,legacy,legacy,0,Incongruent,uniform,1,undefined,1,s,0,0,0,42,42,0,42,42,0,0,0,42,42,42,0,42,Tue Sep 13 18:16:06 2022,1500,The main experiment item,yes,Lab 2.1 FlankerTask.osexp,C:\Users\Melissa\OneDrive\Desktop\ADVANCED QUANT,no,mono,no,18,no,white,no,no,768,legacy,42,42,C:/Users/Melissa/OneDrive/Desktop/ADVANCED QUANT/MM-subject-1.csv,legacy,Lentiform Loewenfeld,3.3.12,0,s,NA,s,NA,NA,s,451,NA,1045,NA,NA,451,2,legacy,1024,2,48000,-16,experiment,HHSHH,1,odd,2995,NA,NA,53305,NA,NA,73252,72154,1949,NA,NA,73358,73810,73250,1946,73358,Flanker Task,41,18548,43,yes,1024
95.45454545,95.45454545,430.25,430.25,black,legacy,legacy,legacy,0,Congruent,uniform,1,undefined,1,h,0,0,0,43,43,0,43,43,0,0,0,43,43,43,0,43,Tue Sep 13 18:16:06 2022,1500,The main experiment item,yes,Lab 2.1 FlankerTask.osexp,C:\Users\Melissa\OneDrive\Desktop\ADVANCED QUANT,no,mono,no,18,no,white,no,no,768,legacy,43,43,C:/Users/Melissa/OneDrive/Desktop/ADVANCED QUANT/MM-subject-1.csv,legacy,Lentiform Loewenfeld,3.3.12,0,h,NA,s,NA,NA,h,383,NA,1045,NA,NA,383,2,legacy,1024,2,48000,-16,experiment,HHHHH,1,odd,2995,NA,NA,53305,NA,NA,74915,73824,1949,NA,NA,75021,75405,74913,1946,75020,Flanker Task,42,18931,44,yes,1024
95.55555556,95.55555556,429.6666667,429.6666667,black,legacy,legacy,legacy,0,Congruent,uniform,1,undefined,1,h,0,0,0,44,44,0,44,44,0,0,0,44,44,44,0,44,Tue Sep 13 18:16:06 2022,1500,The main experiment item,yes,Lab 2.1 FlankerTask.osexp,C:\Users\Melissa\OneDrive\Desktop\ADVANCED QUANT,no,mono,no,18,no,white,no,no,768,legacy,44,44,C:/Users/Melissa/OneDrive/Desktop/ADVANCED QUANT/MM-subject-1.csv,legacy,Lentiform Loewenfeld,3.3.12,0,h,NA,s,NA,NA,h,404,NA,1045,NA,NA,404,2,legacy,1024,2,48000,-16,experiment,HHHHH,1,odd,2995,NA,NA,53305,NA,NA,76515,75423,1949,NA,NA,76616,77021,76512,1946,76616,Flanker Task,43,19335,45,yes,1024
95.65217391,95.65217391,428.1956522,428.1956522,black,legacy,legacy,legacy,0,Congruent,uniform,1,undefined,1,s,0,0,0,45,45,0,45,45,0,0,0,45,45,45,0,45,Tue Sep 13 18:16:06 2022,1500,The main experiment item,yes,Lab 2.1 FlankerTask.osexp,C:\Users\Melissa\OneDrive\Desktop\ADVANCED QUANT,no,mono,no,18,no,white,no,no,768,legacy,45,45,C:/Users/Melissa/OneDrive/Desktop/ADVANCED QUANT/MM-subject-1.csv,legacy,Lentiform Loewenfeld,3.3.12,0,s,NA,s,NA,NA,s,362,NA,1045,NA,NA,362,2,legacy,1024,2,48000,-16,experiment,SSSSS,1,odd,2995,NA,NA,53305,NA,NA,78113,77025,1949,NA,NA,78218,78581,78110,1946,78218,Flanker Task,44,19697,46,yes,1024
95.74468085,95.74468085,428.1914894,428.1914894,black,legacy,legacy,legacy,0,Congruent,uniform,1,undefined,1,h,0,0,0,46,46,0,46,46,0,0,0,46,46,46,0,46,Tue Sep 13 18:16:06 2022,1500,The main experiment item,yes,Lab 2.1 FlankerTask.osexp,C:\Users\Melissa\OneDrive\Desktop\ADVANCED QUANT,no,mono,no,18,no,white,no,no,768,legacy,46,46,C:/Users/Melissa/OneDrive/Desktop/ADVANCED QUANT/MM-subject-1.csv,legacy,Lentiform Loewenfeld,3.3.12,0,h,NA,s,NA,NA,h,428,NA,1045,NA,NA,428,2,legacy,1024,2,48000,-16,experiment,HHHHH,1,odd,2995,NA,NA,53305,NA,NA,79699,78596,1949,NA,NA,79804,80232,79697,1946,79804,Flanker Task,45,20125,47,yes,1024
95.83333333,95.83333333,429.6458333,429.6458333,black,legacy,legacy,legacy,0,Congruent,uniform,1,undefined,1,h,0,0,0,47,47,0,47,47,0,0,0,47,47,47,0,47,Tue Sep 13 18:16:06 2022,1500,The main experiment item,yes,Lab 2.1 FlankerTask.osexp,C:\Users\Melissa\OneDrive\Desktop\ADVANCED QUANT,no,mono,no,18,no,white,no,no,768,legacy,47,47,C:/Users/Melissa/OneDrive/Desktop/ADVANCED QUANT/MM-subject-1.csv,legacy,Lentiform Loewenfeld,3.3.12,0,h,NA,s,NA,NA,h,498,NA,1045,NA,NA,498,2,legacy,1024,2,48000,-16,experiment,HHHHH,1,odd,2995,NA,NA,53305,NA,NA,81329,80248,1949,NA,NA,81432,81932,81326,1946,81431,Flanker Task,46,20623,48,yes,1024
95.91836735,95.91836735,430.6938776,430.6938776,black,legacy,legacy,legacy,0,Incongruent,uniform,1,undefined,1,h,0,0,0,48,48,0,48,48,0,0,0,48,48,48,0,48,Tue Sep 13 18:16:06 2022,1500,The main experiment item,yes,Lab 2.1 FlankerTask.osexp,C:\Users\Melissa\OneDrive\Desktop\ADVANCED QUANT,no,mono,no,18,no,white,no,no,768,legacy,48,48,C:/Users/Melissa/OneDrive/Desktop/ADVANCED QUANT/MM-subject-1.csv,legacy,Lentiform Loewenfeld,3.3.12,0,h,NA,s,NA,NA,h,481,NA,1045,NA,NA,481,2,legacy,1024,2,48000,-16,experiment,SSHSS,1,odd,2995,NA,NA,53305,NA,NA,83029,81947,1949,NA,NA,83135,83617,83027,1946,83135,Flanker Task,47,21104,49,yes,1024
96,96,429.74,429.74,black,legacy,legacy,legacy,0,Congruent,uniform,1,undefined,1,s,0,0,0,49,49,0,49,49,0,0,0,49,49,49,0,49,Tue Sep 13 18:16:06 2022,1500,The main experiment item,yes,Lab 2.1 FlankerTask.osexp,C:\Users\Melissa\OneDrive\Desktop\ADVANCED QUANT,no,mono,no,18,no,white,no,no,768,legacy,49,49,C:/Users/Melissa/OneDrive/Desktop/ADVANCED QUANT/MM-subject-1.csv,legacy,Lentiform Loewenfeld,3.3.12,0,s,NA,s,NA,NA,s,383,NA,1045,NA,NA,383,2,legacy,1024,2,48000,-16,experiment,SSSSS,1,odd,2995,NA,NA,53305,NA,NA,84733,83633,1949,NA,NA,84838,85222,84731,1946,84838,Flanker Task,48,21487,50,yes,1024
96.07843137,96.07843137,429.8235294,429.8235294,black,legacy,legacy,legacy,0,Incongruent,uniform,1,undefined,1,s,0,0,0,50,50,0,50,50,0,0,0,50,50,50,0,50,Tue Sep 13 18:16:06 2022,1500,The main experiment item,yes,Lab 2.1 FlankerTask.osexp,C:\Users\Melissa\OneDrive\Desktop\ADVANCED QUANT,no,mono,no,18,no,white,no,no,768,legacy,50,50,C:/Users/Melissa/OneDrive/Desktop/ADVANCED QUANT/MM-subject-1.csv,legacy,Lentiform Loewenfeld,3.3.12,0,s,NA,s,NA,NA,s,434,NA,1045,NA,NA,434,2,legacy,1024,2,48000,-16,experiment,HHSHH,1,odd,2995,NA,NA,53305,NA,NA,86340,85238,1949,NA,NA,86446,86881,86339,1946,86446,Flanker Task,49,21921,51,yes,1024
96.15384615,96.15384615,429.1923077,429.1923077,black,legacy,legacy,legacy,0,Congruent,uniform,1,undefined,1,h,0,0,0,51,51,0,51,51,0,0,0,51,51,51,0,51,Tue Sep 13 18:16:06 2022,1500,The main experiment item,yes,Lab 2.1 FlankerTask.osexp,C:\Users\Melissa\OneDrive\Desktop\ADVANCED QUANT,no,mono,no,18,no,white,no,no,768,legacy,51,51,C:/Users/Melissa/OneDrive/Desktop/ADVANCED QUANT/MM-subject-1.csv,legacy,Lentiform Loewenfeld,3.3.12,0,h,NA,s,NA,NA,h,397,NA,1045,NA,NA,397,2,legacy,1024,2,48000,-16,experiment,HHHHH,1,odd,2995,NA,NA,53305,NA,NA,87981,86897,1949,NA,NA,88086,88484,87978,1946,88086,Flanker Task,50,22318,52,yes,1024
96.22641509,96.22641509,428.8113208,428.8113208,black,legacy,legacy,legacy,0,Congruent,uniform,1,undefined,1,h,0,0,0,52,52,0,52,52,0,0,0,52,52,52,0,52,Tue Sep 13 18:16:06 2022,1500,The main experiment item,yes,Lab 2.1 FlankerTask.osexp,C:\Users\Melissa\OneDrive\Desktop\ADVANCED QUANT,no,mono,no,18,no,white,no,no,768,legacy,52,52,C:/Users/Melissa/OneDrive/Desktop/ADVANCED QUANT/MM-subject-1.csv,legacy,Lentiform Loewenfeld,3.3.12,0,h,NA,s,NA,NA,h,409,NA,1045,NA,NA,409,2,legacy,1024,2,48000,-16,experiment,HHHHH,1,odd,2995,NA,NA,53305,NA,NA,89569,88491,1949,NA,NA,89671,90081,89567,1946,89671,Flanker Task,51,22727,53,yes,1024
96.2962963,96.2962963,428.5925926,428.5925926,black,legacy,legacy,legacy,0,Congruent,uniform,1,undefined,1,s,0,0,0,53,53,0,53,53,0,0,0,53,53,53,0,53,Tue Sep 13 18:16:06 2022,1500,The main experiment item,yes,Lab 2.1 FlankerTask.osexp,C:\Users\Melissa\OneDrive\Desktop\ADVANCED QUANT,no,mono,no,18,no,white,no,no,768,legacy,53,53,C:/Users/Melissa/OneDrive/Desktop/ADVANCED QUANT/MM-subject-1.csv,legacy,Lentiform Loewenfeld,3.3.12,0,s,NA,s,NA,NA,s,417,NA,1045,NA,NA,417,2,legacy,1024,2,48000,-16,experiment,SSSSS,1,odd,2995,NA,NA,53305,NA,NA,91211,90096,1949,NA,NA,91317,91735,91209,1946,91316,Flanker Task,52,23144,54,yes,1024
96.36363636,96.36363636,430.7272727,430.7272727,black,legacy,legacy,legacy,0,Incongruent,uniform,1,undefined,1,s,0,0,0,54,54,0,54,54,0,0,0,54,54,54,0,54,Tue Sep 13 18:16:06 2022,1500,The main experiment item,yes,Lab 2.1 FlankerTask.osexp,C:\Users\Melissa\OneDrive\Desktop\ADVANCED QUANT,no,mono,no,18,no,white,no,no,768,legacy,54,54,C:/Users/Melissa/OneDrive/Desktop/ADVANCED QUANT/MM-subject-1.csv,legacy,Lentiform Loewenfeld,3.3.12,0,s,NA,s,NA,NA,s,546,NA,1045,NA,NA,546,2,legacy,1024,2,48000,-16,experiment,HHSHH,1,odd,2995,NA,NA,53305,NA,NA,92835,91748,1949,NA,NA,92945,93492,92833,1946,92945,Flanker Task,53,23690,55,yes,1024
96.42857143,96.42857143,430.4285714,430.4285714,black,legacy,legacy,legacy,0,Congruent,uniform,1,undefined,1,s,0,0,0,55,55,0,55,55,0,0,0,55,55,55,0,55,Tue Sep 13 18:16:06 2022,1500,The main experiment item,yes,Lab 2.1 FlankerTask.osexp,C:\Users\Melissa\OneDrive\Desktop\ADVANCED QUANT,no,mono,no,18,no,white,no,no,768,legacy,55,55,C:/Users/Melissa/OneDrive/Desktop/ADVANCED QUANT/MM-subject-1.csv,legacy,Lentiform Loewenfeld,3.3.12,0,s,NA,s,NA,NA,s,414,NA,1045,NA,NA,414,2,legacy,1024,2,48000,-16,experiment,SSSSS,1,odd,2995,NA,NA,53305,NA,NA,94598,93496,1949,NA,NA,94704,95119,94596,1946,94703,Flanker Task,54,24104,56,yes,1024
96.49122807,96.49122807,430.4035088,430.4035088,black,legacy,legacy,legacy,0,Congruent,uniform,1,undefined,1,h,0,0,0,56,56,0,56,56,0,0,0,56,56,56,0,56,Tue Sep 13 18:16:06 2022,1500,The main experiment item,yes,Lab 2.1 FlankerTask.osexp,C:\Users\Melissa\OneDrive\Desktop\ADVANCED QUANT,no,mono,no,18,no,white,no,no,768,legacy,56,56,C:/Users/Melissa/OneDrive/Desktop/ADVANCED QUANT/MM-subject-1.csv,legacy,Lentiform Loewenfeld,3.3.12,0,h,NA,s,NA,NA,h,429,NA,1045,NA,NA,429,2,legacy,1024,2,48000,-16,experiment,HHHHH,1,odd,2995,NA,NA,53305,NA,NA,96214,95134,1949,NA,NA,96319,96750,96212,1946,96319,Flanker Task,55,24533,57,yes,1024
96.55172414,96.55172414,430.637931,430.637931,black,legacy,legacy,legacy,0,Congruent,uniform,1,undefined,1,h,0,0,0,57,57,0,57,57,0,0,0,57,57,57,0,57,Tue Sep 13 18:16:06 2022,1500,The main experiment item,yes,Lab 2.1 FlankerTask.osexp,C:\Users\Melissa\OneDrive\Desktop\ADVANCED QUANT,no,mono,no,18,no,white,no,no,768,legacy,57,57,C:/Users/Melissa/OneDrive/Desktop/ADVANCED QUANT/MM-subject-1.csv,legacy,Lentiform Loewenfeld,3.3.12,0,h,NA,s,NA,NA,h,444,NA,1045,NA,NA,444,2,legacy,1024,2,48000,-16,experiment,HHHHH,1,odd,2995,NA,NA,53305,NA,NA,97860,96765,1949,NA,NA,97965,98410,97858,1946,97965,Flanker Task,56,24977,58,yes,1024
96.61016949,96.61016949,430.440678,430.440678,black,legacy,legacy,legacy,0,Incongruent,uniform,1,undefined,1,h,0,0,0,58,58,0,58,58,0,0,0,58,58,58,0,58,Tue Sep 13 18:16:06 2022,1500,The main experiment item,yes,Lab 2.1 FlankerTask.osexp,C:\Users\Melissa\OneDrive\Desktop\ADVANCED QUANT,no,mono,no,18,no,white,no,no,768,legacy,58,58,C:/Users/Melissa/OneDrive/Desktop/ADVANCED QUANT/MM-subject-1.csv,legacy,Lentiform Loewenfeld,3.3.12,0,h,NA,s,NA,NA,h,419,NA,1045,NA,NA,419,2,legacy,1024,2,48000,-16,experiment,SSHSS,1,odd,2995,NA,NA,53305,NA,NA,99522,98424,1949,NA,NA,99627,100047,99521,1946,99627,Flanker Task,57,25396,59,yes,1024
96.66666667,96.66666667,429.1,429.1,black,legacy,legacy,legacy,0,Congruent,uniform,1,undefined,1,s,0,0,0,59,59,0,59,59,0,0,0,59,59,59,0,59,Tue Sep 13 18:16:06 2022,1500,The main experiment item,yes,Lab 2.1 FlankerTask.osexp,C:\Users\Melissa\OneDrive\Desktop\ADVANCED QUANT,no,mono,no,18,no,white,no,no,768,legacy,59,59,C:/Users/Melissa/OneDrive/Desktop/ADVANCED QUANT/MM-subject-1.csv,legacy,Lentiform Loewenfeld,3.3.12,0,s,NA,s,NA,NA,s,350,NA,1045,NA,NA,350,2,legacy,1024,2,48000,-16,experiment,SSSSS,1,odd,2995,NA,NA,53305,NA,NA,101147,100061,1949,NA,NA,101252,101603,101145,1946,101252,Flanker Task,58,25746,60,yes,1024
96.72131148,96.72131148,429.0819672,429.0819672,black,legacy,legacy,legacy,0,Incongruent,uniform,1,undefined,1,h,0,0,0,60,60,0,60,60,0,0,0,60,60,60,0,60,Tue Sep 13 18:16:06 2022,1500,The main experiment item,yes,Lab 2.1 FlankerTask.osexp,C:\Users\Melissa\OneDrive\Desktop\ADVANCED QUANT,no,mono,no,18,no,white,no,no,768,legacy,60,60,C:/Users/Melissa/OneDrive/Desktop/ADVANCED QUANT/MM-subject-1.csv,legacy,Lentiform Loewenfeld,3.3.12,0,h,NA,s,NA,NA,h,428,NA,1045,NA,NA,428,2,legacy,1024,2,48000,-16,experiment,SSHSS,1,odd,2995,NA,NA,53305,NA,NA,102719,101619,1949,NA,NA,102824,103254,102717,1946,102824,Flanker Task,59,26174,61,yes,1024
96.77419355,96.77419355,428.8709677,428.8709677,black,legacy,legacy,legacy,0,Incongruent,uniform,1,undefined,1,h,0,0,0,61,61,0,61,61,0,0,0,61,61,61,0,61,Tue Sep 13 18:16:06 2022,1500,The main experiment item,yes,Lab 2.1 FlankerTask.osexp,C:\Users\Melissa\OneDrive\Desktop\ADVANCED QUANT,no,mono,no,18,no,white,no,no,768,legacy,61,61,C:/Users/Melissa/OneDrive/Desktop/ADVANCED QUANT/MM-subject-1.csv,legacy,Lentiform Loewenfeld,3.3.12,0,h,NA,s,NA,NA,h,416,NA,1045,NA,NA,416,2,legacy,1024,2,48000,-16,experiment,SSHSS,1,odd,2995,NA,NA,53305,NA,NA,104377,103269,1949,NA,NA,104480,104897,104375,1946,104479,Flanker Task,60,26590,62,yes,1024
96.82539683,96.82539683,429.5396825,429.5396825,black,legacy,legacy,legacy,0,Incongruent,uniform,1,undefined,1,s,0,0,0,62,62,0,62,62,0,0,0,62,62,62,0,62,Tue Sep 13 18:16:06 2022,1500,The main experiment item,yes,Lab 2.1 FlankerTask.osexp,C:\Users\Melissa\OneDrive\Desktop\ADVANCED QUANT,no,mono,no,18,no,white,no,no,768,legacy,62,62,C:/Users/Melissa/OneDrive/Desktop/ADVANCED QUANT/MM-subject-1.csv,legacy,Lentiform Loewenfeld,3.3.12,0,s,NA,s,NA,NA,s,471,NA,1045,NA,NA,471,2,legacy,1024,2,48000,-16,experiment,HHSHH,1,odd,2995,NA,NA,53305,NA,NA,106007,104912,1949,NA,NA,106109,106581,106004,1946,106109,Flanker Task,61,27061,63,yes,1024
96.875,96.875,432.984375,432.984375,black,legacy,legacy,legacy,0,Incongruent,uniform,1,undefined,1,s,0,0,0,63,63,0,63,63,0,0,0,63,63,63,0,63,Tue Sep 13 18:16:06 2022,1500,The main experiment item,yes,Lab 2.1 FlankerTask.osexp,C:\Users\Melissa\OneDrive\Desktop\ADVANCED QUANT,no,mono,no,18,no,white,no,no,768,legacy,63,63,C:/Users/Melissa/OneDrive/Desktop/ADVANCED QUANT/MM-subject-1.csv,legacy,Lentiform Loewenfeld,3.3.12,0,s,NA,s,NA,NA,s,650,NA,1045,NA,NA,650,2,legacy,1024,2,48000,-16,experiment,HHSHH,1,odd,2995,NA,NA,53305,NA,NA,107703,106597,1949,NA,NA,107808,108459,107701,1946,107808,Flanker Task,62,27711,64,yes,1024
96.92307692,96.92307692,434.4,434.4,black,legacy,legacy,legacy,0,Congruent,uniform,1,undefined,1,s,0,0,0,64,64,0,64,64,0,0,0,64,64,64,0,64,Tue Sep 13 18:16:06 2022,1500,The main experiment item,yes,Lab 2.1 FlankerTask.osexp,C:\Users\Melissa\OneDrive\Desktop\ADVANCED QUANT,no,mono,no,18,no,white,no,no,768,legacy,64,64,C:/Users/Melissa/OneDrive/Desktop/ADVANCED QUANT/MM-subject-1.csv,legacy,Lentiform Loewenfeld,3.3.12,0,s,NA,s,NA,NA,s,525,NA,1045,NA,NA,525,2,legacy,1024,2,48000,-16,experiment,SSSSS,1,odd,2995,NA,NA,53305,NA,NA,109569,108473,1949,NA,NA,109671,110197,109567,1946,109671,Flanker Task,63,28236,65,yes,1024
96.96969697,96.96969697,434.3939394,434.3939394,black,legacy,legacy,legacy,0,Congruent,uniform,1,undefined,1,s,0,0,0,65,65,0,65,65,0,0,0,65,65,65,0,65,Tue Sep 13 18:16:06 2022,1500,The main experiment item,yes,Lab 2.1 FlankerTask.osexp,C:\Users\Melissa\OneDrive\Desktop\ADVANCED QUANT,no,mono,no,18,no,white,no,no,768,legacy,65,65,C:/Users/Melissa/OneDrive/Desktop/ADVANCED QUANT/MM-subject-1.csv,legacy,Lentiform Loewenfeld,3.3.12,0,s,NA,s,NA,NA,s,434,NA,1045,NA,NA,434,2,legacy,1024,2,48000,-16,experiment,SSSSS,1,odd,2995,NA,NA,53305,NA,NA,111281,110201,1949,NA,NA,111384,111818,111279,1946,111384,Flanker Task,64,28670,66,yes,1024
97.01492537,97.01492537,434.119403,434.119403,black,legacy,legacy,legacy,0,Congruent,uniform,1,undefined,1,s,0,0,0,66,66,0,66,66,0,0,0,66,66,66,0,66,Tue Sep 13 18:16:06 2022,1500,The main experiment item,yes,Lab 2.1 FlankerTask.osexp,C:\Users\Melissa\OneDrive\Desktop\ADVANCED QUANT,no,mono,no,18,no,white,no,no,768,legacy,66,66,C:/Users/Melissa/OneDrive/Desktop/ADVANCED QUANT/MM-subject-1.csv,legacy,Lentiform Loewenfeld,3.3.12,0,s,NA,s,NA,NA,s,416,NA,1045,NA,NA,416,2,legacy,1024,2,48000,-16,experiment,SSSSS,1,odd,2995,NA,NA,53305,NA,NA,112898,111824,1949,NA,NA,113000,113418,112895,1946,112999,Flanker Task,65,29086,67,yes,1024
97.05882353,97.05882353,434.1911765,434.1911765,black,legacy,legacy,legacy,0,Congruent,uniform,1,undefined,1,s,0,0,0,67,67,0,67,67,0,0,0,67,67,67,0,67,Tue Sep 13 18:16:06 2022,1500,The main experiment item,yes,Lab 2.1 FlankerTask.osexp,C:\Users\Melissa\OneDrive\Desktop\ADVANCED QUANT,no,mono,no,18,no,white,no,no,768,legacy,67,67,C:/Users/Melissa/OneDrive/Desktop/ADVANCED QUANT/MM-subject-1.csv,legacy,Lentiform Loewenfeld,3.3.12,0,s,NA,s,NA,NA,s,439,NA,1045,NA,NA,439,2,legacy,1024,2,48000,-16,experiment,SSSSS,1,odd,2995,NA,NA,53305,NA,NA,114521,113433,1949,NA,NA,114624,115065,114519,1946,114624,Flanker Task,66,29525,68,yes,1024
97.10144928,97.10144928,434.0289855,434.0289855,black,legacy,legacy,legacy,0,Incongruent,uniform,1,undefined,1,s,0,0,0,68,68,0,68,68,0,0,0,68,68,68,0,68,Tue Sep 13 18:16:06 2022,1500,The main experiment item,yes,Lab 2.1 FlankerTask.osexp,C:\Users\Melissa\OneDrive\Desktop\ADVANCED QUANT,no,mono,no,18,no,white,no,no,768,legacy,68,68,C:/Users/Melissa/OneDrive/Desktop/ADVANCED QUANT/MM-subject-1.csv,legacy,Lentiform Loewenfeld,3.3.12,0,s,NA,s,NA,NA,s,423,NA,1045,NA,NA,423,2,legacy,1024,2,48000,-16,experiment,HHSHH,1,odd,2995,NA,NA,53305,NA,NA,116169,115069,1949,NA,NA,116274,116698,116167,1946,116273,Flanker Task,67,29948,69,yes,1024
97.14285714,97.14285714,433.7857143,433.7857143,black,legacy,legacy,legacy,0,Congruent,uniform,1,undefined,1,s,0,0,0,69,69,0,69,69,0,0,0,69,69,69,0,69,Tue Sep 13 18:16:06 2022,1500,The main experiment item,yes,Lab 2.1 FlankerTask.osexp,C:\Users\Melissa\OneDrive\Desktop\ADVANCED QUANT,no,mono,no,18,no,white,no,no,768,legacy,69,69,C:/Users/Melissa/OneDrive/Desktop/ADVANCED QUANT/MM-subject-1.csv,legacy,Lentiform Loewenfeld,3.3.12,0,s,NA,s,NA,NA,s,417,NA,1045,NA,NA,417,2,legacy,1024,2,48000,-16,experiment,SSSSS,1,odd,2995,NA,NA,53305,NA,NA,117853,116713,1949,NA,NA,117958,118376,117850,1946,117958,Flanker Task,68,30365,70,yes,1024
97.18309859,97.18309859,433.8732394,433.8732394,black,legacy,legacy,legacy,0,Incongruent,uniform,1,undefined,1,h,0,0,0,70,70,0,70,70,0,0,0,70,70,70,0,70,Tue Sep 13 18:16:06 2022,1500,The main experiment item,yes,Lab 2.1 FlankerTask.osexp,C:\Users\Melissa\OneDrive\Desktop\ADVANCED QUANT,no,mono,no,18,no,white,no,no,768,legacy,70,70,C:/Users/Melissa/OneDrive/Desktop/ADVANCED QUANT/MM-subject-1.csv,legacy,Lentiform Loewenfeld,3.3.12,0,h,NA,s,NA,NA,h,440,NA,1045,NA,NA,440,2,legacy,1024,2,48000,-16,experiment,SSHSS,1,odd,2995,NA,NA,53305,NA,NA,119470,118390,1949,NA,NA,119575,120015,119468,1946,119575,Flanker Task,69,30805,71,yes,1024
97.22222222,97.22222222,434.1944444,434.1944444,black,legacy,legacy,legacy,0,Incongruent,uniform,1,undefined,1,h,0,0,0,71,71,0,71,71,0,0,0,71,71,71,0,71,Tue Sep 13 18:16:06 2022,1500,The main experiment item,yes,Lab 2.1 FlankerTask.osexp,C:\Users\Melissa\OneDrive\Desktop\ADVANCED QUANT,no,mono,no,18,no,white,no,no,768,legacy,71,71,C:/Users/Melissa/OneDrive/Desktop/ADVANCED QUANT/MM-subject-1.csv,legacy,Lentiform Loewenfeld,3.3.12,0,h,NA,s,NA,NA,h,457,NA,1045,NA,NA,457,2,legacy,1024,2,48000,-16,experiment,SSHSS,1,odd,2995,NA,NA,53305,NA,NA,121121,120031,1949,NA,NA,121225,121683,121118,1946,121225,Flanker Task,70,31262,72,yes,1024
97.26027397,97.26027397,434.2054795,434.2054795,black,legacy,legacy,legacy,0,Congruent,uniform,1,undefined,1,h,0,0,0,72,72,0,72,72,0,0,0,72,72,72,0,72,Tue Sep 13 18:16:06 2022,1500,The main experiment item,yes,Lab 2.1 FlankerTask.osexp,C:\Users\Melissa\OneDrive\Desktop\ADVANCED QUANT,no,mono,no,18,no,white,no,no,768,legacy,72,72,C:/Users/Melissa/OneDrive/Desktop/ADVANCED QUANT/MM-subject-1.csv,legacy,Lentiform Loewenfeld,3.3.12,0,h,NA,s,NA,NA,h,435,NA,1045,NA,NA,435,2,legacy,1024,2,48000,-16,experiment,HHHHH,1,odd,2995,NA,NA,53305,NA,NA,122806,121697,1949,NA,NA,122911,123347,122804,1946,122911,Flanker Task,71,31697,73,yes,1024
97.2972973,97.2972973,434.3243243,434.3243243,black,legacy,legacy,legacy,0,Incongruent,uniform,1,undefined,1,s,0,0,0,73,73,0,73,73,0,0,0,73,73,73,0,73,Tue Sep 13 18:16:06 2022,1500,The main experiment item,yes,Lab 2.1 FlankerTask.osexp,C:\Users\Melissa\OneDrive\Desktop\ADVANCED QUANT,no,mono,no,18,no,white,no,no,768,legacy,73,73,C:/Users/Melissa/OneDrive/Desktop/ADVANCED QUANT/MM-subject-1.csv,legacy,Lentiform Loewenfeld,3.3.12,0,s,NA,s,NA,NA,s,443,NA,1045,NA,NA,443,2,legacy,1024,2,48000,-16,experiment,HHSHH,1,odd,2995,NA,NA,53305,NA,NA,124453,123351,1949,NA,NA,124558,125002,124451,1946,124558,Flanker Task,72,32140,74,yes,1024
97.33333333,97.33333333,434.2533333,434.2533333,black,legacy,legacy,legacy,0,Incongruent,uniform,1,undefined,1,s,0,0,0,74,74,0,74,74,0,0,0,74,74,74,0,74,Tue Sep 13 18:16:06 2022,1500,The main experiment item,yes,Lab 2.1 FlankerTask.osexp,C:\Users\Melissa\OneDrive\Desktop\ADVANCED QUANT,no,mono,no,18,no,white,no,no,768,legacy,74,74,C:/Users/Melissa/OneDrive/Desktop/ADVANCED QUANT/MM-subject-1.csv,legacy,Lentiform Loewenfeld,3.3.12,0,s,NA,s,NA,NA,s,429,NA,1045,NA,NA,429,2,legacy,1024,2,48000,-16,experiment,HHSHH,1,odd,2995,NA,NA,53305,NA,NA,126114,125018,1949,NA,NA,126219,126649,126112,1946,126219,Flanker Task,73,32569,75,yes,1024
97.36842105,97.36842105,434.5526316,434.5526316,black,legacy,legacy,legacy,0,Incongruent,uniform,1,undefined,1,h,0,0,0,75,75,0,75,75,0,0,0,75,75,75,0,75,Tue Sep 13 18:16:06 2022,1500,The main experiment item,yes,Lab 2.1 FlankerTask.osexp,C:\Users\Melissa\OneDrive\Desktop\ADVANCED QUANT,no,mono,no,18,no,white,no,no,768,legacy,75,75,C:/Users/Melissa/OneDrive/Desktop/ADVANCED QUANT/MM-subject-1.csv,legacy,Lentiform Loewenfeld,3.3.12,0,h,NA,s,NA,NA,h,457,NA,1045,NA,NA,457,2,legacy,1024,2,48000,-16,experiment,SSHSS,1,odd,2995,NA,NA,53305,NA,NA,127764,126665,1949,NA,NA,127869,128327,127762,1946,127869,Flanker Task,74,33026,76,yes,1024
97.4025974,97.4025974,434.2727273,434.2727273,black,legacy,legacy,legacy,0,Congruent,uniform,1,undefined,1,s,0,0,0,76,76,0,76,76,0,0,0,76,76,76,0,76,Tue Sep 13 18:16:06 2022,1500,The main experiment item,yes,Lab 2.1 FlankerTask.osexp,C:\Users\Melissa\OneDrive\Desktop\ADVANCED QUANT,no,mono,no,18,no,white,no,no,768,legacy,76,76,C:/Users/Melissa/OneDrive/Desktop/ADVANCED QUANT/MM-subject-1.csv,legacy,Lentiform Loewenfeld,3.3.12,0,s,NA,s,NA,NA,s,413,NA,1045,NA,NA,413,2,legacy,1024,2,48000,-16,experiment,SSSSS,1,odd,2995,NA,NA,53305,NA,NA,129436,128342,1949,NA,NA,129541,129955,129434,1946,129541,Flanker Task,75,33439,77,yes,1024
97.43589744,97.43589744,433.7820513,433.7820513,black,legacy,legacy,legacy,0,Congruent,uniform,1,undefined,1,h,0,0,0,77,77,0,77,77,0,0,0,77,77,77,0,77,Tue Sep 13 18:16:06 2022,1500,The main experiment item,yes,Lab 2.1 FlankerTask.osexp,C:\Users\Melissa\OneDrive\Desktop\ADVANCED QUANT,no,mono,no,18,no,white,no,no,768,legacy,77,77,C:/Users/Melissa/OneDrive/Desktop/ADVANCED QUANT/MM-subject-1.csv,legacy,Lentiform Loewenfeld,3.3.12,0,h,NA,s,NA,NA,h,396,NA,1045,NA,NA,396,2,legacy,1024,2,48000,-16,experiment,HHHHH,1,odd,2995,NA,NA,53305,NA,NA,131065,129969,1949,NA,NA,131171,131568,131063,1946,131171,Flanker Task,76,33835,78,yes,1024
97.46835443,97.46835443,433.2405063,433.2405063,black,legacy,legacy,legacy,0,Incongruent,uniform,1,undefined,1,s,0,0,0,78,78,0,78,78,0,0,0,78,78,78,0,78,Tue Sep 13 18:16:06 2022,1500,The main experiment item,yes,Lab 2.1 FlankerTask.osexp,C:\Users\Melissa\OneDrive\Desktop\ADVANCED QUANT,no,mono,no,18,no,white,no,no,768,legacy,78,78,C:/Users/Melissa/OneDrive/Desktop/ADVANCED QUANT/MM-subject-1.csv,legacy,Lentiform Loewenfeld,3.3.12,0,s,NA,s,NA,NA,s,391,NA,1045,NA,NA,391,2,legacy,1024,2,48000,-16,experiment,HHSHH,1,odd,2995,NA,NA,53305,NA,NA,132682,131581,1949,NA,NA,132787,133179,132679,1946,132787,Flanker Task,77,34226,79,yes,1024
97.5,97.5,433.0125,433.0125,black,legacy,legacy,legacy,0,Congruent,uniform,1,undefined,1,s,0,0,0,79,79,0,79,79,0,0,0,79,79,79,0,79,Tue Sep 13 18:16:06 2022,1500,The main experiment item,yes,Lab 2.1 FlankerTask.osexp,C:\Users\Melissa\OneDrive\Desktop\ADVANCED QUANT,no,mono,no,18,no,white,no,no,768,legacy,79,79,C:/Users/Melissa/OneDrive/Desktop/ADVANCED QUANT/MM-subject-1.csv,legacy,Lentiform Loewenfeld,3.3.12,0,s,NA,s,NA,NA,s,415,NA,1045,NA,NA,415,2,legacy,1024,2,48000,-16,experiment,SSSSS,1,odd,2995,NA,NA,53305,NA,NA,134262,133184,1949,NA,NA,134364,134780,134259,1946,134364,Flanker Task,78,34641,80,yes,1024
97.5308642,97.5308642,433.1728395,433.1728395,black,legacy,legacy,legacy,0,Incongruent,uniform,1,undefined,1,s,0,0,0,80,80,0,80,80,0,0,0,80,80,80,0,80,Tue Sep 13 18:16:06 2022,600,The main experiment item,yes,Lab 2.1 FlankerTask.osexp,C:\Users\Melissa\OneDrive\Desktop\ADVANCED QUANT,no,mono,no,18,no,white,no,no,768,legacy,0,79,C:/Users/Melissa/OneDrive/Desktop/ADVANCED QUANT/MM-subject-1.csv,legacy,Lentiform Loewenfeld,3.3.12,0,s,NA,s,s,NA,s,446,NA,1045,1764,NA,446,2,legacy,1024,2,48000,-16,experiment,HHSHH,1,odd,2995,137596,NA,53305,NA,NA,137642,134794,1949,135831,NA,137748,138195,137641,1946,137746,Flanker Task,79,35087,81,yes,1024
97.56097561,97.56097561,432.2317073,432.2317073,black,legacy,legacy,legacy,0,Congruent,uniform,1,undefined,1,s,0,0,0,81,81,0,81,81,0,0,0,81,81,81,0,81,Tue Sep 13 18:16:06 2022,600,The main experiment item,yes,Lab 2.1 FlankerTask.osexp,C:\Users\Melissa\OneDrive\Desktop\ADVANCED QUANT,no,mono,no,18,no,white,no,no,768,legacy,1,79,C:/Users/Melissa/OneDrive/Desktop/ADVANCED QUANT/MM-subject-1.csv,legacy,Lentiform Loewenfeld,3.3.12,0,s,NA,s,s,NA,s,356,NA,1045,1764,NA,356,2,legacy,1024,2,48000,-16,experiment,SSSSS,1,odd,2995,137596,NA,53305,NA,NA,139291,138199,1949,135831,NA,139396,139754,139290,1946,139396,Flanker Task,80,35443,82,yes,1024
97.59036145,97.59036145,431.9277108,431.9277108,black,legacy,legacy,legacy,0,Congruent,uniform,1,undefined,1,s,0,0,0,82,82,0,82,82,0,0,0,82,82,82,0,82,Tue Sep 13 18:16:06 2022,600,The main experiment item,yes,Lab 2.1 FlankerTask.osexp,C:\Users\Melissa\OneDrive\Desktop\ADVANCED QUANT,no,mono,no,18,no,white,no,no,768,legacy,2,79,C:/Users/Melissa/OneDrive/Desktop/ADVANCED QUANT/MM-subject-1.csv,legacy,Lentiform Loewenfeld,3.3.12,0,s,NA,s,s,NA,s,407,NA,1045,1764,NA,407,2,legacy,1024,2,48000,-16,experiment,SSSSS,1,odd,2995,137596,NA,53305,NA,NA,140867,139768,1949,135831,NA,140972,141380,140865,1946,140972,Flanker Task,81,35850,83,yes,1024
97.61904762,97.61904762,431.1190476,431.1190476,black,legacy,legacy,legacy,0,Incongruent,uniform,1,undefined,1,s,0,0,0,83,83,0,83,83,0,0,0,83,83,83,0,83,Tue Sep 13 18:16:06 2022,600,The main experiment item,yes,Lab 2.1 FlankerTask.osexp,C:\Users\Melissa\OneDrive\Desktop\ADVANCED QUANT,no,mono,no,18,no,white,no,no,768,legacy,3,79,C:/Users/Melissa/OneDrive/Desktop/ADVANCED QUANT/MM-subject-1.csv,legacy,Lentiform Loewenfeld,3.3.12,0,s,NA,s,s,NA,s,364,NA,1045,1764,NA,364,2,legacy,1024,2,48000,-16,experiment,HHSHH,1,odd,2995,137596,NA,53305,NA,NA,142474,141396,1949,135831,NA,142585,142951,142472,1946,142585,Flanker Task,82,36214,84,yes,1024
97.64705882,97.64705882,430.5411765,430.5411765,black,legacy,legacy,legacy,0,Incongruent,uniform,1,undefined,1,s,0,0,0,84,84,0,84,84,0,0,0,84,84,84,0,84,Tue Sep 13 18:16:06 2022,600,The main experiment item,yes,Lab 2.1 FlankerTask.osexp,C:\Users\Melissa\OneDrive\Desktop\ADVANCED QUANT,no,mono,no,18,no,white,no,no,768,legacy,4,79,C:/Users/Melissa/OneDrive/Desktop/ADVANCED QUANT/MM-subject-1.csv,legacy,Lentiform Loewenfeld,3.3.12,0,s,NA,s,s,NA,s,382,NA,1045,1764,NA,382,2,legacy,1024,2,48000,-16,experiment,HHSHH,1,odd,2995,137596,NA,53305,NA,NA,144069,142969,1949,135831,NA,144174,144557,144067,1946,144174,Flanker Task,83,36596,85,yes,1024
97.6744186,97.6744186,431.3604651,431.3604651,black,legacy,legacy,legacy,0,Congruent,uniform,1,undefined,1,h,0,0,0,85,85,0,85,85,0,0,0,85,85,85,0,85,Tue Sep 13 18:16:06 2022,600,The main experiment item,yes,Lab 2.1 FlankerTask.osexp,C:\Users\Melissa\OneDrive\Desktop\ADVANCED QUANT,no,mono,no,18,no,white,no,no,768,legacy,5,79,C:/Users/Melissa/OneDrive/Desktop/ADVANCED QUANT/MM-subject-1.csv,legacy,Lentiform Loewenfeld,3.3.12,0,h,NA,s,s,NA,h,501,NA,1045,1764,NA,501,2,legacy,1024,2,48000,-16,experiment,HHHHH,1,odd,2995,137596,NA,53305,NA,NA,145655,144572,1949,135831,NA,145758,146260,145653,1946,145758,Flanker Task,84,37097,86,yes,1024
97.70114943,97.70114943,432.3448276,432.3448276,black,legacy,legacy,legacy,0,Incongruent,uniform,1,undefined,1,s,0,0,0,86,86,0,86,86,0,0,0,86,86,86,0,86,Tue Sep 13 18:16:06 2022,600,The main experiment item,yes,Lab 2.1 FlankerTask.osexp,C:\Users\Melissa\OneDrive\Desktop\ADVANCED QUANT,no,mono,no,18,no,white,no,no,768,legacy,6,79,C:/Users/Melissa/OneDrive/Desktop/ADVANCED QUANT/MM-subject-1.csv,legacy,Lentiform Loewenfeld,3.3.12,0,s,NA,s,s,NA,s,517,NA,1045,1764,NA,517,2,legacy,1024,2,48000,-16,experiment,HHSHH,1,odd,2995,137596,NA,53305,NA,NA,147371,146275,1949,135831,NA,147475,147993,147369,1946,147475,Flanker Task,85,37614,87,yes,1024
97.72727273,97.72727273,433.375,433.375,black,legacy,legacy,legacy,0,Incongruent,uniform,1,undefined,1,h,0,0,0,87,87,0,87,87,0,0,0,87,87,87,0,87,Tue Sep 13 18:16:06 2022,600,The main experiment item,yes,Lab 2.1 FlankerTask.osexp,C:\Users\Melissa\OneDrive\Desktop\ADVANCED QUANT,no,mono,no,18,no,white,no,no,768,legacy,7,79,C:/Users/Melissa/OneDrive/Desktop/ADVANCED QUANT/MM-subject-1.csv,legacy,Lentiform Loewenfeld,3.3.12,0,h,NA,s,s,NA,h,523,NA,1045,1764,NA,523,2,legacy,1024,2,48000,-16,experiment,SSHSS,1,odd,2995,137596,NA,53305,NA,NA,149107,148007,1949,135831,NA,149212,149736,149105,1946,149212,Flanker Task,86,38137,88,yes,1024
97.75280899,97.75280899,432.8539326,432.8539326,black,legacy,legacy,legacy,0,Congruent,uniform,1,undefined,1,s,0,0,0,88,88,0,88,88,0,0,0,88,88,88,0,88,Tue Sep 13 18:16:06 2022,600,The main experiment item,yes,Lab 2.1 FlankerTask.osexp,C:\Users\Melissa\OneDrive\Desktop\ADVANCED QUANT,no,mono,no,18,no,white,no,no,768,legacy,8,79,C:/Users/Melissa/OneDrive/Desktop/ADVANCED QUANT/MM-subject-1.csv,legacy,Lentiform Loewenfeld,3.3.12,0,s,NA,s,s,NA,s,387,NA,1045,1764,NA,387,2,legacy,1024,2,48000,-16,experiment,SSSSS,1,odd,2995,137596,NA,53305,NA,NA,150853,149753,1949,135831,NA,150958,151346,150851,1946,150957,Flanker Task,87,38524,89,yes,1024
97.77777778,97.77777778,432.2666667,432.2666667,black,legacy,legacy,legacy,0,Incongruent,uniform,1,undefined,1,s,0,0,0,89,89,0,89,89,0,0,0,89,89,89,0,89,Tue Sep 13 18:16:06 2022,600,The main experiment item,yes,Lab 2.1 FlankerTask.osexp,C:\Users\Melissa\OneDrive\Desktop\ADVANCED QUANT,no,mono,no,18,no,white,no,no,768,legacy,9,79,C:/Users/Melissa/OneDrive/Desktop/ADVANCED QUANT/MM-subject-1.csv,legacy,Lentiform Loewenfeld,3.3.12,0,s,NA,s,s,NA,s,380,NA,1045,1764,NA,380,2,legacy,1024,2,48000,-16,experiment,HHSHH,1,odd,2995,137596,NA,53305,NA,NA,152443,151362,1949,135831,NA,152545,152926,152441,1946,152544,Flanker Task,88,38904,90,yes,1024
97.8021978,97.8021978,431.9230769,431.9230769,black,legacy,legacy,legacy,0,Congruent,uniform,1,undefined,1,s,0,0,0,90,90,0,90,90,0,0,0,90,90,90,0,90,Tue Sep 13 18:16:06 2022,600,The main experiment item,yes,Lab 2.1 FlankerTask.osexp,C:\Users\Melissa\OneDrive\Desktop\ADVANCED QUANT,no,mono,no,18,no,white,no,no,768,legacy,10,79,C:/Users/Melissa/OneDrive/Desktop/ADVANCED QUANT/MM-subject-1.csv,legacy,Lentiform Loewenfeld,3.3.12,0,s,NA,s,s,NA,s,401,NA,1045,1764,NA,401,2,legacy,1024,2,48000,-16,experiment,SSSSS,1,odd,2995,137596,NA,53305,NA,NA,154063,152950,1949,135831,NA,154168,154570,154061,1946,154168,Flanker Task,89,39305,91,yes,1024
97.82608696,97.82608696,432.8369565,432.8369565,black,legacy,legacy,legacy,0,Incongruent,uniform,1,undefined,1,s,0,0,0,91,91,0,91,91,0,0,0,91,91,91,0,91,Tue Sep 13 18:16:06 2022,600,The main experiment item,yes,Lab 2.1 FlankerTask.osexp,C:\Users\Melissa\OneDrive\Desktop\ADVANCED QUANT,no,mono,no,18,no,white,no,no,768,legacy,11,79,C:/Users/Melissa/OneDrive/Desktop/ADVANCED QUANT/MM-subject-1.csv,legacy,Lentiform Loewenfeld,3.3.12,0,s,NA,s,s,NA,s,516,NA,1045,1764,NA,516,2,legacy,1024,2,48000,-16,experiment,HHSHH,1,odd,2995,137596,NA,53305,NA,NA,155684,154584,1949,135831,NA,155789,156306,155682,1946,155789,Flanker Task,90,39821,92,yes,1024
97.84946237,97.84946237,434.5268817,434.5268817,black,legacy,legacy,legacy,0,Congruent,uniform,1,undefined,1,h,0,0,0,92,92,0,92,92,0,0,0,92,92,92,0,92,Tue Sep 13 18:16:06 2022,600,The main experiment item,yes,Lab 2.1 FlankerTask.osexp,C:\Users\Melissa\OneDrive\Desktop\ADVANCED QUANT,no,mono,no,18,no,white,no,no,768,legacy,12,79,C:/Users/Melissa/OneDrive/Desktop/ADVANCED QUANT/MM-subject-1.csv,legacy,Lentiform Loewenfeld,3.3.12,0,h,NA,s,s,NA,h,590,NA,1045,1764,NA,590,2,legacy,1024,2,48000,-16,experiment,HHHHH,1,odd,2995,137596,NA,53305,NA,NA,157409,156321,1949,135831,NA,157514,158104,157407,1946,157514,Flanker Task,91,40411,93,yes,1024
97.87234043,97.87234043,436.7021277,436.7021277,black,legacy,legacy,legacy,0,Congruent,uniform,1,undefined,1,h,0,0,0,93,93,0,93,93,0,0,0,93,93,93,0,93,Tue Sep 13 18:16:06 2022,600,The main experiment item,yes,Lab 2.1 FlankerTask.osexp,C:\Users\Melissa\OneDrive\Desktop\ADVANCED QUANT,no,mono,no,18,no,white,no,no,768,legacy,13,79,C:/Users/Melissa/OneDrive/Desktop/ADVANCED QUANT/MM-subject-1.csv,legacy,Lentiform Loewenfeld,3.3.12,0,h,NA,s,s,NA,h,639,NA,1045,1764,NA,639,2,legacy,1024,2,48000,-16,experiment,HHHHH,1,odd,2995,137596,NA,53305,NA,NA,159263,158117,1949,135831,NA,159368,160008,159260,1946,159368,Flanker Task,92,41050,94,yes,1024
97.89473684,97.89473684,437.8421053,437.8421053,black,legacy,legacy,legacy,0,Incongruent,uniform,1,undefined,1,h,0,0,0,94,94,0,94,94,0,0,0,94,94,94,0,94,Tue Sep 13 18:16:06 2022,600,The main experiment item,yes,Lab 2.1 FlankerTask.osexp,C:\Users\Melissa\OneDrive\Desktop\ADVANCED QUANT,no,mono,no,18,no,white,no,no,768,legacy,14,79,C:/Users/Melissa/OneDrive/Desktop/ADVANCED QUANT/MM-subject-1.csv,legacy,Lentiform Loewenfeld,3.3.12,0,h,NA,s,s,NA,h,545,NA,1045,1764,NA,545,2,legacy,1024,2,48000,-16,experiment,SSHSS,1,odd,2995,137596,NA,53305,160022,NA,161635,160527,1949,135831,NA,161740,162285,161633,1946,161740,Flanker Task,93,41595,95,yes,1024
97.91666667,97.91666667,437.375,437.375,black,legacy,legacy,legacy,0,Congruent,uniform,1,undefined,1,s,0,0,0,95,95,0,95,95,0,0,0,95,95,95,0,95,Tue Sep 13 18:16:06 2022,600,The main experiment item,yes,Lab 2.1 FlankerTask.osexp,C:\Users\Melissa\OneDrive\Desktop\ADVANCED QUANT,no,mono,no,18,no,white,no,no,768,legacy,15,79,C:/Users/Melissa/OneDrive/Desktop/ADVANCED QUANT/MM-subject-1.csv,legacy,Lentiform Loewenfeld,3.3.12,0,s,NA,s,s,NA,s,393,NA,1045,1764,NA,393,2,legacy,1024,2,48000,-16,experiment,SSSSS,1,odd,2995,137596,NA,53305,160022,NA,163432,162298,1949,135831,NA,163537,163931,163430,1946,163536,Flanker Task,94,41988,96,yes,1024
97.93814433,97.93814433,437.5154639,437.5154639,black,legacy,legacy,legacy,0,Incongruent,uniform,1,undefined,1,h,0,0,0,96,96,0,96,96,0,0,0,96,96,96,0,96,Tue Sep 13 18:16:06 2022,600,The main experiment item,yes,Lab 2.1 FlankerTask.osexp,C:\Users\Melissa\OneDrive\Desktop\ADVANCED QUANT,no,mono,no,18,no,white,no,no,768,legacy,16,79,C:/Users/Melissa/OneDrive/Desktop/ADVANCED QUANT/MM-subject-1.csv,legacy,Lentiform Loewenfeld,3.3.12,0,h,NA,s,s,NA,h,451,NA,1045,1764,NA,451,2,legacy,1024,2,48000,-16,experiment,SSHSS,1,odd,2995,137596,NA,53305,160022,NA,165027,163945,1949,135831,NA,165133,165585,165021,1946,165132,Flanker Task,95,42439,97,yes,1024
97.95918367,97.95918367,438.3061224,438.3061224,black,legacy,legacy,legacy,0,Incongruent,uniform,1,undefined,1,s,0,0,0,97,97,0,97,97,0,0,0,97,97,97,0,97,Tue Sep 13 18:16:06 2022,600,The main experiment item,yes,Lab 2.1 FlankerTask.osexp,C:\Users\Melissa\OneDrive\Desktop\ADVANCED QUANT,no,mono,no,18,no,white,no,no,768,legacy,17,79,C:/Users/Melissa/OneDrive/Desktop/ADVANCED QUANT/MM-subject-1.csv,legacy,Lentiform Loewenfeld,3.3.12,0,s,NA,s,s,NA,s,515,NA,1045,1764,NA,515,2,legacy,1024,2,48000,-16,experiment,HHSHH,1,odd,2995,137596,NA,53305,160022,NA,166686,165590,1949,135831,NA,166787,167303,166683,1946,166787,Flanker Task,96,42954,98,yes,1024
97.97979798,97.97979798,439.1717172,439.1717172,black,legacy,legacy,legacy,0,Incongruent,uniform,1,undefined,1,h,0,0,0,98,98,0,98,98,0,0,0,98,98,98,0,98,Tue Sep 13 18:16:06 2022,600,The main experiment item,yes,Lab 2.1 FlankerTask.osexp,C:\Users\Melissa\OneDrive\Desktop\ADVANCED QUANT,no,mono,no,18,no,white,no,no,768,legacy,18,79,C:/Users/Melissa/OneDrive/Desktop/ADVANCED QUANT/MM-subject-1.csv,legacy,Lentiform Loewenfeld,3.3.12,0,h,NA,s,s,NA,h,524,NA,1045,1764,NA,524,2,legacy,1024,2,48000,-16,experiment,SSHSS,1,odd,2995,137596,NA,53305,160022,NA,168417,167317,1949,135831,NA,168529,169055,168415,1946,168529,Flanker Task,97,43478,99,yes,1024
98,98,441.03,441.03,black,legacy,legacy,legacy,0,Congruent,uniform,1,undefined,1,s,0,0,0,99,99,0,99,99,0,0,0,99,99,99,0,99,Tue Sep 13 18:16:06 2022,600,The main experiment item,yes,Lab 2.1 FlankerTask.osexp,C:\Users\Melissa\OneDrive\Desktop\ADVANCED QUANT,no,mono,no,18,no,white,no,no,768,legacy,19,79,C:/Users/Melissa/OneDrive/Desktop/ADVANCED QUANT/MM-subject-1.csv,legacy,Lentiform Loewenfeld,3.3.12,0,s,NA,s,s,NA,s,625,NA,1045,1764,NA,625,2,legacy,1024,2,48000,-16,experiment,SSSSS,1,odd,2995,137596,NA,53305,160022,NA,170168,169070,1949,135831,NA,170269,170895,170166,1946,170269,Flanker Task,98,44103,100,yes,1024
98.01980198,98.01980198,441.8217822,441.8217822,black,legacy,legacy,legacy,0,Incongruent,uniform,1,undefined,1,h,0,0,0,100,100,0,100,100,0,0,0,100,100,100,0,100,Tue Sep 13 18:16:06 2022,600,The main experiment item,yes,Lab 2.1 FlankerTask.osexp,C:\Users\Melissa\OneDrive\Desktop\ADVANCED QUANT,no,mono,no,18,no,white,no,no,768,legacy,20,79,C:/Users/Melissa/OneDrive/Desktop/ADVANCED QUANT/MM-subject-1.csv,legacy,Lentiform Loewenfeld,3.3.12,0,h,NA,s,s,NA,h,521,NA,1045,1764,NA,521,2,legacy,1024,2,48000,-16,experiment,SSHSS,1,odd,2995,137596,NA,53305,170910,NA,172512,171416,1949,135831,NA,172617,173139,172510,1946,172617,Flanker Task,99,44624,101,yes,1024
98.03921569,98.03921569,444.6470588,444.6470588,black,legacy,legacy,legacy,0,Incongruent,uniform,1,undefined,1,h,0,0,0,101,101,0,101,101,0,0,0,101,101,101,0,101,Tue Sep 13 18:16:06 2022,600,The main experiment item,yes,Lab 2.1 FlankerTask.osexp,C:\Users\Melissa\OneDrive\Desktop\ADVANCED QUANT,no,mono,no,18,no,white,no,no,768,legacy,21,79,C:/Users/Melissa/OneDrive/Desktop/ADVANCED QUANT/MM-subject-1.csv,legacy,Lentiform Loewenfeld,3.3.12,0,h,NA,s,s,NA,h,730,NA,1045,1764,NA,730,2,legacy,1024,2,48000,-16,experiment,SSHSS,1,odd,2995,137596,NA,53305,170910,NA,174255,173154,1949,135831,NA,174360,175092,174252,1946,174360,Flanker Task,100,45354,102,yes,1024
98.05825243,98.05825243,445.0582524,445.0582524,black,legacy,legacy,legacy,0,Incongruent,uniform,1,undefined,1,h,0,0,0,102,102,0,102,102,0,0,0,102,102,102,0,102,Tue Sep 13 18:16:06 2022,600,The main experiment item,yes,Lab 2.1 FlankerTask.osexp,C:\Users\Melissa\OneDrive\Desktop\ADVANCED QUANT,no,mono,no,18,no,white,no,no,768,legacy,22,79,C:/Users/Melissa/OneDrive/Desktop/ADVANCED QUANT/MM-subject-1.csv,legacy,Lentiform Loewenfeld,3.3.12,0,h,NA,s,s,NA,h,487,NA,1045,1764,NA,487,2,legacy,1024,2,48000,-16,experiment,SSHSS,1,odd,2995,137596,NA,53305,175096,NA,176678,175598,1949,135831,NA,176785,177273,176676,1946,176784,Flanker Task,101,45841,103,yes,1024
98.07692308,98.07692308,445.2019231,445.2019231,black,legacy,legacy,legacy,0,Congruent,uniform,1,undefined,1,h,0,0,0,103,103,0,103,103,0,0,0,103,103,103,0,103,Tue Sep 13 18:16:06 2022,600,The main experiment item,yes,Lab 2.1 FlankerTask.osexp,C:\Users\Melissa\OneDrive\Desktop\ADVANCED QUANT,no,mono,no,18,no,white,no,no,768,legacy,23,79,C:/Users/Melissa/OneDrive/Desktop/ADVANCED QUANT/MM-subject-1.csv,legacy,Lentiform Loewenfeld,3.3.12,0,h,NA,s,s,NA,h,460,NA,1045,1764,NA,460,2,legacy,1024,2,48000,-16,experiment,HHHHH,1,odd,2995,137596,NA,53305,175096,NA,178379,177291,1949,135831,NA,178485,178946,178377,1946,178485,Flanker Task,102,46301,104,yes,1024
98.0952381,98.0952381,445.847619,445.847619,black,legacy,legacy,legacy,0,Incongruent,uniform,1,undefined,1,h,0,0,0,104,104,0,104,104,0,0,0,104,104,104,0,104,Tue Sep 13 18:16:06 2022,600,The main experiment item,yes,Lab 2.1 FlankerTask.osexp,C:\Users\Melissa\OneDrive\Desktop\ADVANCED QUANT,no,mono,no,18,no,white,no,no,768,legacy,24,79,C:/Users/Melissa/OneDrive/Desktop/ADVANCED QUANT/MM-subject-1.csv,legacy,Lentiform Loewenfeld,3.3.12,0,h,NA,s,s,NA,h,513,NA,1045,1764,NA,513,2,legacy,1024,2,48000,-16,experiment,SSHSS,1,odd,2995,137596,NA,53305,175096,NA,180043,178960,1949,135831,NA,180148,180662,180041,1946,180147,Flanker Task,103,46814,105,yes,1024
98.11320755,98.11320755,445.9622642,445.9622642,black,legacy,legacy,legacy,0,Congruent,uniform,1,undefined,1,h,0,0,0,105,105,0,105,105,0,0,0,105,105,105,0,105,Tue Sep 13 18:16:06 2022,600,The main experiment item,yes,Lab 2.1 FlankerTask.osexp,C:\Users\Melissa\OneDrive\Desktop\ADVANCED QUANT,no,mono,no,18,no,white,no,no,768,legacy,25,79,C:/Users/Melissa/OneDrive/Desktop/ADVANCED QUANT/MM-subject-1.csv,legacy,Lentiform Loewenfeld,3.3.12,0,h,NA,s,s,NA,h,458,NA,1045,1764,NA,458,2,legacy,1024,2,48000,-16,experiment,HHHHH,1,odd,2995,137596,NA,53305,175096,NA,181786,180676,1949,135831,NA,181892,182351,181784,1946,181891,Flanker Task,104,47272,106,yes,1024
98.13084112,98.13084112,446.1214953,446.1214953,black,legacy,legacy,legacy,0,Incongruent,uniform,1,undefined,1,h,0,0,0,106,106,0,106,106,0,0,0,106,106,106,0,106,Tue Sep 13 18:16:06 2022,600,The main experiment item,yes,Lab 2.1 FlankerTask.osexp,C:\Users\Melissa\OneDrive\Desktop\ADVANCED QUANT,no,mono,no,18,no,white,no,no,768,legacy,26,79,C:/Users/Melissa/OneDrive/Desktop/ADVANCED QUANT/MM-subject-1.csv,legacy,Lentiform Loewenfeld,3.3.12,0,h,NA,s,s,NA,h,463,NA,1045,1764,NA,463,2,legacy,1024,2,48000,-16,experiment,SSHSS,1,odd,2995,137596,NA,53305,175096,NA,183458,182364,1949,135831,NA,183563,184027,183456,1946,183563,Flanker Task,105,47735,107,yes,1024
98.14814815,98.14814815,446.3055556,446.3055556,black,legacy,legacy,legacy,0,Congruent,uniform,1,undefined,1,s,0,0,0,107,107,0,107,107,0,0,0,107,107,107,0,107,Tue Sep 13 18:16:06 2022,600,The main experiment item,yes,Lab 2.1 FlankerTask.osexp,C:\Users\Melissa\OneDrive\Desktop\ADVANCED QUANT,no,mono,no,18,no,white,no,no,768,legacy,27,79,C:/Users/Melissa/OneDrive/Desktop/ADVANCED QUANT/MM-subject-1.csv,legacy,Lentiform Loewenfeld,3.3.12,0,s,NA,s,s,NA,s,466,NA,1045,1764,NA,466,2,legacy,1024,2,48000,-16,experiment,SSSSS,1,odd,2995,137596,NA,53305,175096,NA,185177,184041,1949,135831,NA,185282,185750,185175,1946,185281,Flanker Task,106,48201,108,yes,1024
98.16513761,98.16513761,447.1743119,447.1743119,black,legacy,legacy,legacy,0,Incongruent,uniform,1,undefined,1,h,0,0,0,108,108,0,108,108,0,0,0,108,108,108,0,108,Tue Sep 13 18:16:06 2022,600,The main experiment item,yes,Lab 2.1 FlankerTask.osexp,C:\Users\Melissa\OneDrive\Desktop\ADVANCED QUANT,no,mono,no,18,no,white,no,no,768,legacy,28,79,C:/Users/Melissa/OneDrive/Desktop/ADVANCED QUANT/MM-subject-1.csv,legacy,Lentiform Loewenfeld,3.3.12,0,h,NA,s,s,NA,h,541,NA,1045,1764,NA,541,2,legacy,1024,2,48000,-16,experiment,SSHSS,1,odd,2995,137596,NA,53305,175096,NA,186862,185764,1949,135831,NA,186968,187510,186860,1946,186967,Flanker Task,107,48742,109,yes,1024
98.18181818,98.18181818,447.1727273,447.1727273,black,legacy,legacy,legacy,0,Incongruent,uniform,1,undefined,1,s,0,0,0,109,109,0,109,109,0,0,0,109,109,109,0,109,Tue Sep 13 18:16:06 2022,600,The main experiment item,yes,Lab 2.1 FlankerTask.osexp,C:\Users\Melissa\OneDrive\Desktop\ADVANCED QUANT,no,mono,no,18,no,white,no,no,768,legacy,29,79,C:/Users/Melissa/OneDrive/Desktop/ADVANCED QUANT/MM-subject-1.csv,legacy,Lentiform Loewenfeld,3.3.12,0,s,NA,s,s,NA,s,447,NA,1045,1764,NA,447,2,legacy,1024,2,48000,-16,experiment,HHSHH,1,odd,2995,137596,NA,53305,175096,NA,188627,187525,1949,135831,NA,188732,189180,188625,1946,188732,Flanker Task,108,49189,110,yes,1024
98.1981982,98.1981982,446.7117117,446.7117117,black,legacy,legacy,legacy,0,Congruent,uniform,1,undefined,1,h,0,0,0,110,110,0,110,110,0,0,0,110,110,110,0,110,Tue Sep 13 18:16:06 2022,600,The main experiment item,yes,Lab 2.1 FlankerTask.osexp,C:\Users\Melissa\OneDrive\Desktop\ADVANCED QUANT,no,mono,no,18,no,white,no,no,768,legacy,30,79,C:/Users/Melissa/OneDrive/Desktop/ADVANCED QUANT/MM-subject-1.csv,legacy,Lentiform Loewenfeld,3.3.12,0,h,NA,s,s,NA,h,396,NA,1045,1764,NA,396,2,legacy,1024,2,48000,-16,experiment,HHHHH,1,odd,2995,137596,NA,53305,175096,NA,190337,189199,1949,135831,NA,190443,190840,190336,1946,190442,Flanker Task,109,49585,111,yes,1024
98.21428571,98.21428571,446.2142857,446.2142857,black,legacy,legacy,legacy,0,Congruent,uniform,1,undefined,1,s,0,0,0,111,111,0,111,111,0,0,0,111,111,111,0,111,Tue Sep 13 18:16:06 2022,600,The main experiment item,yes,Lab 2.1 FlankerTask.osexp,C:\Users\Melissa\OneDrive\Desktop\ADVANCED QUANT,no,mono,no,18,no,white,no,no,768,legacy,31,79,C:/Users/Melissa/OneDrive/Desktop/ADVANCED QUANT/MM-subject-1.csv,legacy,Lentiform Loewenfeld,3.3.12,0,s,NA,s,s,NA,s,391,NA,1045,1764,NA,391,2,legacy,1024,2,48000,-16,experiment,SSSSS,1,odd,2995,137596,NA,53305,175096,NA,191934,190855,1949,135831,NA,192039,192431,191931,1946,192039,Flanker Task,110,49976,112,yes,1024
98.2300885,98.2300885,446.4690265,446.4690265,black,legacy,legacy,legacy,0,Congruent,uniform,1,undefined,1,h,0,0,0,112,112,0,112,112,0,0,0,112,112,112,0,112,Tue Sep 13 18:16:06 2022,600,The main experiment item,yes,Lab 2.1 FlankerTask.osexp,C:\Users\Melissa\OneDrive\Desktop\ADVANCED QUANT,no,mono,no,18,no,white,no,no,768,legacy,32,79,C:/Users/Melissa/OneDrive/Desktop/ADVANCED QUANT/MM-subject-1.csv,legacy,Lentiform Loewenfeld,3.3.12,0,h,NA,s,s,NA,h,475,NA,1045,1764,NA,475,2,legacy,1024,2,48000,-16,experiment,HHHHH,1,odd,2995,137596,NA,53305,175096,NA,193530,192446,1949,135831,NA,193635,194110,193528,1946,193635,Flanker Task,111,50451,113,yes,1024
98.24561404,98.24561404,446.7719298,446.7719298,black,legacy,legacy,legacy,0,Congruent,uniform,1,undefined,1,h,0,0,0,113,113,0,113,113,0,0,0,113,113,113,0,113,Tue Sep 13 18:16:06 2022,600,The main experiment item,yes,Lab 2.1 FlankerTask.osexp,C:\Users\Melissa\OneDrive\Desktop\ADVANCED QUANT,no,mono,no,18,no,white,no,no,768,legacy,33,79,C:/Users/Melissa/OneDrive/Desktop/ADVANCED QUANT/MM-subject-1.csv,legacy,Lentiform Loewenfeld,3.3.12,0,h,NA,s,s,NA,h,481,NA,1045,1764,NA,481,2,legacy,1024,2,48000,-16,experiment,HHHHH,1,odd,2995,137596,NA,53305,175096,NA,195219,194124,1949,135831,NA,195324,195806,195217,1946,195324,Flanker Task,112,50932,114,yes,1024
98.26086957,98.26086957,446.9913043,446.9913043,black,legacy,legacy,legacy,0,Congruent,uniform,1,undefined,1,h,0,0,0,114,114,0,114,114,0,0,0,114,114,114,0,114,Tue Sep 13 18:16:06 2022,600,The main experiment item,yes,Lab 2.1 FlankerTask.osexp,C:\Users\Melissa\OneDrive\Desktop\ADVANCED QUANT,no,mono,no,18,no,white,no,no,768,legacy,34,79,C:/Users/Melissa/OneDrive/Desktop/ADVANCED QUANT/MM-subject-1.csv,legacy,Lentiform Loewenfeld,3.3.12,0,h,NA,s,s,NA,h,472,NA,1045,1764,NA,472,2,legacy,1024,2,48000,-16,experiment,HHHHH,1,odd,2995,137596,NA,53305,175096,NA,196901,195823,1949,135831,NA,197006,197480,196899,1946,197005,Flanker Task,113,51404,115,yes,1024
98.27586207,98.27586207,447.1724138,447.1724138,black,legacy,legacy,legacy,0,Incongruent,uniform,1,undefined,1,s,0,0,0,115,115,0,115,115,0,0,0,115,115,115,0,115,Tue Sep 13 18:16:06 2022,600,The main experiment item,yes,Lab 2.1 FlankerTask.osexp,C:\Users\Melissa\OneDrive\Desktop\ADVANCED QUANT,no,mono,no,18,no,white,no,no,768,legacy,35,79,C:/Users/Melissa/OneDrive/Desktop/ADVANCED QUANT/MM-subject-1.csv,legacy,Lentiform Loewenfeld,3.3.12,0,s,NA,s,s,NA,s,468,NA,1045,1764,NA,468,2,legacy,1024,2,48000,-16,experiment,HHSHH,1,odd,2995,137596,NA,53305,175096,NA,198580,197495,1949,135831,NA,198686,199155,198578,1946,198686,Flanker Task,114,51872,116,yes,1024
98.29059829,98.29059829,446.8034188,446.8034188,black,legacy,legacy,legacy,0,Congruent,uniform,1,undefined,1,s,0,0,0,116,116,0,116,116,0,0,0,116,116,116,0,116,Tue Sep 13 18:16:06 2022,600,The main experiment item,yes,Lab 2.1 FlankerTask.osexp,C:\Users\Melissa\OneDrive\Desktop\ADVANCED QUANT,no,mono,no,18,no,white,no,no,768,legacy,36,79,C:/Users/Melissa/OneDrive/Desktop/ADVANCED QUANT/MM-subject-1.csv,legacy,Lentiform Loewenfeld,3.3.12,0,s,NA,s,s,NA,s,404,NA,1045,1764,NA,404,2,legacy,1024,2,48000,-16,experiment,SSSSS,1,odd,2995,137596,NA,53305,175096,NA,200273,199167,1949,135831,NA,200378,200784,200271,1946,200378,Flanker Task,115,52276,117,yes,1024
98.30508475,98.30508475,446.3474576,446.3474576,black,legacy,legacy,legacy,0,Incongruent,uniform,1,undefined,1,s,0,0,0,117,117,0,117,117,0,0,0,117,117,117,0,117,Tue Sep 13 18:16:06 2022,600,The main experiment item,yes,Lab 2.1 FlankerTask.osexp,C:\Users\Melissa\OneDrive\Desktop\ADVANCED QUANT,no,mono,no,18,no,white,no,no,768,legacy,37,79,C:/Users/Melissa/OneDrive/Desktop/ADVANCED QUANT/MM-subject-1.csv,legacy,Lentiform Loewenfeld,3.3.12,0,s,NA,s,s,NA,s,393,NA,1045,1764,NA,393,2,legacy,1024,2,48000,-16,experiment,HHSHH,1,odd,2995,137596,NA,53305,175096,NA,201893,200797,1949,135831,NA,201998,202391,201891,1946,201997,Flanker Task,116,52669,118,yes,1024
98.31932773,98.31932773,446.0756303,446.0756303,black,legacy,legacy,legacy,0,Congruent,uniform,1,undefined,1,h,0,0,0,118,118,0,118,118,0,0,0,118,118,118,0,118,Tue Sep 13 18:16:06 2022,600,The main experiment item,yes,Lab 2.1 FlankerTask.osexp,C:\Users\Melissa\OneDrive\Desktop\ADVANCED QUANT,no,mono,no,18,no,white,no,no,768,legacy,38,79,C:/Users/Melissa/OneDrive/Desktop/ADVANCED QUANT/MM-subject-1.csv,legacy,Lentiform Loewenfeld,3.3.12,0,h,NA,s,s,NA,h,414,NA,1045,1764,NA,414,2,legacy,1024,2,48000,-16,experiment,HHHHH,1,odd,2995,137596,NA,53305,175096,NA,203485,202394,1949,135831,NA,203590,204005,203482,1946,203590,Flanker Task,117,53083,119,yes,1024
98.33333333,98.33333333,445.3916667,445.3916667,black,legacy,legacy,legacy,0,Congruent,uniform,1,undefined,1,h,0,0,0,119,119,0,119,119,0,0,0,119,119,119,0,119,Tue Sep 13 18:16:06 2022,600,The main experiment item,yes,Lab 2.1 FlankerTask.osexp,C:\Users\Melissa\OneDrive\Desktop\ADVANCED QUANT,no,mono,no,18,no,white,no,no,768,legacy,39,79,C:/Users/Melissa/OneDrive/Desktop/ADVANCED QUANT/MM-subject-1.csv,legacy,Lentiform Loewenfeld,3.3.12,0,h,NA,s,s,NA,h,364,NA,1045,1764,NA,364,2,legacy,1024,2,48000,-16,experiment,HHHHH,1,odd,2995,137596,NA,53305,175096,NA,205114,204021,1949,135831,NA,205219,205585,205112,1946,205218,Flanker Task,118,53447,120,yes,1024
98.34710744,98.34710744,444.6363636,444.6363636,black,legacy,legacy,legacy,0,Congruent,uniform,1,undefined,1,h,0,0,0,120,120,0,120,120,0,0,0,120,120,120,0,120,Tue Sep 13 18:16:06 2022,600,The main experiment item,yes,Lab 2.1 FlankerTask.osexp,C:\Users\Melissa\OneDrive\Desktop\ADVANCED QUANT,no,mono,no,18,no,white,no,no,768,legacy,40,79,C:/Users/Melissa/OneDrive/Desktop/ADVANCED QUANT/MM-subject-1.csv,legacy,Lentiform Loewenfeld,3.3.12,0,h,NA,s,s,NA,h,354,NA,1045,1764,NA,354,2,legacy,1024,2,48000,-16,experiment,HHHHH,1,odd,2995,137596,NA,53305,175096,NA,206698,205600,1949,135831,NA,206810,207165,206697,1946,206810,Flanker Task,119,53801,121,yes,1024
98.36065574,98.36065574,443.9918033,443.9918033,black,legacy,legacy,legacy,0,Congruent,uniform,1,undefined,1,h,0,0,0,121,121,0,121,121,0,0,0,121,121,121,0,121,Tue Sep 13 18:16:06 2022,600,The main experiment item,yes,Lab 2.1 FlankerTask.osexp,C:\Users\Melissa\OneDrive\Desktop\ADVANCED QUANT,no,mono,no,18,no,white,no,no,768,legacy,41,79,C:/Users/Melissa/OneDrive/Desktop/ADVANCED QUANT/MM-subject-1.csv,legacy,Lentiform Loewenfeld,3.3.12,0,h,NA,s,s,NA,h,366,NA,1045,1764,NA,366,2,legacy,1024,2,48000,-16,experiment,HHHHH,1,odd,2995,137596,NA,53305,175096,NA,208270,207180,1949,135831,NA,208376,208743,208268,1946,208376,Flanker Task,120,54167,122,yes,1024
98.37398374,98.37398374,443.1463415,443.1463415,black,legacy,legacy,legacy,0,Incongruent,uniform,1,undefined,1,h,0,0,0,122,122,0,122,122,0,0,0,122,122,122,0,122,Tue Sep 13 18:16:06 2022,600,The main experiment item,yes,Lab 2.1 FlankerTask.osexp,C:\Users\Melissa\OneDrive\Desktop\ADVANCED QUANT,no,mono,no,18,no,white,no,no,768,legacy,42,79,C:/Users/Melissa/OneDrive/Desktop/ADVANCED QUANT/MM-subject-1.csv,legacy,Lentiform Loewenfeld,3.3.12,0,h,NA,s,s,NA,h,340,NA,1045,1764,NA,340,2,legacy,1024,2,48000,-16,experiment,SSHSS,1,odd,2995,137596,NA,53305,175096,NA,209859,208761,1949,135831,NA,209962,210303,209857,1946,209961,Flanker Task,121,54507,123,yes,1024
97.58064516,97.58064516,442.3306452,442.3306452,black,legacy,legacy,legacy,0,Incongruent,uniform,0,undefined,0,s,0,0,0,123,123,0,123,123,0,0,0,123,123,123,0,123,Tue Sep 13 18:16:06 2022,600,The main experiment item,yes,Lab 2.1 FlankerTask.osexp,C:\Users\Melissa\OneDrive\Desktop\ADVANCED QUANT,no,mono,no,18,no,white,no,no,768,legacy,43,79,C:/Users/Melissa/OneDrive/Desktop/ADVANCED QUANT/MM-subject-1.csv,legacy,Lentiform Loewenfeld,3.3.12,0,h,NA,s,s,NA,h,342,NA,1045,1764,NA,342,2,legacy,1024,2,48000,-16,experiment,HHSHH,1,odd,2995,137596,NA,53305,175096,NA,211412,210318,1949,135831,NA,211515,211858,211410,1946,211515,Flanker Task,121,54849,124,yes,1024
97.6,97.6,441.392,441.392,black,legacy,legacy,legacy,0,Incongruent,uniform,1,undefined,1,s,0,0,0,124,124,0,124,124,0,0,0,124,124,124,0,124,Tue Sep 13 18:16:06 2022,600,The main experiment item,yes,Lab 2.1 FlankerTask.osexp,C:\Users\Melissa\OneDrive\Desktop\ADVANCED QUANT,no,mono,no,18,no,white,no,no,768,legacy,44,79,C:/Users/Melissa/OneDrive/Desktop/ADVANCED QUANT/MM-subject-1.csv,legacy,Lentiform Loewenfeld,3.3.12,0,s,NA,s,s,NA,s,325,NA,1045,1764,NA,325,2,legacy,1024,2,48000,-16,experiment,HHSHH,1,odd,2995,137596,NA,211867,175096,NA,213463,212372,1949,135831,NA,213568,213894,213460,1946,213568,Flanker Task,122,55174,125,yes,1024
97.61904762,97.61904762,440.7460317,440.7460317,black,legacy,legacy,legacy,0,Congruent,uniform,1,undefined,1,s,0,0,0,125,125,0,125,125,0,0,0,125,125,125,0,125,Tue Sep 13 18:16:06 2022,600,The main experiment item,yes,Lab 2.1 FlankerTask.osexp,C:\Users\Melissa\OneDrive\Desktop\ADVANCED QUANT,no,mono,no,18,no,white,no,no,768,legacy,45,79,C:/Users/Melissa/OneDrive/Desktop/ADVANCED QUANT/MM-subject-1.csv,legacy,Lentiform Loewenfeld,3.3.12,0,s,NA,s,s,NA,s,360,NA,1045,1764,NA,360,2,legacy,1024,2,48000,-16,experiment,SSSSS,1,odd,2995,137596,NA,211867,175096,NA,215008,213909,1949,135831,NA,215111,215472,215006,1946,215110,Flanker Task,123,55534,126,yes,1024
97.63779528,97.63779528,440.0944882,440.0944882,black,legacy,legacy,legacy,0,Incongruent,uniform,1,undefined,1,s,0,0,0,126,126,0,126,126,0,0,0,126,126,126,0,126,Tue Sep 13 18:16:06 2022,600,The main experiment item,yes,Lab 2.1 FlankerTask.osexp,C:\Users\Melissa\OneDrive\Desktop\ADVANCED QUANT,no,mono,no,18,no,white,no,no,768,legacy,46,79,C:/Users/Melissa/OneDrive/Desktop/ADVANCED QUANT/MM-subject-1.csv,legacy,Lentiform Loewenfeld,3.3.12,0,s,NA,s,s,NA,s,358,NA,1045,1764,NA,358,2,legacy,1024,2,48000,-16,experiment,HHSHH,1,odd,2995,137596,NA,211867,175096,NA,216568,215488,1949,135831,NA,216673,217032,216566,1946,216673,Flanker Task,124,55892,127,yes,1024
97.65625,97.65625,440.2109375,440.2109375,black,legacy,legacy,legacy,0,Incongruent,uniform,1,undefined,1,s,0,0,0,127,127,0,127,127,0,0,0,127,127,127,0,127,Tue Sep 13 18:16:06 2022,600,The main experiment item,yes,Lab 2.1 FlankerTask.osexp,C:\Users\Melissa\OneDrive\Desktop\ADVANCED QUANT,no,mono,no,18,no,white,no,no,768,legacy,47,79,C:/Users/Melissa/OneDrive/Desktop/ADVANCED QUANT/MM-subject-1.csv,legacy,Lentiform Loewenfeld,3.3.12,0,s,NA,s,s,NA,s,455,NA,1045,1764,NA,455,2,legacy,1024,2,48000,-16,experiment,HHSHH,1,odd,2995,137596,NA,211867,175096,NA,218124,217045,1949,135831,NA,218226,218682,218122,1946,218226,Flanker Task,125,56347,128,yes,1024
97.6744186,97.6744186,444.6976744,444.6976744,black,legacy,legacy,legacy,0,Incongruent,uniform,1,undefined,1,h,0,0,0,128,128,0,128,128,0,0,0,128,128,128,0,128,Tue Sep 13 18:16:06 2022,600,The main experiment item,yes,Lab 2.1 FlankerTask.osexp,C:\Users\Melissa\OneDrive\Desktop\ADVANCED QUANT,no,mono,no,18,no,white,no,no,768,legacy,48,79,C:/Users/Melissa/OneDrive/Desktop/ADVANCED QUANT/MM-subject-1.csv,legacy,Lentiform Loewenfeld,3.3.12,0,h,NA,s,s,NA,h,1019,NA,1045,1764,NA,1019,2,legacy,1024,2,48000,-16,experiment,SSHSS,1,odd,2995,137596,NA,211867,175096,NA,219774,218685,1949,135831,NA,219879,220900,219772,1946,219878,Flanker Task,126,57366,129,yes,1024
97.69230769,97.69230769,445.1615385,445.1615385,black,legacy,legacy,legacy,0,Congruent,uniform,1,undefined,1,h,0,0,0,129,129,0,129,129,0,0,0,129,129,129,0,129,Tue Sep 13 18:16:06 2022,600,The main experiment item,yes,Lab 2.1 FlankerTask.osexp,C:\Users\Melissa\OneDrive\Desktop\ADVANCED QUANT,no,mono,no,18,no,white,no,no,768,legacy,49,79,C:/Users/Melissa/OneDrive/Desktop/ADVANCED QUANT/MM-subject-1.csv,legacy,Lentiform Loewenfeld,3.3.12,0,h,NA,s,s,NA,h,505,NA,1045,1764,NA,505,2,legacy,1024,2,48000,-16,experiment,HHHHH,1,odd,2995,137596,NA,211867,220915,NA,222520,221419,1949,135831,NA,222625,223132,222518,1946,222624,Flanker Task,127,57871,130,yes,1024
97.70992366,97.70992366,444.7862595,444.7862595,black,legacy,legacy,legacy,0,Congruent,uniform,1,undefined,1,s,0,0,0,130,130,0,130,130,0,0,0,130,130,130,0,130,Tue Sep 13 18:16:06 2022,600,The main experiment item,yes,Lab 2.1 FlankerTask.osexp,C:\Users\Melissa\OneDrive\Desktop\ADVANCED QUANT,no,mono,no,18,no,white,no,no,768,legacy,50,79,C:/Users/Melissa/OneDrive/Desktop/ADVANCED QUANT/MM-subject-1.csv,legacy,Lentiform Loewenfeld,3.3.12,0,s,NA,s,s,NA,s,396,NA,1045,1764,NA,396,2,legacy,1024,2,48000,-16,experiment,SSSSS,1,odd,2995,137596,NA,211867,220915,NA,224229,223147,1949,135831,NA,224335,224732,224227,1946,224335,Flanker Task,128,58267,131,yes,1024
97.72727273,97.72727273,444.1439394,444.1439394,black,legacy,legacy,legacy,0,Congruent,uniform,1,undefined,1,s,0,0,0,131,131,0,131,131,0,0,0,131,131,131,0,131,Tue Sep 13 18:16:06 2022,600,The main experiment item,yes,Lab 2.1 FlankerTask.osexp,C:\Users\Melissa\OneDrive\Desktop\ADVANCED QUANT,no,mono,no,18,no,white,no,no,768,legacy,51,79,C:/Users/Melissa/OneDrive/Desktop/ADVANCED QUANT/MM-subject-1.csv,legacy,Lentiform Loewenfeld,3.3.12,0,s,NA,s,s,NA,s,360,NA,1045,1764,NA,360,2,legacy,1024,2,48000,-16,experiment,SSSSS,1,odd,2995,137596,NA,211867,220915,NA,225841,224748,1949,135831,NA,225946,226307,225838,1946,225946,Flanker Task,129,58627,132,yes,1024
97.7443609,97.7443609,443.7593985,443.7593985,black,legacy,legacy,legacy,0,Incongruent,uniform,1,undefined,1,s,0,0,0,132,132,0,132,132,0,0,0,132,132,132,0,132,Tue Sep 13 18:16:06 2022,600,The main experiment item,yes,Lab 2.1 FlankerTask.osexp,C:\Users\Melissa\OneDrive\Desktop\ADVANCED QUANT,no,mono,no,18,no,white,no,no,768,legacy,52,79,C:/Users/Melissa/OneDrive/Desktop/ADVANCED QUANT/MM-subject-1.csv,legacy,Lentiform Loewenfeld,3.3.12,0,s,NA,s,s,NA,s,393,NA,1045,1764,NA,393,2,legacy,1024,2,48000,-16,experiment,HHSHH,1,odd,2995,137596,NA,211867,220915,NA,227410,226321,1949,135831,NA,227513,227907,227408,1946,227513,Flanker Task,130,59020,133,yes,1024
97.76119403,97.76119403,444.0074627,444.0074627,black,legacy,legacy,legacy,0,Congruent,uniform,1,undefined,1,h,0,0,0,133,133,0,133,133,0,0,0,133,133,133,0,133,Tue Sep 13 18:16:06 2022,600,The main experiment item,yes,Lab 2.1 FlankerTask.osexp,C:\Users\Melissa\OneDrive\Desktop\ADVANCED QUANT,no,mono,no,18,no,white,no,no,768,legacy,53,79,C:/Users/Melissa/OneDrive/Desktop/ADVANCED QUANT/MM-subject-1.csv,legacy,Lentiform Loewenfeld,3.3.12,0,h,NA,s,s,NA,h,477,NA,1045,1764,NA,477,2,legacy,1024,2,48000,-16,experiment,HHHHH,1,odd,2995,137596,NA,211867,220915,NA,229033,227920,1949,135831,NA,229138,229616,229031,1946,229138,Flanker Task,131,59497,134,yes,1024
97.77777778,97.77777778,444.1185185,444.1185185,black,legacy,legacy,legacy,0,Incongruent,uniform,1,undefined,1,s,0,0,0,134,134,0,134,134,0,0,0,134,134,134,0,134,Tue Sep 13 18:16:06 2022,600,The main experiment item,yes,Lab 2.1 FlankerTask.osexp,C:\Users\Melissa\OneDrive\Desktop\ADVANCED QUANT,no,mono,no,18,no,white,no,no,768,legacy,54,79,C:/Users/Melissa/OneDrive/Desktop/ADVANCED QUANT/MM-subject-1.csv,legacy,Lentiform Loewenfeld,3.3.12,0,s,NA,s,s,NA,s,459,NA,1045,1764,NA,459,2,legacy,1024,2,48000,-16,experiment,HHSHH,1,odd,2995,137596,NA,211867,220915,NA,230700,229619,1949,135831,NA,230805,231265,230698,1946,230805,Flanker Task,132,59956,135,yes,1024
97.79411765,97.79411765,444.3382353,444.3382353,black,legacy,legacy,legacy,0,Congruent,uniform,1,undefined,1,h,0,0,0,135,135,0,135,135,0,0,0,135,135,135,0,135,Tue Sep 13 18:16:06 2022,600,The main experiment item,yes,Lab 2.1 FlankerTask.osexp,C:\Users\Melissa\OneDrive\Desktop\ADVANCED QUANT,no,mono,no,18,no,white,no,no,768,legacy,55,79,C:/Users/Melissa/OneDrive/Desktop/ADVANCED QUANT/MM-subject-1.csv,legacy,Lentiform Loewenfeld,3.3.12,0,h,NA,s,s,NA,h,474,NA,1045,1764,NA,474,2,legacy,1024,2,48000,-16,experiment,HHHHH,1,odd,2995,137596,NA,211867,220915,NA,232386,231280,1949,135831,NA,232488,232963,232384,1946,232488,Flanker Task,133,60430,136,yes,1024
97.81021898,97.81021898,444.9562044,444.9562044,black,legacy,legacy,legacy,0,Incongruent,uniform,1,undefined,1,h,0,0,0,136,136,0,136,136,0,0,0,136,136,136,0,136,Tue Sep 13 18:16:06 2022,600,The main experiment item,yes,Lab 2.1 FlankerTask.osexp,C:\Users\Melissa\OneDrive\Desktop\ADVANCED QUANT,no,mono,no,18,no,white,no,no,768,legacy,56,79,C:/Users/Melissa/OneDrive/Desktop/ADVANCED QUANT/MM-subject-1.csv,legacy,Lentiform Loewenfeld,3.3.12,0,h,NA,s,s,NA,h,529,NA,1045,1764,NA,529,2,legacy,1024,2,48000,-16,experiment,SSHSS,1,odd,2995,137596,NA,211867,220915,NA,234080,232983,1949,135831,NA,234185,234715,234078,1946,234185,Flanker Task,134,60959,137,yes,1024
97.82608696,97.82608696,445.0942029,445.0942029,black,legacy,legacy,legacy,0,Congruent,uniform,1,undefined,1,h,0,0,0,137,137,0,137,137,0,0,0,137,137,137,0,137,Tue Sep 13 18:16:06 2022,600,The main experiment item,yes,Lab 2.1 FlankerTask.osexp,C:\Users\Melissa\OneDrive\Desktop\ADVANCED QUANT,no,mono,no,18,no,white,no,no,768,legacy,57,79,C:/Users/Melissa/OneDrive/Desktop/ADVANCED QUANT/MM-subject-1.csv,legacy,Lentiform Loewenfeld,3.3.12,0,h,NA,s,s,NA,h,464,NA,1045,1764,NA,464,2,legacy,1024,2,48000,-16,experiment,HHHHH,1,odd,2995,137596,NA,211867,220915,NA,235833,234734,1949,135831,NA,235938,236404,235831,1946,235937,Flanker Task,135,61423,138,yes,1024
97.12230216,97.12230216,445.2446043,445.2446043,black,legacy,legacy,legacy,0,Congruent,uniform,0,undefined,0,s,0,0,0,138,138,0,138,138,0,0,0,138,138,138,0,138,Tue Sep 13 18:16:06 2022,600,The main experiment item,yes,Lab 2.1 FlankerTask.osexp,C:\Users\Melissa\OneDrive\Desktop\ADVANCED QUANT,no,mono,no,18,no,white,no,no,768,legacy,58,79,C:/Users/Melissa/OneDrive/Desktop/ADVANCED QUANT/MM-subject-1.csv,legacy,Lentiform Loewenfeld,3.3.12,0,h,NA,s,s,NA,h,466,NA,1045,1764,NA,466,2,legacy,1024,2,48000,-16,experiment,SSSSS,1,odd,2995,137596,NA,211867,220915,NA,237506,236407,1949,135831,NA,237611,238078,237504,1946,237611,Flanker Task,135,61889,139,yes,1024
97.14285714,97.14285714,445.4,445.4,black,legacy,legacy,legacy,0,Congruent,uniform,1,undefined,1,s,0,0,0,139,139,0,139,139,0,0,0,139,139,139,0,139,Tue Sep 13 18:16:06 2022,600,The main experiment item,yes,Lab 2.1 FlankerTask.osexp,C:\Users\Melissa\OneDrive\Desktop\ADVANCED QUANT,no,mono,no,18,no,white,no,no,768,legacy,59,79,C:/Users/Melissa/OneDrive/Desktop/ADVANCED QUANT/MM-subject-1.csv,legacy,Lentiform Loewenfeld,3.3.12,0,s,NA,s,s,NA,s,467,NA,1045,1764,NA,467,2,legacy,1024,2,48000,-16,experiment,SSSSS,1,odd,2995,137596,NA,238081,220915,NA,239685,238586,1949,135831,NA,239788,240256,239683,1946,239788,Flanker Task,136,62356,140,yes,1024
97.16312057,97.16312057,446.4042553,446.4042553,black,legacy,legacy,legacy,0,Incongruent,uniform,1,undefined,1,h,0,0,0,140,140,0,140,140,0,0,0,140,140,140,0,140,Tue Sep 13 18:16:06 2022,600,The main experiment item,yes,Lab 2.1 FlankerTask.osexp,C:\Users\Melissa\OneDrive\Desktop\ADVANCED QUANT,no,mono,no,18,no,white,no,no,768,legacy,60,79,C:/Users/Melissa/OneDrive/Desktop/ADVANCED QUANT/MM-subject-1.csv,legacy,Lentiform Loewenfeld,3.3.12,0,h,NA,s,s,NA,h,587,NA,1045,1764,NA,587,2,legacy,1024,2,48000,-16,experiment,SSHSS,1,odd,2995,137596,NA,238081,220915,NA,241357,240271,1949,135831,NA,241460,242047,241355,1946,241459,Flanker Task,137,62943,141,yes,1024
97.18309859,97.18309859,446.0140845,446.0140845,black,legacy,legacy,legacy,0,Congruent,uniform,1,undefined,1,s,0,0,0,141,141,0,141,141,0,0,0,141,141,141,0,141,Tue Sep 13 18:16:06 2022,600,The main experiment item,yes,Lab 2.1 FlankerTask.osexp,C:\Users\Melissa\OneDrive\Desktop\ADVANCED QUANT,no,mono,no,18,no,white,no,no,768,legacy,61,79,C:/Users/Melissa/OneDrive/Desktop/ADVANCED QUANT/MM-subject-1.csv,legacy,Lentiform Loewenfeld,3.3.12,0,s,NA,s,s,NA,s,391,NA,1045,1764,NA,391,2,legacy,1024,2,48000,-16,experiment,SSSSS,1,odd,2995,137596,NA,238081,220915,NA,243163,242062,1949,135831,NA,243269,243661,243161,1946,243268,Flanker Task,138,63334,142,yes,1024
97.2027972,97.2027972,447.4965035,447.4965035,black,legacy,legacy,legacy,0,Incongruent,uniform,1,undefined,1,h,0,0,0,142,142,0,142,142,0,0,0,142,142,142,0,142,Tue Sep 13 18:16:06 2022,600,The main experiment item,yes,Lab 2.1 FlankerTask.osexp,C:\Users\Melissa\OneDrive\Desktop\ADVANCED QUANT,no,mono,no,18,no,white,no,no,768,legacy,62,79,C:/Users/Melissa/OneDrive/Desktop/ADVANCED QUANT/MM-subject-1.csv,legacy,Lentiform Loewenfeld,3.3.12,0,h,NA,s,s,NA,h,658,NA,1045,1764,NA,658,2,legacy,1024,2,48000,-16,experiment,SSHSS,1,odd,2995,137596,NA,238081,220915,NA,244779,243676,1949,135831,NA,244880,245539,244777,1946,244880,Flanker Task,139,63992,143,yes,1024
97.22222222,97.22222222,447.6111111,447.6111111,black,legacy,legacy,legacy,0,Incongruent,uniform,1,undefined,1,h,0,0,0,143,143,0,143,143,0,0,0,143,143,143,0,143,Tue Sep 13 18:16:06 2022,600,The main experiment item,yes,Lab 2.1 FlankerTask.osexp,C:\Users\Melissa\OneDrive\Desktop\ADVANCED QUANT,no,mono,no,18,no,white,no,no,768,legacy,63,79,C:/Users/Melissa/OneDrive/Desktop/ADVANCED QUANT/MM-subject-1.csv,legacy,Lentiform Loewenfeld,3.3.12,0,h,NA,s,s,NA,h,464,NA,1045,1764,NA,464,2,legacy,1024,2,48000,-16,experiment,SSHSS,1,odd,2995,137596,NA,238081,245553,NA,247204,246069,1949,135831,NA,247307,247772,247202,1946,247307,Flanker Task,140,64456,144,yes,1024
97.24137931,97.24137931,447.9172414,447.9172414,black,legacy,legacy,legacy,0,Congruent,uniform,1,undefined,1,h,0,0,0,144,144,0,144,144,0,0,0,144,144,144,0,144,Tue Sep 13 18:16:06 2022,600,The main experiment item,yes,Lab 2.1 FlankerTask.osexp,C:\Users\Melissa\OneDrive\Desktop\ADVANCED QUANT,no,mono,no,18,no,white,no,no,768,legacy,64,79,C:/Users/Melissa/OneDrive/Desktop/ADVANCED QUANT/MM-subject-1.csv,legacy,Lentiform Loewenfeld,3.3.12,0,h,NA,s,s,NA,h,492,NA,1045,1764,NA,492,2,legacy,1024,2,48000,-16,experiment,HHHHH,1,odd,2995,137596,NA,238081,245553,NA,248882,247787,1949,135831,NA,248987,249480,248880,1946,248987,Flanker Task,141,64948,145,yes,1024
97.26027397,97.26027397,447.239726,447.239726,black,legacy,legacy,legacy,0,Congruent,uniform,1,undefined,1,h,0,0,0,145,145,0,145,145,0,0,0,145,145,145,0,145,Tue Sep 13 18:16:06 2022,600,The main experiment item,yes,Lab 2.1 FlankerTask.osexp,C:\Users\Melissa\OneDrive\Desktop\ADVANCED QUANT,no,mono,no,18,no,white,no,no,768,legacy,65,79,C:/Users/Melissa/OneDrive/Desktop/ADVANCED QUANT/MM-subject-1.csv,legacy,Lentiform Loewenfeld,3.3.12,0,h,NA,s,s,NA,h,349,NA,1045,1764,NA,349,2,legacy,1024,2,48000,-16,experiment,HHHHH,1,odd,2995,137596,NA,238081,245553,NA,250599,249494,1949,135831,NA,250704,251054,250597,1946,250703,Flanker Task,142,65297,146,yes,1024
97.27891156,97.27891156,446.5034014,446.5034014,black,legacy,legacy,legacy,0,Congruent,uniform,1,undefined,1,s,0,0,0,146,146,0,146,146,0,0,0,146,146,146,0,146,Tue Sep 13 18:16:06 2022,600,The main experiment item,yes,Lab 2.1 FlankerTask.osexp,C:\Users\Melissa\OneDrive\Desktop\ADVANCED QUANT,no,mono,no,18,no,white,no,no,768,legacy,66,79,C:/Users/Melissa/OneDrive/Desktop/ADVANCED QUANT/MM-subject-1.csv,legacy,Lentiform Loewenfeld,3.3.12,0,s,NA,s,s,NA,s,339,NA,1045,1764,NA,339,2,legacy,1024,2,48000,-16,experiment,SSSSS,1,odd,2995,137596,NA,238081,245553,NA,252148,251067,1949,135831,NA,252250,252590,252147,1946,252250,Flanker Task,143,65636,147,yes,1024
97.2972973,97.2972973,446.3918919,446.3918919,black,legacy,legacy,legacy,0,Incongruent,uniform,1,undefined,1,s,0,0,0,147,147,0,147,147,0,0,0,147,147,147,0,147,Tue Sep 13 18:16:06 2022,600,The main experiment item,yes,Lab 2.1 FlankerTask.osexp,C:\Users\Melissa\OneDrive\Desktop\ADVANCED QUANT,no,mono,no,18,no,white,no,no,768,legacy,67,79,C:/Users/Melissa/OneDrive/Desktop/ADVANCED QUANT/MM-subject-1.csv,legacy,Lentiform Loewenfeld,3.3.12,0,s,NA,s,s,NA,s,430,NA,1045,1764,NA,430,2,legacy,1024,2,48000,-16,experiment,HHSHH,1,odd,2995,137596,NA,238081,245553,NA,253720,252606,1949,135831,NA,253825,254256,253719,1946,253825,Flanker Task,144,66066,148,yes,1024
97.31543624,97.31543624,446.4832215,446.4832215,black,legacy,legacy,legacy,0,Incongruent,uniform,1,undefined,1,h,0,0,0,148,148,0,148,148,0,0,0,148,148,148,0,148,Tue Sep 13 18:16:06 2022,600,The main experiment item,yes,Lab 2.1 FlankerTask.osexp,C:\Users\Melissa\OneDrive\Desktop\ADVANCED QUANT,no,mono,no,18,no,white,no,no,768,legacy,68,79,C:/Users/Melissa/OneDrive/Desktop/ADVANCED QUANT/MM-subject-1.csv,legacy,Lentiform Loewenfeld,3.3.12,0,h,NA,s,s,NA,h,460,NA,1045,1764,NA,460,2,legacy,1024,2,48000,-16,experiment,SSHSS,1,odd,2995,137596,NA,238081,245553,NA,255367,254271,1949,135831,NA,255473,255934,255365,1946,255473,Flanker Task,145,66526,149,yes,1024
97.33333333,97.33333333,446.1933333,446.1933333,black,legacy,legacy,legacy,0,Incongruent,uniform,1,undefined,1,s,0,0,0,149,149,0,149,149,0,0,0,149,149,149,0,149,Tue Sep 13 18:16:06 2022,600,The main experiment item,yes,Lab 2.1 FlankerTask.osexp,C:\Users\Melissa\OneDrive\Desktop\ADVANCED QUANT,no,mono,no,18,no,white,no,no,768,legacy,69,79,C:/Users/Melissa/OneDrive/Desktop/ADVANCED QUANT/MM-subject-1.csv,legacy,Lentiform Loewenfeld,3.3.12,0,s,NA,s,s,NA,s,403,NA,1045,1764,NA,403,2,legacy,1024,2,48000,-16,experiment,HHSHH,1,odd,2995,137596,NA,238081,245553,NA,257027,255948,1949,135831,NA,257132,257536,257025,1946,257132,Flanker Task,146,66929,150,yes,1024
97.35099338,97.35099338,445.7284768,445.7284768,black,legacy,legacy,legacy,0,Incongruent,uniform,1,undefined,1,s,0,0,0,150,150,0,150,150,0,0,0,150,150,150,0,150,Tue Sep 13 18:16:06 2022,600,The main experiment item,yes,Lab 2.1 FlankerTask.osexp,C:\Users\Melissa\OneDrive\Desktop\ADVANCED QUANT,no,mono,no,18,no,white,no,no,768,legacy,70,79,C:/Users/Melissa/OneDrive/Desktop/ADVANCED QUANT/MM-subject-1.csv,legacy,Lentiform Loewenfeld,3.3.12,0,s,NA,s,s,NA,s,376,NA,1045,1764,NA,376,2,legacy,1024,2,48000,-16,experiment,HHSHH,1,odd,2995,137596,NA,238081,245553,NA,258635,257552,1949,135831,NA,258740,259118,258633,1946,258740,Flanker Task,147,67305,151,yes,1024
97.36842105,97.36842105,445.2960526,445.2960526,black,legacy,legacy,legacy,0,Incongruent,uniform,1,undefined,1,h,0,0,0,151,151,0,151,151,0,0,0,151,151,151,0,151,Tue Sep 13 18:16:06 2022,600,The main experiment item,yes,Lab 2.1 FlankerTask.osexp,C:\Users\Melissa\OneDrive\Desktop\ADVANCED QUANT,no,mono,no,18,no,white,no,no,768,legacy,71,79,C:/Users/Melissa/OneDrive/Desktop/ADVANCED QUANT/MM-subject-1.csv,legacy,Lentiform Loewenfeld,3.3.12,0,h,NA,s,s,NA,h,380,NA,1045,1764,NA,380,2,legacy,1024,2,48000,-16,experiment,SSHSS,1,odd,2995,137596,NA,238081,245553,NA,260226,259132,1949,135831,NA,260331,260712,260224,1946,260331,Flanker Task,148,67685,152,yes,1024
97.38562092,97.38562092,444.6732026,444.6732026,black,legacy,legacy,legacy,0,Congruent,uniform,1,undefined,1,s,0,0,0,152,152,0,152,152,0,0,0,152,152,152,0,152,Tue Sep 13 18:16:06 2022,600,The main experiment item,yes,Lab 2.1 FlankerTask.osexp,C:\Users\Melissa\OneDrive\Desktop\ADVANCED QUANT,no,mono,no,18,no,white,no,no,768,legacy,72,79,C:/Users/Melissa/OneDrive/Desktop/ADVANCED QUANT/MM-subject-1.csv,legacy,Lentiform Loewenfeld,3.3.12,0,s,NA,s,s,NA,s,350,NA,1045,1764,NA,350,2,legacy,1024,2,48000,-16,experiment,SSSSS,1,odd,2995,137596,NA,238081,245553,NA,261818,260727,1949,135831,NA,261923,262275,261816,1946,261922,Flanker Task,149,68035,153,yes,1024
97.4025974,97.4025974,444.5974026,444.5974026,black,legacy,legacy,legacy,0,Congruent,uniform,1,undefined,1,h,0,0,0,153,153,0,153,153,0,0,0,153,153,153,0,153,Tue Sep 13 18:16:06 2022,600,The main experiment item,yes,Lab 2.1 FlankerTask.osexp,C:\Users\Melissa\OneDrive\Desktop\ADVANCED QUANT,no,mono,no,18,no,white,no,no,768,legacy,73,79,C:/Users/Melissa/OneDrive/Desktop/ADVANCED QUANT/MM-subject-1.csv,legacy,Lentiform Loewenfeld,3.3.12,0,h,NA,s,s,NA,h,433,NA,1045,1764,NA,433,2,legacy,1024,2,48000,-16,experiment,HHHHH,1,odd,2995,137596,NA,238081,245553,NA,263381,262289,1949,135831,NA,263488,263922,263379,1946,263487,Flanker Task,150,68468,154,yes,1024
