condition,Stimulus,acc,accuracy,average_response_time,avg_rt,background,canvas_backend,clock_backend,color_backend,compensation,coordinates,correct,correct_Instruction1,correct_keyboard_response,correct_response,count_Block1,count_Block2,count_Block3,count_ErrorFeedback,count_Faster,count_Finish,count_Fixation,count_ISI,count_Instruction1,count_Instructions2,count_Instructions3,count_Sequence,count_Stimulus,count_experiment,count_keyboard_response,count_logger,datetime,deadline,description,disable_garbage_collection,experiment_file,experiment_path,font_bold,font_family,font_italic,font_size,font_underline,foreground,form_clicks,fullscreen,height,keyboard_backend,live_row,live_row_Block1,logfile,mouse_backend,opensesame_codename,opensesame_version,repeat_cycle,response,response_Finish,response_Instruction1,response_Instructions2,response_Instructions3,response_keyboard_response,response_time,response_time_Finish,response_time_Instruction1,response_time_Instructions2,response_time_Instructions3,response_time_keyboard_response,round_decimals,sampler_backend,sound_buf_size,sound_channels,sound_freq,sound_sample_size,start,subject_nr,subject_parity,time_Block1,time_Block2,time_Block3,time_ErrorFeedback,time_Faster,time_Finish,time_Fixation,time_ISI,time_Instruction1,time_Instructions2,time_Instructions3,time_Sequence,time_Stimulus,time_experiment,time_keyboard_response,time_logger,title,total_correct,total_response_time,total_responses,uniform_coordinates,width
Congruent,HHHHH,100,100,1072,1072,black,legacy,legacy,legacy,0,uniform,1,undefined,1,h,0,0,0,0,0,0,0,0,0,0,0,0,0,0,0,0,Sat Sep 25 14:56:57 2021,1500,The main experiment item,yes,KS - Flanker Task.osexp,/Users/kaylinsilva/Desktop/Life,no,mono,no,18,no,white,no,yes,768,legacy,0,0,/Users/kaylinsilva/Desktop/Life/KS-subject-2.csv,legacy,Lentiform Loewenfeld,3.3.9,0,h,NA,h,NA,NA,h,1072,NA,58791,NA,NA,1072,2,legacy,1024,2,48000,-16,experiment,2,even,63021,NA,NA,NA,NA,NA,63065,NA,4224,NA,NA,63060,63172,4219,63173,64249,KS - Flanker Task,1,1072,1,yes,1024
Congruent,HHHHH,100,100,905,905,black,legacy,legacy,legacy,0,uniform,1,undefined,1,h,0,0,0,1,1,0,1,1,0,0,0,1,1,0,1,1,Sat Sep 25 14:56:57 2021,1500,The main experiment item,yes,KS - Flanker Task.osexp,/Users/kaylinsilva/Desktop/Life,no,mono,no,18,no,white,no,yes,768,legacy,1,1,/Users/kaylinsilva/Desktop/Life/KS-subject-2.csv,legacy,Lentiform Loewenfeld,3.3.9,0,h,NA,h,NA,NA,h,738,NA,58791,NA,NA,738,2,legacy,1024,2,48000,-16,experiment,2,even,63021,NA,NA,NA,NA,NA,65350,64255,4224,NA,NA,65347,65457,4219,65457,66195,KS - Flanker Task,2,1810,2,yes,1024
Congruent,SSSSS,100,100,788,788,black,legacy,legacy,legacy,0,uniform,1,undefined,1,s,0,0,0,2,2,0,2,2,0,0,0,2,2,0,2,2,Sat Sep 25 14:56:57 2021,1500,The main experiment item,yes,KS - Flanker Task.osexp,/Users/kaylinsilva/Desktop/Life,no,mono,no,18,no,white,no,yes,768,legacy,2,2,/Users/kaylinsilva/Desktop/Life/KS-subject-2.csv,legacy,Lentiform Loewenfeld,3.3.9,0,s,NA,h,NA,NA,s,554,NA,58791,NA,NA,554,2,legacy,1024,2,48000,-16,experiment,2,even,63021,NA,NA,NA,NA,NA,67268,66199,4224,NA,NA,67265,67372,4219,67373,67928,KS - Flanker Task,3,2364,3,yes,1024
Congruent,SSSSS,100,100,727.75,727.75,black,legacy,legacy,legacy,0,uniform,1,undefined,1,s,0,0,0,3,3,0,3,3,0,0,0,3,3,0,3,3,Sat Sep 25 14:56:57 2021,1500,The main experiment item,yes,KS - Flanker Task.osexp,/Users/kaylinsilva/Desktop/Life,no,mono,no,18,no,white,no,yes,768,legacy,3,3,/Users/kaylinsilva/Desktop/Life/KS-subject-2.csv,legacy,Lentiform Loewenfeld,3.3.9,0,s,NA,h,NA,NA,s,547,NA,58791,NA,NA,547,2,legacy,1024,2,48000,-16,experiment,2,even,63021,NA,NA,NA,NA,NA,68999,67931,4224,NA,NA,68995,69103,4219,69104,69651,KS - Flanker Task,4,2911,4,yes,1024
Incongruent,SSHSS,100,100,702.2,702.2,black,legacy,legacy,legacy,0,uniform,1,undefined,1,h,0,0,0,4,4,0,4,4,0,0,0,4,4,0,4,4,Sat Sep 25 14:56:57 2021,1500,The main experiment item,yes,KS - Flanker Task.osexp,/Users/kaylinsilva/Desktop/Life,no,mono,no,18,no,white,no,yes,768,legacy,4,4,/Users/kaylinsilva/Desktop/Life/KS-subject-2.csv,legacy,Lentiform Loewenfeld,3.3.9,0,h,NA,h,NA,NA,h,600,NA,58791,NA,NA,600,2,legacy,1024,2,48000,-16,experiment,2,even,63021,NA,NA,NA,NA,NA,70723,69655,4224,NA,NA,70720,70827,4219,70827,71427,KS - Flanker Task,5,3511,5,yes,1024
Incongruent,SSHSS,100,100,650.5,650.5,black,legacy,legacy,legacy,0,uniform,1,undefined,1,h,0,0,0,5,5,0,5,5,0,0,0,5,5,0,5,5,Sat Sep 25 14:56:57 2021,1500,The main experiment item,yes,KS - Flanker Task.osexp,/Users/kaylinsilva/Desktop/Life,no,mono,no,18,no,white,no,yes,768,legacy,5,5,/Users/kaylinsilva/Desktop/Life/KS-subject-2.csv,legacy,Lentiform Loewenfeld,3.3.9,0,h,NA,h,NA,NA,h,392,NA,58791,NA,NA,392,2,legacy,1024,2,48000,-16,experiment,2,even,63021,NA,NA,NA,NA,NA,72500,71431,4224,NA,NA,72496,72604,4219,72604,72996,KS - Flanker Task,6,3903,6,yes,1024
Incongruent,HHSHH,100,100,640.7142857,640.7142857,black,legacy,legacy,legacy,0,uniform,1,undefined,1,s,0,0,0,6,6,0,6,6,0,0,0,6,6,0,6,6,Sat Sep 25 14:56:57 2021,1500,The main experiment item,yes,KS - Flanker Task.osexp,/Users/kaylinsilva/Desktop/Life,no,mono,no,18,no,white,no,yes,768,legacy,6,6,/Users/kaylinsilva/Desktop/Life/KS-subject-2.csv,legacy,Lentiform Loewenfeld,3.3.9,0,s,NA,h,NA,NA,s,582,NA,58791,NA,NA,582,2,legacy,1024,2,48000,-16,experiment,2,even,63021,NA,NA,NA,NA,NA,74069,73000,4224,NA,NA,74066,74173,4219,74173,74755,KS - Flanker Task,7,4485,7,yes,1024
Congruent,SSSSS,100,100,620.375,620.375,black,legacy,legacy,legacy,0,uniform,1,undefined,1,s,0,0,0,7,7,0,7,7,0,0,0,7,7,0,7,7,Sat Sep 25 14:56:57 2021,1500,The main experiment item,yes,KS - Flanker Task.osexp,/Users/kaylinsilva/Desktop/Life,no,mono,no,18,no,white,no,yes,768,legacy,7,7,/Users/kaylinsilva/Desktop/Life/KS-subject-2.csv,legacy,Lentiform Loewenfeld,3.3.9,0,s,NA,h,NA,NA,s,478,NA,58791,NA,NA,478,2,legacy,1024,2,48000,-16,experiment,2,even,63021,NA,NA,NA,NA,NA,75827,74759,4224,NA,NA,75824,75931,4219,75931,76410,KS - Flanker Task,8,4963,8,yes,1024
Incongruent,HHSHH,100,100,603.4444444,603.4444444,black,legacy,legacy,legacy,0,uniform,1,undefined,1,s,0,0,0,8,8,0,8,8,0,0,0,8,8,0,8,8,Sat Sep 25 14:56:57 2021,1500,The main experiment item,yes,KS - Flanker Task.osexp,/Users/kaylinsilva/Desktop/Life,no,mono,no,18,no,white,no,yes,768,legacy,8,8,/Users/kaylinsilva/Desktop/Life/KS-subject-2.csv,legacy,Lentiform Loewenfeld,3.3.9,0,s,NA,h,NA,NA,s,468,NA,58791,NA,NA,468,2,legacy,1024,2,48000,-16,experiment,2,even,63021,NA,NA,NA,NA,NA,77481,76413,4224,NA,NA,77478,77585,4219,77585,78053,KS - Flanker Task,9,5431,9,yes,1024
Incongruent,HHSHH,100,100,586.1,586.1,black,legacy,legacy,legacy,0,uniform,1,undefined,1,s,0,0,0,9,9,0,9,9,0,0,0,9,9,0,9,9,Sat Sep 25 14:56:57 2021,1500,The main experiment item,yes,KS - Flanker Task.osexp,/Users/kaylinsilva/Desktop/Life,no,mono,no,18,no,white,no,yes,768,legacy,9,9,/Users/kaylinsilva/Desktop/Life/KS-subject-2.csv,legacy,Lentiform Loewenfeld,3.3.9,0,s,NA,h,NA,NA,s,430,NA,58791,NA,NA,430,2,legacy,1024,2,48000,-16,experiment,2,even,63021,NA,NA,NA,NA,NA,79123,78056,4224,NA,NA,79120,79227,4219,79227,79657,KS - Flanker Task,10,5861,10,yes,1024
Incongruent,HHSHH,100,100,609.2727273,609.2727273,black,legacy,legacy,legacy,0,uniform,1,undefined,1,s,0,0,0,10,10,0,10,10,0,0,0,10,10,0,10,10,Sat Sep 25 14:56:57 2021,1500,The main experiment item,yes,KS - Flanker Task.osexp,/Users/kaylinsilva/Desktop/Life,no,mono,no,18,no,white,no,yes,768,legacy,10,10,/Users/kaylinsilva/Desktop/Life/KS-subject-2.csv,legacy,Lentiform Loewenfeld,3.3.9,0,s,NA,h,NA,NA,s,841,NA,58791,NA,NA,841,2,legacy,1024,2,48000,-16,experiment,2,even,63021,NA,NA,NA,NA,NA,80728,79660,4224,NA,NA,80725,80832,4219,80832,81673,KS - Flanker Task,11,6702,11,yes,1024
Incongruent,HHSHH,100,100,602.25,602.25,black,legacy,legacy,legacy,0,uniform,1,undefined,1,s,0,0,0,11,11,0,11,11,0,0,0,11,11,0,11,11,Sat Sep 25 14:56:57 2021,1500,The main experiment item,yes,KS - Flanker Task.osexp,/Users/kaylinsilva/Desktop/Life,no,mono,no,18,no,white,no,yes,768,legacy,11,11,/Users/kaylinsilva/Desktop/Life/KS-subject-2.csv,legacy,Lentiform Loewenfeld,3.3.9,0,s,NA,h,NA,NA,s,525,NA,58791,NA,NA,525,2,legacy,1024,2,48000,-16,experiment,2,even,63021,NA,NA,NA,NA,NA,82744,81676,4224,NA,NA,82741,82848,4219,82848,83374,KS - Flanker Task,12,7227,12,yes,1024
Incongruent,HHSHH,100,100,591.3846154,591.3846154,black,legacy,legacy,legacy,0,uniform,1,undefined,1,s,0,0,0,12,12,0,12,12,0,0,0,12,12,0,12,12,Sat Sep 25 14:56:57 2021,1500,The main experiment item,yes,KS - Flanker Task.osexp,/Users/kaylinsilva/Desktop/Life,no,mono,no,18,no,white,no,yes,768,legacy,12,12,/Users/kaylinsilva/Desktop/Life/KS-subject-2.csv,legacy,Lentiform Loewenfeld,3.3.9,0,s,NA,h,NA,NA,s,461,NA,58791,NA,NA,461,2,legacy,1024,2,48000,-16,experiment,2,even,63021,NA,NA,NA,NA,NA,84446,83377,4224,NA,NA,84443,84550,4219,84550,85012,KS - Flanker Task,13,7688,13,yes,1024
Incongruent,SSHSS,100,100,588.7857143,588.7857143,black,legacy,legacy,legacy,0,uniform,1,undefined,1,h,0,0,0,13,13,0,13,13,0,0,0,13,13,0,13,13,Sat Sep 25 14:56:57 2021,1500,The main experiment item,yes,KS - Flanker Task.osexp,/Users/kaylinsilva/Desktop/Life,no,mono,no,18,no,white,no,yes,768,legacy,13,13,/Users/kaylinsilva/Desktop/Life/KS-subject-2.csv,legacy,Lentiform Loewenfeld,3.3.9,0,h,NA,h,NA,NA,h,555,NA,58791,NA,NA,555,2,legacy,1024,2,48000,-16,experiment,2,even,63021,NA,NA,NA,NA,NA,86085,85015,4224,NA,NA,86082,86189,4219,86189,86745,KS - Flanker Task,14,8243,14,yes,1024
Congruent,SSSSS,100,100,580.7333333,580.7333333,black,legacy,legacy,legacy,0,uniform,1,undefined,1,s,0,0,0,14,14,0,14,14,0,0,0,14,14,0,14,14,Sat Sep 25 14:56:57 2021,1500,The main experiment item,yes,KS - Flanker Task.osexp,/Users/kaylinsilva/Desktop/Life,no,mono,no,18,no,white,no,yes,768,legacy,14,14,/Users/kaylinsilva/Desktop/Life/KS-subject-2.csv,legacy,Lentiform Loewenfeld,3.3.9,0,s,NA,h,NA,NA,s,468,NA,58791,NA,NA,468,2,legacy,1024,2,48000,-16,experiment,2,even,63021,NA,NA,NA,NA,NA,87817,86748,4224,NA,NA,87813,87921,4219,87921,88390,KS - Flanker Task,15,8711,15,yes,1024
Incongruent,HHSHH,100,100,576.1875,576.1875,black,legacy,legacy,legacy,0,uniform,1,undefined,1,s,0,0,0,15,15,0,15,15,0,0,0,15,15,0,15,15,Sat Sep 25 14:56:57 2021,1500,The main experiment item,yes,KS - Flanker Task.osexp,/Users/kaylinsilva/Desktop/Life,no,mono,no,18,no,white,no,yes,768,legacy,15,15,/Users/kaylinsilva/Desktop/Life/KS-subject-2.csv,legacy,Lentiform Loewenfeld,3.3.9,0,s,NA,h,NA,NA,s,508,NA,58791,NA,NA,508,2,legacy,1024,2,48000,-16,experiment,2,even,63021,NA,NA,NA,NA,NA,89461,88393,4224,NA,NA,89458,89565,4219,89565,90074,KS - Flanker Task,16,9219,16,yes,1024
Incongruent,SSHSS,100,100,573.4705882,573.4705882,black,legacy,legacy,legacy,0,uniform,1,undefined,1,h,0,0,0,16,16,0,16,16,0,0,0,16,16,0,16,16,Sat Sep 25 14:56:57 2021,1500,The main experiment item,yes,KS - Flanker Task.osexp,/Users/kaylinsilva/Desktop/Life,no,mono,no,18,no,white,no,yes,768,legacy,16,16,/Users/kaylinsilva/Desktop/Life/KS-subject-2.csv,legacy,Lentiform Loewenfeld,3.3.9,0,h,NA,h,NA,NA,h,530,NA,58791,NA,NA,530,2,legacy,1024,2,48000,-16,experiment,2,even,63021,NA,NA,NA,NA,NA,91146,90077,4224,NA,NA,91143,91250,4219,91250,91781,KS - Flanker Task,17,9749,17,yes,1024
Congruent,HHHHH,100,100,567.8888889,567.8888889,black,legacy,legacy,legacy,0,uniform,1,undefined,1,h,0,0,0,17,17,0,17,17,0,0,0,17,17,0,17,17,Sat Sep 25 14:56:57 2021,1500,The main experiment item,yes,KS - Flanker Task.osexp,/Users/kaylinsilva/Desktop/Life,no,mono,no,18,no,white,no,yes,768,legacy,17,17,/Users/kaylinsilva/Desktop/Life/KS-subject-2.csv,legacy,Lentiform Loewenfeld,3.3.9,0,h,NA,h,NA,NA,h,473,NA,58791,NA,NA,473,2,legacy,1024,2,48000,-16,experiment,2,even,63021,NA,NA,NA,NA,NA,92852,91784,4224,NA,NA,92849,92956,4219,92956,93430,KS - Flanker Task,18,10222,18,yes,1024
Congruent,SSSSS,100,100,563.7894737,563.7894737,black,legacy,legacy,legacy,0,uniform,1,undefined,1,s,0,0,0,18,18,0,18,18,0,0,0,18,18,0,18,18,Sat Sep 25 14:56:57 2021,1500,The main experiment item,yes,KS - Flanker Task.osexp,/Users/kaylinsilva/Desktop/Life,no,mono,no,18,no,white,no,yes,768,legacy,18,18,/Users/kaylinsilva/Desktop/Life/KS-subject-2.csv,legacy,Lentiform Loewenfeld,3.3.9,0,s,NA,h,NA,NA,s,490,NA,58791,NA,NA,490,2,legacy,1024,2,48000,-16,experiment,2,even,63021,NA,NA,NA,NA,NA,94502,93433,4224,NA,NA,94499,94606,4219,94607,95098,KS - Flanker Task,19,10712,19,yes,1024
Congruent,SSSSS,100,100,557.05,557.05,black,legacy,legacy,legacy,0,uniform,1,undefined,1,s,0,0,0,19,19,0,19,19,0,0,0,19,19,0,19,19,Sat Sep 25 14:56:57 2021,1500,The main experiment item,yes,KS - Flanker Task.osexp,/Users/kaylinsilva/Desktop/Life,no,mono,no,18,no,white,no,yes,768,legacy,19,19,/Users/kaylinsilva/Desktop/Life/KS-subject-2.csv,legacy,Lentiform Loewenfeld,3.3.9,0,s,NA,h,NA,NA,s,429,NA,58791,NA,NA,429,2,legacy,1024,2,48000,-16,experiment,2,even,63021,NA,NA,NA,NA,NA,96169,95101,4224,NA,NA,96166,96273,4219,96273,96703,KS - Flanker Task,20,11141,20,yes,1024
Incongruent,HHSHH,100,100,547.6190476,547.6190476,black,legacy,legacy,legacy,0,uniform,1,undefined,1,s,0,0,0,20,20,0,20,20,0,0,0,20,20,0,20,20,Sat Sep 25 14:56:57 2021,1500,The main experiment item,yes,KS - Flanker Task.osexp,/Users/kaylinsilva/Desktop/Life,no,mono,no,18,no,white,no,yes,768,legacy,20,20,/Users/kaylinsilva/Desktop/Life/KS-subject-2.csv,legacy,Lentiform Loewenfeld,3.3.9,0,s,NA,h,NA,NA,s,359,NA,58791,NA,NA,359,2,legacy,1024,2,48000,-16,experiment,2,even,63021,NA,NA,NA,NA,NA,97774,96706,4224,NA,NA,97771,97878,4219,97878,98238,KS - Flanker Task,21,11500,21,yes,1024
Congruent,SSSSS,100,100,536.8181818,536.8181818,black,legacy,legacy,legacy,0,uniform,1,undefined,1,s,0,0,0,21,21,0,21,21,0,0,0,21,21,0,21,21,Sat Sep 25 14:56:57 2021,1500,The main experiment item,yes,KS - Flanker Task.osexp,/Users/kaylinsilva/Desktop/Life,no,mono,no,18,no,white,no,yes,768,legacy,21,21,/Users/kaylinsilva/Desktop/Life/KS-subject-2.csv,legacy,Lentiform Loewenfeld,3.3.9,0,s,NA,h,NA,NA,s,310,NA,58791,NA,NA,310,2,legacy,1024,2,48000,-16,experiment,2,even,63021,NA,NA,NA,NA,NA,99309,98241,4224,NA,NA,99306,99413,4219,99413,99724,KS - Flanker Task,22,11810,22,yes,1024
Incongruent,HHSHH,100,100,525.4782609,525.4782609,black,legacy,legacy,legacy,0,uniform,1,undefined,1,s,0,0,0,22,22,0,22,22,0,0,0,22,22,0,22,22,Sat Sep 25 14:56:57 2021,1500,The main experiment item,yes,KS - Flanker Task.osexp,/Users/kaylinsilva/Desktop/Life,no,mono,no,18,no,white,no,yes,768,legacy,22,22,/Users/kaylinsilva/Desktop/Life/KS-subject-2.csv,legacy,Lentiform Loewenfeld,3.3.9,0,s,NA,h,NA,NA,s,276,NA,58791,NA,NA,276,2,legacy,1024,2,48000,-16,experiment,2,even,63021,NA,NA,NA,NA,NA,100796,99727,4224,NA,NA,100793,100900,4219,100900,101177,KS - Flanker Task,23,12086,23,yes,1024
Congruent,HHHHH,100,100,521.125,521.125,black,legacy,legacy,legacy,0,uniform,1,undefined,1,h,0,0,0,23,23,0,23,23,0,0,0,23,23,0,23,23,Sat Sep 25 14:56:57 2021,1500,The main experiment item,yes,KS - Flanker Task.osexp,/Users/kaylinsilva/Desktop/Life,no,mono,no,18,no,white,no,yes,768,legacy,23,23,/Users/kaylinsilva/Desktop/Life/KS-subject-2.csv,legacy,Lentiform Loewenfeld,3.3.9,0,h,NA,h,NA,NA,h,421,NA,58791,NA,NA,421,2,legacy,1024,2,48000,-16,experiment,2,even,63021,NA,NA,NA,NA,NA,102247,101180,4224,NA,NA,102244,102351,4219,102351,102773,KS - Flanker Task,24,12507,24,yes,1024
Congruent,HHHHH,100,100,513.68,513.68,black,legacy,legacy,legacy,0,uniform,1,undefined,1,h,0,0,0,24,24,0,24,24,0,0,0,24,24,0,24,24,Sat Sep 25 14:56:57 2021,1500,The main experiment item,yes,KS - Flanker Task.osexp,/Users/kaylinsilva/Desktop/Life,no,mono,no,18,no,white,no,yes,768,legacy,24,24,/Users/kaylinsilva/Desktop/Life/KS-subject-2.csv,legacy,Lentiform Loewenfeld,3.3.9,0,h,NA,h,NA,NA,h,335,NA,58791,NA,NA,335,2,legacy,1024,2,48000,-16,experiment,2,even,63021,NA,NA,NA,NA,NA,103844,102776,4224,NA,NA,103841,103948,4219,103948,104283,KS - Flanker Task,25,12842,25,yes,1024
Incongruent,HHSHH,100,100,510.2692308,510.2692308,black,legacy,legacy,legacy,0,uniform,1,undefined,1,s,0,0,0,25,25,0,25,25,0,0,0,25,25,0,25,25,Sat Sep 25 14:56:57 2021,1500,The main experiment item,yes,KS - Flanker Task.osexp,/Users/kaylinsilva/Desktop/Life,no,mono,no,18,no,white,no,yes,768,legacy,25,25,/Users/kaylinsilva/Desktop/Life/KS-subject-2.csv,legacy,Lentiform Loewenfeld,3.3.9,0,s,NA,h,NA,NA,s,425,NA,58791,NA,NA,425,2,legacy,1024,2,48000,-16,experiment,2,even,63021,NA,NA,NA,NA,NA,105356,104287,4224,NA,NA,105353,105460,4219,105460,105886,KS - Flanker Task,26,13267,26,yes,1024
Incongruent,SSHSS,100,100,507.8518519,507.8518519,black,legacy,legacy,legacy,0,uniform,1,undefined,1,h,0,0,0,26,26,0,26,26,0,0,0,26,26,0,26,26,Sat Sep 25 14:56:57 2021,1500,The main experiment item,yes,KS - Flanker Task.osexp,/Users/kaylinsilva/Desktop/Life,no,mono,no,18,no,white,no,yes,768,legacy,26,26,/Users/kaylinsilva/Desktop/Life/KS-subject-2.csv,legacy,Lentiform Loewenfeld,3.3.9,0,h,NA,h,NA,NA,h,445,NA,58791,NA,NA,445,2,legacy,1024,2,48000,-16,experiment,2,even,63021,NA,NA,NA,NA,NA,106958,105889,4224,NA,NA,106954,107062,4219,107062,107507,KS - Flanker Task,27,13712,27,yes,1024
Congruent,SSSSS,100,100,503.6071429,503.6071429,black,legacy,legacy,legacy,0,uniform,1,undefined,1,s,0,0,0,27,27,0,27,27,0,0,0,27,27,0,27,27,Sat Sep 25 14:56:57 2021,1500,The main experiment item,yes,KS - Flanker Task.osexp,/Users/kaylinsilva/Desktop/Life,no,mono,no,18,no,white,no,yes,768,legacy,27,27,/Users/kaylinsilva/Desktop/Life/KS-subject-2.csv,legacy,Lentiform Loewenfeld,3.3.9,0,s,NA,h,NA,NA,s,389,NA,58791,NA,NA,389,2,legacy,1024,2,48000,-16,experiment,2,even,63021,NA,NA,NA,NA,NA,108579,107510,4224,NA,NA,108576,108683,4219,108683,109072,KS - Flanker Task,28,14101,28,yes,1024
Incongruent,SSHSS,100,100,501.3448276,501.3448276,black,legacy,legacy,legacy,0,uniform,1,undefined,1,h,0,0,0,28,28,0,28,28,0,0,0,28,28,0,28,28,Sat Sep 25 14:56:57 2021,1500,The main experiment item,yes,KS - Flanker Task.osexp,/Users/kaylinsilva/Desktop/Life,no,mono,no,18,no,white,no,yes,768,legacy,28,28,/Users/kaylinsilva/Desktop/Life/KS-subject-2.csv,legacy,Lentiform Loewenfeld,3.3.9,0,h,NA,h,NA,NA,h,438,NA,58791,NA,NA,438,2,legacy,1024,2,48000,-16,experiment,2,even,63021,NA,NA,NA,NA,NA,110144,109075,4224,NA,NA,110141,110248,4219,110248,110687,KS - Flanker Task,29,14539,29,yes,1024
Congruent,SSSSS,100,100,499.8,499.8,black,legacy,legacy,legacy,0,uniform,1,undefined,1,s,0,0,0,29,29,0,29,29,0,0,0,29,29,0,29,29,Sat Sep 25 14:56:57 2021,1500,The main experiment item,yes,KS - Flanker Task.osexp,/Users/kaylinsilva/Desktop/Life,no,mono,no,18,no,white,no,yes,768,legacy,29,29,/Users/kaylinsilva/Desktop/Life/KS-subject-2.csv,legacy,Lentiform Loewenfeld,3.3.9,0,s,NA,h,NA,NA,s,455,NA,58791,NA,NA,455,2,legacy,1024,2,48000,-16,experiment,2,even,63021,NA,NA,NA,NA,NA,111759,110691,4224,NA,NA,111755,111863,4219,111863,112318,KS - Flanker Task,30,14994,30,yes,1024
Congruent,HHHHH,100,100,495.1290323,495.1290323,black,legacy,legacy,legacy,0,uniform,1,undefined,1,h,0,0,0,30,30,0,30,30,0,0,0,30,30,0,30,30,Sat Sep 25 14:56:57 2021,1500,The main experiment item,yes,KS - Flanker Task.osexp,/Users/kaylinsilva/Desktop/Life,no,mono,no,18,no,white,no,yes,768,legacy,30,30,/Users/kaylinsilva/Desktop/Life/KS-subject-2.csv,legacy,Lentiform Loewenfeld,3.3.9,0,h,NA,h,NA,NA,h,355,NA,58791,NA,NA,355,2,legacy,1024,2,48000,-16,experiment,2,even,63021,NA,NA,NA,NA,NA,113390,112322,4224,NA,NA,113386,113494,4219,113494,113849,KS - Flanker Task,31,15349,31,yes,1024
Congruent,SSSSS,100,100,491.875,491.875,black,legacy,legacy,legacy,0,uniform,1,undefined,1,s,0,0,0,31,31,0,31,31,0,0,0,31,31,0,31,31,Sat Sep 25 14:56:57 2021,1500,The main experiment item,yes,KS - Flanker Task.osexp,/Users/kaylinsilva/Desktop/Life,no,mono,no,18,no,white,no,yes,768,legacy,31,31,/Users/kaylinsilva/Desktop/Life/KS-subject-2.csv,legacy,Lentiform Loewenfeld,3.3.9,0,s,NA,h,NA,NA,s,391,NA,58791,NA,NA,391,2,legacy,1024,2,48000,-16,experiment,2,even,63021,NA,NA,NA,NA,NA,114922,113853,4224,NA,NA,114919,115026,4219,115027,115419,KS - Flanker Task,32,15740,32,yes,1024
Incongruent,HHSHH,100,100,489.7575758,489.7575758,black,legacy,legacy,legacy,0,uniform,1,undefined,1,s,0,0,0,32,32,0,32,32,0,0,0,32,32,0,32,32,Sat Sep 25 14:56:57 2021,1500,The main experiment item,yes,KS - Flanker Task.osexp,/Users/kaylinsilva/Desktop/Life,no,mono,no,18,no,white,no,yes,768,legacy,32,32,/Users/kaylinsilva/Desktop/Life/KS-subject-2.csv,legacy,Lentiform Loewenfeld,3.3.9,0,s,NA,h,NA,NA,s,422,NA,58791,NA,NA,422,2,legacy,1024,2,48000,-16,experiment,2,even,63021,NA,NA,NA,NA,NA,116490,115422,4224,NA,NA,116487,116594,4219,116594,117016,KS - Flanker Task,33,16162,33,yes,1024
Incongruent,SSHSS,97.05882353,97.05882353,485.6176471,485.6176471,black,legacy,legacy,legacy,0,uniform,0,undefined,0,h,0,0,0,33,33,0,33,33,0,0,0,33,33,0,33,33,Sat Sep 25 14:56:57 2021,1500,The main experiment item,yes,KS - Flanker Task.osexp,/Users/kaylinsilva/Desktop/Life,no,mono,no,18,no,white,no,yes,768,legacy,33,33,/Users/kaylinsilva/Desktop/Life/KS-subject-2.csv,legacy,Lentiform Loewenfeld,3.3.9,0,s,NA,h,NA,NA,s,349,NA,58791,NA,NA,349,2,legacy,1024,2,48000,-16,experiment,2,even,63021,NA,NA,NA,NA,NA,118088,117020,4224,NA,NA,118085,118192,4219,118192,118542,KS - Flanker Task,33,16511,34,yes,1024
Incongruent,SSHSS,97.14285714,97.14285714,484.5142857,484.5142857,black,legacy,legacy,legacy,0,uniform,1,undefined,1,h,0,0,0,34,34,0,34,34,0,0,0,34,34,0,34,34,Sat Sep 25 14:56:57 2021,1500,The main experiment item,yes,KS - Flanker Task.osexp,/Users/kaylinsilva/Desktop/Life,no,mono,no,18,no,white,no,yes,768,legacy,34,34,/Users/kaylinsilva/Desktop/Life/KS-subject-2.csv,legacy,Lentiform Loewenfeld,3.3.9,0,h,NA,h,NA,NA,h,447,NA,58791,NA,NA,447,2,legacy,1024,2,48000,-16,experiment,2,even,63021,NA,NA,118545,NA,NA,120118,119050,4224,NA,NA,120115,120222,4219,120223,120671,KS - Flanker Task,34,16958,35,yes,1024
Incongruent,SSHSS,97.22222222,97.22222222,483.3611111,483.3611111,black,legacy,legacy,legacy,0,uniform,1,undefined,1,h,0,0,0,35,35,0,35,35,0,0,0,35,35,0,35,35,Sat Sep 25 14:56:57 2021,1500,The main experiment item,yes,KS - Flanker Task.osexp,/Users/kaylinsilva/Desktop/Life,no,mono,no,18,no,white,no,yes,768,legacy,35,35,/Users/kaylinsilva/Desktop/Life/KS-subject-2.csv,legacy,Lentiform Loewenfeld,3.3.9,0,h,NA,h,NA,NA,h,443,NA,58791,NA,NA,443,2,legacy,1024,2,48000,-16,experiment,2,even,63021,NA,NA,118545,NA,NA,121742,120675,4224,NA,NA,121739,121846,4219,121846,122289,KS - Flanker Task,35,17401,36,yes,1024
Incongruent,SSHSS,97.2972973,97.2972973,487.9459459,487.9459459,black,legacy,legacy,legacy,0,uniform,1,undefined,1,h,0,0,0,36,36,0,36,36,0,0,0,36,36,0,36,36,Sat Sep 25 14:56:57 2021,1500,The main experiment item,yes,KS - Flanker Task.osexp,/Users/kaylinsilva/Desktop/Life,no,mono,no,18,no,white,no,yes,768,legacy,36,36,/Users/kaylinsilva/Desktop/Life/KS-subject-2.csv,legacy,Lentiform Loewenfeld,3.3.9,0,h,NA,h,NA,NA,h,653,NA,58791,NA,NA,653,2,legacy,1024,2,48000,-16,experiment,2,even,63021,NA,NA,118545,NA,NA,123360,122292,4224,NA,NA,123357,123464,4219,123464,124118,KS - Flanker Task,36,18054,37,yes,1024
Congruent,HHHHH,97.36842105,97.36842105,488.5263158,488.5263158,black,legacy,legacy,legacy,0,uniform,1,undefined,1,h,0,0,0,37,37,0,37,37,0,0,0,37,37,0,37,37,Sat Sep 25 14:56:57 2021,1500,The main experiment item,yes,KS - Flanker Task.osexp,/Users/kaylinsilva/Desktop/Life,no,mono,no,18,no,white,no,yes,768,legacy,37,37,/Users/kaylinsilva/Desktop/Life/KS-subject-2.csv,legacy,Lentiform Loewenfeld,3.3.9,0,h,NA,h,NA,NA,h,510,NA,58791,NA,NA,510,2,legacy,1024,2,48000,-16,experiment,2,even,63021,NA,NA,118545,NA,NA,125189,124121,4224,NA,NA,125186,125293,4219,125293,125804,KS - Flanker Task,37,18564,38,yes,1024
Incongruent,HHSHH,97.43589744,97.43589744,488.4871795,488.4871795,black,legacy,legacy,legacy,0,uniform,1,undefined,1,s,0,0,0,38,38,0,38,38,0,0,0,38,38,0,38,38,Sat Sep 25 14:56:57 2021,1500,The main experiment item,yes,KS - Flanker Task.osexp,/Users/kaylinsilva/Desktop/Life,no,mono,no,18,no,white,no,yes,768,legacy,38,38,/Users/kaylinsilva/Desktop/Life/KS-subject-2.csv,legacy,Lentiform Loewenfeld,3.3.9,0,s,NA,h,NA,NA,s,487,NA,58791,NA,NA,487,2,legacy,1024,2,48000,-16,experiment,2,even,63021,NA,NA,118545,NA,NA,126875,125807,4224,NA,NA,126871,126979,4219,126979,127467,KS - Flanker Task,38,19051,39,yes,1024
Incongruent,HHSHH,97.5,97.5,489.4,489.4,black,legacy,legacy,legacy,0,uniform,1,undefined,1,s,0,0,0,39,39,0,39,39,0,0,0,39,39,0,39,39,Sat Sep 25 14:56:57 2021,1500,The main experiment item,yes,KS - Flanker Task.osexp,/Users/kaylinsilva/Desktop/Life,no,mono,no,18,no,white,no,yes,768,legacy,39,39,/Users/kaylinsilva/Desktop/Life/KS-subject-2.csv,legacy,Lentiform Loewenfeld,3.3.9,0,s,NA,h,NA,NA,s,525,NA,58791,NA,NA,525,2,legacy,1024,2,48000,-16,experiment,2,even,63021,NA,NA,118545,NA,NA,128538,127470,4224,NA,NA,128535,128642,4219,128642,129168,KS - Flanker Task,39,19576,40,yes,1024
Congruent,HHHHH,97.56097561,97.56097561,487.9756098,487.9756098,black,legacy,legacy,legacy,0,uniform,1,undefined,1,h,0,0,0,40,40,0,40,40,0,0,0,40,40,0,40,40,Sat Sep 25 14:56:57 2021,1500,The main experiment item,yes,KS - Flanker Task.osexp,/Users/kaylinsilva/Desktop/Life,no,mono,no,18,no,white,no,yes,768,legacy,40,40,/Users/kaylinsilva/Desktop/Life/KS-subject-2.csv,legacy,Lentiform Loewenfeld,3.3.9,0,h,NA,h,NA,NA,h,431,NA,58791,NA,NA,431,2,legacy,1024,2,48000,-16,experiment,2,even,63021,NA,NA,118545,NA,NA,130240,129172,4224,NA,NA,130237,130344,4219,130344,130776,KS - Flanker Task,40,20007,41,yes,1024
Congruent,HHHHH,97.61904762,97.61904762,486.1428571,486.1428571,black,legacy,legacy,legacy,0,uniform,1,undefined,1,h,0,0,0,41,41,0,41,41,0,0,0,41,41,0,41,41,Sat Sep 25 14:56:57 2021,1500,The main experiment item,yes,KS - Flanker Task.osexp,/Users/kaylinsilva/Desktop/Life,no,mono,no,18,no,white,no,yes,768,legacy,41,41,/Users/kaylinsilva/Desktop/Life/KS-subject-2.csv,legacy,Lentiform Loewenfeld,3.3.9,0,h,NA,h,NA,NA,h,411,NA,58791,NA,NA,411,2,legacy,1024,2,48000,-16,experiment,2,even,63021,NA,NA,118545,NA,NA,131848,130779,4224,NA,NA,131844,131952,4219,131952,132364,KS - Flanker Task,41,20418,42,yes,1024
Incongruent,HHSHH,97.6744186,97.6744186,487.6046512,487.6046512,black,legacy,legacy,legacy,0,uniform,1,undefined,1,s,0,0,0,42,42,0,42,42,0,0,0,42,42,0,42,42,Sat Sep 25 14:56:57 2021,1500,The main experiment item,yes,KS - Flanker Task.osexp,/Users/kaylinsilva/Desktop/Life,no,mono,no,18,no,white,no,yes,768,legacy,42,42,/Users/kaylinsilva/Desktop/Life/KS-subject-2.csv,legacy,Lentiform Loewenfeld,3.3.9,0,s,NA,h,NA,NA,s,549,NA,58791,NA,NA,549,2,legacy,1024,2,48000,-16,experiment,2,even,63021,NA,NA,118545,NA,NA,133436,132367,4224,NA,NA,133432,133540,4219,133540,134090,KS - Flanker Task,42,20967,43,yes,1024
Congruent,SSSSS,97.72727273,97.72727273,487.5909091,487.5909091,black,legacy,legacy,legacy,0,uniform,1,undefined,1,s,0,0,0,43,43,0,43,43,0,0,0,43,43,0,43,43,Sat Sep 25 14:56:57 2021,1500,The main experiment item,yes,KS - Flanker Task.osexp,/Users/kaylinsilva/Desktop/Life,no,mono,no,18,no,white,no,yes,768,legacy,43,43,/Users/kaylinsilva/Desktop/Life/KS-subject-2.csv,legacy,Lentiform Loewenfeld,3.3.9,0,s,NA,h,NA,NA,s,487,NA,58791,NA,NA,487,2,legacy,1024,2,48000,-16,experiment,2,even,63021,NA,NA,118545,NA,NA,135161,134093,4224,NA,NA,135158,135265,4219,135265,135753,KS - Flanker Task,43,21454,44,yes,1024
Congruent,HHHHH,97.77777778,97.77777778,485.4444444,485.4444444,black,legacy,legacy,legacy,0,uniform,1,undefined,1,h,0,0,0,44,44,0,44,44,0,0,0,44,44,0,44,44,Sat Sep 25 14:56:57 2021,1500,The main experiment item,yes,KS - Flanker Task.osexp,/Users/kaylinsilva/Desktop/Life,no,mono,no,18,no,white,no,yes,768,legacy,44,44,/Users/kaylinsilva/Desktop/Life/KS-subject-2.csv,legacy,Lentiform Loewenfeld,3.3.9,0,h,NA,h,NA,NA,h,391,NA,58791,NA,NA,391,2,legacy,1024,2,48000,-16,experiment,2,even,63021,NA,NA,118545,NA,NA,136824,135756,4224,NA,NA,136820,136928,4219,136928,137320,KS - Flanker Task,44,21845,45,yes,1024
Congruent,SSSSS,97.82608696,97.82608696,486.6304348,486.6304348,black,legacy,legacy,legacy,0,uniform,1,undefined,1,s,0,0,0,45,45,0,45,45,0,0,0,45,45,0,45,45,Sat Sep 25 14:56:57 2021,1500,The main experiment item,yes,KS - Flanker Task.osexp,/Users/kaylinsilva/Desktop/Life,no,mono,no,18,no,white,no,yes,768,legacy,45,45,/Users/kaylinsilva/Desktop/Life/KS-subject-2.csv,legacy,Lentiform Loewenfeld,3.3.9,0,s,NA,h,NA,NA,s,540,NA,58791,NA,NA,540,2,legacy,1024,2,48000,-16,experiment,2,even,63021,NA,NA,118545,NA,NA,138391,137324,4224,NA,NA,138387,138495,4219,138495,139036,KS - Flanker Task,45,22385,46,yes,1024
Incongruent,HHSHH,95.74468085,95.74468085,484.9787234,484.9787234,black,legacy,legacy,legacy,0,uniform,0,undefined,0,s,0,0,0,46,46,0,46,46,0,0,0,46,46,0,46,46,Sat Sep 25 14:56:57 2021,1500,The main experiment item,yes,KS - Flanker Task.osexp,/Users/kaylinsilva/Desktop/Life,no,mono,no,18,no,white,no,yes,768,legacy,46,46,/Users/kaylinsilva/Desktop/Life/KS-subject-2.csv,legacy,Lentiform Loewenfeld,3.3.9,0,h,NA,h,NA,NA,h,409,NA,58791,NA,NA,409,2,legacy,1024,2,48000,-16,experiment,2,even,63021,NA,NA,118545,NA,NA,140106,139039,4224,NA,NA,140103,140210,4219,140210,140620,KS - Flanker Task,45,22794,47,yes,1024
Congruent,HHHHH,95.83333333,95.83333333,484.5,484.5,black,legacy,legacy,legacy,0,uniform,1,undefined,1,h,0,0,0,47,47,0,47,47,0,0,0,47,47,0,47,47,Sat Sep 25 14:56:57 2021,1500,The main experiment item,yes,KS - Flanker Task.osexp,/Users/kaylinsilva/Desktop/Life,no,mono,no,18,no,white,no,yes,768,legacy,47,47,/Users/kaylinsilva/Desktop/Life/KS-subject-2.csv,legacy,Lentiform Loewenfeld,3.3.9,0,h,NA,h,NA,NA,h,462,NA,58791,NA,NA,462,2,legacy,1024,2,48000,-16,experiment,2,even,63021,NA,NA,140623,NA,NA,142194,141127,4224,NA,NA,142191,142298,4219,142298,142761,KS - Flanker Task,46,23256,48,yes,1024
Congruent,SSSSS,95.91836735,95.91836735,483.3673469,483.3673469,black,legacy,legacy,legacy,0,uniform,1,undefined,1,s,0,0,0,48,48,0,48,48,0,0,0,48,48,0,48,48,Sat Sep 25 14:56:57 2021,1500,The main experiment item,yes,KS - Flanker Task.osexp,/Users/kaylinsilva/Desktop/Life,no,mono,no,18,no,white,no,yes,768,legacy,48,48,/Users/kaylinsilva/Desktop/Life/KS-subject-2.csv,legacy,Lentiform Loewenfeld,3.3.9,0,s,NA,h,NA,NA,s,429,NA,58791,NA,NA,429,2,legacy,1024,2,48000,-16,experiment,2,even,63021,NA,NA,140623,NA,NA,143831,142764,4224,NA,NA,143828,143937,4219,143938,144368,KS - Flanker Task,47,23685,49,yes,1024
Incongruent,SSHSS,96,96,483.3,483.3,black,legacy,legacy,legacy,0,uniform,1,undefined,1,h,0,0,0,49,49,0,49,49,0,0,0,49,49,0,49,49,Sat Sep 25 14:56:57 2021,1500,The main experiment item,yes,KS - Flanker Task.osexp,/Users/kaylinsilva/Desktop/Life,no,mono,no,18,no,white,no,yes,768,legacy,49,49,/Users/kaylinsilva/Desktop/Life/KS-subject-2.csv,legacy,Lentiform Loewenfeld,3.3.9,0,h,NA,h,NA,NA,h,480,NA,58791,NA,NA,480,2,legacy,1024,2,48000,-16,experiment,2,even,63021,NA,NA,140623,NA,NA,145439,144371,4224,NA,NA,145436,145543,4219,145543,146024,KS - Flanker Task,48,24165,50,yes,1024
Congruent,SSSSS,96.07843137,96.07843137,481.8627451,481.8627451,black,legacy,legacy,legacy,0,uniform,1,undefined,1,s,0,0,0,50,50,0,50,50,0,0,0,50,50,0,50,50,Sat Sep 25 14:56:57 2021,1500,The main experiment item,yes,KS - Flanker Task.osexp,/Users/kaylinsilva/Desktop/Life,no,mono,no,18,no,white,no,yes,768,legacy,50,50,/Users/kaylinsilva/Desktop/Life/KS-subject-2.csv,legacy,Lentiform Loewenfeld,3.3.9,0,s,NA,h,NA,NA,s,410,NA,58791,NA,NA,410,2,legacy,1024,2,48000,-16,experiment,2,even,63021,NA,NA,140623,NA,NA,147095,146027,4224,NA,NA,147092,147199,4219,147199,147609,KS - Flanker Task,49,24575,51,yes,1024
Congruent,HHHHH,96.15384615,96.15384615,480.5192308,480.5192308,black,legacy,legacy,legacy,0,uniform,1,undefined,1,h,0,0,0,51,51,0,51,51,0,0,0,51,51,0,51,51,Sat Sep 25 14:56:57 2021,1500,The main experiment item,yes,KS - Flanker Task.osexp,/Users/kaylinsilva/Desktop/Life,no,mono,no,18,no,white,no,yes,768,legacy,51,51,/Users/kaylinsilva/Desktop/Life/KS-subject-2.csv,legacy,Lentiform Loewenfeld,3.3.9,0,h,NA,h,NA,NA,h,412,NA,58791,NA,NA,412,2,legacy,1024,2,48000,-16,experiment,2,even,63021,NA,NA,140623,NA,NA,148680,147613,4224,NA,NA,148677,148784,4219,148784,149197,KS - Flanker Task,50,24987,52,yes,1024
Congruent,SSSSS,96.22641509,96.22641509,480.8867925,480.8867925,black,legacy,legacy,legacy,0,uniform,1,undefined,1,s,0,0,0,52,52,0,52,52,0,0,0,52,52,0,52,52,Sat Sep 25 14:56:57 2021,1500,The main experiment item,yes,KS - Flanker Task.osexp,/Users/kaylinsilva/Desktop/Life,no,mono,no,18,no,white,no,yes,768,legacy,52,52,/Users/kaylinsilva/Desktop/Life/KS-subject-2.csv,legacy,Lentiform Loewenfeld,3.3.9,0,s,NA,h,NA,NA,s,500,NA,58791,NA,NA,500,2,legacy,1024,2,48000,-16,experiment,2,even,63021,NA,NA,140623,NA,NA,150268,149200,4224,NA,NA,150265,150372,4219,150372,150873,KS - Flanker Task,51,25487,53,yes,1024
Incongruent,HHSHH,96.2962963,96.2962963,481.7962963,481.7962963,black,legacy,legacy,legacy,0,uniform,1,undefined,1,s,0,0,0,53,53,0,53,53,0,0,0,53,53,0,53,53,Sat Sep 25 14:56:57 2021,1500,The main experiment item,yes,KS - Flanker Task.osexp,/Users/kaylinsilva/Desktop/Life,no,mono,no,18,no,white,no,yes,768,legacy,53,53,/Users/kaylinsilva/Desktop/Life/KS-subject-2.csv,legacy,Lentiform Loewenfeld,3.3.9,0,s,NA,h,NA,NA,s,530,NA,58791,NA,NA,530,2,legacy,1024,2,48000,-16,experiment,2,even,63021,NA,NA,140623,NA,NA,151943,150876,4224,NA,NA,151940,152047,4219,152047,152578,KS - Flanker Task,52,26017,54,yes,1024
Congruent,SSSSS,96.36363636,96.36363636,481.6545455,481.6545455,black,legacy,legacy,legacy,0,uniform,1,undefined,1,s,0,0,0,54,54,0,54,54,0,0,0,54,54,0,54,54,Sat Sep 25 14:56:57 2021,1500,The main experiment item,yes,KS - Flanker Task.osexp,/Users/kaylinsilva/Desktop/Life,no,mono,no,18,no,white,no,yes,768,legacy,54,54,/Users/kaylinsilva/Desktop/Life/KS-subject-2.csv,legacy,Lentiform Loewenfeld,3.3.9,0,s,NA,h,NA,NA,s,474,NA,58791,NA,NA,474,2,legacy,1024,2,48000,-16,experiment,2,even,63021,NA,NA,140623,NA,NA,153648,152581,4224,NA,NA,153645,153752,4219,153752,154226,KS - Flanker Task,53,26491,55,yes,1024
Incongruent,HHSHH,96.42857143,96.42857143,480.2142857,480.2142857,black,legacy,legacy,legacy,0,uniform,1,undefined,1,s,0,0,0,55,55,0,55,55,0,0,0,55,55,0,55,55,Sat Sep 25 14:56:57 2021,1500,The main experiment item,yes,KS - Flanker Task.osexp,/Users/kaylinsilva/Desktop/Life,no,mono,no,18,no,white,no,yes,768,legacy,55,55,/Users/kaylinsilva/Desktop/Life/KS-subject-2.csv,legacy,Lentiform Loewenfeld,3.3.9,0,s,NA,h,NA,NA,s,401,NA,58791,NA,NA,401,2,legacy,1024,2,48000,-16,experiment,2,even,63021,NA,NA,140623,NA,NA,155296,154230,4224,NA,NA,155293,155401,4219,155401,155803,KS - Flanker Task,54,26892,56,yes,1024
Incongruent,SSHSS,96.49122807,96.49122807,480.2982456,480.2982456,black,legacy,legacy,legacy,0,uniform,1,undefined,1,h,0,0,0,56,56,0,56,56,0,0,0,56,56,0,56,56,Sat Sep 25 14:56:57 2021,1500,The main experiment item,yes,KS - Flanker Task.osexp,/Users/kaylinsilva/Desktop/Life,no,mono,no,18,no,white,no,yes,768,legacy,56,56,/Users/kaylinsilva/Desktop/Life/KS-subject-2.csv,legacy,Lentiform Loewenfeld,3.3.9,0,h,NA,h,NA,NA,h,485,NA,58791,NA,NA,485,2,legacy,1024,2,48000,-16,experiment,2,even,63021,NA,NA,140623,NA,NA,156873,155806,4224,NA,NA,156870,156977,4219,156977,157462,KS - Flanker Task,55,27377,57,yes,1024
Incongruent,SSHSS,96.55172414,96.55172414,480.3275862,480.3275862,black,legacy,legacy,legacy,0,uniform,1,undefined,1,h,0,0,0,57,57,0,57,57,0,0,0,57,57,0,57,57,Sat Sep 25 14:56:57 2021,1500,The main experiment item,yes,KS - Flanker Task.osexp,/Users/kaylinsilva/Desktop/Life,no,mono,no,18,no,white,no,yes,768,legacy,57,57,/Users/kaylinsilva/Desktop/Life/KS-subject-2.csv,legacy,Lentiform Loewenfeld,3.3.9,0,h,NA,h,NA,NA,h,482,NA,58791,NA,NA,482,2,legacy,1024,2,48000,-16,experiment,2,even,63021,NA,NA,140623,NA,NA,158533,157466,4224,NA,NA,158530,158637,4219,158637,159120,KS - Flanker Task,56,27859,58,yes,1024
Congruent,HHHHH,96.61016949,96.61016949,479,479,black,legacy,legacy,legacy,0,uniform,1,undefined,1,h,0,0,0,58,58,0,58,58,0,0,0,58,58,0,58,58,Sat Sep 25 14:56:57 2021,1500,The main experiment item,yes,KS - Flanker Task.osexp,/Users/kaylinsilva/Desktop/Life,no,mono,no,18,no,white,no,yes,768,legacy,58,58,/Users/kaylinsilva/Desktop/Life/KS-subject-2.csv,legacy,Lentiform Loewenfeld,3.3.9,0,h,NA,h,NA,NA,h,402,NA,58791,NA,NA,402,2,legacy,1024,2,48000,-16,experiment,2,even,63021,NA,NA,140623,NA,NA,160190,159123,4224,NA,NA,160187,160294,4219,160294,160697,KS - Flanker Task,57,28261,59,yes,1024
Congruent,HHHHH,96.66666667,96.66666667,478.3166667,478.3166667,black,legacy,legacy,legacy,0,uniform,1,undefined,1,h,0,0,0,59,59,0,59,59,0,0,0,59,59,0,59,59,Sat Sep 25 14:56:57 2021,1500,The main experiment item,yes,KS - Flanker Task.osexp,/Users/kaylinsilva/Desktop/Life,no,mono,no,18,no,white,no,yes,768,legacy,59,59,/Users/kaylinsilva/Desktop/Life/KS-subject-2.csv,legacy,Lentiform Loewenfeld,3.3.9,0,h,NA,h,NA,NA,h,438,NA,58791,NA,NA,438,2,legacy,1024,2,48000,-16,experiment,2,even,63021,NA,NA,140623,NA,NA,161767,160700,4224,NA,NA,161764,161871,4219,161871,162310,KS - Flanker Task,58,28699,60,yes,1024
Congruent,HHHHH,96.72131148,96.72131148,477.3934426,477.3934426,black,legacy,legacy,legacy,0,uniform,1,undefined,1,h,0,0,0,60,60,0,60,60,0,0,0,60,60,0,60,60,Sat Sep 25 14:56:57 2021,1500,The main experiment item,yes,KS - Flanker Task.osexp,/Users/kaylinsilva/Desktop/Life,no,mono,no,18,no,white,no,yes,768,legacy,60,60,/Users/kaylinsilva/Desktop/Life/KS-subject-2.csv,legacy,Lentiform Loewenfeld,3.3.9,0,h,NA,h,NA,NA,h,422,NA,58791,NA,NA,422,2,legacy,1024,2,48000,-16,experiment,2,even,63021,NA,NA,140623,NA,NA,163381,162313,4224,NA,NA,163378,163485,4219,163485,163908,KS - Flanker Task,59,29121,61,yes,1024
Congruent,HHHHH,96.77419355,96.77419355,476.0967742,476.0967742,black,legacy,legacy,legacy,0,uniform,1,undefined,1,h,0,0,0,61,61,0,61,61,0,0,0,61,61,0,61,61,Sat Sep 25 14:56:57 2021,1500,The main experiment item,yes,KS - Flanker Task.osexp,/Users/kaylinsilva/Desktop/Life,no,mono,no,18,no,white,no,yes,768,legacy,61,61,/Users/kaylinsilva/Desktop/Life/KS-subject-2.csv,legacy,Lentiform Loewenfeld,3.3.9,0,h,NA,h,NA,NA,h,397,NA,58791,NA,NA,397,2,legacy,1024,2,48000,-16,experiment,2,even,63021,NA,NA,140623,NA,NA,164979,163911,4224,NA,NA,164976,165083,4219,165083,165481,KS - Flanker Task,60,29518,62,yes,1024
Congruent,SSSSS,96.82539683,96.82539683,475.8730159,475.8730159,black,legacy,legacy,legacy,0,uniform,1,undefined,1,s,0,0,0,62,62,0,62,62,0,0,0,62,62,0,62,62,Sat Sep 25 14:56:57 2021,1500,The main experiment item,yes,KS - Flanker Task.osexp,/Users/kaylinsilva/Desktop/Life,no,mono,no,18,no,white,no,yes,768,legacy,62,62,/Users/kaylinsilva/Desktop/Life/KS-subject-2.csv,legacy,Lentiform Loewenfeld,3.3.9,0,s,NA,h,NA,NA,s,462,NA,58791,NA,NA,462,2,legacy,1024,2,48000,-16,experiment,2,even,63021,NA,NA,140623,NA,NA,166550,165484,4224,NA,NA,166547,166655,4219,166655,167118,KS - Flanker Task,61,29980,63,yes,1024
Incongruent,SSHSS,96.875,96.875,476.90625,476.90625,black,legacy,legacy,legacy,0,uniform,1,undefined,1,h,0,0,0,63,63,0,63,63,0,0,0,63,63,0,63,63,Sat Sep 25 14:56:57 2021,1500,The main experiment item,yes,KS - Flanker Task.osexp,/Users/kaylinsilva/Desktop/Life,no,mono,no,18,no,white,no,yes,768,legacy,63,63,/Users/kaylinsilva/Desktop/Life/KS-subject-2.csv,legacy,Lentiform Loewenfeld,3.3.9,0,h,NA,h,NA,NA,h,542,NA,58791,NA,NA,542,2,legacy,1024,2,48000,-16,experiment,2,even,63021,NA,NA,140623,NA,NA,168188,167121,4224,NA,NA,168185,168292,4219,168292,168835,KS - Flanker Task,62,30522,64,yes,1024
Congruent,HHHHH,96.92307692,96.92307692,475.9384615,475.9384615,black,legacy,legacy,legacy,0,uniform,1,undefined,1,h,0,0,0,64,64,0,64,64,0,0,0,64,64,0,64,64,Sat Sep 25 14:56:57 2021,1500,The main experiment item,yes,KS - Flanker Task.osexp,/Users/kaylinsilva/Desktop/Life,no,mono,no,18,no,white,no,yes,768,legacy,64,64,/Users/kaylinsilva/Desktop/Life/KS-subject-2.csv,legacy,Lentiform Loewenfeld,3.3.9,0,h,NA,h,NA,NA,h,414,NA,58791,NA,NA,414,2,legacy,1024,2,48000,-16,experiment,2,even,63021,NA,NA,140623,NA,NA,169905,168838,4224,NA,NA,169902,170009,4219,170010,170425,KS - Flanker Task,63,30936,65,yes,1024
Incongruent,HHSHH,96.96969697,96.96969697,477.4393939,477.4393939,black,legacy,legacy,legacy,0,uniform,1,undefined,1,s,0,0,0,65,65,0,65,65,0,0,0,65,65,0,65,65,Sat Sep 25 14:56:57 2021,1500,The main experiment item,yes,KS - Flanker Task.osexp,/Users/kaylinsilva/Desktop/Life,no,mono,no,18,no,white,no,yes,768,legacy,65,65,/Users/kaylinsilva/Desktop/Life/KS-subject-2.csv,legacy,Lentiform Loewenfeld,3.3.9,0,s,NA,h,NA,NA,s,575,NA,58791,NA,NA,575,2,legacy,1024,2,48000,-16,experiment,2,even,63021,NA,NA,140623,NA,NA,171497,170428,4224,NA,NA,171493,171601,4219,171602,172178,KS - Flanker Task,64,31511,66,yes,1024
Congruent,SSSSS,97.01492537,97.01492537,476.6567164,476.6567164,black,legacy,legacy,legacy,0,uniform,1,undefined,1,s,0,0,0,66,66,0,66,66,0,0,0,66,66,0,66,66,Sat Sep 25 14:56:57 2021,1500,The main experiment item,yes,KS - Flanker Task.osexp,/Users/kaylinsilva/Desktop/Life,no,mono,no,18,no,white,no,yes,768,legacy,66,66,/Users/kaylinsilva/Desktop/Life/KS-subject-2.csv,legacy,Lentiform Loewenfeld,3.3.9,0,s,NA,h,NA,NA,s,425,NA,58791,NA,NA,425,2,legacy,1024,2,48000,-16,experiment,2,even,63021,NA,NA,140623,NA,NA,173248,172181,4224,NA,NA,173245,173352,4219,173352,173778,KS - Flanker Task,65,31936,67,yes,1024
Incongruent,HHSHH,97.05882353,97.05882353,478.25,478.25,black,legacy,legacy,legacy,0,uniform,1,undefined,1,s,0,0,0,67,67,0,67,67,0,0,0,67,67,0,67,67,Sat Sep 25 14:56:57 2021,1500,The main experiment item,yes,KS - Flanker Task.osexp,/Users/kaylinsilva/Desktop/Life,no,mono,no,18,no,white,no,yes,768,legacy,67,67,/Users/kaylinsilva/Desktop/Life/KS-subject-2.csv,legacy,Lentiform Loewenfeld,3.3.9,0,s,NA,h,NA,NA,s,585,NA,58791,NA,NA,585,2,legacy,1024,2,48000,-16,experiment,2,even,63021,NA,NA,140623,NA,NA,174848,173781,4224,NA,NA,174845,174952,4219,174952,175538,KS - Flanker Task,66,32521,68,yes,1024
Incongruent,HHSHH,97.10144928,97.10144928,479.5942029,479.5942029,black,legacy,legacy,legacy,0,uniform,1,undefined,1,s,0,0,0,68,68,0,68,68,0,0,0,68,68,0,68,68,Sat Sep 25 14:56:57 2021,1500,The main experiment item,yes,KS - Flanker Task.osexp,/Users/kaylinsilva/Desktop/Life,no,mono,no,18,no,white,no,yes,768,legacy,68,68,/Users/kaylinsilva/Desktop/Life/KS-subject-2.csv,legacy,Lentiform Loewenfeld,3.3.9,0,s,NA,h,NA,NA,s,571,NA,58791,NA,NA,571,2,legacy,1024,2,48000,-16,experiment,2,even,63021,NA,NA,140623,NA,NA,176608,175541,4224,NA,NA,176605,176713,4219,176713,177285,KS - Flanker Task,67,33092,69,yes,1024
Congruent,SSSSS,97.14285714,97.14285714,479.9142857,479.9142857,black,legacy,legacy,legacy,0,uniform,1,undefined,1,s,0,0,0,69,69,0,69,69,0,0,0,69,69,0,69,69,Sat Sep 25 14:56:57 2021,1500,The main experiment item,yes,KS - Flanker Task.osexp,/Users/kaylinsilva/Desktop/Life,no,mono,no,18,no,white,no,yes,768,legacy,69,69,/Users/kaylinsilva/Desktop/Life/KS-subject-2.csv,legacy,Lentiform Loewenfeld,3.3.9,0,s,NA,h,NA,NA,s,502,NA,58791,NA,NA,502,2,legacy,1024,2,48000,-16,experiment,2,even,63021,NA,NA,140623,NA,NA,178355,177288,4224,NA,NA,178352,178459,4219,178459,178962,KS - Flanker Task,68,33594,70,yes,1024
Incongruent,SSHSS,97.18309859,97.18309859,479.8591549,479.8591549,black,legacy,legacy,legacy,0,uniform,1,undefined,1,h,0,0,0,70,70,0,70,70,0,0,0,70,70,0,70,70,Sat Sep 25 14:56:57 2021,1500,The main experiment item,yes,KS - Flanker Task.osexp,/Users/kaylinsilva/Desktop/Life,no,mono,no,18,no,white,no,yes,768,legacy,70,70,/Users/kaylinsilva/Desktop/Life/KS-subject-2.csv,legacy,Lentiform Loewenfeld,3.3.9,0,h,NA,h,NA,NA,h,476,NA,58791,NA,NA,476,2,legacy,1024,2,48000,-16,experiment,2,even,63021,NA,NA,140623,NA,NA,180032,178965,4224,NA,NA,180029,180136,4219,180136,180613,KS - Flanker Task,69,34070,71,yes,1024
Incongruent,SSHSS,97.22222222,97.22222222,478.6527778,478.6527778,black,legacy,legacy,legacy,0,uniform,1,undefined,1,h,0,0,0,71,71,0,71,71,0,0,0,71,71,0,71,71,Sat Sep 25 14:56:57 2021,1500,The main experiment item,yes,KS - Flanker Task.osexp,/Users/kaylinsilva/Desktop/Life,no,mono,no,18,no,white,no,yes,768,legacy,71,71,/Users/kaylinsilva/Desktop/Life/KS-subject-2.csv,legacy,Lentiform Loewenfeld,3.3.9,0,h,NA,h,NA,NA,h,393,NA,58791,NA,NA,393,2,legacy,1024,2,48000,-16,experiment,2,even,63021,NA,NA,140623,NA,NA,181683,180616,4224,NA,NA,181680,181787,4219,181787,182181,KS - Flanker Task,70,34463,72,yes,1024
Incongruent,SSHSS,97.26027397,97.26027397,477.1369863,477.1369863,black,legacy,legacy,legacy,0,uniform,1,undefined,1,h,0,0,0,72,72,0,72,72,0,0,0,72,72,0,72,72,Sat Sep 25 14:56:57 2021,1500,The main experiment item,yes,KS - Flanker Task.osexp,/Users/kaylinsilva/Desktop/Life,no,mono,no,18,no,white,no,yes,768,legacy,72,72,/Users/kaylinsilva/Desktop/Life/KS-subject-2.csv,legacy,Lentiform Loewenfeld,3.3.9,0,h,NA,h,NA,NA,h,368,NA,58791,NA,NA,368,2,legacy,1024,2,48000,-16,experiment,2,even,63021,NA,NA,140623,NA,NA,183251,182184,4224,NA,NA,183248,183355,4219,183355,183723,KS - Flanker Task,71,34831,73,yes,1024
Congruent,HHHHH,97.2972973,97.2972973,476.8918919,476.8918919,black,legacy,legacy,legacy,0,uniform,1,undefined,1,h,0,0,0,73,73,0,73,73,0,0,0,73,73,0,73,73,Sat Sep 25 14:56:57 2021,1500,The main experiment item,yes,KS - Flanker Task.osexp,/Users/kaylinsilva/Desktop/Life,no,mono,no,18,no,white,no,yes,768,legacy,73,73,/Users/kaylinsilva/Desktop/Life/KS-subject-2.csv,legacy,Lentiform Loewenfeld,3.3.9,0,h,NA,h,NA,NA,h,459,NA,58791,NA,NA,459,2,legacy,1024,2,48000,-16,experiment,2,even,63021,NA,NA,140623,NA,NA,184793,183726,4224,NA,NA,184790,184897,4219,184897,185357,KS - Flanker Task,72,35290,74,yes,1024
Congruent,HHHHH,97.33333333,97.33333333,475.8666667,475.8666667,black,legacy,legacy,legacy,0,uniform,1,undefined,1,h,0,0,0,74,74,0,74,74,0,0,0,74,74,0,74,74,Sat Sep 25 14:56:57 2021,1500,The main experiment item,yes,KS - Flanker Task.osexp,/Users/kaylinsilva/Desktop/Life,no,mono,no,18,no,white,no,yes,768,legacy,74,74,/Users/kaylinsilva/Desktop/Life/KS-subject-2.csv,legacy,Lentiform Loewenfeld,3.3.9,0,h,NA,h,NA,NA,h,400,NA,58791,NA,NA,400,2,legacy,1024,2,48000,-16,experiment,2,even,63021,NA,NA,140623,NA,NA,186427,185360,4224,NA,NA,186424,186531,4219,186531,186932,KS - Flanker Task,73,35690,75,yes,1024
Congruent,SSSSS,97.36842105,97.36842105,474.5131579,474.5131579,black,legacy,legacy,legacy,0,uniform,1,undefined,1,s,0,0,0,75,75,0,75,75,0,0,0,75,75,0,75,75,Sat Sep 25 14:56:57 2021,1500,The main experiment item,yes,KS - Flanker Task.osexp,/Users/kaylinsilva/Desktop/Life,no,mono,no,18,no,white,no,yes,768,legacy,75,75,/Users/kaylinsilva/Desktop/Life/KS-subject-2.csv,legacy,Lentiform Loewenfeld,3.3.9,0,s,NA,h,NA,NA,s,373,NA,58791,NA,NA,373,2,legacy,1024,2,48000,-16,experiment,2,even,63021,NA,NA,140623,NA,NA,188002,186935,4224,NA,NA,187999,188106,4219,188106,188479,KS - Flanker Task,74,36063,76,yes,1024
Incongruent,SSHSS,97.4025974,97.4025974,474.3116883,474.3116883,black,legacy,legacy,legacy,0,uniform,1,undefined,1,h,0,0,0,76,76,0,76,76,0,0,0,76,76,0,76,76,Sat Sep 25 14:56:57 2021,1500,The main experiment item,yes,KS - Flanker Task.osexp,/Users/kaylinsilva/Desktop/Life,no,mono,no,18,no,white,no,yes,768,legacy,76,76,/Users/kaylinsilva/Desktop/Life/KS-subject-2.csv,legacy,Lentiform Loewenfeld,3.3.9,0,h,NA,h,NA,NA,h,459,NA,58791,NA,NA,459,2,legacy,1024,2,48000,-16,experiment,2,even,63021,NA,NA,140623,NA,NA,189549,188482,4224,NA,NA,189546,189653,4219,189653,190113,KS - Flanker Task,75,36522,77,yes,1024
Congruent,HHHHH,97.43589744,97.43589744,472.9230769,472.9230769,black,legacy,legacy,legacy,0,uniform,1,undefined,1,h,0,0,0,77,77,0,77,77,0,0,0,77,77,0,77,77,Sat Sep 25 14:56:57 2021,1500,The main experiment item,yes,KS - Flanker Task.osexp,/Users/kaylinsilva/Desktop/Life,no,mono,no,18,no,white,no,yes,768,legacy,77,77,/Users/kaylinsilva/Desktop/Life/KS-subject-2.csv,legacy,Lentiform Loewenfeld,3.3.9,0,h,NA,h,NA,NA,h,366,NA,58791,NA,NA,366,2,legacy,1024,2,48000,-16,experiment,2,even,63021,NA,NA,140623,NA,NA,191183,190116,4224,NA,NA,191180,191287,4219,191287,191653,KS - Flanker Task,76,36888,78,yes,1024
Incongruent,SSHSS,97.46835443,97.46835443,471.9873418,471.9873418,black,legacy,legacy,legacy,0,uniform,1,undefined,1,h,0,0,0,78,78,0,78,78,0,0,0,78,78,0,78,78,Sat Sep 25 14:56:57 2021,1500,The main experiment item,yes,KS - Flanker Task.osexp,/Users/kaylinsilva/Desktop/Life,no,mono,no,18,no,white,no,yes,768,legacy,78,78,/Users/kaylinsilva/Desktop/Life/KS-subject-2.csv,legacy,Lentiform Loewenfeld,3.3.9,0,h,NA,h,NA,NA,h,399,NA,58791,NA,NA,399,2,legacy,1024,2,48000,-16,experiment,2,even,63021,NA,NA,140623,NA,NA,192724,191657,4224,NA,NA,192721,192828,4219,192828,193228,KS - Flanker Task,77,37287,79,yes,1024
Incongruent,SSHSS,97.5,97.5,471.4,471.4,black,legacy,legacy,legacy,0,uniform,1,undefined,1,h,0,0,0,79,79,0,79,79,0,0,0,79,79,0,79,79,Sat Sep 25 14:56:57 2021,1500,The main experiment item,yes,KS - Flanker Task.osexp,/Users/kaylinsilva/Desktop/Life,no,mono,no,18,no,white,no,yes,768,legacy,79,79,/Users/kaylinsilva/Desktop/Life/KS-subject-2.csv,legacy,Lentiform Loewenfeld,3.3.9,0,h,NA,h,NA,NA,h,425,NA,58791,NA,NA,425,2,legacy,1024,2,48000,-16,experiment,2,even,63021,NA,NA,140623,NA,NA,194299,193231,4224,NA,NA,194295,194403,4219,194404,194830,KS - Flanker Task,78,37712,80,yes,1024
Incongruent,HHSHH,97.5308642,97.5308642,474.617284,474.617284,black,legacy,legacy,legacy,0,uniform,1,undefined,1,s,0,0,0,80,80,0,80,80,0,0,0,80,80,0,80,80,Sat Sep 25 14:56:57 2021,600,The main experiment item,yes,KS - Flanker Task.osexp,/Users/kaylinsilva/Desktop/Life,no,mono,no,18,no,white,no,yes,768,legacy,0,79,/Users/kaylinsilva/Desktop/Life/KS-subject-2.csv,legacy,Lentiform Loewenfeld,3.3.9,0,s,NA,h,s,NA,s,732,NA,58791,39205,NA,732,2,legacy,1024,2,48000,-16,experiment,2,even,63021,235071,NA,140623,NA,NA,235100,194833,4224,195865,NA,235097,235205,4219,235205,235938,KS - Flanker Task,79,38444,81,yes,1024
Incongruent,SSHSS,97.56097561,97.56097561,472.6707317,472.6707317,black,legacy,legacy,legacy,0,uniform,1,undefined,1,h,0,0,0,81,81,0,81,81,0,0,0,81,81,0,81,81,Sat Sep 25 14:56:57 2021,600,The main experiment item,yes,KS - Flanker Task.osexp,/Users/kaylinsilva/Desktop/Life,no,mono,no,18,no,white,no,yes,768,legacy,1,79,/Users/kaylinsilva/Desktop/Life/KS-subject-2.csv,legacy,Lentiform Loewenfeld,3.3.9,0,h,NA,h,s,NA,h,315,NA,58791,39205,NA,315,2,legacy,1024,2,48000,-16,experiment,2,even,63021,235071,NA,140623,235941,NA,237513,236445,4224,195865,NA,237510,237617,4219,237617,237933,KS - Flanker Task,80,38759,82,yes,1024
Incongruent,SSHSS,97.59036145,97.59036145,470.6746988,470.6746988,black,legacy,legacy,legacy,0,uniform,1,undefined,1,h,0,0,0,82,82,0,82,82,0,0,0,82,82,0,82,82,Sat Sep 25 14:56:57 2021,600,The main experiment item,yes,KS - Flanker Task.osexp,/Users/kaylinsilva/Desktop/Life,no,mono,no,18,no,white,no,yes,768,legacy,2,79,/Users/kaylinsilva/Desktop/Life/KS-subject-2.csv,legacy,Lentiform Loewenfeld,3.3.9,0,h,NA,h,s,NA,h,307,NA,58791,39205,NA,307,2,legacy,1024,2,48000,-16,experiment,2,even,63021,235071,NA,140623,235941,NA,239005,237936,4224,195865,NA,239002,239109,4219,239109,239417,KS - Flanker Task,81,39066,83,yes,1024
Congruent,SSSSS,97.61904762,97.61904762,468.3690476,468.3690476,black,legacy,legacy,legacy,0,uniform,1,undefined,1,s,0,0,0,83,83,0,83,83,0,0,0,83,83,0,83,83,Sat Sep 25 14:56:57 2021,600,The main experiment item,yes,KS - Flanker Task.osexp,/Users/kaylinsilva/Desktop/Life,no,mono,no,18,no,white,no,yes,768,legacy,3,79,/Users/kaylinsilva/Desktop/Life/KS-subject-2.csv,legacy,Lentiform Loewenfeld,3.3.9,0,s,NA,h,s,NA,s,277,NA,58791,39205,NA,277,2,legacy,1024,2,48000,-16,experiment,2,even,63021,235071,NA,140623,235941,NA,240488,239420,4224,195865,NA,240485,240592,4219,240592,240870,KS - Flanker Task,82,39343,84,yes,1024
Congruent,HHHHH,96.47058824,96.47058824,466.6,466.6,black,legacy,legacy,legacy,0,uniform,0,undefined,0,h,0,0,0,84,84,0,84,84,0,0,0,84,84,0,84,84,Sat Sep 25 14:56:57 2021,600,The main experiment item,yes,KS - Flanker Task.osexp,/Users/kaylinsilva/Desktop/Life,no,mono,no,18,no,white,no,yes,768,legacy,4,79,/Users/kaylinsilva/Desktop/Life/KS-subject-2.csv,legacy,Lentiform Loewenfeld,3.3.9,0,s,NA,h,s,NA,s,318,NA,58791,39205,NA,318,2,legacy,1024,2,48000,-16,experiment,2,even,63021,235071,NA,140623,235941,NA,241942,240873,4224,195865,NA,241938,242046,4219,242046,242365,KS - Flanker Task,82,39661,85,yes,1024
Incongruent,SSHSS,96.51162791,96.51162791,465.0232558,465.0232558,black,legacy,legacy,legacy,0,uniform,1,undefined,1,h,0,0,0,85,85,0,85,85,0,0,0,85,85,0,85,85,Sat Sep 25 14:56:57 2021,600,The main experiment item,yes,KS - Flanker Task.osexp,/Users/kaylinsilva/Desktop/Life,no,mono,no,18,no,white,no,yes,768,legacy,5,79,/Users/kaylinsilva/Desktop/Life/KS-subject-2.csv,legacy,Lentiform Loewenfeld,3.3.9,0,h,NA,h,s,NA,h,331,NA,58791,39205,NA,331,2,legacy,1024,2,48000,-16,experiment,2,even,63021,235071,NA,242368,235941,NA,243942,242873,4224,195865,NA,243939,244046,4219,244046,244378,KS - Flanker Task,83,39992,86,yes,1024
Incongruent,SSHSS,96.55172414,96.55172414,463.2758621,463.2758621,black,legacy,legacy,legacy,0,uniform,1,undefined,1,h,0,0,0,86,86,0,86,86,0,0,0,86,86,0,86,86,Sat Sep 25 14:56:57 2021,600,The main experiment item,yes,KS - Flanker Task.osexp,/Users/kaylinsilva/Desktop/Life,no,mono,no,18,no,white,no,yes,768,legacy,6,79,/Users/kaylinsilva/Desktop/Life/KS-subject-2.csv,legacy,Lentiform Loewenfeld,3.3.9,0,h,NA,h,s,NA,h,313,NA,58791,39205,NA,313,2,legacy,1024,2,48000,-16,experiment,2,even,63021,235071,NA,242368,235941,NA,245449,244381,4224,195865,NA,245446,245553,4219,245553,245867,KS - Flanker Task,84,40305,87,yes,1024
Incongruent,HHSHH,96.59090909,96.59090909,464.3295455,464.3295455,black,legacy,legacy,legacy,0,uniform,1,undefined,1,s,0,0,0,87,87,0,87,87,0,0,0,87,87,0,87,87,Sat Sep 25 14:56:57 2021,600,The main experiment item,yes,KS - Flanker Task.osexp,/Users/kaylinsilva/Desktop/Life,no,mono,no,18,no,white,no,yes,768,legacy,7,79,/Users/kaylinsilva/Desktop/Life/KS-subject-2.csv,legacy,Lentiform Loewenfeld,3.3.9,0,s,NA,h,s,NA,s,556,NA,58791,39205,NA,556,2,legacy,1024,2,48000,-16,experiment,2,even,63021,235071,NA,242368,235941,NA,246938,245870,4224,195865,NA,246935,247042,4219,247042,247599,KS - Flanker Task,85,40861,88,yes,1024
Incongruent,SSHSS,96.62921348,96.62921348,463.9101124,463.9101124,black,legacy,legacy,legacy,0,uniform,1,undefined,1,h,0,0,0,88,88,0,88,88,0,0,0,88,88,0,88,88,Sat Sep 25 14:56:57 2021,600,The main experiment item,yes,KS - Flanker Task.osexp,/Users/kaylinsilva/Desktop/Life,no,mono,no,18,no,white,no,yes,768,legacy,8,79,/Users/kaylinsilva/Desktop/Life/KS-subject-2.csv,legacy,Lentiform Loewenfeld,3.3.9,0,h,NA,h,s,NA,h,427,NA,58791,39205,NA,427,2,legacy,1024,2,48000,-16,experiment,2,even,63021,235071,NA,242368,235941,NA,248670,247602,4224,195865,NA,248667,248774,4219,248774,249202,KS - Flanker Task,86,41288,89,yes,1024
Incongruent,SSHSS,96.66666667,96.66666667,463.1777778,463.1777778,black,legacy,legacy,legacy,0,uniform,1,undefined,1,h,0,0,0,89,89,0,89,89,0,0,0,89,89,0,89,89,Sat Sep 25 14:56:57 2021,600,The main experiment item,yes,KS - Flanker Task.osexp,/Users/kaylinsilva/Desktop/Life,no,mono,no,18,no,white,no,yes,768,legacy,9,79,/Users/kaylinsilva/Desktop/Life/KS-subject-2.csv,legacy,Lentiform Loewenfeld,3.3.9,0,h,NA,h,s,NA,h,398,NA,58791,39205,NA,398,2,legacy,1024,2,48000,-16,experiment,2,even,63021,235071,NA,242368,235941,NA,250273,249205,4224,195865,NA,250270,250377,4219,250377,250776,KS - Flanker Task,87,41686,90,yes,1024
Incongruent,HHSHH,96.7032967,96.7032967,462.2307692,462.2307692,black,legacy,legacy,legacy,0,uniform,1,undefined,1,s,0,0,0,90,90,0,90,90,0,0,0,90,90,0,90,90,Sat Sep 25 14:56:57 2021,600,The main experiment item,yes,KS - Flanker Task.osexp,/Users/kaylinsilva/Desktop/Life,no,mono,no,18,no,white,no,yes,768,legacy,10,79,/Users/kaylinsilva/Desktop/Life/KS-subject-2.csv,legacy,Lentiform Loewenfeld,3.3.9,0,s,NA,h,s,NA,s,377,NA,58791,39205,NA,377,2,legacy,1024,2,48000,-16,experiment,2,even,63021,235071,NA,242368,235941,NA,251848,250779,4224,195865,NA,251845,251952,4219,251952,252330,KS - Flanker Task,88,42063,91,yes,1024
Incongruent,SSHSS,95.65217391,95.65217391,460.75,460.75,black,legacy,legacy,legacy,0,uniform,0,undefined,0,h,0,0,0,91,91,0,91,91,0,0,0,91,91,0,91,91,Sat Sep 25 14:56:57 2021,600,The main experiment item,yes,KS - Flanker Task.osexp,/Users/kaylinsilva/Desktop/Life,no,mono,no,18,no,white,no,yes,768,legacy,11,79,/Users/kaylinsilva/Desktop/Life/KS-subject-2.csv,legacy,Lentiform Loewenfeld,3.3.9,0,s,NA,h,s,NA,s,326,NA,58791,39205,NA,326,2,legacy,1024,2,48000,-16,experiment,2,even,63021,235071,NA,242368,235941,NA,253400,252333,4224,195865,NA,253397,253504,4219,253504,253831,KS - Flanker Task,88,42389,92,yes,1024
Congruent,HHHHH,95.69892473,95.69892473,460.311828,460.311828,black,legacy,legacy,legacy,0,uniform,1,undefined,1,h,0,0,0,92,92,0,92,92,0,0,0,92,92,0,92,92,Sat Sep 25 14:56:57 2021,600,The main experiment item,yes,KS - Flanker Task.osexp,/Users/kaylinsilva/Desktop/Life,no,mono,no,18,no,white,no,yes,768,legacy,12,79,/Users/kaylinsilva/Desktop/Life/KS-subject-2.csv,legacy,Lentiform Loewenfeld,3.3.9,0,h,NA,h,s,NA,h,420,NA,58791,39205,NA,420,2,legacy,1024,2,48000,-16,experiment,2,even,63021,235071,NA,253834,235941,NA,255407,254339,4224,195865,NA,255404,255511,4219,255512,255932,KS - Flanker Task,89,42809,93,yes,1024
Incongruent,HHSHH,95.74468085,95.74468085,460.0744681,460.0744681,black,legacy,legacy,legacy,0,uniform,1,undefined,1,s,0,0,0,93,93,0,93,93,0,0,0,93,93,0,93,93,Sat Sep 25 14:56:57 2021,600,The main experiment item,yes,KS - Flanker Task.osexp,/Users/kaylinsilva/Desktop/Life,no,mono,no,18,no,white,no,yes,768,legacy,13,79,/Users/kaylinsilva/Desktop/Life/KS-subject-2.csv,legacy,Lentiform Loewenfeld,3.3.9,0,s,NA,h,s,NA,s,438,NA,58791,39205,NA,438,2,legacy,1024,2,48000,-16,experiment,2,even,63021,235071,NA,253834,235941,NA,257004,255935,4224,195865,NA,257001,257108,4219,257108,257547,KS - Flanker Task,90,43247,94,yes,1024
Incongruent,HHSHH,95.78947368,95.78947368,459.7473684,459.7473684,black,legacy,legacy,legacy,0,uniform,1,undefined,1,s,0,0,0,94,94,0,94,94,0,0,0,94,94,0,94,94,Sat Sep 25 14:56:57 2021,600,The main experiment item,yes,KS - Flanker Task.osexp,/Users/kaylinsilva/Desktop/Life,no,mono,no,18,no,white,no,yes,768,legacy,14,79,/Users/kaylinsilva/Desktop/Life/KS-subject-2.csv,legacy,Lentiform Loewenfeld,3.3.9,0,s,NA,h,s,NA,s,429,NA,58791,39205,NA,429,2,legacy,1024,2,48000,-16,experiment,2,even,63021,235071,NA,253834,235941,NA,258619,257551,4224,195865,NA,258616,258723,4219,258723,259153,KS - Flanker Task,91,43676,95,yes,1024
Congruent,SSSSS,95.83333333,95.83333333,458.7708333,458.7708333,black,legacy,legacy,legacy,0,uniform,1,undefined,1,s,0,0,0,95,95,0,95,95,0,0,0,95,95,0,95,95,Sat Sep 25 14:56:57 2021,600,The main experiment item,yes,KS - Flanker Task.osexp,/Users/kaylinsilva/Desktop/Life,no,mono,no,18,no,white,no,yes,768,legacy,15,79,/Users/kaylinsilva/Desktop/Life/KS-subject-2.csv,legacy,Lentiform Loewenfeld,3.3.9,0,s,NA,h,s,NA,s,366,NA,58791,39205,NA,366,2,legacy,1024,2,48000,-16,experiment,2,even,63021,235071,NA,253834,235941,NA,260224,259157,4224,195865,NA,260221,260329,4219,260329,260696,KS - Flanker Task,92,44042,96,yes,1024
Incongruent,SSHSS,95.87628866,95.87628866,458.371134,458.371134,black,legacy,legacy,legacy,0,uniform,1,undefined,1,h,0,0,0,96,96,0,96,96,0,0,0,96,96,0,96,96,Sat Sep 25 14:56:57 2021,600,The main experiment item,yes,KS - Flanker Task.osexp,/Users/kaylinsilva/Desktop/Life,no,mono,no,18,no,white,no,yes,768,legacy,16,79,/Users/kaylinsilva/Desktop/Life/KS-subject-2.csv,legacy,Lentiform Loewenfeld,3.3.9,0,h,NA,h,s,NA,h,420,NA,58791,39205,NA,420,2,legacy,1024,2,48000,-16,experiment,2,even,63021,235071,NA,253834,235941,NA,261782,260700,4224,195865,NA,261779,261886,4219,261886,262307,KS - Flanker Task,93,44462,97,yes,1024
Congruent,HHHHH,95.91836735,95.91836735,457.4285714,457.4285714,black,legacy,legacy,legacy,0,uniform,1,undefined,1,h,0,0,0,97,97,0,97,97,0,0,0,97,97,0,97,97,Sat Sep 25 14:56:57 2021,600,The main experiment item,yes,KS - Flanker Task.osexp,/Users/kaylinsilva/Desktop/Life,no,mono,no,18,no,white,no,yes,768,legacy,17,79,/Users/kaylinsilva/Desktop/Life/KS-subject-2.csv,legacy,Lentiform Loewenfeld,3.3.9,0,h,NA,h,s,NA,h,366,NA,58791,39205,NA,366,2,legacy,1024,2,48000,-16,experiment,2,even,63021,235071,NA,253834,235941,NA,263379,262311,4224,195865,NA,263376,263483,4219,263483,263850,KS - Flanker Task,94,44828,98,yes,1024
Incongruent,SSHSS,95.95959596,95.95959596,457.8181818,457.8181818,black,legacy,legacy,legacy,0,uniform,1,undefined,1,h,0,0,0,98,98,0,98,98,0,0,0,98,98,0,98,98,Sat Sep 25 14:56:57 2021,600,The main experiment item,yes,KS - Flanker Task.osexp,/Users/kaylinsilva/Desktop/Life,no,mono,no,18,no,white,no,yes,768,legacy,18,79,/Users/kaylinsilva/Desktop/Life/KS-subject-2.csv,legacy,Lentiform Loewenfeld,3.3.9,0,h,NA,h,s,NA,h,496,NA,58791,39205,NA,496,2,legacy,1024,2,48000,-16,experiment,2,even,63021,235071,NA,253834,235941,NA,264922,263853,4224,195865,NA,264919,265026,4219,265026,265523,KS - Flanker Task,95,45324,99,yes,1024
Congruent,SSSSS,96,96,457.85,457.85,black,legacy,legacy,legacy,0,uniform,1,undefined,1,s,0,0,0,99,99,0,99,99,0,0,0,99,99,0,99,99,Sat Sep 25 14:56:57 2021,600,The main experiment item,yes,KS - Flanker Task.osexp,/Users/kaylinsilva/Desktop/Life,no,mono,no,18,no,white,no,yes,768,legacy,19,79,/Users/kaylinsilva/Desktop/Life/KS-subject-2.csv,legacy,Lentiform Loewenfeld,3.3.9,0,s,NA,h,s,NA,s,461,NA,58791,39205,NA,461,2,legacy,1024,2,48000,-16,experiment,2,even,63021,235071,NA,253834,235941,NA,266593,265526,4224,195865,NA,266590,266697,4219,266697,267159,KS - Flanker Task,96,45785,100,yes,1024
Congruent,HHHHH,96.03960396,96.03960396,457.4257426,457.4257426,black,legacy,legacy,legacy,0,uniform,1,undefined,1,h,0,0,0,100,100,0,100,100,0,0,0,100,100,0,100,100,Sat Sep 25 14:56:57 2021,600,The main experiment item,yes,KS - Flanker Task.osexp,/Users/kaylinsilva/Desktop/Life,no,mono,no,18,no,white,no,yes,768,legacy,20,79,/Users/kaylinsilva/Desktop/Life/KS-subject-2.csv,legacy,Lentiform Loewenfeld,3.3.9,0,h,NA,h,s,NA,h,415,NA,58791,39205,NA,415,2,legacy,1024,2,48000,-16,experiment,2,even,63021,235071,NA,253834,235941,NA,268232,267163,4224,195865,NA,268228,268336,4219,268336,268751,KS - Flanker Task,97,46200,101,yes,1024
Incongruent,SSHSS,96.07843137,96.07843137,457.9803922,457.9803922,black,legacy,legacy,legacy,0,uniform,1,undefined,1,h,0,0,0,101,101,0,101,101,0,0,0,101,101,0,101,101,Sat Sep 25 14:56:57 2021,600,The main experiment item,yes,KS - Flanker Task.osexp,/Users/kaylinsilva/Desktop/Life,no,mono,no,18,no,white,no,yes,768,legacy,21,79,/Users/kaylinsilva/Desktop/Life/KS-subject-2.csv,legacy,Lentiform Loewenfeld,3.3.9,0,h,NA,h,s,NA,h,514,NA,58791,39205,NA,514,2,legacy,1024,2,48000,-16,experiment,2,even,63021,235071,NA,253834,235941,NA,269824,268755,4224,195865,NA,269821,269928,4219,269928,270443,KS - Flanker Task,98,46714,102,yes,1024
Congruent,SSSSS,96.11650485,96.11650485,457.0097087,457.0097087,black,legacy,legacy,legacy,0,uniform,1,undefined,1,s,0,0,0,102,102,0,102,102,0,0,0,102,102,0,102,102,Sat Sep 25 14:56:57 2021,600,The main experiment item,yes,KS - Flanker Task.osexp,/Users/kaylinsilva/Desktop/Life,no,mono,no,18,no,white,no,yes,768,legacy,22,79,/Users/kaylinsilva/Desktop/Life/KS-subject-2.csv,legacy,Lentiform Loewenfeld,3.3.9,0,s,NA,h,s,NA,s,358,NA,58791,39205,NA,358,2,legacy,1024,2,48000,-16,experiment,2,even,63021,235071,NA,253834,235941,NA,271514,270446,4224,195865,NA,271511,271618,4219,271618,271977,KS - Flanker Task,99,47072,103,yes,1024
Incongruent,HHSHH,96.15384615,96.15384615,456.9807692,456.9807692,black,legacy,legacy,legacy,0,uniform,1,undefined,1,s,0,0,0,103,103,0,103,103,0,0,0,103,103,0,103,103,Sat Sep 25 14:56:57 2021,600,The main experiment item,yes,KS - Flanker Task.osexp,/Users/kaylinsilva/Desktop/Life,no,mono,no,18,no,white,no,yes,768,legacy,23,79,/Users/kaylinsilva/Desktop/Life/KS-subject-2.csv,legacy,Lentiform Loewenfeld,3.3.9,0,s,NA,h,s,NA,s,454,NA,58791,39205,NA,454,2,legacy,1024,2,48000,-16,experiment,2,even,63021,235071,NA,253834,235941,NA,273048,271980,4224,195865,NA,273045,273152,4219,273152,273607,KS - Flanker Task,100,47526,104,yes,1024
Congruent,HHHHH,96.19047619,96.19047619,456.6571429,456.6571429,black,legacy,legacy,legacy,0,uniform,1,undefined,1,h,0,0,0,104,104,0,104,104,0,0,0,104,104,0,104,104,Sat Sep 25 14:56:57 2021,600,The main experiment item,yes,KS - Flanker Task.osexp,/Users/kaylinsilva/Desktop/Life,no,mono,no,18,no,white,no,yes,768,legacy,24,79,/Users/kaylinsilva/Desktop/Life/KS-subject-2.csv,legacy,Lentiform Loewenfeld,3.3.9,0,h,NA,h,s,NA,h,423,NA,58791,39205,NA,423,2,legacy,1024,2,48000,-16,experiment,2,even,63021,235071,NA,253834,235941,NA,274677,273610,4224,195865,NA,274674,274783,4219,274784,275208,KS - Flanker Task,101,47949,105,yes,1024
Congruent,SSSSS,96.22641509,96.22641509,455.3396226,455.3396226,black,legacy,legacy,legacy,0,uniform,1,undefined,1,s,0,0,0,105,105,0,105,105,0,0,0,105,105,0,105,105,Sat Sep 25 14:56:57 2021,600,The main experiment item,yes,KS - Flanker Task.osexp,/Users/kaylinsilva/Desktop/Life,no,mono,no,18,no,white,no,yes,768,legacy,25,79,/Users/kaylinsilva/Desktop/Life/KS-subject-2.csv,legacy,Lentiform Loewenfeld,3.3.9,0,s,NA,h,s,NA,s,317,NA,58791,39205,NA,317,2,legacy,1024,2,48000,-16,experiment,2,even,63021,235071,NA,253834,235941,NA,276278,275211,4224,195865,NA,276275,276382,4219,276382,276700,KS - Flanker Task,102,48266,106,yes,1024
Congruent,HHHHH,96.26168224,96.26168224,454.7850467,454.7850467,black,legacy,legacy,legacy,0,uniform,1,undefined,1,h,0,0,0,106,106,0,106,106,0,0,0,106,106,0,106,106,Sat Sep 25 14:56:57 2021,600,The main experiment item,yes,KS - Flanker Task.osexp,/Users/kaylinsilva/Desktop/Life,no,mono,no,18,no,white,no,yes,768,legacy,26,79,/Users/kaylinsilva/Desktop/Life/KS-subject-2.csv,legacy,Lentiform Loewenfeld,3.3.9,0,h,NA,h,s,NA,h,396,NA,58791,39205,NA,396,2,legacy,1024,2,48000,-16,experiment,2,even,63021,235071,NA,253834,235941,NA,277771,276703,4224,195865,NA,277768,277875,4219,277875,278272,KS - Flanker Task,103,48662,107,yes,1024
Congruent,SSSSS,96.2962963,96.2962963,453.9722222,453.9722222,black,legacy,legacy,legacy,0,uniform,1,undefined,1,s,0,0,0,107,107,0,107,107,0,0,0,107,107,0,107,107,Sat Sep 25 14:56:57 2021,600,The main experiment item,yes,KS - Flanker Task.osexp,/Users/kaylinsilva/Desktop/Life,no,mono,no,18,no,white,no,yes,768,legacy,27,79,/Users/kaylinsilva/Desktop/Life/KS-subject-2.csv,legacy,Lentiform Loewenfeld,3.3.9,0,s,NA,h,s,NA,s,367,NA,58791,39205,NA,367,2,legacy,1024,2,48000,-16,experiment,2,even,63021,235071,NA,253834,235941,NA,279343,278275,4224,195865,NA,279340,279447,4219,279447,279815,KS - Flanker Task,104,49029,108,yes,1024
Congruent,HHHHH,96.33027523,96.33027523,453.3944954,453.3944954,black,legacy,legacy,legacy,0,uniform,1,undefined,1,h,0,0,0,108,108,0,108,108,0,0,0,108,108,0,108,108,Sat Sep 25 14:56:57 2021,600,The main experiment item,yes,KS - Flanker Task.osexp,/Users/kaylinsilva/Desktop/Life,no,mono,no,18,no,white,no,yes,768,legacy,28,79,/Users/kaylinsilva/Desktop/Life/KS-subject-2.csv,legacy,Lentiform Loewenfeld,3.3.9,0,h,NA,h,s,NA,h,391,NA,58791,39205,NA,391,2,legacy,1024,2,48000,-16,experiment,2,even,63021,235071,NA,253834,235941,NA,280885,279818,4224,195865,NA,280882,280989,4219,280989,281381,KS - Flanker Task,105,49420,109,yes,1024
Incongruent,HHSHH,96.36363636,96.36363636,452.7727273,452.7727273,black,legacy,legacy,legacy,0,uniform,1,undefined,1,s,0,0,0,109,109,0,109,109,0,0,0,109,109,0,109,109,Sat Sep 25 14:56:57 2021,600,The main experiment item,yes,KS - Flanker Task.osexp,/Users/kaylinsilva/Desktop/Life,no,mono,no,18,no,white,no,yes,768,legacy,29,79,/Users/kaylinsilva/Desktop/Life/KS-subject-2.csv,legacy,Lentiform Loewenfeld,3.3.9,0,s,NA,h,s,NA,s,385,NA,58791,39205,NA,385,2,legacy,1024,2,48000,-16,experiment,2,even,63021,235071,NA,253834,235941,NA,282452,281384,4224,195865,NA,282449,282557,4219,282557,282943,KS - Flanker Task,106,49805,110,yes,1024
Congruent,SSSSS,96.3963964,96.3963964,452.8558559,452.8558559,black,legacy,legacy,legacy,0,uniform,1,undefined,1,s,0,0,0,110,110,0,110,110,0,0,0,110,110,0,110,110,Sat Sep 25 14:56:57 2021,600,The main experiment item,yes,KS - Flanker Task.osexp,/Users/kaylinsilva/Desktop/Life,no,mono,no,18,no,white,no,yes,768,legacy,30,79,/Users/kaylinsilva/Desktop/Life/KS-subject-2.csv,legacy,Lentiform Loewenfeld,3.3.9,0,s,NA,h,s,NA,s,462,NA,58791,39205,NA,462,2,legacy,1024,2,48000,-16,experiment,2,even,63021,235071,NA,253834,235941,NA,284014,282946,4224,195865,NA,284011,284118,4219,284118,284581,KS - Flanker Task,107,50267,111,yes,1024
Incongruent,SSHSS,95.53571429,95.53571429,451.3035714,451.3035714,black,legacy,legacy,legacy,0,uniform,0,undefined,0,h,0,0,0,111,111,0,111,111,0,0,0,111,111,0,111,111,Sat Sep 25 14:56:57 2021,600,The main experiment item,yes,KS - Flanker Task.osexp,/Users/kaylinsilva/Desktop/Life,no,mono,no,18,no,white,no,yes,768,legacy,31,79,/Users/kaylinsilva/Desktop/Life/KS-subject-2.csv,legacy,Lentiform Loewenfeld,3.3.9,0,s,NA,h,s,NA,s,279,NA,58791,39205,NA,279,2,legacy,1024,2,48000,-16,experiment,2,even,63021,235071,NA,253834,235941,NA,285666,284584,4224,195865,NA,285662,285770,4219,285770,286050,KS - Flanker Task,107,50546,112,yes,1024
Incongruent,SSHSS,95.57522124,95.57522124,451.1504425,451.1504425,black,legacy,legacy,legacy,0,uniform,1,undefined,1,h,0,0,0,112,112,0,112,112,0,0,0,112,112,0,112,112,Sat Sep 25 14:56:57 2021,600,The main experiment item,yes,KS - Flanker Task.osexp,/Users/kaylinsilva/Desktop/Life,no,mono,no,18,no,white,no,yes,768,legacy,32,79,/Users/kaylinsilva/Desktop/Life/KS-subject-2.csv,legacy,Lentiform Loewenfeld,3.3.9,0,h,NA,h,s,NA,h,434,NA,58791,39205,NA,434,2,legacy,1024,2,48000,-16,experiment,2,even,63021,235071,NA,286054,235941,NA,287626,286558,4224,195865,NA,287623,287730,4219,287730,288165,KS - Flanker Task,108,50980,113,yes,1024
Congruent,SSSSS,95.61403509,95.61403509,450.5438596,450.5438596,black,legacy,legacy,legacy,0,uniform,1,undefined,1,s,0,0,0,113,113,0,113,113,0,0,0,113,113,0,113,113,Sat Sep 25 14:56:57 2021,600,The main experiment item,yes,KS - Flanker Task.osexp,/Users/kaylinsilva/Desktop/Life,no,mono,no,18,no,white,no,yes,768,legacy,33,79,/Users/kaylinsilva/Desktop/Life/KS-subject-2.csv,legacy,Lentiform Loewenfeld,3.3.9,0,s,NA,h,s,NA,s,382,NA,58791,39205,NA,382,2,legacy,1024,2,48000,-16,experiment,2,even,63021,235071,NA,286054,235941,NA,289237,288168,4224,195865,NA,289234,289341,4219,289341,289724,KS - Flanker Task,109,51362,114,yes,1024
Incongruent,SSHSS,95.65217391,95.65217391,450.226087,450.226087,black,legacy,legacy,legacy,0,uniform,1,undefined,1,h,0,0,0,114,114,0,114,114,0,0,0,114,114,0,114,114,Sat Sep 25 14:56:57 2021,600,The main experiment item,yes,KS - Flanker Task.osexp,/Users/kaylinsilva/Desktop/Life,no,mono,no,18,no,white,no,yes,768,legacy,34,79,/Users/kaylinsilva/Desktop/Life/KS-subject-2.csv,legacy,Lentiform Loewenfeld,3.3.9,0,h,NA,h,s,NA,h,414,NA,58791,39205,NA,414,2,legacy,1024,2,48000,-16,experiment,2,even,63021,235071,NA,286054,235941,NA,290795,289727,4224,195865,NA,290792,290899,4219,290899,291314,KS - Flanker Task,110,51776,115,yes,1024
Incongruent,HHSHH,95.68965517,95.68965517,451.0603448,451.0603448,black,legacy,legacy,legacy,0,uniform,1,undefined,1,s,0,0,0,115,115,0,115,115,0,0,0,115,115,0,115,115,Sat Sep 25 14:56:57 2021,600,The main experiment item,yes,KS - Flanker Task.osexp,/Users/kaylinsilva/Desktop/Life,no,mono,no,18,no,white,no,yes,768,legacy,35,79,/Users/kaylinsilva/Desktop/Life/KS-subject-2.csv,legacy,Lentiform Loewenfeld,3.3.9,0,s,NA,h,s,NA,s,547,NA,58791,39205,NA,547,2,legacy,1024,2,48000,-16,experiment,2,even,63021,235071,NA,286054,235941,NA,292385,291317,4224,195865,NA,292382,292489,4219,292489,293037,KS - Flanker Task,111,52323,116,yes,1024
Congruent,HHHHH,95.72649573,95.72649573,450.5470085,450.5470085,black,legacy,legacy,legacy,0,uniform,1,undefined,1,h,0,0,0,116,116,0,116,116,0,0,0,116,116,0,116,116,Sat Sep 25 14:56:57 2021,600,The main experiment item,yes,KS - Flanker Task.osexp,/Users/kaylinsilva/Desktop/Life,no,mono,no,18,no,white,no,yes,768,legacy,36,79,/Users/kaylinsilva/Desktop/Life/KS-subject-2.csv,legacy,Lentiform Loewenfeld,3.3.9,0,h,NA,h,s,NA,h,391,NA,58791,39205,NA,391,2,legacy,1024,2,48000,-16,experiment,2,even,63021,235071,NA,286054,235941,NA,294109,293041,4224,195865,NA,294106,294213,4219,294213,294605,KS - Flanker Task,112,52714,117,yes,1024
Incongruent,SSHSS,95.76271186,95.76271186,450.0847458,450.0847458,black,legacy,legacy,legacy,0,uniform,1,undefined,1,h,0,0,0,117,117,0,117,117,0,0,0,117,117,0,117,117,Sat Sep 25 14:56:57 2021,600,The main experiment item,yes,KS - Flanker Task.osexp,/Users/kaylinsilva/Desktop/Life,no,mono,no,18,no,white,no,yes,768,legacy,37,79,/Users/kaylinsilva/Desktop/Life/KS-subject-2.csv,legacy,Lentiform Loewenfeld,3.3.9,0,h,NA,h,s,NA,h,396,NA,58791,39205,NA,396,2,legacy,1024,2,48000,-16,experiment,2,even,63021,235071,NA,286054,235941,NA,295677,294609,4224,195865,NA,295674,295781,4219,295781,296178,KS - Flanker Task,113,53110,118,yes,1024
Incongruent,HHSHH,95.79831933,95.79831933,450.2521008,450.2521008,black,legacy,legacy,legacy,0,uniform,1,undefined,1,s,0,0,0,118,118,0,118,118,0,0,0,118,118,0,118,118,Sat Sep 25 14:56:57 2021,600,The main experiment item,yes,KS - Flanker Task.osexp,/Users/kaylinsilva/Desktop/Life,no,mono,no,18,no,white,no,yes,768,legacy,38,79,/Users/kaylinsilva/Desktop/Life/KS-subject-2.csv,legacy,Lentiform Loewenfeld,3.3.9,0,s,NA,h,s,NA,s,470,NA,58791,39205,NA,470,2,legacy,1024,2,48000,-16,experiment,2,even,63021,235071,NA,286054,235941,NA,297263,296181,4224,195865,NA,297259,297367,4219,297367,297838,KS - Flanker Task,114,53580,119,yes,1024
Congruent,SSSSS,95.83333333,95.83333333,449.975,449.975,black,legacy,legacy,legacy,0,uniform,1,undefined,1,s,0,0,0,119,119,0,119,119,0,0,0,119,119,0,119,119,Sat Sep 25 14:56:57 2021,600,The main experiment item,yes,KS - Flanker Task.osexp,/Users/kaylinsilva/Desktop/Life,no,mono,no,18,no,white,no,yes,768,legacy,39,79,/Users/kaylinsilva/Desktop/Life/KS-subject-2.csv,legacy,Lentiform Loewenfeld,3.3.9,0,s,NA,h,s,NA,s,417,NA,58791,39205,NA,417,2,legacy,1024,2,48000,-16,experiment,2,even,63021,235071,NA,286054,235941,NA,298909,297841,4224,195865,NA,298906,299013,4219,299013,299431,KS - Flanker Task,115,53997,120,yes,1024
Congruent,HHHHH,95.8677686,95.8677686,449.1404959,449.1404959,black,legacy,legacy,legacy,0,uniform,1,undefined,1,h,0,0,0,120,120,0,120,120,0,0,0,120,120,0,120,120,Sat Sep 25 14:56:57 2021,600,The main experiment item,yes,KS - Flanker Task.osexp,/Users/kaylinsilva/Desktop/Life,no,mono,no,18,no,white,no,yes,768,legacy,40,79,/Users/kaylinsilva/Desktop/Life/KS-subject-2.csv,legacy,Lentiform Loewenfeld,3.3.9,0,h,NA,h,s,NA,h,349,NA,58791,39205,NA,349,2,legacy,1024,2,48000,-16,experiment,2,even,63021,235071,NA,286054,235941,NA,300503,299434,4224,195865,NA,300500,300607,4219,300607,300957,KS - Flanker Task,116,54346,121,yes,1024
Congruent,SSSSS,95.90163934,95.90163934,449.1557377,449.1557377,black,legacy,legacy,legacy,0,uniform,1,undefined,1,s,0,0,0,121,121,0,121,121,0,0,0,121,121,0,121,121,Sat Sep 25 14:56:57 2021,600,The main experiment item,yes,KS - Flanker Task.osexp,/Users/kaylinsilva/Desktop/Life,no,mono,no,18,no,white,no,yes,768,legacy,41,79,/Users/kaylinsilva/Desktop/Life/KS-subject-2.csv,legacy,Lentiform Loewenfeld,3.3.9,0,s,NA,h,s,NA,s,451,NA,58791,39205,NA,451,2,legacy,1024,2,48000,-16,experiment,2,even,63021,235071,NA,286054,235941,NA,302028,300961,4224,195865,NA,302025,302133,4219,302133,302585,KS - Flanker Task,117,54797,122,yes,1024
Incongruent,HHSHH,95.93495935,95.93495935,449.5772358,449.5772358,black,legacy,legacy,legacy,0,uniform,1,undefined,1,s,0,0,0,122,122,0,122,122,0,0,0,122,122,0,122,122,Sat Sep 25 14:56:57 2021,600,The main experiment item,yes,KS - Flanker Task.osexp,/Users/kaylinsilva/Desktop/Life,no,mono,no,18,no,white,no,yes,768,legacy,42,79,/Users/kaylinsilva/Desktop/Life/KS-subject-2.csv,legacy,Lentiform Loewenfeld,3.3.9,0,s,NA,h,s,NA,s,501,NA,58791,39205,NA,501,2,legacy,1024,2,48000,-16,experiment,2,even,63021,235071,NA,286054,235941,NA,303656,302588,4224,195865,NA,303653,303760,4219,303760,304262,KS - Flanker Task,118,55298,123,yes,1024
Incongruent,HHSHH,95.96774194,95.96774194,450.1048387,450.1048387,black,legacy,legacy,legacy,0,uniform,1,undefined,1,s,0,0,0,123,123,0,123,123,0,0,0,123,123,0,123,123,Sat Sep 25 14:56:57 2021,600,The main experiment item,yes,KS - Flanker Task.osexp,/Users/kaylinsilva/Desktop/Life,no,mono,no,18,no,white,no,yes,768,legacy,43,79,/Users/kaylinsilva/Desktop/Life/KS-subject-2.csv,legacy,Lentiform Loewenfeld,3.3.9,0,s,NA,h,s,NA,s,515,NA,58791,39205,NA,515,2,legacy,1024,2,48000,-16,experiment,2,even,63021,235071,NA,286054,235941,NA,305334,304266,4224,195865,NA,305331,305438,4219,305438,305954,KS - Flanker Task,119,55813,124,yes,1024
Congruent,HHHHH,96,96,449.8,449.8,black,legacy,legacy,legacy,0,uniform,1,undefined,1,h,0,0,0,124,124,0,124,124,0,0,0,124,124,0,124,124,Sat Sep 25 14:56:57 2021,600,The main experiment item,yes,KS - Flanker Task.osexp,/Users/kaylinsilva/Desktop/Life,no,mono,no,18,no,white,no,yes,768,legacy,44,79,/Users/kaylinsilva/Desktop/Life/KS-subject-2.csv,legacy,Lentiform Loewenfeld,3.3.9,0,h,NA,h,s,NA,h,412,NA,58791,39205,NA,412,2,legacy,1024,2,48000,-16,experiment,2,even,63021,235071,NA,286054,235941,NA,307025,305957,4224,195865,NA,307022,307129,4219,307129,307542,KS - Flanker Task,120,56225,125,yes,1024
Incongruent,HHSHH,96.03174603,96.03174603,449.6587302,449.6587302,black,legacy,legacy,legacy,0,uniform,1,undefined,1,s,0,0,0,125,125,0,125,125,0,0,0,125,125,0,125,125,Sat Sep 25 14:56:57 2021,600,The main experiment item,yes,KS - Flanker Task.osexp,/Users/kaylinsilva/Desktop/Life,no,mono,no,18,no,white,no,yes,768,legacy,45,79,/Users/kaylinsilva/Desktop/Life/KS-subject-2.csv,legacy,Lentiform Loewenfeld,3.3.9,0,s,NA,h,s,NA,s,432,NA,58791,39205,NA,432,2,legacy,1024,2,48000,-16,experiment,2,even,63021,235071,NA,286054,235941,NA,308612,307545,4224,195865,NA,308609,308716,4219,308716,309149,KS - Flanker Task,121,56657,126,yes,1024
Congruent,SSSSS,96.06299213,96.06299213,448.7165354,448.7165354,black,legacy,legacy,legacy,0,uniform,1,undefined,1,s,0,0,0,126,126,0,126,126,0,0,0,126,126,0,126,126,Sat Sep 25 14:56:57 2021,600,The main experiment item,yes,KS - Flanker Task.osexp,/Users/kaylinsilva/Desktop/Life,no,mono,no,18,no,white,no,yes,768,legacy,46,79,/Users/kaylinsilva/Desktop/Life/KS-subject-2.csv,legacy,Lentiform Loewenfeld,3.3.9,0,s,NA,h,s,NA,s,330,NA,58791,39205,NA,330,2,legacy,1024,2,48000,-16,experiment,2,even,63021,235071,NA,286054,235941,NA,310232,309152,4224,195865,NA,310228,310336,4219,310336,310667,KS - Flanker Task,122,56987,127,yes,1024
Congruent,SSSSS,96.09375,96.09375,448.3515625,448.3515625,black,legacy,legacy,legacy,0,uniform,1,undefined,1,s,0,0,0,127,127,0,127,127,0,0,0,127,127,0,127,127,Sat Sep 25 14:56:57 2021,600,The main experiment item,yes,KS - Flanker Task.osexp,/Users/kaylinsilva/Desktop/Life,no,mono,no,18,no,white,no,yes,768,legacy,47,79,/Users/kaylinsilva/Desktop/Life/KS-subject-2.csv,legacy,Lentiform Loewenfeld,3.3.9,0,s,NA,h,s,NA,s,402,NA,58791,39205,NA,402,2,legacy,1024,2,48000,-16,experiment,2,even,63021,235071,NA,286054,235941,NA,311737,310670,4224,195865,NA,311734,311841,4219,311842,312245,KS - Flanker Task,123,57389,128,yes,1024
Congruent,HHHHH,96.12403101,96.12403101,448.2403101,448.2403101,black,legacy,legacy,legacy,0,uniform,1,undefined,1,h,0,0,0,128,128,0,128,128,0,0,0,128,128,0,128,128,Sat Sep 25 14:56:57 2021,600,The main experiment item,yes,KS - Flanker Task.osexp,/Users/kaylinsilva/Desktop/Life,no,mono,no,18,no,white,no,yes,768,legacy,48,79,/Users/kaylinsilva/Desktop/Life/KS-subject-2.csv,legacy,Lentiform Loewenfeld,3.3.9,0,h,NA,h,s,NA,h,434,NA,58791,39205,NA,434,2,legacy,1024,2,48000,-16,experiment,2,even,63021,235071,NA,286054,235941,NA,313317,312248,4224,195865,NA,313314,313421,4219,313421,313856,KS - Flanker Task,124,57823,129,yes,1024
Incongruent,SSHSS,95.38461538,95.38461538,447.6384615,447.6384615,black,legacy,legacy,legacy,0,uniform,0,undefined,0,h,0,0,0,129,129,0,129,129,0,0,0,129,129,0,129,129,Sat Sep 25 14:56:57 2021,600,The main experiment item,yes,KS - Flanker Task.osexp,/Users/kaylinsilva/Desktop/Life,no,mono,no,18,no,white,no,yes,768,legacy,49,79,/Users/kaylinsilva/Desktop/Life/KS-subject-2.csv,legacy,Lentiform Loewenfeld,3.3.9,0,s,NA,h,s,NA,s,370,NA,58791,39205,NA,370,2,legacy,1024,2,48000,-16,experiment,2,even,63021,235071,NA,286054,235941,NA,314926,313859,4224,195865,NA,314923,315031,4219,315031,315402,KS - Flanker Task,124,58193,130,yes,1024
Incongruent,SSHSS,95.41984733,95.41984733,447.351145,447.351145,black,legacy,legacy,legacy,0,uniform,1,undefined,1,h,0,0,0,130,130,0,130,130,0,0,0,130,130,0,130,130,Sat Sep 25 14:56:57 2021,600,The main experiment item,yes,KS - Flanker Task.osexp,/Users/kaylinsilva/Desktop/Life,no,mono,no,18,no,white,no,yes,768,legacy,50,79,/Users/kaylinsilva/Desktop/Life/KS-subject-2.csv,legacy,Lentiform Loewenfeld,3.3.9,0,h,NA,h,s,NA,h,410,NA,58791,39205,NA,410,2,legacy,1024,2,48000,-16,experiment,2,even,63021,235071,NA,315406,235941,NA,316978,315911,4224,195865,NA,316976,317082,4219,317082,317493,KS - Flanker Task,125,58603,131,yes,1024
Congruent,HHHHH,95.45454545,95.45454545,446.9015152,446.9015152,black,legacy,legacy,legacy,0,uniform,1,undefined,1,h,0,0,0,131,131,0,131,131,0,0,0,131,131,0,131,131,Sat Sep 25 14:56:57 2021,600,The main experiment item,yes,KS - Flanker Task.osexp,/Users/kaylinsilva/Desktop/Life,no,mono,no,18,no,white,no,yes,768,legacy,51,79,/Users/kaylinsilva/Desktop/Life/KS-subject-2.csv,legacy,Lentiform Loewenfeld,3.3.9,0,h,NA,h,s,NA,h,388,NA,58791,39205,NA,388,2,legacy,1024,2,48000,-16,experiment,2,even,63021,235071,NA,315406,235941,NA,318565,317497,4224,195865,NA,318562,318669,4219,318669,319058,KS - Flanker Task,126,58991,132,yes,1024
Congruent,HHHHH,95.4887218,95.4887218,447.0451128,447.0451128,black,legacy,legacy,legacy,0,uniform,1,undefined,1,h,0,0,0,132,132,0,132,132,0,0,0,132,132,0,132,132,Sat Sep 25 14:56:57 2021,600,The main experiment item,yes,KS - Flanker Task.osexp,/Users/kaylinsilva/Desktop/Life,no,mono,no,18,no,white,no,yes,768,legacy,52,79,/Users/kaylinsilva/Desktop/Life/KS-subject-2.csv,legacy,Lentiform Loewenfeld,3.3.9,0,h,NA,h,s,NA,h,466,NA,58791,39205,NA,466,2,legacy,1024,2,48000,-16,experiment,2,even,63021,235071,NA,315406,235941,NA,320129,319061,4224,195865,NA,320126,320233,4219,320233,320700,KS - Flanker Task,127,59457,133,yes,1024
Congruent,SSSSS,95.52238806,95.52238806,445.8731343,445.8731343,black,legacy,legacy,legacy,0,uniform,1,undefined,1,s,0,0,0,133,133,0,133,133,0,0,0,133,133,0,133,133,Sat Sep 25 14:56:57 2021,600,The main experiment item,yes,KS - Flanker Task.osexp,/Users/kaylinsilva/Desktop/Life,no,mono,no,18,no,white,no,yes,768,legacy,53,79,/Users/kaylinsilva/Desktop/Life/KS-subject-2.csv,legacy,Lentiform Loewenfeld,3.3.9,0,s,NA,h,s,NA,s,290,NA,58791,39205,NA,290,2,legacy,1024,2,48000,-16,experiment,2,even,63021,235071,NA,315406,235941,NA,321770,320703,4224,195865,NA,321767,321874,4219,321874,322165,KS - Flanker Task,128,59747,134,yes,1024
Congruent,SSSSS,95.55555556,95.55555556,445.1777778,445.1777778,black,legacy,legacy,legacy,0,uniform,1,undefined,1,s,0,0,0,134,134,0,134,134,0,0,0,134,134,0,134,134,Sat Sep 25 14:56:57 2021,600,The main experiment item,yes,KS - Flanker Task.osexp,/Users/kaylinsilva/Desktop/Life,no,mono,no,18,no,white,no,yes,768,legacy,54,79,/Users/kaylinsilva/Desktop/Life/KS-subject-2.csv,legacy,Lentiform Loewenfeld,3.3.9,0,s,NA,h,s,NA,s,352,NA,58791,39205,NA,352,2,legacy,1024,2,48000,-16,experiment,2,even,63021,235071,NA,315406,235941,NA,323236,322168,4224,195865,NA,323233,323340,4219,323341,323694,KS - Flanker Task,129,60099,135,yes,1024
Incongruent,SSHSS,94.85294118,94.85294118,444.3088235,444.3088235,black,legacy,legacy,legacy,0,uniform,0,undefined,0,h,0,0,0,135,135,0,135,135,0,0,0,135,135,0,135,135,Sat Sep 25 14:56:57 2021,600,The main experiment item,yes,KS - Flanker Task.osexp,/Users/kaylinsilva/Desktop/Life,no,mono,no,18,no,white,no,yes,768,legacy,55,79,/Users/kaylinsilva/Desktop/Life/KS-subject-2.csv,legacy,Lentiform Loewenfeld,3.3.9,0,s,NA,h,s,NA,s,327,NA,58791,39205,NA,327,2,legacy,1024,2,48000,-16,experiment,2,even,63021,235071,NA,315406,235941,NA,324765,323697,4224,195865,NA,324762,324869,4219,324869,325197,KS - Flanker Task,129,60426,136,yes,1024
Congruent,HHHHH,94.89051095,94.89051095,443.6788321,443.6788321,black,legacy,legacy,legacy,0,uniform,1,undefined,1,h,0,0,0,136,136,0,136,136,0,0,0,136,136,0,136,136,Sat Sep 25 14:56:57 2021,600,The main experiment item,yes,KS - Flanker Task.osexp,/Users/kaylinsilva/Desktop/Life,no,mono,no,18,no,white,no,yes,768,legacy,56,79,/Users/kaylinsilva/Desktop/Life/KS-subject-2.csv,legacy,Lentiform Loewenfeld,3.3.9,0,h,NA,h,s,NA,h,358,NA,58791,39205,NA,358,2,legacy,1024,2,48000,-16,experiment,2,even,63021,235071,NA,325200,235941,NA,326772,325705,4224,195865,NA,326770,326876,4219,326876,327235,KS - Flanker Task,130,60784,137,yes,1024
Incongruent,HHSHH,94.92753623,94.92753623,444.1304348,444.1304348,black,legacy,legacy,legacy,0,uniform,1,undefined,1,s,0,0,0,137,137,0,137,137,0,0,0,137,137,0,137,137,Sat Sep 25 14:56:57 2021,600,The main experiment item,yes,KS - Flanker Task.osexp,/Users/kaylinsilva/Desktop/Life,no,mono,no,18,no,white,no,yes,768,legacy,57,79,/Users/kaylinsilva/Desktop/Life/KS-subject-2.csv,legacy,Lentiform Loewenfeld,3.3.9,0,s,NA,h,s,NA,s,506,NA,58791,39205,NA,506,2,legacy,1024,2,48000,-16,experiment,2,even,63021,235071,NA,325200,235941,NA,328306,327238,4224,195865,NA,328303,328410,4219,328410,328917,KS - Flanker Task,131,61290,138,yes,1024
Incongruent,SSHSS,94.96402878,94.96402878,444.0071942,444.0071942,black,legacy,legacy,legacy,0,uniform,1,undefined,1,h,0,0,0,138,138,0,138,138,0,0,0,138,138,0,138,138,Sat Sep 25 14:56:57 2021,600,The main experiment item,yes,KS - Flanker Task.osexp,/Users/kaylinsilva/Desktop/Life,no,mono,no,18,no,white,no,yes,768,legacy,58,79,/Users/kaylinsilva/Desktop/Life/KS-subject-2.csv,legacy,Lentiform Loewenfeld,3.3.9,0,h,NA,h,s,NA,h,427,NA,58791,39205,NA,427,2,legacy,1024,2,48000,-16,experiment,2,even,63021,235071,NA,325200,235941,NA,329989,328920,4224,195865,NA,329986,330093,4219,330093,330521,KS - Flanker Task,132,61717,139,yes,1024
Incongruent,SSHSS,95,95,444.05,444.05,black,legacy,legacy,legacy,0,uniform,1,undefined,1,h,0,0,0,139,139,0,139,139,0,0,0,139,139,0,139,139,Sat Sep 25 14:56:57 2021,600,The main experiment item,yes,KS - Flanker Task.osexp,/Users/kaylinsilva/Desktop/Life,no,mono,no,18,no,white,no,yes,768,legacy,59,79,/Users/kaylinsilva/Desktop/Life/KS-subject-2.csv,legacy,Lentiform Loewenfeld,3.3.9,0,h,NA,h,s,NA,h,450,NA,58791,39205,NA,450,2,legacy,1024,2,48000,-16,experiment,2,even,63021,235071,NA,325200,235941,NA,331592,330525,4224,195865,NA,331589,331696,4219,331696,332148,KS - Flanker Task,133,62167,140,yes,1024
Congruent,HHHHH,95.03546099,95.03546099,443.4468085,443.4468085,black,legacy,legacy,legacy,0,uniform,1,undefined,1,h,0,0,0,140,140,0,140,140,0,0,0,140,140,0,140,140,Sat Sep 25 14:56:57 2021,600,The main experiment item,yes,KS - Flanker Task.osexp,/Users/kaylinsilva/Desktop/Life,no,mono,no,18,no,white,no,yes,768,legacy,60,79,/Users/kaylinsilva/Desktop/Life/KS-subject-2.csv,legacy,Lentiform Loewenfeld,3.3.9,0,h,NA,h,s,NA,h,359,NA,58791,39205,NA,359,2,legacy,1024,2,48000,-16,experiment,2,even,63021,235071,NA,325200,235941,NA,333218,332151,4224,195865,NA,333215,333322,4219,333322,333682,KS - Flanker Task,134,62526,141,yes,1024
Congruent,SSSSS,95.07042254,95.07042254,442.6338028,442.6338028,black,legacy,legacy,legacy,0,uniform,1,undefined,1,s,0,0,0,141,141,0,141,141,0,0,0,141,141,0,141,141,Sat Sep 25 14:56:57 2021,600,The main experiment item,yes,KS - Flanker Task.osexp,/Users/kaylinsilva/Desktop/Life,no,mono,no,18,no,white,no,yes,768,legacy,61,79,/Users/kaylinsilva/Desktop/Life/KS-subject-2.csv,legacy,Lentiform Loewenfeld,3.3.9,0,s,NA,h,s,NA,s,328,NA,58791,39205,NA,328,2,legacy,1024,2,48000,-16,experiment,2,even,63021,235071,NA,325200,235941,NA,334752,333685,4224,195865,NA,334749,334856,4219,334856,335185,KS - Flanker Task,135,62854,142,yes,1024
Incongruent,HHSHH,95.1048951,95.1048951,443,443,black,legacy,legacy,legacy,0,uniform,1,undefined,1,s,0,0,0,142,142,0,142,142,0,0,0,142,142,0,142,142,Sat Sep 25 14:56:57 2021,600,The main experiment item,yes,KS - Flanker Task.osexp,/Users/kaylinsilva/Desktop/Life,no,mono,no,18,no,white,no,yes,768,legacy,62,79,/Users/kaylinsilva/Desktop/Life/KS-subject-2.csv,legacy,Lentiform Loewenfeld,3.3.9,0,s,NA,h,s,NA,s,495,NA,58791,39205,NA,495,2,legacy,1024,2,48000,-16,experiment,2,even,63021,235071,NA,325200,235941,NA,336255,335188,4224,195865,NA,336252,336359,4219,336359,336855,KS - Flanker Task,136,63349,143,yes,1024
Congruent,SSSSS,95.13888889,95.13888889,442.2916667,442.2916667,black,legacy,legacy,legacy,0,uniform,1,undefined,1,s,0,0,0,143,143,0,143,143,0,0,0,143,143,0,143,143,Sat Sep 25 14:56:57 2021,600,The main experiment item,yes,KS - Flanker Task.osexp,/Users/kaylinsilva/Desktop/Life,no,mono,no,18,no,white,no,yes,768,legacy,63,79,/Users/kaylinsilva/Desktop/Life/KS-subject-2.csv,legacy,Lentiform Loewenfeld,3.3.9,0,s,NA,h,s,NA,s,341,NA,58791,39205,NA,341,2,legacy,1024,2,48000,-16,experiment,2,even,63021,235071,NA,325200,235941,NA,337926,336859,4224,195865,NA,337923,338030,4219,338030,338372,KS - Flanker Task,137,63690,144,yes,1024
Congruent,HHHHH,95.17241379,95.17241379,441.5793103,441.5793103,black,legacy,legacy,legacy,0,uniform,1,undefined,1,h,0,0,0,144,144,0,144,144,0,0,0,144,144,0,144,144,Sat Sep 25 14:56:57 2021,600,The main experiment item,yes,KS - Flanker Task.osexp,/Users/kaylinsilva/Desktop/Life,no,mono,no,18,no,white,no,yes,768,legacy,64,79,/Users/kaylinsilva/Desktop/Life/KS-subject-2.csv,legacy,Lentiform Loewenfeld,3.3.9,0,h,NA,h,s,NA,h,339,NA,58791,39205,NA,339,2,legacy,1024,2,48000,-16,experiment,2,even,63021,235071,NA,325200,235941,NA,339443,338375,4224,195865,NA,339440,339547,4219,339547,339887,KS - Flanker Task,138,64029,145,yes,1024
Congruent,HHHHH,95.20547945,95.20547945,440.8150685,440.8150685,black,legacy,legacy,legacy,0,uniform,1,undefined,1,h,0,0,0,145,145,0,145,145,0,0,0,145,145,0,145,145,Sat Sep 25 14:56:57 2021,600,The main experiment item,yes,KS - Flanker Task.osexp,/Users/kaylinsilva/Desktop/Life,no,mono,no,18,no,white,no,yes,768,legacy,65,79,/Users/kaylinsilva/Desktop/Life/KS-subject-2.csv,legacy,Lentiform Loewenfeld,3.3.9,0,h,NA,h,s,NA,h,330,NA,58791,39205,NA,330,2,legacy,1024,2,48000,-16,experiment,2,even,63021,235071,NA,325200,235941,NA,340957,339890,4224,195865,NA,340954,341061,4219,341061,341392,KS - Flanker Task,139,64359,146,yes,1024
Congruent,HHHHH,95.23809524,95.23809524,440.4897959,440.4897959,black,legacy,legacy,legacy,0,uniform,1,undefined,1,h,0,0,0,146,146,0,146,146,0,0,0,146,146,0,146,146,Sat Sep 25 14:56:57 2021,600,The main experiment item,yes,KS - Flanker Task.osexp,/Users/kaylinsilva/Desktop/Life,no,mono,no,18,no,white,no,yes,768,legacy,66,79,/Users/kaylinsilva/Desktop/Life/KS-subject-2.csv,legacy,Lentiform Loewenfeld,3.3.9,0,h,NA,h,s,NA,h,393,NA,58791,39205,NA,393,2,legacy,1024,2,48000,-16,experiment,2,even,63021,235071,NA,325200,235941,NA,342463,341396,4224,195865,NA,342460,342569,4219,342569,342963,KS - Flanker Task,140,64752,147,yes,1024
Congruent,HHHHH,95.27027027,95.27027027,439.6148649,439.6148649,black,legacy,legacy,legacy,0,uniform,1,undefined,1,h,0,0,0,147,147,0,147,147,0,0,0,147,147,0,147,147,Sat Sep 25 14:56:57 2021,600,The main experiment item,yes,KS - Flanker Task.osexp,/Users/kaylinsilva/Desktop/Life,no,mono,no,18,no,white,no,yes,768,legacy,67,79,/Users/kaylinsilva/Desktop/Life/KS-subject-2.csv,legacy,Lentiform Loewenfeld,3.3.9,0,h,NA,h,s,NA,h,311,NA,58791,39205,NA,311,2,legacy,1024,2,48000,-16,experiment,2,even,63021,235071,NA,325200,235941,NA,344033,342966,4224,195865,NA,344030,344137,4219,344137,344449,KS - Flanker Task,141,65063,148,yes,1024
Incongruent,HHSHH,94.63087248,94.63087248,439.5838926,439.5838926,black,legacy,legacy,legacy,0,uniform,0,undefined,0,s,0,0,0,148,148,0,148,148,0,0,0,148,148,0,148,148,Sat Sep 25 14:56:57 2021,600,The main experiment item,yes,KS - Flanker Task.osexp,/Users/kaylinsilva/Desktop/Life,no,mono,no,18,no,white,no,yes,768,legacy,68,79,/Users/kaylinsilva/Desktop/Life/KS-subject-2.csv,legacy,Lentiform Loewenfeld,3.3.9,0,h,NA,h,s,NA,h,435,NA,58791,39205,NA,435,2,legacy,1024,2,48000,-16,experiment,2,even,63021,235071,NA,325200,235941,NA,345519,344452,4224,195865,NA,345516,345623,4219,345623,346059,KS - Flanker Task,141,65498,149,yes,1024
Congruent,HHHHH,94.66666667,94.66666667,439.4533333,439.4533333,black,legacy,legacy,legacy,0,uniform,1,undefined,1,h,0,0,0,149,149,0,149,149,0,0,0,149,149,0,149,149,Sat Sep 25 14:56:57 2021,600,The main experiment item,yes,KS - Flanker Task.osexp,/Users/kaylinsilva/Desktop/Life,no,mono,no,18,no,white,no,yes,768,legacy,69,79,/Users/kaylinsilva/Desktop/Life/KS-subject-2.csv,legacy,Lentiform Loewenfeld,3.3.9,0,h,NA,h,s,NA,h,420,NA,58791,39205,NA,420,2,legacy,1024,2,48000,-16,experiment,2,even,63021,235071,NA,346062,235941,NA,347634,346567,4224,195865,NA,347631,347738,4219,347738,348159,KS - Flanker Task,142,65918,150,yes,1024
Congruent,SSSSS,94.70198675,94.70198675,438.9139073,438.9139073,black,legacy,legacy,legacy,0,uniform,1,undefined,1,s,0,0,0,150,150,0,150,150,0,0,0,150,150,0,150,150,Sat Sep 25 14:56:57 2021,600,The main experiment item,yes,KS - Flanker Task.osexp,/Users/kaylinsilva/Desktop/Life,no,mono,no,18,no,white,no,yes,768,legacy,70,79,/Users/kaylinsilva/Desktop/Life/KS-subject-2.csv,legacy,Lentiform Loewenfeld,3.3.9,0,s,NA,h,s,NA,s,358,NA,58791,39205,NA,358,2,legacy,1024,2,48000,-16,experiment,2,even,63021,235071,NA,346062,235941,NA,349231,348162,4224,195865,NA,349228,349335,4219,349335,349694,KS - Flanker Task,143,66276,151,yes,1024
Incongruent,HHSHH,94.73684211,94.73684211,438.8026316,438.8026316,black,legacy,legacy,legacy,0,uniform,1,undefined,1,s,0,0,0,151,151,0,151,151,0,0,0,151,151,0,151,151,Sat Sep 25 14:56:57 2021,600,The main experiment item,yes,KS - Flanker Task.osexp,/Users/kaylinsilva/Desktop/Life,no,mono,no,18,no,white,no,yes,768,legacy,71,79,/Users/kaylinsilva/Desktop/Life/KS-subject-2.csv,legacy,Lentiform Loewenfeld,3.3.9,0,s,NA,h,s,NA,s,422,NA,58791,39205,NA,422,2,legacy,1024,2,48000,-16,experiment,2,even,63021,235071,NA,346062,235941,NA,350765,349698,4224,195865,NA,350762,350869,4219,350869,351292,KS - Flanker Task,144,66698,152,yes,1024
Congruent,SSSSS,94.77124183,94.77124183,438.0849673,438.0849673,black,legacy,legacy,legacy,0,uniform,1,undefined,1,s,0,0,0,152,152,0,152,152,0,0,0,152,152,0,152,152,Sat Sep 25 14:56:57 2021,600,The main experiment item,yes,KS - Flanker Task.osexp,/Users/kaylinsilva/Desktop/Life,no,mono,no,18,no,white,no,yes,768,legacy,72,79,/Users/kaylinsilva/Desktop/Life/KS-subject-2.csv,legacy,Lentiform Loewenfeld,3.3.9,0,s,NA,h,s,NA,s,329,NA,58791,39205,NA,329,2,legacy,1024,2,48000,-16,experiment,2,even,63021,235071,NA,346062,235941,NA,352361,351295,4224,195865,NA,352358,352465,4219,352465,352795,KS - Flanker Task,145,67027,153,yes,1024
Incongruent,HHSHH,94.80519481,94.80519481,438.1818182,438.1818182,black,legacy,legacy,legacy,0,uniform,1,undefined,1,s,0,0,0,153,153,0,153,153,0,0,0,153,153,0,153,153,Sat Sep 25 14:56:57 2021,600,The main experiment item,yes,KS - Flanker Task.osexp,/Users/kaylinsilva/Desktop/Life,no,mono,no,18,no,white,no,yes,768,legacy,73,79,/Users/kaylinsilva/Desktop/Life/KS-subject-2.csv,legacy,Lentiform Loewenfeld,3.3.9,0,s,NA,h,s,NA,s,453,NA,58791,39205,NA,453,2,legacy,1024,2,48000,-16,experiment,2,even,63021,235071,NA,346062,235941,NA,353879,352798,4224,195865,NA,353876,353983,4219,353983,354437,KS - Flanker Task,146,67480,154,yes,1024
Incongruent,HHSHH,94.83870968,94.83870968,438.2129032,438.2129032,black,legacy,legacy,legacy,0,uniform,1,undefined,1,s,0,0,0,154,154,0,154,154,0,0,0,154,154,0,154,154,Sat Sep 25 14:56:57 2021,600,The main experiment item,yes,KS - Flanker Task.osexp,/Users/kaylinsilva/Desktop/Life,no,mono,no,18,no,white,no,yes,768,legacy,74,79,/Users/kaylinsilva/Desktop/Life/KS-subject-2.csv,legacy,Lentiform Loewenfeld,3.3.9,0,s,NA,h,s,NA,s,443,NA,58791,39205,NA,443,2,legacy,1024,2,48000,-16,experiment,2,even,63021,235071,NA,346062,235941,NA,355508,354440,4224,195865,NA,355505,355612,4219,355612,356056,KS - Flanker Task,147,67923,155,yes,1024
Incongruent,SSHSS,94.23076923,94.23076923,437.8397436,437.8397436,black,legacy,legacy,legacy,0,uniform,0,undefined,0,h,0,0,0,155,155,0,155,155,0,0,0,155,155,0,155,155,Sat Sep 25 14:56:57 2021,600,The main experiment item,yes,KS - Flanker Task.osexp,/Users/kaylinsilva/Desktop/Life,no,mono,no,18,no,white,no,yes,768,legacy,75,79,/Users/kaylinsilva/Desktop/Life/KS-subject-2.csv,legacy,Lentiform Loewenfeld,3.3.9,0,s,NA,h,s,NA,s,380,NA,58791,39205,NA,380,2,legacy,1024,2,48000,-16,experiment,2,even,63021,235071,NA,346062,235941,NA,357127,356060,4224,195865,NA,357124,357231,4219,357231,357612,KS - Flanker Task,147,68303,156,yes,1024
Congruent,SSSSS,94.26751592,94.26751592,437.9681529,437.9681529,black,legacy,legacy,legacy,0,uniform,1,undefined,1,s,0,0,0,156,156,0,156,156,0,0,0,156,156,0,156,156,Sat Sep 25 14:56:57 2021,600,The main experiment item,yes,KS - Flanker Task.osexp,/Users/kaylinsilva/Desktop/Life,no,mono,no,18,no,white,no,yes,768,legacy,76,79,/Users/kaylinsilva/Desktop/Life/KS-subject-2.csv,legacy,Lentiform Loewenfeld,3.3.9,0,s,NA,h,s,NA,s,458,NA,58791,39205,NA,458,2,legacy,1024,2,48000,-16,experiment,2,even,63021,235071,NA,357615,235941,NA,359185,358119,4224,195865,NA,359183,359289,4219,359289,359748,KS - Flanker Task,148,68761,157,yes,1024
Incongruent,HHSHH,93.67088608,93.67088608,437.335443,437.335443,black,legacy,legacy,legacy,0,uniform,0,undefined,0,s,0,0,0,157,157,0,157,157,0,0,0,157,157,0,157,157,Sat Sep 25 14:56:57 2021,600,The main experiment item,yes,KS - Flanker Task.osexp,/Users/kaylinsilva/Desktop/Life,no,mono,no,18,no,white,no,yes,768,legacy,77,79,/Users/kaylinsilva/Desktop/Life/KS-subject-2.csv,legacy,Lentiform Loewenfeld,3.3.9,0,h,NA,h,s,NA,h,338,NA,58791,39205,NA,338,2,legacy,1024,2,48000,-16,experiment,2,even,63021,235071,NA,357615,235941,NA,360818,359751,4224,195865,NA,360815,360922,4219,360922,361261,KS - Flanker Task,148,69099,158,yes,1024
Congruent,SSSSS,93.71069182,93.71069182,436.9433962,436.9433962,black,legacy,legacy,legacy,0,uniform,1,undefined,1,s,0,0,0,158,158,0,158,158,0,0,0,158,158,0,158,158,Sat Sep 25 14:56:57 2021,600,The main experiment item,yes,KS - Flanker Task.osexp,/Users/kaylinsilva/Desktop/Life,no,mono,no,18,no,white,no,yes,768,legacy,78,79,/Users/kaylinsilva/Desktop/Life/KS-subject-2.csv,legacy,Lentiform Loewenfeld,3.3.9,0,s,NA,h,s,NA,s,375,NA,58791,39205,NA,375,2,legacy,1024,2,48000,-16,experiment,2,even,63021,235071,NA,361264,235941,NA,362835,361768,4224,195865,NA,362832,362939,4219,362939,363315,KS - Flanker Task,149,69474,159,yes,1024
Incongruent,HHSHH,93.75,93.75,436.775,436.775,black,legacy,legacy,legacy,0,uniform,1,undefined,1,s,0,0,0,159,159,0,159,159,0,0,0,159,159,0,159,159,Sat Sep 25 14:56:57 2021,600,The main experiment item,yes,KS - Flanker Task.osexp,/Users/kaylinsilva/Desktop/Life,no,mono,no,18,no,white,no,yes,768,legacy,79,79,/Users/kaylinsilva/Desktop/Life/KS-subject-2.csv,legacy,Lentiform Loewenfeld,3.3.9,0,s,NA,h,s,NA,s,410,NA,58791,39205,NA,410,2,legacy,1024,2,48000,-16,experiment,2,even,63021,235071,NA,361264,235941,NA,364399,363318,4224,195865,NA,364396,364503,4219,364503,364914,KS - Flanker Task,150,69884,160,yes,1024
Incongruent,HHSHH,93.78881988,93.78881988,439.3043478,439.3043478,black,legacy,legacy,legacy,0,uniform,1,undefined,1,s,0,0,0,160,160,0,160,160,0,0,0,160,160,0,160,160,Sat Sep 25 14:56:57 2021,300,The main experiment item,yes,KS - Flanker Task.osexp,/Users/kaylinsilva/Desktop/Life,no,mono,no,18,no,white,no,yes,768,legacy,0,79,/Users/kaylinsilva/Desktop/Life/KS-subject-2.csv,legacy,Lentiform Loewenfeld,3.3.9,0,s,NA,h,s,h,s,844,NA,58791,39205,6967,844,2,legacy,1024,2,48000,-16,experiment,2,even,63021,235071,372917,361264,235941,NA,372946,364917,4224,195865,365949,372943,373051,4219,373051,373896,KS - Flanker Task,151,70728,161,yes,1024
