"acc","accuracy","average_response_time","avg_rt","background","canvas_backend","clock_backend","color_backend","condition","correct","correct_instructions1","correct_keyboard_response","correct_response","count_Block1","count_Block3","count_ErrorFeedback","count_ISI","count_Instruction3","count_block2","count_experiment","count_faster","count_fixation","count_instructions1","count_instructions2","count_instructions3","count_keyboard_response","count_logger","count_new_sketchpad","count_sequence","count_stimulus","datetime","deadline","description","disable_garbage_collection","experiment_file","experiment_path","font_bold","font_family","font_italic","font_size","font_underline","foreground","form_clicks","fullscreen","height","keyboard_backend","live_row","live_row_Block1","logfile","mouse_backend","opensesame_codename","opensesame_version","repeat_cycle","response","response_Instruction3","response_faster","response_instructions1","response_instructions2","response_instructions3","response_keyboard_response","response_new_sketchpad","response_time","response_time_Instruction3","response_time_faster","response_time_instructions1","response_time_instructions2","response_time_instructions3","response_time_keyboard_response","response_time_new_sketchpad","round_decimals","sampler_backend","sound_buf_size","sound_channels","sound_freq","sound_sample_size","start","stimulus","subject_nr","subject_parity","time_Block1","time_Block3","time_ErrorFeedback","time_ISI","time_Instruction3","time_block2","time_experiment","time_faster","time_fixation","time_instructions1","time_instructions2","time_instructions3","time_keyboard_response","time_logger","time_new_sketchpad","time_sequence","time_stimulus","title","total_correct","total_response_time","total_responses","width"
"100","100","338","338","#3d3846","legacy","legacy","legacy","coongruent","1","undefined","1","h","0","0","0","0","0","0","0","0","0","0","0","0","0","0","NA","0","0","Wed Sep 13 04:25:38 2023","1500","The main experiment item","True","Flanker Task Lab 2.2.osexp","C:\Users\kikip\OneDrive\Desktop","False","mono","False","18","no","white","no","yes","768","legacy","0","0","C:/Users/kikip/OneDrive/Desktop/HB-subject-4.csv","legacy","Melodramatic Milgram","4.0.5","0","h","NA","NA","s","NA","NA","h","NA","338.0","NA","NA","33948","NA","NA","338","NA","2","legacy","1024","2","48000","-16","experiment","HHHHH","4","even","36733","NA","NA","NA","NA","NA","2781","NA","36803","2784","NA","NA","36904","37243","NA","36801","36904","Neues Experiment","1","338.0","1","1024"
"50","50","590","590","#3d3846","legacy","legacy","legacy","incongruent","0","undefined","0","s","0","0","1","1","0","0","0","1","1","0","0","0","1","1","NA","1","1","Wed Sep 13 04:25:38 2023","1500","The main experiment item","True","Flanker Task Lab 2.2.osexp","C:\Users\kikip\OneDrive\Desktop","False","mono","False","18","no","white","no","yes","768","legacy","1","1","C:/Users/kikip/OneDrive/Desktop/HB-subject-4.csv","legacy","Melodramatic Milgram","4.0.5","0","h","NA","NA","s","NA","NA","h","NA","842.0","NA","NA","33948","NA","NA","842","NA","2","legacy","1024","2","48000","-16","experiment","HHSHH","4","even","36733","NA","NA","37250","NA","NA","2781","NA","38293","2784","NA","NA","38394","39237","NA","38291","38394","Neues Experiment","1","1180.0","2","1024"
"66","66","619","619","#3d3846","legacy","legacy","legacy","incongruent","1","undefined","1","h","0","0","2","2","0","0","0","2","2","0","0","0","2","2","NA","2","2","Wed Sep 13 04:25:38 2023","1500","The main experiment item","True","Flanker Task Lab 2.2.osexp","C:\Users\kikip\OneDrive\Desktop","False","mono","False","18","no","white","no","yes","768","legacy","2","2","C:/Users/kikip/OneDrive/Desktop/HB-subject-4.csv","legacy","Melodramatic Milgram","4.0.5","0","h","NA","NA","s","NA","NA","h","NA","677.0","NA","NA","33948","NA","NA","677","NA","2","legacy","1024","2","48000","-16","experiment","SSHSS","4","even","36733","NA","39243","39744","NA","NA","2781","NA","40783","2784","NA","NA","40884","41562","NA","40781","40884","Neues Experiment","2","1857.0","3","1024"
"75","75","569","569","#3d3846","legacy","legacy","legacy","incongruent","1","undefined","1","h","0","0","3","3","0","0","0","3","3","0","0","0","3","3","NA","3","3","Wed Sep 13 04:25:38 2023","1500","The main experiment item","True","Flanker Task Lab 2.2.osexp","C:\Users\kikip\OneDrive\Desktop","False","mono","False","18","no","white","no","yes","768","legacy","3","3","C:/Users/kikip/OneDrive/Desktop/HB-subject-4.csv","legacy","Melodramatic Milgram","4.0.5","0","h","NA","NA","s","NA","NA","h","NA","421.0","NA","NA","33948","NA","NA","421","NA","2","legacy","1024","2","48000","-16","experiment","SSHSS","4","even","36733","NA","39243","41567","NA","NA","2781","NA","42609","2784","NA","NA","42710","43131","NA","42607","42710","Neues Experiment","3","2278.0","4","1024"
"80","80","567","567","#3d3846","legacy","legacy","legacy","coongruent","1","undefined","1","h","0","0","4","4","0","0","0","4","4","0","0","0","4","4","NA","4","4","Wed Sep 13 04:25:38 2023","1500","The main experiment item","True","Flanker Task Lab 2.2.osexp","C:\Users\kikip\OneDrive\Desktop","False","mono","False","18","no","white","no","yes","768","legacy","4","4","C:/Users/kikip/OneDrive/Desktop/HB-subject-4.csv","legacy","Melodramatic Milgram","4.0.5","0","h","NA","NA","s","NA","NA","h","NA","560.0","NA","NA","33948","NA","NA","560","NA","2","legacy","1024","2","48000","-16","experiment","HHHHH","4","even","36733","NA","39243","43137","NA","NA","2781","NA","44174","2784","NA","NA","44275","44836","NA","44173","44275","Neues Experiment","4","2838.0","5","1024"
"83","83","548","548","#3d3846","legacy","legacy","legacy","incongruent","1","undefined","1","h","0","0","5","5","0","0","0","5","5","0","0","0","5","5","NA","5","5","Wed Sep 13 04:25:38 2023","1500","The main experiment item","True","Flanker Task Lab 2.2.osexp","C:\Users\kikip\OneDrive\Desktop","False","mono","False","18","no","white","no","yes","768","legacy","5","5","C:/Users/kikip/OneDrive/Desktop/HB-subject-4.csv","legacy","Melodramatic Milgram","4.0.5","0","h","NA","NA","s","NA","NA","h","NA","453.0","NA","NA","33948","NA","NA","453","NA","2","legacy","1024","2","48000","-16","experiment","SSHSS","4","even","36733","NA","39243","44839","NA","NA","2781","NA","45881","2784","NA","NA","45982","46435","NA","45879","45982","Neues Experiment","5","3291.0","6","1024"
"85","85","538","538","#3d3846","legacy","legacy","legacy","coongruent","1","undefined","1","h","0","0","6","6","0","0","0","6","6","0","0","0","6","6","NA","6","6","Wed Sep 13 04:25:38 2023","1500","The main experiment item","True","Flanker Task Lab 2.2.osexp","C:\Users\kikip\OneDrive\Desktop","False","mono","False","18","no","white","no","yes","768","legacy","6","6","C:/Users/kikip/OneDrive/Desktop/HB-subject-4.csv","legacy","Melodramatic Milgram","4.0.5","0","h","NA","NA","s","NA","NA","h","NA","476.0","NA","NA","33948","NA","NA","476","NA","2","legacy","1024","2","48000","-16","experiment","HHHHH","4","even","36733","NA","39243","46438","NA","NA","2781","NA","47483","2784","NA","NA","47584","48060","NA","47482","47584","Neues Experiment","6","3767.0","7","1024"
"87","87","527","527","#3d3846","legacy","legacy","legacy","incongruent","1","undefined","1","h","0","0","7","7","0","0","0","7","7","0","0","0","7","7","NA","7","7","Wed Sep 13 04:25:38 2023","1500","The main experiment item","True","Flanker Task Lab 2.2.osexp","C:\Users\kikip\OneDrive\Desktop","False","mono","False","18","no","white","no","yes","768","legacy","7","7","C:/Users/kikip/OneDrive/Desktop/HB-subject-4.csv","legacy","Melodramatic Milgram","4.0.5","0","h","NA","NA","s","NA","NA","h","NA","454.0","NA","NA","33948","NA","NA","454","NA","2","legacy","1024","2","48000","-16","experiment","SSHSS","4","even","36733","NA","39243","48066","NA","NA","2781","NA","49110","2784","NA","NA","49211","49665","NA","49108","49211","Neues Experiment","7","4221.0","8","1024"
"88","88","528","528","#3d3846","legacy","legacy","legacy","incongruent","1","undefined","1","s","0","0","8","8","0","0","0","8","8","0","0","0","8","8","NA","8","8","Wed Sep 13 04:25:38 2023","1500","The main experiment item","True","Flanker Task Lab 2.2.osexp","C:\Users\kikip\OneDrive\Desktop","False","mono","False","18","no","white","no","yes","768","legacy","8","8","C:/Users/kikip/OneDrive/Desktop/HB-subject-4.csv","legacy","Melodramatic Milgram","4.0.5","0","s","NA","NA","s","NA","NA","s","NA","539.0","NA","NA","33948","NA","NA","539","NA","2","legacy","1024","2","48000","-16","experiment","HHSHH","4","even","36733","NA","39243","49671","NA","NA","2781","NA","50719","2784","NA","NA","50820","51360","NA","50717","50820","Neues Experiment","8","4760.0","9","1024"
"90","90","529","529","#3d3846","legacy","legacy","legacy","congruent","1","undefined","1","s","0","0","9","9","0","0","0","9","9","0","0","0","9","9","NA","9","9","Wed Sep 13 04:25:38 2023","1500","The main experiment item","True","Flanker Task Lab 2.2.osexp","C:\Users\kikip\OneDrive\Desktop","False","mono","False","18","no","white","no","yes","768","legacy","9","9","C:/Users/kikip/OneDrive/Desktop/HB-subject-4.csv","legacy","Melodramatic Milgram","4.0.5","0","s","NA","NA","s","NA","NA","s","NA","534.0","NA","NA","33948","NA","NA","534","NA","2","legacy","1024","2","48000","-16","experiment","SSSSS","4","even","36733","NA","39243","51366","NA","NA","2781","NA","52413","2784","NA","NA","52515","53050","NA","52412","52515","Neues Experiment","9","5294.0","10","1024"
"90","90","526","526","#3d3846","legacy","legacy","legacy","coongruent","1","undefined","1","h","0","0","10","10","0","0","0","10","10","0","0","0","10","10","NA","10","10","Wed Sep 13 04:25:38 2023","1500","The main experiment item","True","Flanker Task Lab 2.2.osexp","C:\Users\kikip\OneDrive\Desktop","False","mono","False","18","no","white","no","yes","768","legacy","10","10","C:/Users/kikip/OneDrive/Desktop/HB-subject-4.csv","legacy","Melodramatic Milgram","4.0.5","0","h","NA","NA","s","NA","NA","h","NA","493.0","NA","NA","33948","NA","NA","493","NA","2","legacy","1024","2","48000","-16","experiment","HHHHH","4","even","36733","NA","39243","53053","NA","NA","2781","NA","54095","2784","NA","NA","54196","54690","NA","54093","54196","Neues Experiment","10","5787.0","11","1024"
"91","91","536","536","#3d3846","legacy","legacy","legacy","incongruent","1","undefined","1","s","0","0","11","11","0","0","0","11","11","0","0","0","11","11","NA","11","11","Wed Sep 13 04:25:38 2023","1500","The main experiment item","True","Flanker Task Lab 2.2.osexp","C:\Users\kikip\OneDrive\Desktop","False","mono","False","18","no","white","no","yes","768","legacy","11","11","C:/Users/kikip/OneDrive/Desktop/HB-subject-4.csv","legacy","Melodramatic Milgram","4.0.5","0","s","NA","NA","s","NA","NA","s","NA","656.0","NA","NA","33948","NA","NA","656","NA","2","legacy","1024","2","48000","-16","experiment","HHSHH","4","even","36733","NA","39243","54693","NA","NA","2781","NA","55736","2784","NA","NA","55837","56494","NA","55734","55837","Neues Experiment","11","6443.0","12","1024"
"92","92","528","528","#3d3846","legacy","legacy","legacy","incongruent","1","undefined","1","s","0","0","12","12","0","0","0","12","12","0","0","0","12","12","NA","12","12","Wed Sep 13 04:25:38 2023","1500","The main experiment item","True","Flanker Task Lab 2.2.osexp","C:\Users\kikip\OneDrive\Desktop","False","mono","False","18","no","white","no","yes","768","legacy","12","12","C:/Users/kikip/OneDrive/Desktop/HB-subject-4.csv","legacy","Melodramatic Milgram","4.0.5","0","s","NA","NA","s","NA","NA","s","NA","421.0","NA","NA","33948","NA","NA","421","NA","2","legacy","1024","2","48000","-16","experiment","HHSHH","4","even","36733","NA","39243","56497","NA","NA","2781","NA","57541","2784","NA","NA","57642","58064","NA","57539","57642","Neues Experiment","12","6864.0","13","1024"
"92","92","524","524","#3d3846","legacy","legacy","legacy","incongruent","1","undefined","1","h","0","0","13","13","0","0","0","13","13","0","0","0","13","13","NA","13","13","Wed Sep 13 04:25:38 2023","1500","The main experiment item","True","Flanker Task Lab 2.2.osexp","C:\Users\kikip\OneDrive\Desktop","False","mono","False","18","no","white","no","yes","768","legacy","13","13","C:/Users/kikip/OneDrive/Desktop/HB-subject-4.csv","legacy","Melodramatic Milgram","4.0.5","0","h","NA","NA","s","NA","NA","h","NA","474.0","NA","NA","33948","NA","NA","474","NA","2","legacy","1024","2","48000","-16","experiment","SSHSS","4","even","36733","NA","39243","58070","NA","NA","2781","NA","59118","2784","NA","NA","59219","59693","NA","59116","59219","Neues Experiment","13","7338.0","14","1024"
"93","93","519","519","#3d3846","legacy","legacy","legacy","incongruent","1","undefined","1","s","0","0","14","14","0","0","0","14","14","0","0","0","14","14","NA","14","14","Wed Sep 13 04:25:38 2023","1500","The main experiment item","True","Flanker Task Lab 2.2.osexp","C:\Users\kikip\OneDrive\Desktop","False","mono","False","18","no","white","no","yes","768","legacy","14","14","C:/Users/kikip/OneDrive/Desktop/HB-subject-4.csv","legacy","Melodramatic Milgram","4.0.5","0","s","NA","NA","s","NA","NA","s","NA","461.0","NA","NA","33948","NA","NA","461","NA","2","legacy","1024","2","48000","-16","experiment","HHSHH","4","even","36733","NA","39243","59697","NA","NA","2781","NA","60741","2784","NA","NA","60842","61304","NA","60739","60842","Neues Experiment","14","7799.0","15","1024"
"93","93","516","516","#3d3846","legacy","legacy","legacy","congruent","1","undefined","1","s","0","0","15","15","0","0","0","15","15","0","0","0","15","15","NA","15","15","Wed Sep 13 04:25:38 2023","1500","The main experiment item","True","Flanker Task Lab 2.2.osexp","C:\Users\kikip\OneDrive\Desktop","False","mono","False","18","no","white","no","yes","768","legacy","15","15","C:/Users/kikip/OneDrive/Desktop/HB-subject-4.csv","legacy","Melodramatic Milgram","4.0.5","0","s","NA","NA","s","NA","NA","s","NA","467.0","NA","NA","33948","NA","NA","467","NA","2","legacy","1024","2","48000","-16","experiment","SSSSS","4","even","36733","NA","39243","61307","NA","NA","2781","NA","62368","2784","NA","NA","62470","62938","NA","62366","62469","Neues Experiment","15","8266.0","16","1024"
"94","94","511","511","#3d3846","legacy","legacy","legacy","coongruent","1","undefined","1","h","0","0","16","16","0","0","0","16","16","0","0","0","16","16","NA","16","16","Wed Sep 13 04:25:38 2023","1500","The main experiment item","True","Flanker Task Lab 2.2.osexp","C:\Users\kikip\OneDrive\Desktop","False","mono","False","18","no","white","no","yes","768","legacy","16","16","C:/Users/kikip/OneDrive/Desktop/HB-subject-4.csv","legacy","Melodramatic Milgram","4.0.5","0","h","NA","NA","s","NA","NA","h","NA","425.0","NA","NA","33948","NA","NA","425","NA","2","legacy","1024","2","48000","-16","experiment","HHHHH","4","even","36733","NA","39243","62942","NA","NA","2781","NA","63981","2784","NA","NA","64082","64514","NA","63980","64082","Neues Experiment","16","8691.0","17","1024"
"94","94","516","516","#3d3846","legacy","legacy","legacy","incongruent","1","undefined","1","h","0","0","17","17","0","0","0","17","17","0","0","0","17","17","NA","17","17","Wed Sep 13 04:25:38 2023","1500","The main experiment item","True","Flanker Task Lab 2.2.osexp","C:\Users\kikip\OneDrive\Desktop","False","mono","False","18","no","white","no","yes","768","legacy","17","17","C:/Users/kikip/OneDrive/Desktop/HB-subject-4.csv","legacy","Melodramatic Milgram","4.0.5","0","h","NA","NA","s","NA","NA","h","NA","604.0","NA","NA","33948","NA","NA","604","NA","2","legacy","1024","2","48000","-16","experiment","SSHSS","4","even","36733","NA","39243","64547","NA","NA","2781","NA","65593","2784","NA","NA","65694","66299","NA","65591","65694","Neues Experiment","17","9295.0","18","1024"
"94","94","516","516","#3d3846","legacy","legacy","legacy","congruent","1","undefined","1","s","0","0","18","18","0","0","0","18","18","0","0","0","18","18","NA","18","18","Wed Sep 13 04:25:38 2023","1500","The main experiment item","True","Flanker Task Lab 2.2.osexp","C:\Users\kikip\OneDrive\Desktop","False","mono","False","18","no","white","no","yes","768","legacy","18","18","C:/Users/kikip/OneDrive/Desktop/HB-subject-4.csv","legacy","Melodramatic Milgram","4.0.5","0","s","NA","NA","s","NA","NA","s","NA","520.0","NA","NA","33948","NA","NA","520","NA","2","legacy","1024","2","48000","-16","experiment","SSSSS","4","even","36733","NA","39243","66305","NA","NA","2781","NA","67345","2784","NA","NA","67446","67967","NA","67343","67446","Neues Experiment","18","9815.0","19","1024"
"95","95","515","515","#3d3846","legacy","legacy","legacy","coongruent","1","undefined","1","h","0","0","19","19","0","0","0","19","19","0","0","0","19","19","NA","19","19","Wed Sep 13 04:25:38 2023","1500","The main experiment item","True","Flanker Task Lab 2.2.osexp","C:\Users\kikip\OneDrive\Desktop","False","mono","False","18","no","white","no","yes","768","legacy","19","19","C:/Users/kikip/OneDrive/Desktop/HB-subject-4.csv","legacy","Melodramatic Milgram","4.0.5","0","h","NA","NA","s","NA","NA","h","NA","498.0","NA","NA","33948","NA","NA","498","NA","2","legacy","1024","2","48000","-16","experiment","HHHHH","4","even","36733","NA","39243","67970","NA","NA","2781","NA","69012","2784","NA","NA","69113","69612","NA","69011","69113","Neues Experiment","19","10313.0","20","1024"
"95","95","512","512","#3d3846","legacy","legacy","legacy","incongruent","1","undefined","1","s","0","0","20","20","0","0","0","20","20","0","0","0","20","20","NA","20","20","Wed Sep 13 04:25:38 2023","1500","The main experiment item","True","Flanker Task Lab 2.2.osexp","C:\Users\kikip\OneDrive\Desktop","False","mono","False","18","no","white","no","yes","768","legacy","20","20","C:/Users/kikip/OneDrive/Desktop/HB-subject-4.csv","legacy","Melodramatic Milgram","4.0.5","0","s","NA","NA","s","NA","NA","s","NA","457.0","NA","NA","33948","NA","NA","457","NA","2","legacy","1024","2","48000","-16","experiment","HHSHH","4","even","36733","NA","39243","69615","NA","NA","2781","NA","70658","2784","NA","NA","70759","71216","NA","70656","70759","Neues Experiment","20","10770.0","21","1024"
"95","95","511","511","#3d3846","legacy","legacy","legacy","incongruent","1","undefined","1","s","0","0","21","21","0","0","0","21","21","0","0","0","21","21","NA","21","21","Wed Sep 13 04:25:38 2023","1500","The main experiment item","True","Flanker Task Lab 2.2.osexp","C:\Users\kikip\OneDrive\Desktop","False","mono","False","18","no","white","no","yes","768","legacy","21","21","C:/Users/kikip/OneDrive/Desktop/HB-subject-4.csv","legacy","Melodramatic Milgram","4.0.5","0","s","NA","NA","s","NA","NA","s","NA","490.0","NA","NA","33948","NA","NA","490","NA","2","legacy","1024","2","48000","-16","experiment","HHSHH","4","even","36733","NA","39243","71219","NA","NA","2781","NA","72260","2784","NA","NA","72361","72852","NA","72258","72361","Neues Experiment","21","11260.0","22","1024"
"95","95","514","514","#3d3846","legacy","legacy","legacy","congruent","1","undefined","1","s","0","0","22","22","0","0","0","22","22","0","0","0","22","22","NA","22","22","Wed Sep 13 04:25:38 2023","1500","The main experiment item","True","Flanker Task Lab 2.2.osexp","C:\Users\kikip\OneDrive\Desktop","False","mono","False","18","no","white","no","yes","768","legacy","22","22","C:/Users/kikip/OneDrive/Desktop/HB-subject-4.csv","legacy","Melodramatic Milgram","4.0.5","0","s","NA","NA","s","NA","NA","s","NA","569.0","NA","NA","33948","NA","NA","569","NA","2","legacy","1024","2","48000","-16","experiment","SSSSS","4","even","36733","NA","39243","72858","NA","NA","2781","NA","73915","2784","NA","NA","74016","74586","NA","73914","74016","Neues Experiment","22","11829.0","23","1024"
"95","95","514","514","#3d3846","legacy","legacy","legacy","incongruent","1","undefined","1","s","0","0","23","23","0","0","0","23","23","0","0","0","23","23","NA","23","23","Wed Sep 13 04:25:38 2023","1500","The main experiment item","True","Flanker Task Lab 2.2.osexp","C:\Users\kikip\OneDrive\Desktop","False","mono","False","18","no","white","no","yes","768","legacy","23","23","C:/Users/kikip/OneDrive/Desktop/HB-subject-4.csv","legacy","Melodramatic Milgram","4.0.5","0","s","NA","NA","s","NA","NA","s","NA","529.0","NA","NA","33948","NA","NA","529","NA","2","legacy","1024","2","48000","-16","experiment","HHSHH","4","even","36733","NA","39243","74589","NA","NA","2781","NA","75625","2784","NA","NA","75726","76256","NA","75623","75726","Neues Experiment","23","12358.0","24","1024"
"96","96","511","511","#3d3846","legacy","legacy","legacy","coongruent","1","undefined","1","h","0","0","24","24","0","0","0","24","24","0","0","0","24","24","NA","24","24","Wed Sep 13 04:25:38 2023","1500","The main experiment item","True","Flanker Task Lab 2.2.osexp","C:\Users\kikip\OneDrive\Desktop","False","mono","False","18","no","white","no","yes","768","legacy","24","24","C:/Users/kikip/OneDrive/Desktop/HB-subject-4.csv","legacy","Melodramatic Milgram","4.0.5","0","h","NA","NA","s","NA","NA","h","NA","423.0","NA","NA","33948","NA","NA","423","NA","2","legacy","1024","2","48000","-16","experiment","HHHHH","4","even","36733","NA","39243","76259","NA","NA","2781","NA","77315","2784","NA","NA","77416","77840","NA","77313","77416","Neues Experiment","24","12781.0","25","1024"
"96","96","504","504","#3d3846","legacy","legacy","legacy","congruent","1","undefined","1","s","0","0","25","25","0","0","0","25","25","0","0","0","25","25","NA","25","25","Wed Sep 13 04:25:38 2023","1500","The main experiment item","True","Flanker Task Lab 2.2.osexp","C:\Users\kikip\OneDrive\Desktop","False","mono","False","18","no","white","no","yes","768","legacy","25","25","C:/Users/kikip/OneDrive/Desktop/HB-subject-4.csv","legacy","Melodramatic Milgram","4.0.5","0","s","NA","NA","s","NA","NA","s","NA","344.0","NA","NA","33948","NA","NA","344","NA","2","legacy","1024","2","48000","-16","experiment","SSSSS","4","even","36733","NA","39243","77843","NA","NA","2781","NA","78884","2784","NA","NA","78985","79330","NA","78882","78985","Neues Experiment","25","13125.0","26","1024"
"96","96","502","502","#3d3846","legacy","legacy","legacy","congruent","1","undefined","1","s","0","0","26","26","0","0","0","26","26","0","0","0","26","26","NA","26","26","Wed Sep 13 04:25:38 2023","1500","The main experiment item","True","Flanker Task Lab 2.2.osexp","C:\Users\kikip\OneDrive\Desktop","False","mono","False","18","no","white","no","yes","768","legacy","26","26","C:/Users/kikip/OneDrive/Desktop/HB-subject-4.csv","legacy","Melodramatic Milgram","4.0.5","0","s","NA","NA","s","NA","NA","s","NA","432.0","NA","NA","33948","NA","NA","432","NA","2","legacy","1024","2","48000","-16","experiment","SSSSS","4","even","36733","NA","39243","79337","NA","NA","2781","NA","80401","2784","NA","NA","80502","80935","NA","80399","80502","Neues Experiment","26","13557.0","27","1024"
"96","96","501","501","#3d3846","legacy","legacy","legacy","incongruent","1","undefined","1","h","0","0","27","27","0","0","0","27","27","0","0","0","27","27","NA","27","27","Wed Sep 13 04:25:38 2023","1500","The main experiment item","True","Flanker Task Lab 2.2.osexp","C:\Users\kikip\OneDrive\Desktop","False","mono","False","18","no","white","no","yes","768","legacy","27","27","C:/Users/kikip/OneDrive/Desktop/HB-subject-4.csv","legacy","Melodramatic Milgram","4.0.5","0","h","NA","NA","s","NA","NA","h","NA","481.0","NA","NA","33948","NA","NA","481","NA","2","legacy","1024","2","48000","-16","experiment","SSHSS","4","even","36733","NA","39243","80941","NA","NA","2781","NA","81978","2784","NA","NA","82079","82561","NA","81977","82079","Neues Experiment","27","14038.0","28","1024"
"96","96","499","499","#3d3846","legacy","legacy","legacy","incongruent","1","undefined","1","h","0","0","28","28","0","0","0","28","28","0","0","0","28","28","NA","28","28","Wed Sep 13 04:25:38 2023","1500","The main experiment item","True","Flanker Task Lab 2.2.osexp","C:\Users\kikip\OneDrive\Desktop","False","mono","False","18","no","white","no","yes","768","legacy","28","28","C:/Users/kikip/OneDrive/Desktop/HB-subject-4.csv","legacy","Melodramatic Milgram","4.0.5","0","h","NA","NA","s","NA","NA","h","NA","452.0","NA","NA","33948","NA","NA","452","NA","2","legacy","1024","2","48000","-16","experiment","SSHSS","4","even","36733","NA","39243","82567","NA","NA","2781","NA","83640","2784","NA","NA","83741","84194","NA","83637","83741","Neues Experiment","28","14490.0","29","1024"
"96","96","499","499","#3d3846","legacy","legacy","legacy","incongruent","1","undefined","1","s","0","0","29","29","0","0","0","29","29","0","0","0","29","29","NA","29","29","Wed Sep 13 04:25:38 2023","1500","The main experiment item","True","Flanker Task Lab 2.2.osexp","C:\Users\kikip\OneDrive\Desktop","False","mono","False","18","no","white","no","yes","768","legacy","29","29","C:/Users/kikip/OneDrive/Desktop/HB-subject-4.csv","legacy","Melodramatic Milgram","4.0.5","0","s","NA","NA","s","NA","NA","s","NA","500.0","NA","NA","33948","NA","NA","500","NA","2","legacy","1024","2","48000","-16","experiment","HHSHH","4","even","36733","NA","39243","84198","NA","NA","2781","NA","85248","2784","NA","NA","85349","85850","NA","85246","85349","Neues Experiment","29","14990.0","30","1024"
"96","96","497","497","#3d3846","legacy","legacy","legacy","coongruent","1","undefined","1","h","0","0","30","30","0","0","0","30","30","0","0","0","30","30","NA","30","30","Wed Sep 13 04:25:38 2023","1500","The main experiment item","True","Flanker Task Lab 2.2.osexp","C:\Users\kikip\OneDrive\Desktop","False","mono","False","18","no","white","no","yes","768","legacy","30","30","C:/Users/kikip/OneDrive/Desktop/HB-subject-4.csv","legacy","Melodramatic Milgram","4.0.5","0","h","NA","NA","s","NA","NA","h","NA","419.0","NA","NA","33948","NA","NA","419","NA","2","legacy","1024","2","48000","-16","experiment","HHHHH","4","even","36733","NA","39243","85853","NA","NA","2781","NA","86898","2784","NA","NA","86999","87419","NA","86897","86999","Neues Experiment","30","15409.0","31","1024"
"93","93","491","491","#3d3846","legacy","legacy","legacy","incongruent","0","undefined","0","h","0","0","31","31","0","0","0","31","31","0","0","0","31","31","NA","31","31","Wed Sep 13 04:25:38 2023","1500","The main experiment item","True","Flanker Task Lab 2.2.osexp","C:\Users\kikip\OneDrive\Desktop","False","mono","False","18","no","white","no","yes","768","legacy","31","31","C:/Users/kikip/OneDrive/Desktop/HB-subject-4.csv","legacy","Melodramatic Milgram","4.0.5","0","s","NA","NA","s","NA","NA","s","NA","327.0","NA","NA","33948","NA","NA","327","NA","2","legacy","1024","2","48000","-16","experiment","SSHSS","4","even","36733","NA","39243","87422","NA","NA","2781","NA","88460","2784","NA","NA","88561","88889","NA","88458","88561","Neues Experiment","30","15736.0","32","1024"
"93","93","505","505","#3d3846","legacy","legacy","legacy","incongruent","1","undefined","1","h","0","0","32","32","0","0","0","32","32","0","0","0","32","32","NA","32","32","Wed Sep 13 04:25:38 2023","1500","The main experiment item","True","Flanker Task Lab 2.2.osexp","C:\Users\kikip\OneDrive\Desktop","False","mono","False","18","no","white","no","yes","768","legacy","32","32","C:/Users/kikip/OneDrive/Desktop/HB-subject-4.csv","legacy","Melodramatic Milgram","4.0.5","0","h","NA","NA","s","NA","NA","h","NA","956.0","NA","NA","33948","NA","NA","956","NA","2","legacy","1024","2","48000","-16","experiment","SSHSS","4","even","36733","NA","88892","89393","NA","NA","2781","NA","90435","2784","NA","NA","90536","91493","NA","90433","90536","Neues Experiment","31","16692.0","33","1024"
"94","94","508","508","#3d3846","legacy","legacy","legacy","incongruent","1","undefined","1","h","0","0","33","33","0","0","0","33","33","0","0","0","33","33","NA","33","33","Wed Sep 13 04:25:38 2023","1500","The main experiment item","True","Flanker Task Lab 2.2.osexp","C:\Users\kikip\OneDrive\Desktop","False","mono","False","18","no","white","no","yes","768","legacy","33","33","C:/Users/kikip/OneDrive/Desktop/HB-subject-4.csv","legacy","Melodramatic Milgram","4.0.5","0","h","NA","NA","s","NA","NA","h","NA","585.0","NA","NA","33948","NA","NA","585","NA","2","legacy","1024","2","48000","-16","experiment","SSHSS","4","even","36733","NA","88892","91496","NA","NA","2781","NA","92547","2784","NA","NA","92648","93234","NA","92545","92648","Neues Experiment","32","17277.0","34","1024"
"94","94","505","505","#3d3846","legacy","legacy","legacy","incongruent","1","undefined","1","h","0","0","34","34","0","0","0","34","34","0","0","0","34","34","NA","34","34","Wed Sep 13 04:25:38 2023","1500","The main experiment item","True","Flanker Task Lab 2.2.osexp","C:\Users\kikip\OneDrive\Desktop","False","mono","False","18","no","white","no","yes","768","legacy","34","34","C:/Users/kikip/OneDrive/Desktop/HB-subject-4.csv","legacy","Melodramatic Milgram","4.0.5","0","h","NA","NA","s","NA","NA","h","NA","420.0","NA","NA","33948","NA","NA","420","NA","2","legacy","1024","2","48000","-16","experiment","SSHSS","4","even","36733","NA","88892","93240","NA","NA","2781","NA","94291","2784","NA","NA","94392","94813","NA","94289","94392","Neues Experiment","33","17697.0","35","1024"
"94","94","505","505","#3d3846","legacy","legacy","legacy","incongruent","1","undefined","1","s","0","0","35","35","0","0","0","35","35","0","0","0","35","35","NA","35","35","Wed Sep 13 04:25:38 2023","1500","The main experiment item","True","Flanker Task Lab 2.2.osexp","C:\Users\kikip\OneDrive\Desktop","False","mono","False","18","no","white","no","yes","768","legacy","35","35","C:/Users/kikip/OneDrive/Desktop/HB-subject-4.csv","legacy","Melodramatic Milgram","4.0.5","0","s","NA","NA","s","NA","NA","s","NA","499.0","NA","NA","33948","NA","NA","499","NA","2","legacy","1024","2","48000","-16","experiment","HHSHH","4","even","36733","NA","88892","94819","NA","NA","2781","NA","95857","2784","NA","NA","95958","96458","NA","95855","95958","Neues Experiment","34","18196.0","36","1024"
"94","94","505","505","#3d3846","legacy","legacy","legacy","incongruent","1","undefined","1","h","0","0","36","36","0","0","0","36","36","0","0","0","36","36","NA","36","36","Wed Sep 13 04:25:38 2023","1500","The main experiment item","True","Flanker Task Lab 2.2.osexp","C:\Users\kikip\OneDrive\Desktop","False","mono","False","18","no","white","no","yes","768","legacy","36","36","C:/Users/kikip/OneDrive/Desktop/HB-subject-4.csv","legacy","Melodramatic Milgram","4.0.5","0","h","NA","NA","s","NA","NA","h","NA","524.0","NA","NA","33948","NA","NA","524","NA","2","legacy","1024","2","48000","-16","experiment","SSHSS","4","even","36733","NA","88892","96464","NA","NA","2781","NA","97541","2784","NA","NA","97642","98167","NA","97538","97642","Neues Experiment","35","18720.0","37","1024"
"94","94","506","506","#3d3846","legacy","legacy","legacy","incongruent","1","undefined","1","s","0","0","37","37","0","0","0","37","37","0","0","0","37","37","NA","37","37","Wed Sep 13 04:25:38 2023","1500","The main experiment item","True","Flanker Task Lab 2.2.osexp","C:\Users\kikip\OneDrive\Desktop","False","mono","False","18","no","white","no","yes","768","legacy","37","37","C:/Users/kikip/OneDrive/Desktop/HB-subject-4.csv","legacy","Melodramatic Milgram","4.0.5","0","s","NA","NA","s","NA","NA","s","NA","515.0","NA","NA","33948","NA","NA","515","NA","2","legacy","1024","2","48000","-16","experiment","HHSHH","4","even","36733","NA","88892","98171","NA","NA","2781","NA","99221","2784","NA","NA","99322","99838","NA","99219","99322","Neues Experiment","36","19235.0","38","1024"
"94","94","505","505","#3d3846","legacy","legacy","legacy","coongruent","1","undefined","1","h","0","0","38","38","0","0","0","38","38","0","0","0","38","38","NA","38","38","Wed Sep 13 04:25:38 2023","1500","The main experiment item","True","Flanker Task Lab 2.2.osexp","C:\Users\kikip\OneDrive\Desktop","False","mono","False","18","no","white","no","yes","768","legacy","38","38","C:/Users/kikip/OneDrive/Desktop/HB-subject-4.csv","legacy","Melodramatic Milgram","4.0.5","0","h","NA","NA","s","NA","NA","h","NA","469.0","NA","NA","33948","NA","NA","469","NA","2","legacy","1024","2","48000","-16","experiment","HHHHH","4","even","36733","NA","88892","99844","NA","NA","2781","NA","100887","2784","NA","NA","100988","101458","NA","100885","100988","Neues Experiment","37","19704.0","39","1024"
"95","95","502","502","#3d3846","legacy","legacy","legacy","congruent","1","undefined","1","s","0","0","39","39","0","0","0","39","39","0","0","0","39","39","NA","39","39","Wed Sep 13 04:25:38 2023","1500","The main experiment item","True","Flanker Task Lab 2.2.osexp","C:\Users\kikip\OneDrive\Desktop","False","mono","False","18","no","white","no","yes","768","legacy","39","39","C:/Users/kikip/OneDrive/Desktop/HB-subject-4.csv","legacy","Melodramatic Milgram","4.0.5","0","s","NA","NA","s","NA","NA","s","NA","398.0","NA","NA","33948","NA","NA","398","NA","2","legacy","1024","2","48000","-16","experiment","SSSSS","4","even","36733","NA","88892","101464","NA","NA","2781","NA","102502","2784","NA","NA","102603","103002","NA","102500","102603","Neues Experiment","38","20102.0","40","1024"
"95","95","503","503","#3d3846","legacy","legacy","legacy","congruent","1","undefined","1","s","0","0","40","40","0","0","0","40","40","0","0","0","40","40","NA","40","40","Wed Sep 13 04:25:38 2023","1500","The main experiment item","True","Flanker Task Lab 2.2.osexp","C:\Users\kikip\OneDrive\Desktop","False","mono","False","18","no","white","no","yes","768","legacy","40","40","C:/Users/kikip/OneDrive/Desktop/HB-subject-4.csv","legacy","Melodramatic Milgram","4.0.5","0","s","NA","NA","s","NA","NA","s","NA","542.0","NA","NA","33948","NA","NA","542","NA","2","legacy","1024","2","48000","-16","experiment","SSSSS","4","even","36733","NA","88892","103008","NA","NA","2781","NA","104062","2784","NA","NA","104164","104708","NA","104061","104164","Neues Experiment","39","20644.0","41","1024"
"95","95","504","504","#3d3846","legacy","legacy","legacy","incongruent","1","undefined","1","s","0","0","41","41","0","0","0","41","41","0","0","0","41","41","NA","41","41","Wed Sep 13 04:25:38 2023","1500","The main experiment item","True","Flanker Task Lab 2.2.osexp","C:\Users\kikip\OneDrive\Desktop","False","mono","False","18","no","white","no","yes","768","legacy","41","41","C:/Users/kikip/OneDrive/Desktop/HB-subject-4.csv","legacy","Melodramatic Milgram","4.0.5","0","s","NA","NA","s","NA","NA","s","NA","564.0","NA","NA","33948","NA","NA","564","NA","2","legacy","1024","2","48000","-16","experiment","HHSHH","4","even","36733","NA","88892","104718","NA","NA","2781","NA","105758","2784","NA","NA","105859","106423","NA","105756","105859","Neues Experiment","40","21208.0","42","1024"
"95","95","503","503","#3d3846","legacy","legacy","legacy","incongruent","1","undefined","1","h","0","0","42","42","0","0","0","42","42","0","0","0","42","42","NA","42","42","Wed Sep 13 04:25:38 2023","1500","The main experiment item","True","Flanker Task Lab 2.2.osexp","C:\Users\kikip\OneDrive\Desktop","False","mono","False","18","no","white","no","yes","768","legacy","42","42","C:/Users/kikip/OneDrive/Desktop/HB-subject-4.csv","legacy","Melodramatic Milgram","4.0.5","0","h","NA","NA","s","NA","NA","h","NA","433.0","NA","NA","33948","NA","NA","433","NA","2","legacy","1024","2","48000","-16","experiment","SSHSS","4","even","36733","NA","88892","106426","NA","NA","2781","NA","107501","2784","NA","NA","107602","108037","NA","107498","107602","Neues Experiment","41","21641.0","43","1024"
"95","95","501","501","#3d3846","legacy","legacy","legacy","incongruent","1","undefined","1","s","0","0","43","43","0","0","0","43","43","0","0","0","43","43","NA","43","43","Wed Sep 13 04:25:38 2023","1500","The main experiment item","True","Flanker Task Lab 2.2.osexp","C:\Users\kikip\OneDrive\Desktop","False","mono","False","18","no","white","no","yes","768","legacy","43","43","C:/Users/kikip/OneDrive/Desktop/HB-subject-4.csv","legacy","Melodramatic Milgram","4.0.5","0","s","NA","NA","s","NA","NA","s","NA","446.0","NA","NA","33948","NA","NA","446","NA","2","legacy","1024","2","48000","-16","experiment","HHSHH","4","even","36733","NA","88892","108043","NA","NA","2781","NA","109084","2784","NA","NA","109185","109633","NA","109082","109185","Neues Experiment","42","22087.0","44","1024"
"95","95","500","500","#3d3846","legacy","legacy","legacy","congruent","1","undefined","1","s","0","0","44","44","0","0","0","44","44","0","0","0","44","44","NA","44","44","Wed Sep 13 04:25:38 2023","1500","The main experiment item","True","Flanker Task Lab 2.2.osexp","C:\Users\kikip\OneDrive\Desktop","False","mono","False","18","no","white","no","yes","768","legacy","44","44","C:/Users/kikip/OneDrive/Desktop/HB-subject-4.csv","legacy","Melodramatic Milgram","4.0.5","0","s","NA","NA","s","NA","NA","s","NA","413.0","NA","NA","33948","NA","NA","413","NA","2","legacy","1024","2","48000","-16","experiment","SSSSS","4","even","36733","NA","88892","109639","NA","NA","2781","NA","110687","2784","NA","NA","110788","111202","NA","110685","110788","Neues Experiment","43","22500.0","45","1024"
"95","95","500","500","#3d3846","legacy","legacy","legacy","incongruent","1","undefined","1","s","0","0","45","45","0","0","0","45","45","0","0","0","45","45","NA","45","45","Wed Sep 13 04:25:38 2023","1500","The main experiment item","True","Flanker Task Lab 2.2.osexp","C:\Users\kikip\OneDrive\Desktop","False","mono","False","18","no","white","no","yes","768","legacy","45","45","C:/Users/kikip/OneDrive/Desktop/HB-subject-4.csv","legacy","Melodramatic Milgram","4.0.5","0","s","NA","NA","s","NA","NA","s","NA","512.0","NA","NA","33948","NA","NA","512","NA","2","legacy","1024","2","48000","-16","experiment","HHSHH","4","even","36733","NA","88892","111208","NA","NA","2781","NA","112262","2784","NA","NA","112363","112876","NA","112260","112363","Neues Experiment","44","23012.0","46","1024"
"95","95","500","500","#3d3846","legacy","legacy","legacy","congruent","1","undefined","1","s","0","0","46","46","0","0","0","46","46","0","0","0","46","46","NA","46","46","Wed Sep 13 04:25:38 2023","1500","The main experiment item","True","Flanker Task Lab 2.2.osexp","C:\Users\kikip\OneDrive\Desktop","False","mono","False","18","no","white","no","yes","768","legacy","46","46","C:/Users/kikip/OneDrive/Desktop/HB-subject-4.csv","legacy","Melodramatic Milgram","4.0.5","0","s","NA","NA","s","NA","NA","s","NA","500.0","NA","NA","33948","NA","NA","500","NA","2","legacy","1024","2","48000","-16","experiment","SSSSS","4","even","36733","NA","88892","112892","NA","NA","2781","NA","113933","2784","NA","NA","114034","114535","NA","113931","114034","Neues Experiment","45","23512.0","47","1024"
"95","95","503","503","#3d3846","legacy","legacy","legacy","coongruent","1","undefined","1","h","0","0","47","47","0","0","0","47","47","0","0","0","47","47","NA","47","47","Wed Sep 13 04:25:38 2023","1500","The main experiment item","True","Flanker Task Lab 2.2.osexp","C:\Users\kikip\OneDrive\Desktop","False","mono","False","18","no","white","no","yes","768","legacy","47","47","C:/Users/kikip/OneDrive/Desktop/HB-subject-4.csv","legacy","Melodramatic Milgram","4.0.5","0","h","NA","NA","s","NA","NA","h","NA","650.0","NA","NA","33948","NA","NA","650","NA","2","legacy","1024","2","48000","-16","experiment","HHHHH","4","even","36733","NA","88892","114539","NA","NA","2781","NA","115588","2784","NA","NA","115689","116340","NA","115586","115689","Neues Experiment","46","24162.0","48","1024"
"95","95","502","502","#3d3846","legacy","legacy","legacy","congruent","1","undefined","1","s","0","0","48","48","0","0","0","48","48","0","0","0","48","48","NA","48","48","Wed Sep 13 04:25:38 2023","1500","The main experiment item","True","Flanker Task Lab 2.2.osexp","C:\Users\kikip\OneDrive\Desktop","False","mono","False","18","no","white","no","yes","768","legacy","48","48","C:/Users/kikip/OneDrive/Desktop/HB-subject-4.csv","legacy","Melodramatic Milgram","4.0.5","0","s","NA","NA","s","NA","NA","s","NA","450.0","NA","NA","33948","NA","NA","450","NA","2","legacy","1024","2","48000","-16","experiment","SSSSS","4","even","36733","NA","88892","116347","NA","NA","2781","NA","117384","2784","NA","NA","117485","117936","NA","117382","117485","Neues Experiment","47","24612.0","49","1024"
"96","96","502","502","#3d3846","legacy","legacy","legacy","incongruent","1","undefined","1","s","0","0","49","49","0","0","0","49","49","0","0","0","49","49","NA","49","49","Wed Sep 13 04:25:38 2023","1500","The main experiment item","True","Flanker Task Lab 2.2.osexp","C:\Users\kikip\OneDrive\Desktop","False","mono","False","18","no","white","no","yes","768","legacy","49","49","C:/Users/kikip/OneDrive/Desktop/HB-subject-4.csv","legacy","Melodramatic Milgram","4.0.5","0","s","NA","NA","s","NA","NA","s","NA","515.0","NA","NA","33948","NA","NA","515","NA","2","legacy","1024","2","48000","-16","experiment","HHSHH","4","even","36733","NA","88892","117942","NA","NA","2781","NA","118988","2784","NA","NA","119089","119605","NA","118986","119089","Neues Experiment","48","25127.0","50","1024"
"96","96","504","504","#3d3846","legacy","legacy","legacy","congruent","1","undefined","1","s","0","0","50","50","0","0","0","50","50","0","0","0","50","50","NA","50","50","Wed Sep 13 04:25:38 2023","1500","The main experiment item","True","Flanker Task Lab 2.2.osexp","C:\Users\kikip\OneDrive\Desktop","False","mono","False","18","no","white","no","yes","768","legacy","50","50","C:/Users/kikip/OneDrive/Desktop/HB-subject-4.csv","legacy","Melodramatic Milgram","4.0.5","0","s","NA","NA","s","NA","NA","s","NA","610.0","NA","NA","33948","NA","NA","610","NA","2","legacy","1024","2","48000","-16","experiment","SSSSS","4","even","36733","NA","88892","119611","NA","NA","2781","NA","120732","2784","NA","NA","120833","121445","NA","120730","120833","Neues Experiment","49","25737.0","51","1024"
"96","96","507","507","#3d3846","legacy","legacy","legacy","coongruent","1","undefined","1","h","0","0","51","51","0","0","0","51","51","0","0","0","51","51","NA","51","51","Wed Sep 13 04:25:38 2023","1500","The main experiment item","True","Flanker Task Lab 2.2.osexp","C:\Users\kikip\OneDrive\Desktop","False","mono","False","18","no","white","no","yes","768","legacy","51","51","C:/Users/kikip/OneDrive/Desktop/HB-subject-4.csv","legacy","Melodramatic Milgram","4.0.5","0","h","NA","NA","s","NA","NA","h","NA","670.0","NA","NA","33948","NA","NA","670","NA","2","legacy","1024","2","48000","-16","experiment","HHHHH","4","even","36733","NA","88892","121449","NA","NA","2781","NA","122497","2784","NA","NA","122598","123269","NA","122496","122598","Neues Experiment","50","26407.0","52","1024"
"96","96","508","508","#3d3846","legacy","legacy","legacy","congruent","1","undefined","1","s","0","0","52","52","0","0","0","52","52","0","0","0","52","52","NA","52","52","Wed Sep 13 04:25:38 2023","1500","The main experiment item","True","Flanker Task Lab 2.2.osexp","C:\Users\kikip\OneDrive\Desktop","False","mono","False","18","no","white","no","yes","768","legacy","52","52","C:/Users/kikip/OneDrive/Desktop/HB-subject-4.csv","legacy","Melodramatic Milgram","4.0.5","0","s","NA","NA","s","NA","NA","s","NA","523.0","NA","NA","33948","NA","NA","523","NA","2","legacy","1024","2","48000","-16","experiment","SSSSS","4","even","36733","NA","88892","123275","NA","NA","2781","NA","124329","2784","NA","NA","124430","124954","NA","124327","124430","Neues Experiment","51","26930.0","53","1024"
"96","96","523","523","#3d3846","legacy","legacy","legacy","incongruent","1","undefined","1","h","0","0","53","53","0","0","0","53","53","0","0","0","53","53","NA","53","53","Wed Sep 13 04:25:38 2023","1500","The main experiment item","True","Flanker Task Lab 2.2.osexp","C:\Users\kikip\OneDrive\Desktop","False","mono","False","18","no","white","no","yes","768","legacy","53","53","C:/Users/kikip/OneDrive/Desktop/HB-subject-4.csv","legacy","Melodramatic Milgram","4.0.5","0","h","NA","NA","s","NA","NA","h","NA","1330.0","NA","NA","33948","NA","NA","1330","NA","2","legacy","1024","2","48000","-16","experiment","SSHSS","4","even","36733","NA","88892","124956","NA","NA","2781","NA","126006","2784","NA","NA","126107","127438","NA","126004","126107","Neues Experiment","52","28260.0","54","1024"
"96","96","527","527","#3d3846","legacy","legacy","legacy","incongruent","1","undefined","1","h","0","0","54","54","0","0","0","54","54","0","0","0","54","54","NA","54","54","Wed Sep 13 04:25:38 2023","1500","The main experiment item","True","Flanker Task Lab 2.2.osexp","C:\Users\kikip\OneDrive\Desktop","False","mono","False","18","no","white","no","yes","768","legacy","54","54","C:/Users/kikip/OneDrive/Desktop/HB-subject-4.csv","legacy","Melodramatic Milgram","4.0.5","0","h","NA","NA","s","NA","NA","h","NA","741.0","NA","NA","33948","NA","NA","741","NA","2","legacy","1024","2","48000","-16","experiment","SSHSS","4","even","36733","NA","88892","127441","NA","NA","2781","NA","128481","2784","NA","NA","128582","129325","NA","128479","128582","Neues Experiment","53","29001.0","55","1024"
"96","96","525","525","#3d3846","legacy","legacy","legacy","congruent","1","undefined","1","s","0","0","55","55","0","0","0","55","55","0","0","0","55","55","NA","55","55","Wed Sep 13 04:25:38 2023","1500","The main experiment item","True","Flanker Task Lab 2.2.osexp","C:\Users\kikip\OneDrive\Desktop","False","mono","False","18","no","white","no","yes","768","legacy","55","55","C:/Users/kikip/OneDrive/Desktop/HB-subject-4.csv","legacy","Melodramatic Milgram","4.0.5","0","s","NA","NA","s","NA","NA","s","NA","440.0","NA","NA","33948","NA","NA","440","NA","2","legacy","1024","2","48000","-16","experiment","SSSSS","4","even","36733","NA","88892","129328","NA","NA","2781","NA","130376","2784","NA","NA","130477","130918","NA","130374","130477","Neues Experiment","54","29441.0","56","1024"
"96","96","526","526","#3d3846","legacy","legacy","legacy","coongruent","1","undefined","1","h","0","0","56","56","0","0","0","56","56","0","0","0","56","56","NA","56","56","Wed Sep 13 04:25:38 2023","1500","The main experiment item","True","Flanker Task Lab 2.2.osexp","C:\Users\kikip\OneDrive\Desktop","False","mono","False","18","no","white","no","yes","768","legacy","56","56","C:/Users/kikip/OneDrive/Desktop/HB-subject-4.csv","legacy","Melodramatic Milgram","4.0.5","0","h","NA","NA","s","NA","NA","h","NA","579.0","NA","NA","33948","NA","NA","579","NA","2","legacy","1024","2","48000","-16","experiment","HHHHH","4","even","36733","NA","88892","130922","NA","NA","2781","NA","131962","2784","NA","NA","132063","132643","NA","131960","132063","Neues Experiment","55","30020.0","57","1024"
"96","96","525","525","#3d3846","legacy","legacy","legacy","coongruent","1","undefined","1","h","0","0","57","57","0","0","0","57","57","0","0","0","57","57","NA","57","57","Wed Sep 13 04:25:38 2023","1500","The main experiment item","True","Flanker Task Lab 2.2.osexp","C:\Users\kikip\OneDrive\Desktop","False","mono","False","18","no","white","no","yes","768","legacy","57","57","C:/Users/kikip/OneDrive/Desktop/HB-subject-4.csv","legacy","Melodramatic Milgram","4.0.5","0","h","NA","NA","s","NA","NA","h","NA","481.0","NA","NA","33948","NA","NA","481","NA","2","legacy","1024","2","48000","-16","experiment","HHHHH","4","even","36733","NA","88892","132646","NA","NA","2781","NA","133690","2784","NA","NA","133791","134273","NA","133688","133791","Neues Experiment","56","30501.0","58","1024"
"96","96","525","525","#3d3846","legacy","legacy","legacy","incongruent","1","undefined","1","s","0","0","58","58","0","0","0","58","58","0","0","0","58","58","NA","58","58","Wed Sep 13 04:25:38 2023","1500","The main experiment item","True","Flanker Task Lab 2.2.osexp","C:\Users\kikip\OneDrive\Desktop","False","mono","False","18","no","white","no","yes","768","legacy","58","58","C:/Users/kikip/OneDrive/Desktop/HB-subject-4.csv","legacy","Melodramatic Milgram","4.0.5","0","s","NA","NA","s","NA","NA","s","NA","491.0","NA","NA","33948","NA","NA","491","NA","2","legacy","1024","2","48000","-16","experiment","HHSHH","4","even","36733","NA","88892","134276","NA","NA","2781","NA","135320","2784","NA","NA","135421","135913","NA","135318","135421","Neues Experiment","57","30992.0","59","1024"
"96","96","525","525","#3d3846","legacy","legacy","legacy","incongruent","1","undefined","1","s","0","0","59","59","0","0","0","59","59","0","0","0","59","59","NA","59","59","Wed Sep 13 04:25:38 2023","1500","The main experiment item","True","Flanker Task Lab 2.2.osexp","C:\Users\kikip\OneDrive\Desktop","False","mono","False","18","no","white","no","yes","768","legacy","59","59","C:/Users/kikip/OneDrive/Desktop/HB-subject-4.csv","legacy","Melodramatic Milgram","4.0.5","0","s","NA","NA","s","NA","NA","s","NA","565.0","NA","NA","33948","NA","NA","565","NA","2","legacy","1024","2","48000","-16","experiment","HHSHH","4","even","36733","NA","88892","135919","NA","NA","2781","NA","136963","2784","NA","NA","137064","137630","NA","136962","137064","Neues Experiment","58","31557.0","60","1024"
"96","96","526","526","#3d3846","legacy","legacy","legacy","congruent","1","undefined","1","s","0","0","60","60","0","0","0","60","60","0","0","0","60","60","NA","60","60","Wed Sep 13 04:25:38 2023","1500","The main experiment item","True","Flanker Task Lab 2.2.osexp","C:\Users\kikip\OneDrive\Desktop","False","mono","False","18","no","white","no","yes","768","legacy","60","60","C:/Users/kikip/OneDrive/Desktop/HB-subject-4.csv","legacy","Melodramatic Milgram","4.0.5","0","s","NA","NA","s","NA","NA","s","NA","556.0","NA","NA","33948","NA","NA","556","NA","2","legacy","1024","2","48000","-16","experiment","SSSSS","4","even","36733","NA","88892","137633","NA","NA","2781","NA","138713","2784","NA","NA","138815","139372","NA","138712","138815","Neues Experiment","59","32113.0","61","1024"
"96","96","525","525","#3d3846","legacy","legacy","legacy","incongruent","1","undefined","1","h","0","0","61","61","0","0","0","61","61","0","0","0","61","61","NA","61","61","Wed Sep 13 04:25:38 2023","1500","The main experiment item","True","Flanker Task Lab 2.2.osexp","C:\Users\kikip\OneDrive\Desktop","False","mono","False","18","no","white","no","yes","768","legacy","61","61","C:/Users/kikip/OneDrive/Desktop/HB-subject-4.csv","legacy","Melodramatic Milgram","4.0.5","0","h","NA","NA","s","NA","NA","h","NA","456.0","NA","NA","33948","NA","NA","456","NA","2","legacy","1024","2","48000","-16","experiment","SSHSS","4","even","36733","NA","88892","139376","NA","NA","2781","NA","140414","2784","NA","NA","140515","140972","NA","140412","140515","Neues Experiment","60","32569.0","62","1024"
"96","96","526","526","#3d3846","legacy","legacy","legacy","coongruent","1","undefined","1","h","0","0","62","62","0","0","0","62","62","0","0","0","62","62","NA","62","62","Wed Sep 13 04:25:38 2023","1500","The main experiment item","True","Flanker Task Lab 2.2.osexp","C:\Users\kikip\OneDrive\Desktop","False","mono","False","18","no","white","no","yes","768","legacy","62","62","C:/Users/kikip/OneDrive/Desktop/HB-subject-4.csv","legacy","Melodramatic Milgram","4.0.5","0","h","NA","NA","s","NA","NA","h","NA","631.0","NA","NA","33948","NA","NA","631","NA","2","legacy","1024","2","48000","-16","experiment","HHHHH","4","even","36733","NA","88892","140978","NA","NA","2781","NA","142019","2784","NA","NA","142120","142752","NA","142017","142120","Neues Experiment","61","33200.0","63","1024"
"96","96","525","525","#3d3846","legacy","legacy","legacy","coongruent","1","undefined","1","h","0","0","63","63","0","0","0","63","63","0","0","0","63","63","NA","63","63","Wed Sep 13 04:25:38 2023","1500","The main experiment item","True","Flanker Task Lab 2.2.osexp","C:\Users\kikip\OneDrive\Desktop","False","mono","False","18","no","white","no","yes","768","legacy","63","63","C:/Users/kikip/OneDrive/Desktop/HB-subject-4.csv","legacy","Melodramatic Milgram","4.0.5","0","h","NA","NA","s","NA","NA","h","NA","416.0","NA","NA","33948","NA","NA","416","NA","2","legacy","1024","2","48000","-16","experiment","HHHHH","4","even","36733","NA","88892","142758","NA","NA","2781","NA","143800","2784","NA","NA","143901","144318","NA","143798","143901","Neues Experiment","62","33616.0","64","1024"
"96","96","524","524","#3d3846","legacy","legacy","legacy","incongruent","1","undefined","1","h","0","0","64","64","0","0","0","64","64","0","0","0","64","64","NA","64","64","Wed Sep 13 04:25:38 2023","1500","The main experiment item","True","Flanker Task Lab 2.2.osexp","C:\Users\kikip\OneDrive\Desktop","False","mono","False","18","no","white","no","yes","768","legacy","64","64","C:/Users/kikip/OneDrive/Desktop/HB-subject-4.csv","legacy","Melodramatic Milgram","4.0.5","0","h","NA","NA","s","NA","NA","h","NA","481.0","NA","NA","33948","NA","NA","481","NA","2","legacy","1024","2","48000","-16","experiment","SSHSS","4","even","36733","NA","88892","144321","NA","NA","2781","NA","145390","2784","NA","NA","145491","145973","NA","145389","145491","Neues Experiment","63","34097.0","65","1024"
"96","96","522","522","#3d3846","legacy","legacy","legacy","coongruent","1","undefined","1","h","0","0","65","65","0","0","0","65","65","0","0","0","65","65","NA","65","65","Wed Sep 13 04:25:38 2023","1500","The main experiment item","True","Flanker Task Lab 2.2.osexp","C:\Users\kikip\OneDrive\Desktop","False","mono","False","18","no","white","no","yes","768","legacy","65","65","C:/Users/kikip/OneDrive/Desktop/HB-subject-4.csv","legacy","Melodramatic Milgram","4.0.5","0","h","NA","NA","s","NA","NA","h","NA","400.0","NA","NA","33948","NA","NA","400","NA","2","legacy","1024","2","48000","-16","experiment","HHHHH","4","even","36733","NA","88892","145977","NA","NA","2781","NA","147024","2784","NA","NA","147125","147526","NA","147022","147125","Neues Experiment","64","34497.0","66","1024"
"97","97","521","521","#3d3846","legacy","legacy","legacy","congruent","1","undefined","1","s","0","0","66","66","0","0","0","66","66","0","0","0","66","66","NA","66","66","Wed Sep 13 04:25:38 2023","1500","The main experiment item","True","Flanker Task Lab 2.2.osexp","C:\Users\kikip\OneDrive\Desktop","False","mono","False","18","no","white","no","yes","768","legacy","66","66","C:/Users/kikip/OneDrive/Desktop/HB-subject-4.csv","legacy","Melodramatic Milgram","4.0.5","0","s","NA","NA","s","NA","NA","s","NA","433.0","NA","NA","33948","NA","NA","433","NA","2","legacy","1024","2","48000","-16","experiment","SSSSS","4","even","36733","NA","88892","147533","NA","NA","2781","NA","148571","2784","NA","NA","148672","149106","NA","148569","148672","Neues Experiment","65","34930.0","67","1024"
"97","97","519","519","#3d3846","legacy","legacy","legacy","incongruent","1","undefined","1","s","0","0","67","67","0","0","0","67","67","0","0","0","67","67","NA","67","67","Wed Sep 13 04:25:38 2023","1500","The main experiment item","True","Flanker Task Lab 2.2.osexp","C:\Users\kikip\OneDrive\Desktop","False","mono","False","18","no","white","no","yes","768","legacy","67","67","C:/Users/kikip/OneDrive/Desktop/HB-subject-4.csv","legacy","Melodramatic Milgram","4.0.5","0","s","NA","NA","s","NA","NA","s","NA","424.0","NA","NA","33948","NA","NA","424","NA","2","legacy","1024","2","48000","-16","experiment","HHSHH","4","even","36733","NA","88892","149109","NA","NA","2781","NA","150145","2784","NA","NA","150246","150671","NA","150143","150246","Neues Experiment","66","35354.0","68","1024"
"97","97","518","518","#3d3846","legacy","legacy","legacy","incongruent","1","undefined","1","h","0","0","68","68","0","0","0","68","68","0","0","0","68","68","NA","68","68","Wed Sep 13 04:25:38 2023","1500","The main experiment item","True","Flanker Task Lab 2.2.osexp","C:\Users\kikip\OneDrive\Desktop","False","mono","False","18","no","white","no","yes","768","legacy","68","68","C:/Users/kikip/OneDrive/Desktop/HB-subject-4.csv","legacy","Melodramatic Milgram","4.0.5","0","h","NA","NA","s","NA","NA","h","NA","420.0","NA","NA","33948","NA","NA","420","NA","2","legacy","1024","2","48000","-16","experiment","SSHSS","4","even","36733","NA","88892","150677","NA","NA","2781","NA","151723","2784","NA","NA","151824","152245","NA","151721","151824","Neues Experiment","67","35774.0","69","1024"
"97","97","516","516","#3d3846","legacy","legacy","legacy","incongruent","1","undefined","1","h","0","0","69","69","0","0","0","69","69","0","0","0","69","69","NA","69","69","Wed Sep 13 04:25:38 2023","1500","The main experiment item","True","Flanker Task Lab 2.2.osexp","C:\Users\kikip\OneDrive\Desktop","False","mono","False","18","no","white","no","yes","768","legacy","69","69","C:/Users/kikip/OneDrive/Desktop/HB-subject-4.csv","legacy","Melodramatic Milgram","4.0.5","0","h","NA","NA","s","NA","NA","h","NA","396.0","NA","NA","33948","NA","NA","396","NA","2","legacy","1024","2","48000","-16","experiment","SSHSS","4","even","36733","NA","88892","152251","NA","NA","2781","NA","153324","2784","NA","NA","153425","153822","NA","153321","153425","Neues Experiment","68","36170.0","70","1024"
"97","97","514","514","#3d3846","legacy","legacy","legacy","coongruent","1","undefined","1","h","0","0","70","70","0","0","0","70","70","0","0","0","70","70","NA","70","70","Wed Sep 13 04:25:38 2023","1500","The main experiment item","True","Flanker Task Lab 2.2.osexp","C:\Users\kikip\OneDrive\Desktop","False","mono","False","18","no","white","no","yes","768","legacy","70","70","C:/Users/kikip/OneDrive/Desktop/HB-subject-4.csv","legacy","Melodramatic Milgram","4.0.5","0","h","NA","NA","s","NA","NA","h","NA","367.0","NA","NA","33948","NA","NA","367","NA","2","legacy","1024","2","48000","-16","experiment","HHHHH","4","even","36733","NA","88892","153826","NA","NA","2781","NA","154862","2784","NA","NA","154963","155331","NA","154861","154963","Neues Experiment","69","36537.0","71","1024"
"97","97","513","513","#3d3846","legacy","legacy","legacy","congruent","1","undefined","1","s","0","0","71","71","0","0","0","71","71","0","0","0","71","71","NA","71","71","Wed Sep 13 04:25:38 2023","1500","The main experiment item","True","Flanker Task Lab 2.2.osexp","C:\Users\kikip\OneDrive\Desktop","False","mono","False","18","no","white","no","yes","768","legacy","71","71","C:/Users/kikip/OneDrive/Desktop/HB-subject-4.csv","legacy","Melodramatic Milgram","4.0.5","0","s","NA","NA","s","NA","NA","s","NA","442.0","NA","NA","33948","NA","NA","442","NA","2","legacy","1024","2","48000","-16","experiment","SSSSS","4","even","36733","NA","88892","155334","NA","NA","2781","NA","156373","2784","NA","NA","156474","156918","NA","156371","156474","Neues Experiment","70","36979.0","72","1024"
"97","97","513","513","#3d3846","legacy","legacy","legacy","incongruent","1","undefined","1","s","0","0","72","72","0","0","0","72","72","0","0","0","72","72","NA","72","72","Wed Sep 13 04:25:38 2023","1500","The main experiment item","True","Flanker Task Lab 2.2.osexp","C:\Users\kikip\OneDrive\Desktop","False","mono","False","18","no","white","no","yes","768","legacy","72","72","C:/Users/kikip/OneDrive/Desktop/HB-subject-4.csv","legacy","Melodramatic Milgram","4.0.5","0","s","NA","NA","s","NA","NA","s","NA","496.0","NA","NA","33948","NA","NA","496","NA","2","legacy","1024","2","48000","-16","experiment","HHSHH","4","even","36733","NA","88892","156921","NA","NA","2781","NA","157962","2784","NA","NA","158063","158560","NA","157961","158063","Neues Experiment","71","37475.0","73","1024"
"97","97","511","511","#3d3846","legacy","legacy","legacy","congruent","1","undefined","1","s","0","0","73","73","0","0","0","73","73","0","0","0","73","73","NA","73","73","Wed Sep 13 04:25:38 2023","1500","The main experiment item","True","Flanker Task Lab 2.2.osexp","C:\Users\kikip\OneDrive\Desktop","False","mono","False","18","no","white","no","yes","768","legacy","73","73","C:/Users/kikip/OneDrive/Desktop/HB-subject-4.csv","legacy","Melodramatic Milgram","4.0.5","0","s","NA","NA","s","NA","NA","s","NA","361.0","NA","NA","33948","NA","NA","361","NA","2","legacy","1024","2","48000","-16","experiment","SSSSS","4","even","36733","NA","88892","158566","NA","NA","2781","NA","159616","2784","NA","NA","159718","160080","NA","159614","159718","Neues Experiment","72","37836.0","74","1024"
"97","97","510","510","#3d3846","legacy","legacy","legacy","incongruent","1","undefined","1","s","0","0","74","74","0","0","0","74","74","0","0","0","74","74","NA","74","74","Wed Sep 13 04:25:38 2023","1500","The main experiment item","True","Flanker Task Lab 2.2.osexp","C:\Users\kikip\OneDrive\Desktop","False","mono","False","18","no","white","no","yes","768","legacy","74","74","C:/Users/kikip/OneDrive/Desktop/HB-subject-4.csv","legacy","Melodramatic Milgram","4.0.5","0","s","NA","NA","s","NA","NA","s","NA","426.0","NA","NA","33948","NA","NA","426","NA","2","legacy","1024","2","48000","-16","experiment","HHSHH","4","even","36733","NA","88892","160083","NA","NA","2781","NA","161122","2784","NA","NA","161223","161650","NA","161120","161223","Neues Experiment","73","38262.0","75","1024"
"97","97","508","508","#3d3846","legacy","legacy","legacy","coongruent","1","undefined","1","h","0","0","75","75","0","0","0","75","75","0","0","0","75","75","NA","75","75","Wed Sep 13 04:25:38 2023","1500","The main experiment item","True","Flanker Task Lab 2.2.osexp","C:\Users\kikip\OneDrive\Desktop","False","mono","False","18","no","white","no","yes","768","legacy","75","75","C:/Users/kikip/OneDrive/Desktop/HB-subject-4.csv","legacy","Melodramatic Milgram","4.0.5","0","h","NA","NA","s","NA","NA","h","NA","397.0","NA","NA","33948","NA","NA","397","NA","2","legacy","1024","2","48000","-16","experiment","HHHHH","4","even","36733","NA","88892","161657","NA","NA","2781","NA","162696","2784","NA","NA","162797","163195","NA","162694","162797","Neues Experiment","74","38659.0","76","1024"
"97","97","508","508","#3d3846","legacy","legacy","legacy","coongruent","1","undefined","1","h","0","0","76","76","0","0","0","76","76","0","0","0","76","76","NA","76","76","Wed Sep 13 04:25:38 2023","1500","The main experiment item","True","Flanker Task Lab 2.2.osexp","C:\Users\kikip\OneDrive\Desktop","False","mono","False","18","no","white","no","yes","768","legacy","76","76","C:/Users/kikip/OneDrive/Desktop/HB-subject-4.csv","legacy","Melodramatic Milgram","4.0.5","0","h","NA","NA","s","NA","NA","h","NA","459.0","NA","NA","33948","NA","NA","459","NA","2","legacy","1024","2","48000","-16","experiment","HHHHH","4","even","36733","NA","88892","163201","NA","NA","2781","NA","164244","2784","NA","NA","164345","164805","NA","164242","164345","Neues Experiment","75","39118.0","77","1024"
"97","97","506","506","#3d3846","legacy","legacy","legacy","coongruent","1","undefined","1","h","0","0","77","77","0","0","0","77","77","0","0","0","77","77","NA","77","77","Wed Sep 13 04:25:38 2023","1500","The main experiment item","True","Flanker Task Lab 2.2.osexp","C:\Users\kikip\OneDrive\Desktop","False","mono","False","18","no","white","no","yes","768","legacy","77","77","C:/Users/kikip/OneDrive/Desktop/HB-subject-4.csv","legacy","Melodramatic Milgram","4.0.5","0","h","NA","NA","s","NA","NA","h","NA","400.0","NA","NA","33948","NA","NA","400","NA","2","legacy","1024","2","48000","-16","experiment","HHHHH","4","even","36733","NA","88892","164808","NA","NA","2781","NA","165847","2784","NA","NA","165948","166350","NA","165845","165948","Neues Experiment","76","39518.0","78","1024"
"97","97","505","505","#3d3846","legacy","legacy","legacy","congruent","1","undefined","1","s","0","0","78","78","0","0","0","78","78","0","0","0","78","78","NA","78","78","Wed Sep 13 04:25:38 2023","1500","The main experiment item","True","Flanker Task Lab 2.2.osexp","C:\Users\kikip\OneDrive\Desktop","False","mono","False","18","no","white","no","yes","768","legacy","78","78","C:/Users/kikip/OneDrive/Desktop/HB-subject-4.csv","legacy","Melodramatic Milgram","4.0.5","0","s","NA","NA","s","NA","NA","s","NA","435.0","NA","NA","33948","NA","NA","435","NA","2","legacy","1024","2","48000","-16","experiment","SSSSS","4","even","36733","NA","88892","166353","NA","NA","2781","NA","167402","2784","NA","NA","167503","167939","NA","167400","167503","Neues Experiment","77","39953.0","79","1024"
"97","97","505","505","#3d3846","legacy","legacy","legacy","congruent","1","undefined","1","s","0","0","79","79","0","0","0","79","79","0","0","0","79","79","NA","79","79","Wed Sep 13 04:25:38 2023","1500","The main experiment item","True","Flanker Task Lab 2.2.osexp","C:\Users\kikip\OneDrive\Desktop","False","mono","False","18","no","white","no","yes","768","legacy","79","79","C:/Users/kikip/OneDrive/Desktop/HB-subject-4.csv","legacy","Melodramatic Milgram","4.0.5","0","s","NA","NA","s","NA","NA","s","NA","471.0","NA","NA","33948","NA","NA","471","NA","2","legacy","1024","2","48000","-16","experiment","SSSSS","4","even","36733","NA","88892","167946","NA","NA","2781","NA","168986","2784","NA","NA","169087","169560","NA","168984","169087","Neues Experiment","78","40424.0","80","1024"
"96","96","517","517","#3d3846","legacy","legacy","legacy","congruent","0","undefined","0","s","0","0","80","80","0","0","0","80","80","0","0","0","80","80","NA","80","80","Wed Sep 13 04:25:38 2023","600","The main experiment item","True","Flanker Task Lab 2.2.osexp","C:\Users\kikip\OneDrive\Desktop","False","mono","False","18","no","white","no","yes","768","legacy","0","79","C:/Users/kikip/OneDrive/Desktop/HB-subject-4.csv","legacy","Melodramatic Milgram","4.0.5","0","None","NA","NA","s","#","NA","None","NA","1500.0","NA","NA","33948","32850","NA","1500","NA","2","legacy","1024","2","48000","-16","experiment","SSSSS","4","even","36733","NA","88892","169563","NA","203415","2781","NA","203484","2784","170564","NA","203585","205086","NA","203483","203585","Neues Experiment","78","41924.0","81","1024"
"96","96","517","517","#3d3846","legacy","legacy","legacy","incongruent","1","undefined","1","s","0","0","81","81","0","0","0","81","81","0","0","0","81","81","NA","81","81","Wed Sep 13 04:25:38 2023","600","The main experiment item","True","Flanker Task Lab 2.2.osexp","C:\Users\kikip\OneDrive\Desktop","False","mono","False","18","no","white","no","yes","768","legacy","1","79","C:/Users/kikip/OneDrive/Desktop/HB-subject-4.csv","legacy","Melodramatic Milgram","4.0.5","0","s","NA","h","s","#","NA","s","NA","511.0","NA","5862","33948","32850","NA","511","NA","2","legacy","1024","2","48000","-16","experiment","HHSHH","4","even","36733","NA","205092","211458","NA","203415","2781","205593","212508","2784","170564","NA","212609","213121","NA","212506","212609","Neues Experiment","79","42435.0","82","1024"
"96","96","516","516","#3d3846","legacy","legacy","legacy","incongruent","1","undefined","1","h","0","0","82","82","0","0","0","82","82","0","0","0","82","82","NA","82","82","Wed Sep 13 04:25:38 2023","600","The main experiment item","True","Flanker Task Lab 2.2.osexp","C:\Users\kikip\OneDrive\Desktop","False","mono","False","18","no","white","no","yes","768","legacy","2","79","C:/Users/kikip/OneDrive/Desktop/HB-subject-4.csv","legacy","Melodramatic Milgram","4.0.5","0","h","NA","h","s","#","NA","h","NA","412.0","NA","5862","33948","32850","NA","412","NA","2","legacy","1024","2","48000","-16","experiment","SSHSS","4","even","36733","NA","205092","213127","NA","203415","2781","205593","214180","2784","170564","NA","214282","214696","NA","214179","214282","Neues Experiment","80","42847.0","83","1024"
"96","96","514","514","#3d3846","legacy","legacy","legacy","coongruent","1","undefined","1","h","0","0","83","83","0","0","0","83","83","0","0","0","83","83","NA","83","83","Wed Sep 13 04:25:38 2023","600","The main experiment item","True","Flanker Task Lab 2.2.osexp","C:\Users\kikip\OneDrive\Desktop","False","mono","False","18","no","white","no","yes","768","legacy","3","79","C:/Users/kikip/OneDrive/Desktop/HB-subject-4.csv","legacy","Melodramatic Milgram","4.0.5","0","h","NA","h","s","#","NA","h","NA","379.0","NA","5862","33948","32850","NA","379","NA","2","legacy","1024","2","48000","-16","experiment","HHHHH","4","even","36733","NA","205092","214699","NA","203415","2781","205593","215761","2784","170564","NA","215862","216243","NA","215759","215862","Neues Experiment","81","43226.0","84","1024"
"96","96","513","513","#3d3846","legacy","legacy","legacy","congruent","1","undefined","1","s","0","0","84","84","0","0","0","84","84","0","0","0","84","84","NA","84","84","Wed Sep 13 04:25:38 2023","600","The main experiment item","True","Flanker Task Lab 2.2.osexp","C:\Users\kikip\OneDrive\Desktop","False","mono","False","18","no","white","no","yes","768","legacy","4","79","C:/Users/kikip/OneDrive/Desktop/HB-subject-4.csv","legacy","Melodramatic Milgram","4.0.5","0","s","NA","h","s","#","NA","s","NA","386.0","NA","5862","33948","32850","NA","386","NA","2","legacy","1024","2","48000","-16","experiment","SSSSS","4","even","36733","NA","205092","216249","NA","203415","2781","205593","217328","2784","170564","NA","217429","217816","NA","217325","217429","Neues Experiment","82","43612.0","85","1024"
"96","96","511","511","#3d3846","legacy","legacy","legacy","incongruent","1","undefined","1","s","0","0","85","85","0","0","0","85","85","0","0","0","85","85","NA","85","85","Wed Sep 13 04:25:38 2023","600","The main experiment item","True","Flanker Task Lab 2.2.osexp","C:\Users\kikip\OneDrive\Desktop","False","mono","False","18","no","white","no","yes","768","legacy","5","79","C:/Users/kikip/OneDrive/Desktop/HB-subject-4.csv","legacy","Melodramatic Milgram","4.0.5","0","s","NA","h","s","#","NA","s","NA","387.0","NA","5862","33948","32850","NA","387","NA","2","legacy","1024","2","48000","-16","experiment","HHSHH","4","even","36733","NA","205092","217819","NA","203415","2781","205593","218873","2784","170564","NA","218974","219362","NA","218871","218974","Neues Experiment","83","43999.0","86","1024"
"95","95","510","510","#3d3846","legacy","legacy","legacy","congruent","0","undefined","0","s","0","0","86","86","0","0","0","86","86","0","0","0","86","86","NA","86","86","Wed Sep 13 04:25:38 2023","600","The main experiment item","True","Flanker Task Lab 2.2.osexp","C:\Users\kikip\OneDrive\Desktop","False","mono","False","18","no","white","no","yes","768","legacy","6","79","C:/Users/kikip/OneDrive/Desktop/HB-subject-4.csv","legacy","Melodramatic Milgram","4.0.5","0","h","NA","h","s","#","NA","h","NA","455.0","NA","5862","33948","32850","NA","455","NA","2","legacy","1024","2","48000","-16","experiment","SSSSS","4","even","36733","NA","205092","219365","NA","203415","2781","205593","220415","2784","170564","NA","220516","220973","NA","220413","220516","Neues Experiment","83","44454.0","87","1024"
"95","95","510","510","#3d3846","legacy","legacy","legacy","coongruent","1","undefined","1","h","0","0","87","87","0","0","0","87","87","0","0","0","87","87","NA","87","87","Wed Sep 13 04:25:38 2023","600","The main experiment item","True","Flanker Task Lab 2.2.osexp","C:\Users\kikip\OneDrive\Desktop","False","mono","False","18","no","white","no","yes","768","legacy","7","79","C:/Users/kikip/OneDrive/Desktop/HB-subject-4.csv","legacy","Melodramatic Milgram","4.0.5","0","h","NA","h","s","#","NA","h","NA","459.0","NA","5862","33948","32850","NA","459","NA","2","legacy","1024","2","48000","-16","experiment","HHHHH","4","even","36733","NA","220976","221477","NA","203415","2781","205593","222530","2784","170564","NA","222631","223092","NA","222528","222631","Neues Experiment","84","44913.0","88","1024"
"95","95","508","508","#3d3846","legacy","legacy","legacy","coongruent","1","undefined","1","h","0","0","88","88","0","0","0","88","88","0","0","0","88","88","NA","88","88","Wed Sep 13 04:25:38 2023","600","The main experiment item","True","Flanker Task Lab 2.2.osexp","C:\Users\kikip\OneDrive\Desktop","False","mono","False","18","no","white","no","yes","768","legacy","8","79","C:/Users/kikip/OneDrive/Desktop/HB-subject-4.csv","legacy","Melodramatic Milgram","4.0.5","0","h","NA","h","s","#","NA","h","NA","379.0","NA","5862","33948","32850","NA","379","NA","2","legacy","1024","2","48000","-16","experiment","HHHHH","4","even","36733","NA","220976","223099","NA","203415","2781","205593","224150","2784","170564","NA","224251","224631","NA","224148","224251","Neues Experiment","85","45292.0","89","1024"
"95","95","507","507","#3d3846","legacy","legacy","legacy","congruent","1","undefined","1","s","0","0","89","89","0","0","0","89","89","0","0","0","89","89","NA","89","89","Wed Sep 13 04:25:38 2023","600","The main experiment item","True","Flanker Task Lab 2.2.osexp","C:\Users\kikip\OneDrive\Desktop","False","mono","False","18","no","white","no","yes","768","legacy","9","79","C:/Users/kikip/OneDrive/Desktop/HB-subject-4.csv","legacy","Melodramatic Milgram","4.0.5","0","s","NA","h","s","#","NA","s","NA","386.0","NA","5862","33948","32850","NA","386","NA","2","legacy","1024","2","48000","-16","experiment","SSSSS","4","even","36733","NA","220976","224634","NA","203415","2781","205593","225683","2784","170564","NA","225784","226171","NA","225681","225784","Neues Experiment","86","45678.0","90","1024"
"95","95","506","506","#3d3846","legacy","legacy","legacy","coongruent","1","undefined","1","h","0","0","90","90","0","0","0","90","90","0","0","0","90","90","NA","90","90","Wed Sep 13 04:25:38 2023","600","The main experiment item","True","Flanker Task Lab 2.2.osexp","C:\Users\kikip\OneDrive\Desktop","False","mono","False","18","no","white","no","yes","768","legacy","10","79","C:/Users/kikip/OneDrive/Desktop/HB-subject-4.csv","legacy","Melodramatic Milgram","4.0.5","0","h","NA","h","s","#","NA","h","NA","439.0","NA","5862","33948","32850","NA","439","NA","2","legacy","1024","2","48000","-16","experiment","HHHHH","4","even","36733","NA","220976","226174","NA","203415","2781","205593","227225","2784","170564","NA","227327","227768","NA","227223","227327","Neues Experiment","87","46117.0","91","1024"
"95","95","505","505","#3d3846","legacy","legacy","legacy","coongruent","1","undefined","1","h","0","0","91","91","0","0","0","91","91","0","0","0","91","91","NA","91","91","Wed Sep 13 04:25:38 2023","600","The main experiment item","True","Flanker Task Lab 2.2.osexp","C:\Users\kikip\OneDrive\Desktop","False","mono","False","18","no","white","no","yes","768","legacy","11","79","C:/Users/kikip/OneDrive/Desktop/HB-subject-4.csv","legacy","Melodramatic Milgram","4.0.5","0","h","NA","h","s","#","NA","h","NA","402.0","NA","5862","33948","32850","NA","402","NA","2","legacy","1024","2","48000","-16","experiment","HHHHH","4","even","36733","NA","220976","227773","NA","203415","2781","205593","228826","2784","170564","NA","228928","229331","NA","228825","228928","Neues Experiment","88","46519.0","92","1024"
"95","95","504","504","#3d3846","legacy","legacy","legacy","congruent","1","undefined","1","s","0","0","92","92","0","0","0","92","92","0","0","0","92","92","NA","92","92","Wed Sep 13 04:25:38 2023","600","The main experiment item","True","Flanker Task Lab 2.2.osexp","C:\Users\kikip\OneDrive\Desktop","False","mono","False","18","no","white","no","yes","768","legacy","12","79","C:/Users/kikip/OneDrive/Desktop/HB-subject-4.csv","legacy","Melodramatic Milgram","4.0.5","0","s","NA","h","s","#","NA","s","NA","387.0","NA","5862","33948","32850","NA","387","NA","2","legacy","1024","2","48000","-16","experiment","SSSSS","4","even","36733","NA","220976","229334","NA","203415","2781","205593","230407","2784","170564","NA","230508","230897","NA","230405","230508","Neues Experiment","89","46906.0","93","1024"
"95","95","502","502","#3d3846","legacy","legacy","legacy","incongruent","1","undefined","1","s","0","0","93","93","0","0","0","93","93","0","0","0","93","93","NA","93","93","Wed Sep 13 04:25:38 2023","600","The main experiment item","True","Flanker Task Lab 2.2.osexp","C:\Users\kikip\OneDrive\Desktop","False","mono","False","18","no","white","no","yes","768","legacy","13","79","C:/Users/kikip/OneDrive/Desktop/HB-subject-4.csv","legacy","Melodramatic Milgram","4.0.5","0","s","NA","h","s","#","NA","s","NA","363.0","NA","5862","33948","32850","NA","363","NA","2","legacy","1024","2","48000","-16","experiment","HHSHH","4","even","36733","NA","220976","230904","NA","203415","2781","205593","231981","2784","170564","NA","232082","232447","NA","231979","232082","Neues Experiment","90","47269.0","94","1024"
"95","95","502","502","#3d3846","legacy","legacy","legacy","coongruent","1","undefined","1","h","0","0","94","94","0","0","0","94","94","0","0","0","94","94","NA","94","94","Wed Sep 13 04:25:38 2023","600","The main experiment item","True","Flanker Task Lab 2.2.osexp","C:\Users\kikip\OneDrive\Desktop","False","mono","False","18","no","white","no","yes","768","legacy","14","79","C:/Users/kikip/OneDrive/Desktop/HB-subject-4.csv","legacy","Melodramatic Milgram","4.0.5","0","h","NA","h","s","#","NA","h","NA","430.0","NA","5862","33948","32850","NA","430","NA","2","legacy","1024","2","48000","-16","experiment","HHHHH","4","even","36733","NA","220976","232453","NA","203415","2781","205593","233505","2784","170564","NA","233606","234038","NA","233503","233606","Neues Experiment","91","47699.0","95","1024"
"95","95","501","501","#3d3846","legacy","legacy","legacy","congruent","1","undefined","1","s","0","0","95","95","0","0","0","95","95","0","0","0","95","95","NA","95","95","Wed Sep 13 04:25:38 2023","600","The main experiment item","True","Flanker Task Lab 2.2.osexp","C:\Users\kikip\OneDrive\Desktop","False","mono","False","18","no","white","no","yes","768","legacy","15","79","C:/Users/kikip/OneDrive/Desktop/HB-subject-4.csv","legacy","Melodramatic Milgram","4.0.5","0","s","NA","h","s","#","NA","s","NA","422.0","NA","5862","33948","32850","NA","422","NA","2","legacy","1024","2","48000","-16","experiment","SSSSS","4","even","36733","NA","220976","234044","NA","203415","2781","205593","235082","2784","170564","NA","235183","235607","NA","235081","235183","Neues Experiment","92","48121.0","96","1024"
"95","95","500","500","#3d3846","legacy","legacy","legacy","incongruent","1","undefined","1","h","0","0","96","96","0","0","0","96","96","0","0","0","96","96","NA","96","96","Wed Sep 13 04:25:38 2023","600","The main experiment item","True","Flanker Task Lab 2.2.osexp","C:\Users\kikip\OneDrive\Desktop","False","mono","False","18","no","white","no","yes","768","legacy","16","79","C:/Users/kikip/OneDrive/Desktop/HB-subject-4.csv","legacy","Melodramatic Milgram","4.0.5","0","h","NA","h","s","#","NA","h","NA","403.0","NA","5862","33948","32850","NA","403","NA","2","legacy","1024","2","48000","-16","experiment","SSHSS","4","even","36733","NA","220976","235613","NA","203415","2781","205593","236670","2784","170564","NA","236772","237178","NA","236668","236771","Neues Experiment","93","48524.0","97","1024"
"95","95","499","499","#3d3846","legacy","legacy","legacy","incongruent","1","undefined","1","h","0","0","97","97","0","0","0","97","97","0","0","0","97","97","NA","97","97","Wed Sep 13 04:25:38 2023","600","The main experiment item","True","Flanker Task Lab 2.2.osexp","C:\Users\kikip\OneDrive\Desktop","False","mono","False","18","no","white","no","yes","768","legacy","17","79","C:/Users/kikip/OneDrive/Desktop/HB-subject-4.csv","legacy","Melodramatic Milgram","4.0.5","0","h","NA","h","s","#","NA","h","NA","444.0","NA","5862","33948","32850","NA","444","NA","2","legacy","1024","2","48000","-16","experiment","SSHSS","4","even","36733","NA","220976","237183","NA","203415","2781","205593","238231","2784","170564","NA","238332","238778","NA","238229","238332","Neues Experiment","94","48968.0","98","1024"
"95","95","499","499","#3d3846","legacy","legacy","legacy","incongruent","1","undefined","1","s","0","0","98","98","0","0","0","98","98","0","0","0","98","98","NA","98","98","Wed Sep 13 04:25:38 2023","600","The main experiment item","True","Flanker Task Lab 2.2.osexp","C:\Users\kikip\OneDrive\Desktop","False","mono","False","18","no","white","no","yes","768","legacy","18","79","C:/Users/kikip/OneDrive/Desktop/HB-subject-4.csv","legacy","Melodramatic Milgram","4.0.5","0","s","NA","h","s","#","NA","s","NA","524.0","NA","5862","33948","32850","NA","524","NA","2","legacy","1024","2","48000","-16","experiment","HHSHH","4","even","36733","NA","220976","238782","NA","203415","2781","205593","239821","2784","170564","NA","239922","240448","NA","239820","239922","Neues Experiment","95","49492.0","99","1024"
"96","96","498","498","#3d3846","legacy","legacy","legacy","incongruent","1","undefined","1","s","0","0","99","99","0","0","0","99","99","0","0","0","99","99","NA","99","99","Wed Sep 13 04:25:38 2023","600","The main experiment item","True","Flanker Task Lab 2.2.osexp","C:\Users\kikip\OneDrive\Desktop","False","mono","False","18","no","white","no","yes","768","legacy","19","79","C:/Users/kikip/OneDrive/Desktop/HB-subject-4.csv","legacy","Melodramatic Milgram","4.0.5","0","s","NA","h","s","#","NA","s","NA","377.0","NA","5862","33948","32850","NA","377","NA","2","legacy","1024","2","48000","-16","experiment","HHSHH","4","even","36733","NA","220976","240454","NA","203415","2781","205593","241509","2784","170564","NA","241610","242004","NA","241507","241610","Neues Experiment","96","49869.0","100","1024"
"96","96","498","498","#3d3846","legacy","legacy","legacy","incongruent","1","undefined","1","h","0","0","100","100","0","0","0","100","100","0","0","0","100","100","NA","100","100","Wed Sep 13 04:25:38 2023","600","The main experiment item","True","Flanker Task Lab 2.2.osexp","C:\Users\kikip\OneDrive\Desktop","False","mono","False","18","no","white","no","yes","768","legacy","20","79","C:/Users/kikip/OneDrive/Desktop/HB-subject-4.csv","legacy","Melodramatic Milgram","4.0.5","0","h","NA","h","s","#","NA","h","NA","503.0","NA","5862","33948","32850","NA","503","NA","2","legacy","1024","2","48000","-16","experiment","SSHSS","4","even","36733","NA","220976","242007","NA","203415","2781","205593","243052","2784","170564","NA","243153","243658","NA","243047","243153","Neues Experiment","97","50372.0","101","1024"
"96","96","497","497","#3d3846","legacy","legacy","legacy","incongruent","1","undefined","1","h","0","0","101","101","0","0","0","101","101","0","0","0","101","101","NA","101","101","Wed Sep 13 04:25:38 2023","600","The main experiment item","True","Flanker Task Lab 2.2.osexp","C:\Users\kikip\OneDrive\Desktop","False","mono","False","18","no","white","no","yes","768","legacy","21","79","C:/Users/kikip/OneDrive/Desktop/HB-subject-4.csv","legacy","Melodramatic Milgram","4.0.5","0","h","NA","h","s","#","NA","h","NA","421.0","NA","5862","33948","32850","NA","421","NA","2","legacy","1024","2","48000","-16","experiment","SSHSS","4","even","36733","NA","220976","243661","NA","203415","2781","205593","244725","2784","170564","NA","244826","245249","NA","244724","244826","Neues Experiment","98","50793.0","102","1024"
"96","96","497","497","#3d3846","legacy","legacy","legacy","incongruent","1","undefined","1","s","0","0","102","102","0","0","0","102","102","0","0","0","102","102","NA","102","102","Wed Sep 13 04:25:38 2023","600","The main experiment item","True","Flanker Task Lab 2.2.osexp","C:\Users\kikip\OneDrive\Desktop","False","mono","False","18","no","white","no","yes","768","legacy","22","79","C:/Users/kikip/OneDrive/Desktop/HB-subject-4.csv","legacy","Melodramatic Milgram","4.0.5","0","s","NA","h","s","#","NA","s","NA","470.0","NA","5862","33948","32850","NA","470","NA","2","legacy","1024","2","48000","-16","experiment","HHSHH","4","even","36733","NA","220976","245252","NA","203415","2781","205593","246316","2784","170564","NA","246417","246889","NA","246314","246417","Neues Experiment","99","51263.0","103","1024"
"96","96","499","499","#3d3846","legacy","legacy","legacy","congruent","1","undefined","1","s","0","0","103","103","0","0","0","103","103","0","0","0","103","103","NA","103","103","Wed Sep 13 04:25:38 2023","600","The main experiment item","True","Flanker Task Lab 2.2.osexp","C:\Users\kikip\OneDrive\Desktop","False","mono","False","18","no","white","no","yes","768","legacy","23","79","C:/Users/kikip/OneDrive/Desktop/HB-subject-4.csv","legacy","Melodramatic Milgram","4.0.5","0","s","NA","h","s","#","NA","s","NA","666.0","NA","5862","33948","32850","NA","666","NA","2","legacy","1024","2","48000","-16","experiment","SSSSS","4","even","36733","NA","220976","246892","NA","203415","2781","205593","247940","2784","170564","NA","248041","248709","NA","247938","248041","Neues Experiment","100","51929.0","104","1024"
"96","96","498","498","#3d3846","legacy","legacy","legacy","incongruent","1","undefined","1","h","0","0","104","104","0","0","0","104","104","0","0","0","104","104","NA","104","104","Wed Sep 13 04:25:38 2023","600","The main experiment item","True","Flanker Task Lab 2.2.osexp","C:\Users\kikip\OneDrive\Desktop","False","mono","False","18","no","white","no","yes","768","legacy","24","79","C:/Users/kikip/OneDrive/Desktop/HB-subject-4.csv","legacy","Melodramatic Milgram","4.0.5","0","h","NA","h","s","#","NA","h","NA","386.0","NA","3750","33948","32850","NA","386","NA","2","legacy","1024","2","48000","-16","experiment","SSHSS","4","even","36733","NA","220976","252464","NA","203415","2781","248712","253530","2784","170564","NA","253631","254018","NA","253528","253631","Neues Experiment","101","52315.0","105","1024"
"96","96","497","497","#3d3846","legacy","legacy","legacy","incongruent","1","undefined","1","s","0","0","105","105","0","0","0","105","105","0","0","0","105","105","NA","105","105","Wed Sep 13 04:25:38 2023","600","The main experiment item","True","Flanker Task Lab 2.2.osexp","C:\Users\kikip\OneDrive\Desktop","False","mono","False","18","no","white","no","yes","768","legacy","25","79","C:/Users/kikip/OneDrive/Desktop/HB-subject-4.csv","legacy","Melodramatic Milgram","4.0.5","0","s","NA","h","s","#","NA","s","NA","458.0","NA","3750","33948","32850","NA","458","NA","2","legacy","1024","2","48000","-16","experiment","HHSHH","4","even","36733","NA","220976","254024","NA","203415","2781","248712","255073","2784","170564","NA","255174","255634","NA","255070","255174","Neues Experiment","102","52773.0","106","1024"
"96","96","497","497","#3d3846","legacy","legacy","legacy","incongruent","1","undefined","1","s","0","0","106","106","0","0","0","106","106","0","0","0","106","106","NA","106","106","Wed Sep 13 04:25:38 2023","600","The main experiment item","True","Flanker Task Lab 2.2.osexp","C:\Users\kikip\OneDrive\Desktop","False","mono","False","18","no","white","no","yes","768","legacy","26","79","C:/Users/kikip/OneDrive/Desktop/HB-subject-4.csv","legacy","Melodramatic Milgram","4.0.5","0","s","NA","h","s","#","NA","s","NA","408.0","NA","3750","33948","32850","NA","408","NA","2","legacy","1024","2","48000","-16","experiment","HHSHH","4","even","36733","NA","220976","255640","NA","203415","2781","248712","256693","2784","170564","NA","256794","257204","NA","256691","256794","Neues Experiment","103","53181.0","107","1024"
"96","96","495","495","#3d3846","legacy","legacy","legacy","congruent","1","undefined","1","s","0","0","107","107","0","0","0","107","107","0","0","0","107","107","NA","107","107","Wed Sep 13 04:25:38 2023","600","The main experiment item","True","Flanker Task Lab 2.2.osexp","C:\Users\kikip\OneDrive\Desktop","False","mono","False","18","no","white","no","yes","768","legacy","27","79","C:/Users/kikip/OneDrive/Desktop/HB-subject-4.csv","legacy","Melodramatic Milgram","4.0.5","0","s","NA","h","s","#","NA","s","NA","367.0","NA","3750","33948","32850","NA","367","NA","2","legacy","1024","2","48000","-16","experiment","SSSSS","4","even","36733","NA","220976","257211","NA","203415","2781","248712","258255","2784","170564","NA","258356","258724","NA","258253","258356","Neues Experiment","104","53548.0","108","1024"
"96","96","494","494","#3d3846","legacy","legacy","legacy","coongruent","1","undefined","1","h","0","0","108","108","0","0","0","108","108","0","0","0","108","108","NA","108","108","Wed Sep 13 04:25:38 2023","600","The main experiment item","True","Flanker Task Lab 2.2.osexp","C:\Users\kikip\OneDrive\Desktop","False","mono","False","18","no","white","no","yes","768","legacy","28","79","C:/Users/kikip/OneDrive/Desktop/HB-subject-4.csv","legacy","Melodramatic Milgram","4.0.5","0","h","NA","h","s","#","NA","h","NA","402.0","NA","3750","33948","32850","NA","402","NA","2","legacy","1024","2","48000","-16","experiment","HHHHH","4","even","36733","NA","220976","258727","NA","203415","2781","248712","259769","2784","170564","NA","259870","260274","NA","259767","259870","Neues Experiment","105","53950.0","109","1024"
"96","96","493","493","#3d3846","legacy","legacy","legacy","congruent","1","undefined","1","s","0","0","109","109","0","0","0","109","109","0","0","0","109","109","NA","109","109","Wed Sep 13 04:25:38 2023","600","The main experiment item","True","Flanker Task Lab 2.2.osexp","C:\Users\kikip\OneDrive\Desktop","False","mono","False","18","no","white","no","yes","768","legacy","29","79","C:/Users/kikip/OneDrive/Desktop/HB-subject-4.csv","legacy","Melodramatic Milgram","4.0.5","0","s","NA","h","s","#","NA","s","NA","379.0","NA","3750","33948","32850","NA","379","NA","2","legacy","1024","2","48000","-16","experiment","SSSSS","4","even","36733","NA","220976","260276","NA","203415","2781","248712","261323","2784","170564","NA","261424","261806","NA","261321","261424","Neues Experiment","106","54329.0","110","1024"
"96","96","492","492","#3d3846","legacy","legacy","legacy","congruent","1","undefined","1","s","0","0","110","110","0","0","0","110","110","0","0","0","110","110","NA","110","110","Wed Sep 13 04:25:38 2023","600","The main experiment item","True","Flanker Task Lab 2.2.osexp","C:\Users\kikip\OneDrive\Desktop","False","mono","False","18","no","white","no","yes","768","legacy","30","79","C:/Users/kikip/OneDrive/Desktop/HB-subject-4.csv","legacy","Melodramatic Milgram","4.0.5","0","s","NA","h","s","#","NA","s","NA","358.0","NA","3750","33948","32850","NA","358","NA","2","legacy","1024","2","48000","-16","experiment","SSSSS","4","even","36733","NA","220976","261809","NA","203415","2781","248712","262869","2784","170564","NA","262970","263329","NA","262867","262970","Neues Experiment","107","54687.0","111","1024"
"96","96","492","492","#3d3846","legacy","legacy","legacy","incongruent","1","undefined","1","s","0","0","111","111","0","0","0","111","111","0","0","0","111","111","NA","111","111","Wed Sep 13 04:25:38 2023","600","The main experiment item","True","Flanker Task Lab 2.2.osexp","C:\Users\kikip\OneDrive\Desktop","False","mono","False","18","no","white","no","yes","768","legacy","31","79","C:/Users/kikip/OneDrive/Desktop/HB-subject-4.csv","legacy","Melodramatic Milgram","4.0.5","0","s","NA","h","s","#","NA","s","NA","429.0","NA","3750","33948","32850","NA","429","NA","2","legacy","1024","2","48000","-16","experiment","HHSHH","4","even","36733","NA","220976","263332","NA","203415","2781","248712","264388","2784","170564","NA","264489","264920","NA","264386","264489","Neues Experiment","108","55116.0","112","1024"
"96","96","490","490","#3d3846","legacy","legacy","legacy","congruent","1","undefined","1","s","0","0","112","112","0","0","0","112","112","0","0","0","112","112","NA","112","112","Wed Sep 13 04:25:38 2023","600","The main experiment item","True","Flanker Task Lab 2.2.osexp","C:\Users\kikip\OneDrive\Desktop","False","mono","False","18","no","white","no","yes","768","legacy","32","79","C:/Users/kikip/OneDrive/Desktop/HB-subject-4.csv","legacy","Melodramatic Milgram","4.0.5","0","s","NA","h","s","#","NA","s","NA","323.0","NA","3750","33948","32850","NA","323","NA","2","legacy","1024","2","48000","-16","experiment","SSSSS","4","even","36733","NA","220976","264923","NA","203415","2781","248712","265959","2784","170564","NA","266061","266386","NA","265958","266061","Neues Experiment","109","55439.0","113","1024"
"96","96","489","489","#3d3846","legacy","legacy","legacy","coongruent","1","undefined","1","h","0","0","113","113","0","0","0","113","113","0","0","0","113","113","NA","113","113","Wed Sep 13 04:25:38 2023","600","The main experiment item","True","Flanker Task Lab 2.2.osexp","C:\Users\kikip\OneDrive\Desktop","False","mono","False","18","no","white","no","yes","768","legacy","33","79","C:/Users/kikip/OneDrive/Desktop/HB-subject-4.csv","legacy","Melodramatic Milgram","4.0.5","0","h","NA","h","s","#","NA","h","NA","378.0","NA","3750","33948","32850","NA","378","NA","2","legacy","1024","2","48000","-16","experiment","HHHHH","4","even","36733","NA","220976","266392","NA","203415","2781","248712","267434","2784","170564","NA","267536","267916","NA","267433","267536","Neues Experiment","110","55817.0","114","1024"
"96","96","488","488","#3d3846","legacy","legacy","legacy","incongruent","1","undefined","1","h","0","0","114","114","0","0","0","114","114","0","0","0","114","114","NA","114","114","Wed Sep 13 04:25:38 2023","600","The main experiment item","True","Flanker Task Lab 2.2.osexp","C:\Users\kikip\OneDrive\Desktop","False","mono","False","18","no","white","no","yes","768","legacy","34","79","C:/Users/kikip/OneDrive/Desktop/HB-subject-4.csv","legacy","Melodramatic Milgram","4.0.5","0","h","NA","h","s","#","NA","h","NA","391.0","NA","3750","33948","32850","NA","391","NA","2","legacy","1024","2","48000","-16","experiment","SSHSS","4","even","36733","NA","220976","267919","NA","203415","2781","248712","268976","2784","170564","NA","269077","269470","NA","268974","269077","Neues Experiment","111","56208.0","115","1024"
"96","96","488","488","#3d3846","legacy","legacy","legacy","incongruent","1","undefined","1","h","0","0","115","115","0","0","0","115","115","0","0","0","115","115","NA","115","115","Wed Sep 13 04:25:38 2023","600","The main experiment item","True","Flanker Task Lab 2.2.osexp","C:\Users\kikip\OneDrive\Desktop","False","mono","False","18","no","white","no","yes","768","legacy","35","79","C:/Users/kikip/OneDrive/Desktop/HB-subject-4.csv","legacy","Melodramatic Milgram","4.0.5","0","h","NA","h","s","#","NA","h","NA","454.0","NA","3750","33948","32850","NA","454","NA","2","legacy","1024","2","48000","-16","experiment","SSHSS","4","even","36733","NA","220976","269474","NA","203415","2781","248712","270522","2784","170564","NA","270624","271080","NA","270520","270623","Neues Experiment","112","56662.0","116","1024"
"96","96","488","488","#3d3846","legacy","legacy","legacy","congruent","1","undefined","1","s","0","0","116","116","0","0","0","116","116","0","0","0","116","116","NA","116","116","Wed Sep 13 04:25:38 2023","600","The main experiment item","True","Flanker Task Lab 2.2.osexp","C:\Users\kikip\OneDrive\Desktop","False","mono","False","18","no","white","no","yes","768","legacy","36","79","C:/Users/kikip/OneDrive/Desktop/HB-subject-4.csv","legacy","Melodramatic Milgram","4.0.5","0","s","NA","h","s","#","NA","s","NA","528.0","NA","3750","33948","32850","NA","528","NA","2","legacy","1024","2","48000","-16","experiment","SSSSS","4","even","36733","NA","220976","271084","NA","203415","2781","248712","272129","2784","170564","NA","272230","272760","NA","272127","272230","Neues Experiment","113","57190.0","117","1024"
"96","96","488","488","#3d3846","legacy","legacy","legacy","incongruent","1","undefined","1","h","0","0","117","117","0","0","0","117","117","0","0","0","117","117","NA","117","117","Wed Sep 13 04:25:38 2023","600","The main experiment item","True","Flanker Task Lab 2.2.osexp","C:\Users\kikip\OneDrive\Desktop","False","mono","False","18","no","white","no","yes","768","legacy","37","79","C:/Users/kikip/OneDrive/Desktop/HB-subject-4.csv","legacy","Melodramatic Milgram","4.0.5","0","h","NA","h","s","#","NA","h","NA","401.0","NA","3750","33948","32850","NA","401","NA","2","legacy","1024","2","48000","-16","experiment","SSHSS","4","even","36733","NA","220976","272763","NA","203415","2781","248712","273813","2784","170564","NA","273914","274317","NA","273811","273914","Neues Experiment","114","57591.0","118","1024"
"96","96","488","488","#3d3846","legacy","legacy","legacy","incongruent","1","undefined","1","s","0","0","118","118","0","0","0","118","118","0","0","0","118","118","NA","118","118","Wed Sep 13 04:25:38 2023","600","The main experiment item","True","Flanker Task Lab 2.2.osexp","C:\Users\kikip\OneDrive\Desktop","False","mono","False","18","no","white","no","yes","768","legacy","38","79","C:/Users/kikip/OneDrive/Desktop/HB-subject-4.csv","legacy","Melodramatic Milgram","4.0.5","0","s","NA","h","s","#","NA","s","NA","540.0","NA","3750","33948","32850","NA","540","NA","2","legacy","1024","2","48000","-16","experiment","HHSHH","4","even","36733","NA","220976","274323","NA","203415","2781","248712","275387","2784","170564","NA","275488","276029","NA","275383","275488","Neues Experiment","115","58131.0","119","1024"
"95","95","488","488","#3d3846","legacy","legacy","legacy","incongruent","0","undefined","0","h","0","0","119","119","0","0","0","119","119","0","0","0","119","119","NA","119","119","Wed Sep 13 04:25:38 2023","600","The main experiment item","True","Flanker Task Lab 2.2.osexp","C:\Users\kikip\OneDrive\Desktop","False","mono","False","18","no","white","no","yes","768","legacy","39","79","C:/Users/kikip/OneDrive/Desktop/HB-subject-4.csv","legacy","Melodramatic Milgram","4.0.5","0","s","NA","h","s","#","NA","s","NA","477.0","NA","3750","33948","32850","NA","477","NA","2","legacy","1024","2","48000","-16","experiment","SSHSS","4","even","36733","NA","220976","276036","NA","203415","2781","248712","277087","2784","170564","NA","277188","277680","NA","277085","277188","Neues Experiment","115","58608.0","120","1024"
"95","95","492","492","#3d3846","legacy","legacy","legacy","incongruent","1","undefined","1","s","0","0","120","120","0","0","0","120","120","0","0","0","120","120","NA","120","120","Wed Sep 13 04:25:38 2023","600","The main experiment item","True","Flanker Task Lab 2.2.osexp","C:\Users\kikip\OneDrive\Desktop","False","mono","False","18","no","white","no","yes","768","legacy","40","79","C:/Users/kikip/OneDrive/Desktop/HB-subject-4.csv","legacy","Melodramatic Milgram","4.0.5","0","s","NA","h","s","#","NA","s","NA","947.0","NA","3750","33948","32850","NA","947","NA","2","legacy","1024","2","48000","-16","experiment","HHSHH","4","even","36733","NA","277691","278192","NA","203415","2781","248712","279237","2784","170564","NA","279338","280286","NA","279235","279338","Neues Experiment","116","59555.0","121","1024"
"95","95","492","492","#3d3846","legacy","legacy","legacy","incongruent","1","undefined","1","s","0","0","121","121","0","0","0","121","121","0","0","0","121","121","NA","121","121","Wed Sep 13 04:25:38 2023","600","The main experiment item","True","Flanker Task Lab 2.2.osexp","C:\Users\kikip\OneDrive\Desktop","False","mono","False","18","no","white","no","yes","768","legacy","41","79","C:/Users/kikip/OneDrive/Desktop/HB-subject-4.csv","legacy","Melodramatic Milgram","4.0.5","0","s","NA","h","s","#","NA","s","NA","581.0","NA","902","33948","32850","NA","581","NA","2","legacy","1024","2","48000","-16","experiment","HHSHH","4","even","36733","NA","277691","281198","NA","203415","2781","280293","282248","2784","170564","NA","282349","282931","NA","282246","282349","Neues Experiment","117","60136.0","122","1024"
