"acc","accuracy","average_response_time","avg_rt","background","canvas_backend","clock_backend","color_backend","compensation","condition","coordinates","correct","correct_Instructions1","correct_keyboard_response","correct_response","count_Block1","count_Block2","count_Block3","count_Closing","count_ISI","count_Instructions1","count_Instructions2","count_Instructions3","count_error_feedback","count_experiment","count_faster","count_fixation","count_keyboard_response","count_logger","count_sequence","count_stimulus","datetime","deadline","description","disable_garbage_collection","experiment_file","experiment_path","font_bold","font_family","font_italic","font_size","font_underline","foreground","form_clicks","fullscreen","height","keyboard_backend","live_row","live_row_Block1","logfile","mouse_backend","opensesame_codename","opensesame_version","repeat_cycle","response","response_Closing","response_Instructions1","response_Instructions2","response_Instructions3","response_keyboard_response","response_time","response_time_Closing","response_time_Instructions1","response_time_Instructions2","response_time_Instructions3","response_time_keyboard_response","round_decimals","sampler_backend","sound_buf_size","sound_channels","sound_freq","sound_sample_size","start","stimulus","subject_nr","subject_parity","time_Block1","time_Block2","time_Block3","time_Closing","time_ISI","time_Instructions1","time_Instructions2","time_Instructions3","time_error_feedback","time_experiment","time_faster","time_fixation","time_keyboard_response","time_logger","time_sequence","time_stimulus","title","total_correct","total_response_time","total_responses","uniform_coordinates","width"
"100","100","711","711","black","legacy","legacy","legacy","0","incongruent","uniform","1","undefined","1","s","0","0","0","0","0","0","0","0","0","0","0","0","0","0","0","0","Sun Sep 19 12:11:53 2021","1500","The main experiment item","yes","FlankerTask.osexp","C:/Users/warne/OneDrive/Documents/Tarleton - MS Applied Psychology/Adv Quantitative Methods and Experimental Design/Labs","no","mono","no","18","no","white","no","yes","768","legacy","0","0","C:/Users/warne/OneDrive/Documents/Tarleton - MS Applied Psychology/Adv Quantitative Methods and Experimental Design/Labs/AV-subject-0.csv","legacy","Lentiform Loewenfeld","3.3.9","0","s","NA","h","NA","NA","s","711","NA","68217","NA","NA","711","2","legacy","1024","2","48000","-16","experiment","HHSHH","0","even","71297","NA","NA","NA","NA","3079","NA","NA","NA","3068","NA","71394","71496","72208","71393","71495","Flanker Task","1","711","1","yes","1024"
"100","100","645","645","black","legacy","legacy","legacy","0","congruent","uniform","1","undefined","1","h","0","0","0","0","1","0","0","0","1","0","1","1","1","1","1","1","Sun Sep 19 12:11:53 2021","1500","The main experiment item","yes","FlankerTask.osexp","C:/Users/warne/OneDrive/Documents/Tarleton - MS Applied Psychology/Adv Quantitative Methods and Experimental Design/Labs","no","mono","no","18","no","white","no","yes","768","legacy","1","1","C:/Users/warne/OneDrive/Documents/Tarleton - MS Applied Psychology/Adv Quantitative Methods and Experimental Design/Labs/AV-subject-0.csv","legacy","Lentiform Loewenfeld","3.3.9","0","h","NA","h","NA","NA","h","579","NA","68217","NA","NA","579","2","legacy","1024","2","48000","-16","experiment","HHHHH","0","even","71297","NA","NA","NA","72218","3079","NA","NA","NA","3068","NA","73282","73383","73963","73280","73383","Flanker Task","2","1290","2","yes","1024"
"100","100","595.6666666666666","595.6666666666666","black","legacy","legacy","legacy","0","congruent","uniform","1","undefined","1","h","0","0","0","0","2","0","0","0","2","0","2","2","2","2","2","2","Sun Sep 19 12:11:53 2021","1500","The main experiment item","yes","FlankerTask.osexp","C:/Users/warne/OneDrive/Documents/Tarleton - MS Applied Psychology/Adv Quantitative Methods and Experimental Design/Labs","no","mono","no","18","no","white","no","yes","768","legacy","2","2","C:/Users/warne/OneDrive/Documents/Tarleton - MS Applied Psychology/Adv Quantitative Methods and Experimental Design/Labs/AV-subject-0.csv","legacy","Lentiform Loewenfeld","3.3.9","0","h","NA","h","NA","NA","h","497","NA","68217","NA","NA","497","2","legacy","1024","2","48000","-16","experiment","HHHHH","0","even","71297","NA","NA","NA","73967","3079","NA","NA","NA","3068","NA","75030","75131","75628","75028","75131","Flanker Task","3","1787","3","yes","1024"
"100","100","588","588","black","legacy","legacy","legacy","0","incongruent","uniform","1","undefined","1","h","0","0","0","0","3","0","0","0","3","0","3","3","3","3","3","3","Sun Sep 19 12:11:53 2021","1500","The main experiment item","yes","FlankerTask.osexp","C:/Users/warne/OneDrive/Documents/Tarleton - MS Applied Psychology/Adv Quantitative Methods and Experimental Design/Labs","no","mono","no","18","no","white","no","yes","768","legacy","3","3","C:/Users/warne/OneDrive/Documents/Tarleton - MS Applied Psychology/Adv Quantitative Methods and Experimental Design/Labs/AV-subject-0.csv","legacy","Lentiform Loewenfeld","3.3.9","0","h","NA","h","NA","NA","h","565","NA","68217","NA","NA","565","2","legacy","1024","2","48000","-16","experiment","SSHSS","0","even","71297","NA","NA","NA","75633","3079","NA","NA","NA","3068","NA","76702","76803","77368","76699","76803","Flanker Task","4","2352","4","yes","1024"
"100","100","563.4","563.4","black","legacy","legacy","legacy","0","incongruent","uniform","1","undefined","1","s","0","0","0","0","4","0","0","0","4","0","4","4","4","4","4","4","Sun Sep 19 12:11:53 2021","1500","The main experiment item","yes","FlankerTask.osexp","C:/Users/warne/OneDrive/Documents/Tarleton - MS Applied Psychology/Adv Quantitative Methods and Experimental Design/Labs","no","mono","no","18","no","white","no","yes","768","legacy","4","4","C:/Users/warne/OneDrive/Documents/Tarleton - MS Applied Psychology/Adv Quantitative Methods and Experimental Design/Labs/AV-subject-0.csv","legacy","Lentiform Loewenfeld","3.3.9","0","s","NA","h","NA","NA","s","465","NA","68217","NA","NA","465","2","legacy","1024","2","48000","-16","experiment","HHSHH","0","even","71297","NA","NA","NA","77374","3079","NA","NA","NA","3068","NA","78437","78538","79004","78435","78538","Flanker Task","5","2817","5","yes","1024"
"100","100","562.1666666666666","562.1666666666666","black","legacy","legacy","legacy","0","incongruent","uniform","1","undefined","1","h","0","0","0","0","5","0","0","0","5","0","5","5","5","5","5","5","Sun Sep 19 12:11:53 2021","1500","The main experiment item","yes","FlankerTask.osexp","C:/Users/warne/OneDrive/Documents/Tarleton - MS Applied Psychology/Adv Quantitative Methods and Experimental Design/Labs","no","mono","no","18","no","white","no","yes","768","legacy","5","5","C:/Users/warne/OneDrive/Documents/Tarleton - MS Applied Psychology/Adv Quantitative Methods and Experimental Design/Labs/AV-subject-0.csv","legacy","Lentiform Loewenfeld","3.3.9","0","h","NA","h","NA","NA","h","556","NA","68217","NA","NA","556","2","legacy","1024","2","48000","-16","experiment","SSHSS","0","even","71297","NA","NA","NA","79007","3079","NA","NA","NA","3068","NA","80072","80173","80729","80071","80173","Flanker Task","6","3373","6","yes","1024"
"100","100","548.2857142857143","548.2857142857143","black","legacy","legacy","legacy","0","congruent","uniform","1","undefined","1","s","0","0","0","0","6","0","0","0","6","0","6","6","6","6","6","6","Sun Sep 19 12:11:53 2021","1500","The main experiment item","yes","FlankerTask.osexp","C:/Users/warne/OneDrive/Documents/Tarleton - MS Applied Psychology/Adv Quantitative Methods and Experimental Design/Labs","no","mono","no","18","no","white","no","yes","768","legacy","6","6","C:/Users/warne/OneDrive/Documents/Tarleton - MS Applied Psychology/Adv Quantitative Methods and Experimental Design/Labs/AV-subject-0.csv","legacy","Lentiform Loewenfeld","3.3.9","0","s","NA","h","NA","NA","s","465","NA","68217","NA","NA","465","2","legacy","1024","2","48000","-16","experiment","SSSSS","0","even","71297","NA","NA","NA","80734","3079","NA","NA","NA","3068","NA","81797","81898","82364","81794","81898","Flanker Task","7","3838","7","yes","1024"
"100","100","550.75","550.75","black","legacy","legacy","legacy","0","congruent","uniform","1","undefined","1","s","0","0","0","0","7","0","0","0","7","0","7","7","7","7","7","7","Sun Sep 19 12:11:53 2021","1500","The main experiment item","yes","FlankerTask.osexp","C:/Users/warne/OneDrive/Documents/Tarleton - MS Applied Psychology/Adv Quantitative Methods and Experimental Design/Labs","no","mono","no","18","no","white","no","yes","768","legacy","7","7","C:/Users/warne/OneDrive/Documents/Tarleton - MS Applied Psychology/Adv Quantitative Methods and Experimental Design/Labs/AV-subject-0.csv","legacy","Lentiform Loewenfeld","3.3.9","0","s","NA","h","NA","NA","s","568","NA","68217","NA","NA","568","2","legacy","1024","2","48000","-16","experiment","SSSSS","0","even","71297","NA","NA","NA","82370","3079","NA","NA","NA","3068","NA","83435","83536","84104","83433","83536","Flanker Task","8","4406","8","yes","1024"
"100","100","541.4444444444445","541.4444444444445","black","legacy","legacy","legacy","0","congruent","uniform","1","undefined","1","s","0","0","0","0","8","0","0","0","8","0","8","8","8","8","8","8","Sun Sep 19 12:11:53 2021","1500","The main experiment item","yes","FlankerTask.osexp","C:/Users/warne/OneDrive/Documents/Tarleton - MS Applied Psychology/Adv Quantitative Methods and Experimental Design/Labs","no","mono","no","18","no","white","no","yes","768","legacy","8","8","C:/Users/warne/OneDrive/Documents/Tarleton - MS Applied Psychology/Adv Quantitative Methods and Experimental Design/Labs/AV-subject-0.csv","legacy","Lentiform Loewenfeld","3.3.9","0","s","NA","h","NA","NA","s","467","NA","68217","NA","NA","467","2","legacy","1024","2","48000","-16","experiment","SSSSS","0","even","71297","NA","NA","NA","84108","3079","NA","NA","NA","3068","NA","85171","85272","85740","85169","85272","Flanker Task","9","4873","9","yes","1024"
"100","100","529.3","529.3","black","legacy","legacy","legacy","0","incongruent","uniform","1","undefined","1","s","0","0","0","0","9","0","0","0","9","0","9","9","9","9","9","9","Sun Sep 19 12:11:53 2021","1500","The main experiment item","yes","FlankerTask.osexp","C:/Users/warne/OneDrive/Documents/Tarleton - MS Applied Psychology/Adv Quantitative Methods and Experimental Design/Labs","no","mono","no","18","no","white","no","yes","768","legacy","9","9","C:/Users/warne/OneDrive/Documents/Tarleton - MS Applied Psychology/Adv Quantitative Methods and Experimental Design/Labs/AV-subject-0.csv","legacy","Lentiform Loewenfeld","3.3.9","0","s","NA","h","NA","NA","s","420","NA","68217","NA","NA","420","2","legacy","1024","2","48000","-16","experiment","HHSHH","0","even","71297","NA","NA","NA","85745","3079","NA","NA","NA","3068","NA","86809","86910","87330","86806","86910","Flanker Task","10","5293","10","yes","1024"
"100","100","522.1818181818181","522.1818181818181","black","legacy","legacy","legacy","0","congruent","uniform","1","undefined","1","s","0","0","0","0","10","0","0","0","10","0","10","10","10","10","10","10","Sun Sep 19 12:11:53 2021","1500","The main experiment item","yes","FlankerTask.osexp","C:/Users/warne/OneDrive/Documents/Tarleton - MS Applied Psychology/Adv Quantitative Methods and Experimental Design/Labs","no","mono","no","18","no","white","no","yes","768","legacy","10","10","C:/Users/warne/OneDrive/Documents/Tarleton - MS Applied Psychology/Adv Quantitative Methods and Experimental Design/Labs/AV-subject-0.csv","legacy","Lentiform Loewenfeld","3.3.9","0","s","NA","h","NA","NA","s","451","NA","68217","NA","NA","451","2","legacy","1024","2","48000","-16","experiment","SSSSS","0","even","71297","NA","NA","NA","87335","3079","NA","NA","NA","3068","NA","88398","88499","88950","88396","88499","Flanker Task","11","5744","11","yes","1024"
"100","100","516.1666666666666","516.1666666666666","black","legacy","legacy","legacy","0","congruent","uniform","1","undefined","1","h","0","0","0","0","11","0","0","0","11","0","11","11","11","11","11","11","Sun Sep 19 12:11:53 2021","1500","The main experiment item","yes","FlankerTask.osexp","C:/Users/warne/OneDrive/Documents/Tarleton - MS Applied Psychology/Adv Quantitative Methods and Experimental Design/Labs","no","mono","no","18","no","white","no","yes","768","legacy","11","11","C:/Users/warne/OneDrive/Documents/Tarleton - MS Applied Psychology/Adv Quantitative Methods and Experimental Design/Labs/AV-subject-0.csv","legacy","Lentiform Loewenfeld","3.3.9","0","h","NA","h","NA","NA","h","450","NA","68217","NA","NA","450","2","legacy","1024","2","48000","-16","experiment","HHHHH","0","even","71297","NA","NA","NA","88953","3079","NA","NA","NA","3068","NA","90019","90120","90570","90017","90120","Flanker Task","12","6194","12","yes","1024"
"100","100","511.15384615384613","511.15384615384613","black","legacy","legacy","legacy","0","congruent","uniform","1","undefined","1","h","0","0","0","0","12","0","0","0","12","0","12","12","12","12","12","12","Sun Sep 19 12:11:53 2021","1500","The main experiment item","yes","FlankerTask.osexp","C:/Users/warne/OneDrive/Documents/Tarleton - MS Applied Psychology/Adv Quantitative Methods and Experimental Design/Labs","no","mono","no","18","no","white","no","yes","768","legacy","12","12","C:/Users/warne/OneDrive/Documents/Tarleton - MS Applied Psychology/Adv Quantitative Methods and Experimental Design/Labs/AV-subject-0.csv","legacy","Lentiform Loewenfeld","3.3.9","0","h","NA","h","NA","NA","h","451","NA","68217","NA","NA","451","2","legacy","1024","2","48000","-16","experiment","HHHHH","0","even","71297","NA","NA","NA","90575","3079","NA","NA","NA","3068","NA","91638","91739","92191","91636","91739","Flanker Task","13","6645","13","yes","1024"
"100","100","503.64285714285717","503.64285714285717","black","legacy","legacy","legacy","0","congruent","uniform","1","undefined","1","s","0","0","0","0","13","0","0","0","13","0","13","13","13","13","13","13","Sun Sep 19 12:11:53 2021","1500","The main experiment item","yes","FlankerTask.osexp","C:/Users/warne/OneDrive/Documents/Tarleton - MS Applied Psychology/Adv Quantitative Methods and Experimental Design/Labs","no","mono","no","18","no","white","no","yes","768","legacy","13","13","C:/Users/warne/OneDrive/Documents/Tarleton - MS Applied Psychology/Adv Quantitative Methods and Experimental Design/Labs/AV-subject-0.csv","legacy","Lentiform Loewenfeld","3.3.9","0","s","NA","h","NA","NA","s","406","NA","68217","NA","NA","406","2","legacy","1024","2","48000","-16","experiment","SSSSS","0","even","71297","NA","NA","NA","92196","3079","NA","NA","NA","3068","NA","93259","93360","93766","93257","93360","Flanker Task","14","7051","14","yes","1024"
"100","100","498.8666666666667","498.8666666666667","black","legacy","legacy","legacy","0","congruent","uniform","1","undefined","1","h","0","0","0","0","14","0","0","0","14","0","14","14","14","14","14","14","Sun Sep 19 12:11:53 2021","1500","The main experiment item","yes","FlankerTask.osexp","C:/Users/warne/OneDrive/Documents/Tarleton - MS Applied Psychology/Adv Quantitative Methods and Experimental Design/Labs","no","mono","no","18","no","white","no","yes","768","legacy","14","14","C:/Users/warne/OneDrive/Documents/Tarleton - MS Applied Psychology/Adv Quantitative Methods and Experimental Design/Labs/AV-subject-0.csv","legacy","Lentiform Loewenfeld","3.3.9","0","h","NA","h","NA","NA","h","432","NA","68217","NA","NA","432","2","legacy","1024","2","48000","-16","experiment","HHHHH","0","even","71297","NA","NA","NA","93771","3079","NA","NA","NA","3068","NA","94837","94939","95371","94835","94939","Flanker Task","15","7483","15","yes","1024"
"100","100","493.8125","493.8125","black","legacy","legacy","legacy","0","incongruent","uniform","1","undefined","1","s","0","0","0","0","15","0","0","0","15","0","15","15","15","15","15","15","Sun Sep 19 12:11:53 2021","1500","The main experiment item","yes","FlankerTask.osexp","C:/Users/warne/OneDrive/Documents/Tarleton - MS Applied Psychology/Adv Quantitative Methods and Experimental Design/Labs","no","mono","no","18","no","white","no","yes","768","legacy","15","15","C:/Users/warne/OneDrive/Documents/Tarleton - MS Applied Psychology/Adv Quantitative Methods and Experimental Design/Labs/AV-subject-0.csv","legacy","Lentiform Loewenfeld","3.3.9","0","s","NA","h","NA","NA","s","418","NA","68217","NA","NA","418","2","legacy","1024","2","48000","-16","experiment","HHSHH","0","even","71297","NA","NA","NA","95379","3079","NA","NA","NA","3068","NA","96442","96543","96962","96440","96543","Flanker Task","16","7901","16","yes","1024"
"100","100","496.29411764705884","496.29411764705884","black","legacy","legacy","legacy","0","incongruent","uniform","1","undefined","1","s","0","0","0","0","16","0","0","0","16","0","16","16","16","16","16","16","Sun Sep 19 12:11:53 2021","1500","The main experiment item","yes","FlankerTask.osexp","C:/Users/warne/OneDrive/Documents/Tarleton - MS Applied Psychology/Adv Quantitative Methods and Experimental Design/Labs","no","mono","no","18","no","white","no","yes","768","legacy","16","16","C:/Users/warne/OneDrive/Documents/Tarleton - MS Applied Psychology/Adv Quantitative Methods and Experimental Design/Labs/AV-subject-0.csv","legacy","Lentiform Loewenfeld","3.3.9","0","s","NA","h","NA","NA","s","536","NA","68217","NA","NA","536","2","legacy","1024","2","48000","-16","experiment","HHSHH","0","even","71297","NA","NA","NA","96967","3079","NA","NA","NA","3068","NA","98034","98135","98671","98032","98135","Flanker Task","17","8437","17","yes","1024"
"100","100","493.6111111111111","493.6111111111111","black","legacy","legacy","legacy","0","congruent","uniform","1","undefined","1","s","0","0","0","0","17","0","0","0","17","0","17","17","17","17","17","17","Sun Sep 19 12:11:53 2021","1500","The main experiment item","yes","FlankerTask.osexp","C:/Users/warne/OneDrive/Documents/Tarleton - MS Applied Psychology/Adv Quantitative Methods and Experimental Design/Labs","no","mono","no","18","no","white","no","yes","768","legacy","17","17","C:/Users/warne/OneDrive/Documents/Tarleton - MS Applied Psychology/Adv Quantitative Methods and Experimental Design/Labs/AV-subject-0.csv","legacy","Lentiform Loewenfeld","3.3.9","0","s","NA","h","NA","NA","s","448","NA","68217","NA","NA","448","2","legacy","1024","2","48000","-16","experiment","SSSSS","0","even","71297","NA","NA","NA","98676","3079","NA","NA","NA","3068","NA","99742","99843","100292","99740","99843","Flanker Task","18","8885","18","yes","1024"
"100","100","495.10526315789474","495.10526315789474","black","legacy","legacy","legacy","0","incongruent","uniform","1","undefined","1","h","0","0","0","0","18","0","0","0","18","0","18","18","18","18","18","18","Sun Sep 19 12:11:53 2021","1500","The main experiment item","yes","FlankerTask.osexp","C:/Users/warne/OneDrive/Documents/Tarleton - MS Applied Psychology/Adv Quantitative Methods and Experimental Design/Labs","no","mono","no","18","no","white","no","yes","768","legacy","18","18","C:/Users/warne/OneDrive/Documents/Tarleton - MS Applied Psychology/Adv Quantitative Methods and Experimental Design/Labs/AV-subject-0.csv","legacy","Lentiform Loewenfeld","3.3.9","0","h","NA","h","NA","NA","h","522","NA","68217","NA","NA","522","2","legacy","1024","2","48000","-16","experiment","SSHSS","0","even","71297","NA","NA","NA","100297","3079","NA","NA","NA","3068","NA","101364","101465","101987","101362","101465","Flanker Task","19","9407","19","yes","1024"
"95","95","491.85","491.85","black","legacy","legacy","legacy","0","incongruent","uniform","0","undefined","0","h","0","0","0","0","19","0","0","0","19","0","19","19","19","19","19","19","Sun Sep 19 12:11:53 2021","1500","The main experiment item","yes","FlankerTask.osexp","C:/Users/warne/OneDrive/Documents/Tarleton - MS Applied Psychology/Adv Quantitative Methods and Experimental Design/Labs","no","mono","no","18","no","white","no","yes","768","legacy","19","19","C:/Users/warne/OneDrive/Documents/Tarleton - MS Applied Psychology/Adv Quantitative Methods and Experimental Design/Labs/AV-subject-0.csv","legacy","Lentiform Loewenfeld","3.3.9","0","s","NA","h","NA","NA","s","430","NA","68217","NA","NA","430","2","legacy","1024","2","48000","-16","experiment","SSHSS","0","even","71297","NA","NA","NA","101992","3079","NA","NA","NA","3068","NA","103076","103177","103608","103074","103177","Flanker Task","19","9837","20","yes","1024"
"95.23809523809524","95.23809523809524","501.0952380952381","501.0952380952381","black","legacy","legacy","legacy","0","congruent","uniform","1","undefined","1","h","0","0","0","0","20","0","0","0","20","0","20","20","20","20","20","20","Sun Sep 19 12:11:53 2021","1500","The main experiment item","yes","FlankerTask.osexp","C:/Users/warne/OneDrive/Documents/Tarleton - MS Applied Psychology/Adv Quantitative Methods and Experimental Design/Labs","no","mono","no","18","no","white","no","yes","768","legacy","20","20","C:/Users/warne/OneDrive/Documents/Tarleton - MS Applied Psychology/Adv Quantitative Methods and Experimental Design/Labs/AV-subject-0.csv","legacy","Lentiform Loewenfeld","3.3.9","0","h","NA","h","NA","NA","h","686","NA","68217","NA","NA","686","2","legacy","1024","2","48000","-16","experiment","HHHHH","0","even","71297","NA","NA","NA","104114","3079","NA","NA","103613","3068","NA","105177","105278","105965","105175","105278","Flanker Task","20","10523","21","yes","1024"
"95.45454545454545","95.45454545454545","500","500","black","legacy","legacy","legacy","0","congruent","uniform","1","undefined","1","h","0","0","0","0","21","0","0","0","21","0","21","21","21","21","21","21","Sun Sep 19 12:11:53 2021","1500","The main experiment item","yes","FlankerTask.osexp","C:/Users/warne/OneDrive/Documents/Tarleton - MS Applied Psychology/Adv Quantitative Methods and Experimental Design/Labs","no","mono","no","18","no","white","no","yes","768","legacy","21","21","C:/Users/warne/OneDrive/Documents/Tarleton - MS Applied Psychology/Adv Quantitative Methods and Experimental Design/Labs/AV-subject-0.csv","legacy","Lentiform Loewenfeld","3.3.9","0","h","NA","h","NA","NA","h","477","NA","68217","NA","NA","477","2","legacy","1024","2","48000","-16","experiment","HHHHH","0","even","71297","NA","NA","NA","105970","3079","NA","NA","103613","3068","NA","107034","107135","107612","107032","107135","Flanker Task","21","11000","22","yes","1024"
"95.65217391304348","95.65217391304348","499.30434782608694","499.30434782608694","black","legacy","legacy","legacy","0","congruent","uniform","1","undefined","1","s","0","0","0","0","22","0","0","0","22","0","22","22","22","22","22","22","Sun Sep 19 12:11:53 2021","1500","The main experiment item","yes","FlankerTask.osexp","C:/Users/warne/OneDrive/Documents/Tarleton - MS Applied Psychology/Adv Quantitative Methods and Experimental Design/Labs","no","mono","no","18","no","white","no","yes","768","legacy","22","22","C:/Users/warne/OneDrive/Documents/Tarleton - MS Applied Psychology/Adv Quantitative Methods and Experimental Design/Labs/AV-subject-0.csv","legacy","Lentiform Loewenfeld","3.3.9","0","s","NA","h","NA","NA","s","484","NA","68217","NA","NA","484","2","legacy","1024","2","48000","-16","experiment","SSSSS","0","even","71297","NA","NA","NA","107617","3079","NA","NA","103613","3068","NA","108678","108779","109263","108676","108779","Flanker Task","22","11484","23","yes","1024"
"95.83333333333333","95.83333333333333","504.7916666666667","504.7916666666667","black","legacy","legacy","legacy","0","incongruent","uniform","1","undefined","1","h","0","0","0","0","23","0","0","0","23","0","23","23","23","23","23","23","Sun Sep 19 12:11:53 2021","1500","The main experiment item","yes","FlankerTask.osexp","C:/Users/warne/OneDrive/Documents/Tarleton - MS Applied Psychology/Adv Quantitative Methods and Experimental Design/Labs","no","mono","no","18","no","white","no","yes","768","legacy","23","23","C:/Users/warne/OneDrive/Documents/Tarleton - MS Applied Psychology/Adv Quantitative Methods and Experimental Design/Labs/AV-subject-0.csv","legacy","Lentiform Loewenfeld","3.3.9","0","h","NA","h","NA","NA","h","631","NA","68217","NA","NA","631","2","legacy","1024","2","48000","-16","experiment","SSHSS","0","even","71297","NA","NA","NA","109268","3079","NA","NA","103613","3068","NA","110331","110432","111063","110329","110432","Flanker Task","23","12115","24","yes","1024"
"96","96","502.04","502.04","black","legacy","legacy","legacy","0","incongruent","uniform","1","undefined","1","s","0","0","0","0","24","0","0","0","24","0","24","24","24","24","24","24","Sun Sep 19 12:11:53 2021","1500","The main experiment item","yes","FlankerTask.osexp","C:/Users/warne/OneDrive/Documents/Tarleton - MS Applied Psychology/Adv Quantitative Methods and Experimental Design/Labs","no","mono","no","18","no","white","no","yes","768","legacy","24","24","C:/Users/warne/OneDrive/Documents/Tarleton - MS Applied Psychology/Adv Quantitative Methods and Experimental Design/Labs/AV-subject-0.csv","legacy","Lentiform Loewenfeld","3.3.9","0","s","NA","h","NA","NA","s","436","NA","68217","NA","NA","436","2","legacy","1024","2","48000","-16","experiment","HHSHH","0","even","71297","NA","NA","NA","111068","3079","NA","NA","103613","3068","NA","112131","112232","112669","112129","112232","Flanker Task","24","12551","25","yes","1024"
"96.15384615384616","96.15384615384616","498.46153846153845","498.46153846153845","black","legacy","legacy","legacy","0","congruent","uniform","1","undefined","1","s","0","0","0","0","25","0","0","0","25","0","25","25","25","25","25","25","Sun Sep 19 12:11:53 2021","1500","The main experiment item","yes","FlankerTask.osexp","C:/Users/warne/OneDrive/Documents/Tarleton - MS Applied Psychology/Adv Quantitative Methods and Experimental Design/Labs","no","mono","no","18","no","white","no","yes","768","legacy","25","25","C:/Users/warne/OneDrive/Documents/Tarleton - MS Applied Psychology/Adv Quantitative Methods and Experimental Design/Labs/AV-subject-0.csv","legacy","Lentiform Loewenfeld","3.3.9","0","s","NA","h","NA","NA","s","409","NA","68217","NA","NA","409","2","legacy","1024","2","48000","-16","experiment","SSSSS","0","even","71297","NA","NA","NA","112673","3079","NA","NA","103613","3068","NA","113733","113834","114243","113731","113834","Flanker Task","25","12960","26","yes","1024"
"96.29629629629629","96.29629629629629","500.74074074074076","500.74074074074076","black","legacy","legacy","legacy","0","incongruent","uniform","1","undefined","1","h","0","0","0","0","26","0","0","0","26","0","26","26","26","26","26","26","Sun Sep 19 12:11:53 2021","1500","The main experiment item","yes","FlankerTask.osexp","C:/Users/warne/OneDrive/Documents/Tarleton - MS Applied Psychology/Adv Quantitative Methods and Experimental Design/Labs","no","mono","no","18","no","white","no","yes","768","legacy","26","26","C:/Users/warne/OneDrive/Documents/Tarleton - MS Applied Psychology/Adv Quantitative Methods and Experimental Design/Labs/AV-subject-0.csv","legacy","Lentiform Loewenfeld","3.3.9","0","h","NA","h","NA","NA","h","560","NA","68217","NA","NA","560","2","legacy","1024","2","48000","-16","experiment","SSHSS","0","even","71297","NA","NA","NA","114248","3079","NA","NA","103613","3068","NA","115308","115409","115969","115306","115409","Flanker Task","26","13520","27","yes","1024"
"96.42857142857143","96.42857142857143","507.10714285714283","507.10714285714283","black","legacy","legacy","legacy","0","congruent","uniform","1","undefined","1","s","0","0","0","0","27","0","0","0","27","0","27","27","27","27","27","27","Sun Sep 19 12:11:53 2021","1500","The main experiment item","yes","FlankerTask.osexp","C:/Users/warne/OneDrive/Documents/Tarleton - MS Applied Psychology/Adv Quantitative Methods and Experimental Design/Labs","no","mono","no","18","no","white","no","yes","768","legacy","27","27","C:/Users/warne/OneDrive/Documents/Tarleton - MS Applied Psychology/Adv Quantitative Methods and Experimental Design/Labs/AV-subject-0.csv","legacy","Lentiform Loewenfeld","3.3.9","0","s","NA","h","NA","NA","s","679","NA","68217","NA","NA","679","2","legacy","1024","2","48000","-16","experiment","SSSSS","0","even","71297","NA","NA","NA","115974","3079","NA","NA","103613","3068","NA","117034","117135","117814","117033","117135","Flanker Task","27","14199","28","yes","1024"
"96.55172413793103","96.55172413793103","513.551724137931","513.551724137931","black","legacy","legacy","legacy","0","incongruent","uniform","1","undefined","1","h","0","0","0","0","28","0","0","0","28","0","28","28","28","28","28","28","Sun Sep 19 12:11:53 2021","1500","The main experiment item","yes","FlankerTask.osexp","C:/Users/warne/OneDrive/Documents/Tarleton - MS Applied Psychology/Adv Quantitative Methods and Experimental Design/Labs","no","mono","no","18","no","white","no","yes","768","legacy","28","28","C:/Users/warne/OneDrive/Documents/Tarleton - MS Applied Psychology/Adv Quantitative Methods and Experimental Design/Labs/AV-subject-0.csv","legacy","Lentiform Loewenfeld","3.3.9","0","h","NA","h","NA","NA","h","694","NA","68217","NA","NA","694","2","legacy","1024","2","48000","-16","experiment","SSHSS","0","even","71297","NA","NA","NA","117819","3079","NA","NA","103613","3068","NA","118879","118980","119674","118877","118980","Flanker Task","28","14893","29","yes","1024"
"96.66666666666667","96.66666666666667","521.5","521.5","black","legacy","legacy","legacy","0","incongruent","uniform","1","undefined","1","s","0","0","0","0","29","0","0","0","29","0","29","29","29","29","29","29","Sun Sep 19 12:11:53 2021","1500","The main experiment item","yes","FlankerTask.osexp","C:/Users/warne/OneDrive/Documents/Tarleton - MS Applied Psychology/Adv Quantitative Methods and Experimental Design/Labs","no","mono","no","18","no","white","no","yes","768","legacy","29","29","C:/Users/warne/OneDrive/Documents/Tarleton - MS Applied Psychology/Adv Quantitative Methods and Experimental Design/Labs/AV-subject-0.csv","legacy","Lentiform Loewenfeld","3.3.9","0","s","NA","h","NA","NA","s","752","NA","68217","NA","NA","752","2","legacy","1024","2","48000","-16","experiment","HHSHH","0","even","71297","NA","NA","NA","119679","3079","NA","NA","103613","3068","NA","120741","120842","121595","120739","120842","Flanker Task","29","15645","30","yes","1024"
"96.7741935483871","96.7741935483871","519.6774193548387","519.6774193548387","black","legacy","legacy","legacy","0","congruent","uniform","1","undefined","1","s","0","0","0","0","30","0","0","0","30","0","30","30","30","30","30","30","Sun Sep 19 12:11:53 2021","1500","The main experiment item","yes","FlankerTask.osexp","C:/Users/warne/OneDrive/Documents/Tarleton - MS Applied Psychology/Adv Quantitative Methods and Experimental Design/Labs","no","mono","no","18","no","white","no","yes","768","legacy","30","30","C:/Users/warne/OneDrive/Documents/Tarleton - MS Applied Psychology/Adv Quantitative Methods and Experimental Design/Labs/AV-subject-0.csv","legacy","Lentiform Loewenfeld","3.3.9","0","s","NA","h","NA","NA","s","465","NA","68217","NA","NA","465","2","legacy","1024","2","48000","-16","experiment","SSSSS","0","even","71297","NA","NA","NA","121599","3079","NA","NA","103613","3068","NA","122664","122765","123231","122662","122765","Flanker Task","30","16110","31","yes","1024"
"96.875","96.875","519.34375","519.34375","black","legacy","legacy","legacy","0","congruent","uniform","1","undefined","1","h","0","0","0","0","31","0","0","0","31","0","31","31","31","31","31","31","Sun Sep 19 12:11:53 2021","1500","The main experiment item","yes","FlankerTask.osexp","C:/Users/warne/OneDrive/Documents/Tarleton - MS Applied Psychology/Adv Quantitative Methods and Experimental Design/Labs","no","mono","no","18","no","white","no","yes","768","legacy","31","31","C:/Users/warne/OneDrive/Documents/Tarleton - MS Applied Psychology/Adv Quantitative Methods and Experimental Design/Labs/AV-subject-0.csv","legacy","Lentiform Loewenfeld","3.3.9","0","h","NA","h","NA","NA","h","509","NA","68217","NA","NA","509","2","legacy","1024","2","48000","-16","experiment","HHHHH","0","even","71297","NA","NA","NA","123236","3079","NA","NA","103613","3068","NA","124300","124401","124911","124298","124401","Flanker Task","31","16619","32","yes","1024"
"96.96969696969697","96.96969696969697","521.3030303030303","521.3030303030303","black","legacy","legacy","legacy","0","incongruent","uniform","1","undefined","1","s","0","0","0","0","32","0","0","0","32","0","32","32","32","32","32","32","Sun Sep 19 12:11:53 2021","1500","The main experiment item","yes","FlankerTask.osexp","C:/Users/warne/OneDrive/Documents/Tarleton - MS Applied Psychology/Adv Quantitative Methods and Experimental Design/Labs","no","mono","no","18","no","white","no","yes","768","legacy","32","32","C:/Users/warne/OneDrive/Documents/Tarleton - MS Applied Psychology/Adv Quantitative Methods and Experimental Design/Labs/AV-subject-0.csv","legacy","Lentiform Loewenfeld","3.3.9","0","s","NA","h","NA","NA","s","584","NA","68217","NA","NA","584","2","legacy","1024","2","48000","-16","experiment","HHSHH","0","even","71297","NA","NA","NA","124916","3079","NA","NA","103613","3068","NA","125978","126079","126664","125976","126079","Flanker Task","32","17203","33","yes","1024"
"97.05882352941177","97.05882352941177","521.8235294117648","521.8235294117648","black","legacy","legacy","legacy","0","congruent","uniform","1","undefined","1","h","0","0","0","0","33","0","0","0","33","0","33","33","33","33","33","33","Sun Sep 19 12:11:53 2021","1500","The main experiment item","yes","FlankerTask.osexp","C:/Users/warne/OneDrive/Documents/Tarleton - MS Applied Psychology/Adv Quantitative Methods and Experimental Design/Labs","no","mono","no","18","no","white","no","yes","768","legacy","33","33","C:/Users/warne/OneDrive/Documents/Tarleton - MS Applied Psychology/Adv Quantitative Methods and Experimental Design/Labs/AV-subject-0.csv","legacy","Lentiform Loewenfeld","3.3.9","0","h","NA","h","NA","NA","h","539","NA","68217","NA","NA","539","2","legacy","1024","2","48000","-16","experiment","HHHHH","0","even","71297","NA","NA","NA","126672","3079","NA","NA","103613","3068","NA","127735","127836","128376","127733","127836","Flanker Task","33","17742","34","yes","1024"
"97.14285714285714","97.14285714285714","520.2","520.2","black","legacy","legacy","legacy","0","congruent","uniform","1","undefined","1","h","0","0","0","0","34","0","0","0","34","0","34","34","34","34","34","34","Sun Sep 19 12:11:53 2021","1500","The main experiment item","yes","FlankerTask.osexp","C:/Users/warne/OneDrive/Documents/Tarleton - MS Applied Psychology/Adv Quantitative Methods and Experimental Design/Labs","no","mono","no","18","no","white","no","yes","768","legacy","34","34","C:/Users/warne/OneDrive/Documents/Tarleton - MS Applied Psychology/Adv Quantitative Methods and Experimental Design/Labs/AV-subject-0.csv","legacy","Lentiform Loewenfeld","3.3.9","0","h","NA","h","NA","NA","h","465","NA","68217","NA","NA","465","2","legacy","1024","2","48000","-16","experiment","HHHHH","0","even","71297","NA","NA","NA","128381","3079","NA","NA","103613","3068","NA","129444","129545","130011","129442","129545","Flanker Task","34","18207","35","yes","1024"
"97.22222222222223","97.22222222222223","519.9722222222222","519.9722222222222","black","legacy","legacy","legacy","0","congruent","uniform","1","undefined","1","h","0","0","0","0","35","0","0","0","35","0","35","35","35","35","35","35","Sun Sep 19 12:11:53 2021","1500","The main experiment item","yes","FlankerTask.osexp","C:/Users/warne/OneDrive/Documents/Tarleton - MS Applied Psychology/Adv Quantitative Methods and Experimental Design/Labs","no","mono","no","18","no","white","no","yes","768","legacy","35","35","C:/Users/warne/OneDrive/Documents/Tarleton - MS Applied Psychology/Adv Quantitative Methods and Experimental Design/Labs/AV-subject-0.csv","legacy","Lentiform Loewenfeld","3.3.9","0","h","NA","h","NA","NA","h","512","NA","68217","NA","NA","512","2","legacy","1024","2","48000","-16","experiment","HHHHH","0","even","71297","NA","NA","NA","130014","3079","NA","NA","103613","3068","NA","131078","131179","131691","131076","131179","Flanker Task","35","18719","36","yes","1024"
"97.29729729729729","97.29729729729729","523.4054054054054","523.4054054054054","black","legacy","legacy","legacy","0","incongruent","uniform","1","undefined","1","h","0","0","0","0","36","0","0","0","36","0","36","36","36","36","36","36","Sun Sep 19 12:11:53 2021","1500","The main experiment item","yes","FlankerTask.osexp","C:/Users/warne/OneDrive/Documents/Tarleton - MS Applied Psychology/Adv Quantitative Methods and Experimental Design/Labs","no","mono","no","18","no","white","no","yes","768","legacy","36","36","C:/Users/warne/OneDrive/Documents/Tarleton - MS Applied Psychology/Adv Quantitative Methods and Experimental Design/Labs/AV-subject-0.csv","legacy","Lentiform Loewenfeld","3.3.9","0","h","NA","h","NA","NA","h","647","NA","68217","NA","NA","647","2","legacy","1024","2","48000","-16","experiment","SSHSS","0","even","71297","NA","NA","NA","131696","3079","NA","NA","103613","3068","NA","132758","132859","133507","132756","132859","Flanker Task","36","19366","37","yes","1024"
"97.36842105263158","97.36842105263158","527.4736842105264","527.4736842105264","black","legacy","legacy","legacy","0","incongruent","uniform","1","undefined","1","s","0","0","0","0","37","0","0","0","37","0","37","37","37","37","37","37","Sun Sep 19 12:11:53 2021","1500","The main experiment item","yes","FlankerTask.osexp","C:/Users/warne/OneDrive/Documents/Tarleton - MS Applied Psychology/Adv Quantitative Methods and Experimental Design/Labs","no","mono","no","18","no","white","no","yes","768","legacy","37","37","C:/Users/warne/OneDrive/Documents/Tarleton - MS Applied Psychology/Adv Quantitative Methods and Experimental Design/Labs/AV-subject-0.csv","legacy","Lentiform Loewenfeld","3.3.9","0","s","NA","h","NA","NA","s","678","NA","68217","NA","NA","678","2","legacy","1024","2","48000","-16","experiment","HHSHH","0","even","71297","NA","NA","NA","133510","3079","NA","NA","103613","3068","NA","134572","134673","135352","134570","134673","Flanker Task","37","20044","38","yes","1024"
"97.43589743589743","97.43589743589743","529.7692307692307","529.7692307692307","black","legacy","legacy","legacy","0","congruent","uniform","1","undefined","1","h","0","0","0","0","38","0","0","0","38","0","38","38","38","38","38","38","Sun Sep 19 12:11:53 2021","1500","The main experiment item","yes","FlankerTask.osexp","C:/Users/warne/OneDrive/Documents/Tarleton - MS Applied Psychology/Adv Quantitative Methods and Experimental Design/Labs","no","mono","no","18","no","white","no","yes","768","legacy","38","38","C:/Users/warne/OneDrive/Documents/Tarleton - MS Applied Psychology/Adv Quantitative Methods and Experimental Design/Labs/AV-subject-0.csv","legacy","Lentiform Loewenfeld","3.3.9","0","h","NA","h","NA","NA","h","617","NA","68217","NA","NA","617","2","legacy","1024","2","48000","-16","experiment","HHHHH","0","even","71297","NA","NA","NA","135355","3079","NA","NA","103613","3068","NA","136418","136519","137137","136416","136519","Flanker Task","38","20661","39","yes","1024"
"97.5","97.5","530.7","530.7","black","legacy","legacy","legacy","0","incongruent","uniform","1","undefined","1","h","0","0","0","0","39","0","0","0","39","0","39","39","39","39","39","39","Sun Sep 19 12:11:53 2021","1500","The main experiment item","yes","FlankerTask.osexp","C:/Users/warne/OneDrive/Documents/Tarleton - MS Applied Psychology/Adv Quantitative Methods and Experimental Design/Labs","no","mono","no","18","no","white","no","yes","768","legacy","39","39","C:/Users/warne/OneDrive/Documents/Tarleton - MS Applied Psychology/Adv Quantitative Methods and Experimental Design/Labs/AV-subject-0.csv","legacy","Lentiform Loewenfeld","3.3.9","0","h","NA","h","NA","NA","h","567","NA","68217","NA","NA","567","2","legacy","1024","2","48000","-16","experiment","SSHSS","0","even","71297","NA","NA","NA","137142","3079","NA","NA","103613","3068","NA","138208","138309","138877","138206","138309","Flanker Task","39","21228","40","yes","1024"
"97.5609756097561","97.5609756097561","532.0243902439024","532.0243902439024","black","legacy","legacy","legacy","0","incongruent","uniform","1","undefined","1","h","0","0","0","0","40","0","0","0","40","0","40","40","40","40","40","40","Sun Sep 19 12:11:53 2021","1500","The main experiment item","yes","FlankerTask.osexp","C:/Users/warne/OneDrive/Documents/Tarleton - MS Applied Psychology/Adv Quantitative Methods and Experimental Design/Labs","no","mono","no","18","no","white","no","yes","768","legacy","40","40","C:/Users/warne/OneDrive/Documents/Tarleton - MS Applied Psychology/Adv Quantitative Methods and Experimental Design/Labs/AV-subject-0.csv","legacy","Lentiform Loewenfeld","3.3.9","0","h","NA","h","NA","NA","h","585","NA","68217","NA","NA","585","2","legacy","1024","2","48000","-16","experiment","SSHSS","0","even","71297","NA","NA","NA","138882","3079","NA","NA","103613","3068","NA","139946","140047","140633","139945","140047","Flanker Task","40","21813","41","yes","1024"
"97.61904761904762","97.61904761904762","532.9761904761905","532.9761904761905","black","legacy","legacy","legacy","0","congruent","uniform","1","undefined","1","h","0","0","0","0","41","0","0","0","41","0","41","41","41","41","41","41","Sun Sep 19 12:11:53 2021","1500","The main experiment item","yes","FlankerTask.osexp","C:/Users/warne/OneDrive/Documents/Tarleton - MS Applied Psychology/Adv Quantitative Methods and Experimental Design/Labs","no","mono","no","18","no","white","no","yes","768","legacy","41","41","C:/Users/warne/OneDrive/Documents/Tarleton - MS Applied Psychology/Adv Quantitative Methods and Experimental Design/Labs/AV-subject-0.csv","legacy","Lentiform Loewenfeld","3.3.9","0","h","NA","h","NA","NA","h","572","NA","68217","NA","NA","572","2","legacy","1024","2","48000","-16","experiment","HHHHH","0","even","71297","NA","NA","NA","140638","3079","NA","NA","103613","3068","NA","141699","141800","142373","141697","141800","Flanker Task","41","22385","42","yes","1024"
"97.67441860465117","97.67441860465117","533.5348837209302","533.5348837209302","black","legacy","legacy","legacy","0","incongruent","uniform","1","undefined","1","s","0","0","0","0","42","0","0","0","42","0","42","42","42","42","42","42","Sun Sep 19 12:11:53 2021","1500","The main experiment item","yes","FlankerTask.osexp","C:/Users/warne/OneDrive/Documents/Tarleton - MS Applied Psychology/Adv Quantitative Methods and Experimental Design/Labs","no","mono","no","18","no","white","no","yes","768","legacy","42","42","C:/Users/warne/OneDrive/Documents/Tarleton - MS Applied Psychology/Adv Quantitative Methods and Experimental Design/Labs/AV-subject-0.csv","legacy","Lentiform Loewenfeld","3.3.9","0","s","NA","h","NA","NA","s","557","NA","68217","NA","NA","557","2","legacy","1024","2","48000","-16","experiment","HHSHH","0","even","71297","NA","NA","NA","142376","3079","NA","NA","103613","3068","NA","143438","143540","144098","143436","143540","Flanker Task","42","22942","43","yes","1024"
"97.72727272727273","97.72727272727273","533.4318181818181","533.4318181818181","black","legacy","legacy","legacy","0","incongruent","uniform","1","undefined","1","s","0","0","0","0","43","0","0","0","43","0","43","43","43","43","43","43","Sun Sep 19 12:11:53 2021","1500","The main experiment item","yes","FlankerTask.osexp","C:/Users/warne/OneDrive/Documents/Tarleton - MS Applied Psychology/Adv Quantitative Methods and Experimental Design/Labs","no","mono","no","18","no","white","no","yes","768","legacy","43","43","C:/Users/warne/OneDrive/Documents/Tarleton - MS Applied Psychology/Adv Quantitative Methods and Experimental Design/Labs/AV-subject-0.csv","legacy","Lentiform Loewenfeld","3.3.9","0","s","NA","h","NA","NA","s","529","NA","68217","NA","NA","529","2","legacy","1024","2","48000","-16","experiment","HHSHH","0","even","71297","NA","NA","NA","144101","3079","NA","NA","103613","3068","NA","145163","145264","145794","145161","145264","Flanker Task","43","23471","44","yes","1024"
"97.77777777777777","97.77777777777777","531.2444444444444","531.2444444444444","black","legacy","legacy","legacy","0","incongruent","uniform","1","undefined","1","s","0","0","0","0","44","0","0","0","44","0","44","44","44","44","44","44","Sun Sep 19 12:11:53 2021","1500","The main experiment item","yes","FlankerTask.osexp","C:/Users/warne/OneDrive/Documents/Tarleton - MS Applied Psychology/Adv Quantitative Methods and Experimental Design/Labs","no","mono","no","18","no","white","no","yes","768","legacy","44","44","C:/Users/warne/OneDrive/Documents/Tarleton - MS Applied Psychology/Adv Quantitative Methods and Experimental Design/Labs/AV-subject-0.csv","legacy","Lentiform Loewenfeld","3.3.9","0","s","NA","h","NA","NA","s","435","NA","68217","NA","NA","435","2","legacy","1024","2","48000","-16","experiment","HHSHH","0","even","71297","NA","NA","NA","145799","3079","NA","NA","103613","3068","NA","146862","146963","147399","146860","146963","Flanker Task","44","23906","45","yes","1024"
"97.82608695652173","97.82608695652173","529.8478260869565","529.8478260869565","black","legacy","legacy","legacy","0","congruent","uniform","1","undefined","1","h","0","0","0","0","45","0","0","0","45","0","45","45","45","45","45","45","Sun Sep 19 12:11:53 2021","1500","The main experiment item","yes","FlankerTask.osexp","C:/Users/warne/OneDrive/Documents/Tarleton - MS Applied Psychology/Adv Quantitative Methods and Experimental Design/Labs","no","mono","no","18","no","white","no","yes","768","legacy","45","45","C:/Users/warne/OneDrive/Documents/Tarleton - MS Applied Psychology/Adv Quantitative Methods and Experimental Design/Labs/AV-subject-0.csv","legacy","Lentiform Loewenfeld","3.3.9","0","h","NA","h","NA","NA","h","467","NA","68217","NA","NA","467","2","legacy","1024","2","48000","-16","experiment","HHHHH","0","even","71297","NA","NA","NA","147404","3079","NA","NA","103613","3068","NA","148465","148566","149034","148464","148566","Flanker Task","45","24373","46","yes","1024"
"97.87234042553192","97.87234042553192","529.1702127659574","529.1702127659574","black","legacy","legacy","legacy","0","congruent","uniform","1","undefined","1","s","0","0","0","0","46","0","0","0","46","0","46","46","46","46","46","46","Sun Sep 19 12:11:53 2021","1500","The main experiment item","yes","FlankerTask.osexp","C:/Users/warne/OneDrive/Documents/Tarleton - MS Applied Psychology/Adv Quantitative Methods and Experimental Design/Labs","no","mono","no","18","no","white","no","yes","768","legacy","46","46","C:/Users/warne/OneDrive/Documents/Tarleton - MS Applied Psychology/Adv Quantitative Methods and Experimental Design/Labs/AV-subject-0.csv","legacy","Lentiform Loewenfeld","3.3.9","0","s","NA","h","NA","NA","s","498","NA","68217","NA","NA","498","2","legacy","1024","2","48000","-16","experiment","SSSSS","0","even","71297","NA","NA","NA","149037","3079","NA","NA","103613","3068","NA","150099","150200","150699","150097","150200","Flanker Task","46","24871","47","yes","1024"
"97.91666666666667","97.91666666666667","526.25","526.25","black","legacy","legacy","legacy","0","congruent","uniform","1","undefined","1","s","0","0","0","0","47","0","0","0","47","0","47","47","47","47","47","47","Sun Sep 19 12:11:53 2021","1500","The main experiment item","yes","FlankerTask.osexp","C:/Users/warne/OneDrive/Documents/Tarleton - MS Applied Psychology/Adv Quantitative Methods and Experimental Design/Labs","no","mono","no","18","no","white","no","yes","768","legacy","47","47","C:/Users/warne/OneDrive/Documents/Tarleton - MS Applied Psychology/Adv Quantitative Methods and Experimental Design/Labs/AV-subject-0.csv","legacy","Lentiform Loewenfeld","3.3.9","0","s","NA","h","NA","NA","s","389","NA","68217","NA","NA","389","2","legacy","1024","2","48000","-16","experiment","SSSSS","0","even","71297","NA","NA","NA","150704","3079","NA","NA","103613","3068","NA","151769","151870","152260","151767","151870","Flanker Task","47","25260","48","yes","1024"
"97.95918367346938","97.95918367346938","525.3061224489796","525.3061224489796","black","legacy","legacy","legacy","0","congruent","uniform","1","undefined","1","h","0","0","0","0","48","0","0","0","48","0","48","48","48","48","48","48","Sun Sep 19 12:11:53 2021","1500","The main experiment item","yes","FlankerTask.osexp","C:/Users/warne/OneDrive/Documents/Tarleton - MS Applied Psychology/Adv Quantitative Methods and Experimental Design/Labs","no","mono","no","18","no","white","no","yes","768","legacy","48","48","C:/Users/warne/OneDrive/Documents/Tarleton - MS Applied Psychology/Adv Quantitative Methods and Experimental Design/Labs/AV-subject-0.csv","legacy","Lentiform Loewenfeld","3.3.9","0","h","NA","h","NA","NA","h","480","NA","68217","NA","NA","480","2","legacy","1024","2","48000","-16","experiment","HHHHH","0","even","71297","NA","NA","NA","152265","3079","NA","NA","103613","3068","NA","153328","153429","153910","153326","153429","Flanker Task","48","25740","49","yes","1024"
"98","98","524.64","524.64","black","legacy","legacy","legacy","0","incongruent","uniform","1","undefined","1","s","0","0","0","0","49","0","0","0","49","0","49","49","49","49","49","49","Sun Sep 19 12:11:53 2021","1500","The main experiment item","yes","FlankerTask.osexp","C:/Users/warne/OneDrive/Documents/Tarleton - MS Applied Psychology/Adv Quantitative Methods and Experimental Design/Labs","no","mono","no","18","no","white","no","yes","768","legacy","49","49","C:/Users/warne/OneDrive/Documents/Tarleton - MS Applied Psychology/Adv Quantitative Methods and Experimental Design/Labs/AV-subject-0.csv","legacy","Lentiform Loewenfeld","3.3.9","0","s","NA","h","NA","NA","s","492","NA","68217","NA","NA","492","2","legacy","1024","2","48000","-16","experiment","HHSHH","0","even","71297","NA","NA","NA","153915","3079","NA","NA","103613","3068","NA","154981","155082","155575","154979","155082","Flanker Task","49","26232","50","yes","1024"
"98.03921568627452","98.03921568627452","521.0392156862745","521.0392156862745","black","legacy","legacy","legacy","0","incongruent","uniform","1","undefined","1","h","0","0","0","0","50","0","0","0","50","0","50","50","50","50","50","50","Sun Sep 19 12:11:53 2021","1500","The main experiment item","yes","FlankerTask.osexp","C:/Users/warne/OneDrive/Documents/Tarleton - MS Applied Psychology/Adv Quantitative Methods and Experimental Design/Labs","no","mono","no","18","no","white","no","yes","768","legacy","50","50","C:/Users/warne/OneDrive/Documents/Tarleton - MS Applied Psychology/Adv Quantitative Methods and Experimental Design/Labs/AV-subject-0.csv","legacy","Lentiform Loewenfeld","3.3.9","0","h","NA","h","NA","NA","h","341","NA","68217","NA","NA","341","2","legacy","1024","2","48000","-16","experiment","SSHSS","0","even","71297","NA","NA","NA","155582","3079","NA","NA","103613","3068","NA","156648","156749","157090","156646","156749","Flanker Task","50","26573","51","yes","1024"
"98.07692307692308","98.07692307692308","520.5192307692307","520.5192307692307","black","legacy","legacy","legacy","0","incongruent","uniform","1","undefined","1","h","0","0","0","0","51","0","0","0","51","0","51","51","51","51","51","51","Sun Sep 19 12:11:53 2021","1500","The main experiment item","yes","FlankerTask.osexp","C:/Users/warne/OneDrive/Documents/Tarleton - MS Applied Psychology/Adv Quantitative Methods and Experimental Design/Labs","no","mono","no","18","no","white","no","yes","768","legacy","51","51","C:/Users/warne/OneDrive/Documents/Tarleton - MS Applied Psychology/Adv Quantitative Methods and Experimental Design/Labs/AV-subject-0.csv","legacy","Lentiform Loewenfeld","3.3.9","0","h","NA","h","NA","NA","h","494","NA","68217","NA","NA","494","2","legacy","1024","2","48000","-16","experiment","SSHSS","0","even","71297","NA","NA","NA","157096","3079","NA","NA","103613","3068","NA","158160","158261","158756","158158","158261","Flanker Task","51","27067","52","yes","1024"
"98.11320754716981","98.11320754716981","519.188679245283","519.188679245283","black","legacy","legacy","legacy","0","incongruent","uniform","1","undefined","1","h","0","0","0","0","52","0","0","0","52","0","52","52","52","52","52","52","Sun Sep 19 12:11:53 2021","1500","The main experiment item","yes","FlankerTask.osexp","C:/Users/warne/OneDrive/Documents/Tarleton - MS Applied Psychology/Adv Quantitative Methods and Experimental Design/Labs","no","mono","no","18","no","white","no","yes","768","legacy","52","52","C:/Users/warne/OneDrive/Documents/Tarleton - MS Applied Psychology/Adv Quantitative Methods and Experimental Design/Labs/AV-subject-0.csv","legacy","Lentiform Loewenfeld","3.3.9","0","h","NA","h","NA","NA","h","450","NA","68217","NA","NA","450","2","legacy","1024","2","48000","-16","experiment","SSHSS","0","even","71297","NA","NA","NA","158759","3079","NA","NA","103613","3068","NA","159824","159925","160376","159822","159925","Flanker Task","52","27517","53","yes","1024"
"98.14814814814815","98.14814814814815","518.7407407407408","518.7407407407408","black","legacy","legacy","legacy","0","incongruent","uniform","1","undefined","1","s","0","0","0","0","53","0","0","0","53","0","53","53","53","53","53","53","Sun Sep 19 12:11:53 2021","1500","The main experiment item","yes","FlankerTask.osexp","C:/Users/warne/OneDrive/Documents/Tarleton - MS Applied Psychology/Adv Quantitative Methods and Experimental Design/Labs","no","mono","no","18","no","white","no","yes","768","legacy","53","53","C:/Users/warne/OneDrive/Documents/Tarleton - MS Applied Psychology/Adv Quantitative Methods and Experimental Design/Labs/AV-subject-0.csv","legacy","Lentiform Loewenfeld","3.3.9","0","s","NA","h","NA","NA","s","495","NA","68217","NA","NA","495","2","legacy","1024","2","48000","-16","experiment","HHSHH","0","even","71297","NA","NA","NA","160381","3079","NA","NA","103613","3068","NA","161444","161545","162041","161441","161545","Flanker Task","53","28012","54","yes","1024"
"98.18181818181819","98.18181818181819","517.5272727272727","517.5272727272727","black","legacy","legacy","legacy","0","congruent","uniform","1","undefined","1","h","0","0","0","0","54","0","0","0","54","0","54","54","54","54","54","54","Sun Sep 19 12:11:53 2021","1500","The main experiment item","yes","FlankerTask.osexp","C:/Users/warne/OneDrive/Documents/Tarleton - MS Applied Psychology/Adv Quantitative Methods and Experimental Design/Labs","no","mono","no","18","no","white","no","yes","768","legacy","54","54","C:/Users/warne/OneDrive/Documents/Tarleton - MS Applied Psychology/Adv Quantitative Methods and Experimental Design/Labs/AV-subject-0.csv","legacy","Lentiform Loewenfeld","3.3.9","0","h","NA","h","NA","NA","h","452","NA","68217","NA","NA","452","2","legacy","1024","2","48000","-16","experiment","HHHHH","0","even","71297","NA","NA","NA","162046","3079","NA","NA","103613","3068","NA","163108","163209","163661","163106","163209","Flanker Task","54","28464","55","yes","1024"
"98.21428571428571","98.21428571428571","516.9107142857143","516.9107142857143","black","legacy","legacy","legacy","0","congruent","uniform","1","undefined","1","h","0","0","0","0","55","0","0","0","55","0","55","55","55","55","55","55","Sun Sep 19 12:11:53 2021","1500","The main experiment item","yes","FlankerTask.osexp","C:/Users/warne/OneDrive/Documents/Tarleton - MS Applied Psychology/Adv Quantitative Methods and Experimental Design/Labs","no","mono","no","18","no","white","no","yes","768","legacy","55","55","C:/Users/warne/OneDrive/Documents/Tarleton - MS Applied Psychology/Adv Quantitative Methods and Experimental Design/Labs/AV-subject-0.csv","legacy","Lentiform Loewenfeld","3.3.9","0","h","NA","h","NA","NA","h","483","NA","68217","NA","NA","483","2","legacy","1024","2","48000","-16","experiment","HHHHH","0","even","71297","NA","NA","NA","163666","3079","NA","NA","103613","3068","NA","164727","164828","165311","164725","164828","Flanker Task","55","28947","56","yes","1024"
"98.24561403508773","98.24561403508773","518.6666666666666","518.6666666666666","black","legacy","legacy","legacy","0","incongruent","uniform","1","undefined","1","s","0","0","0","0","56","0","0","0","56","0","56","56","56","56","56","56","Sun Sep 19 12:11:53 2021","1500","The main experiment item","yes","FlankerTask.osexp","C:/Users/warne/OneDrive/Documents/Tarleton - MS Applied Psychology/Adv Quantitative Methods and Experimental Design/Labs","no","mono","no","18","no","white","no","yes","768","legacy","56","56","C:/Users/warne/OneDrive/Documents/Tarleton - MS Applied Psychology/Adv Quantitative Methods and Experimental Design/Labs/AV-subject-0.csv","legacy","Lentiform Loewenfeld","3.3.9","0","s","NA","h","NA","NA","s","617","NA","68217","NA","NA","617","2","legacy","1024","2","48000","-16","experiment","HHSHH","0","even","71297","NA","NA","NA","165315","3079","NA","NA","103613","3068","NA","166378","166479","167097","166376","166479","Flanker Task","56","29564","57","yes","1024"
"98.27586206896552","98.27586206896552","517.2586206896551","517.2586206896551","black","legacy","legacy","legacy","0","incongruent","uniform","1","undefined","1","h","0","0","0","0","57","0","0","0","57","0","57","57","57","57","57","57","Sun Sep 19 12:11:53 2021","1500","The main experiment item","yes","FlankerTask.osexp","C:/Users/warne/OneDrive/Documents/Tarleton - MS Applied Psychology/Adv Quantitative Methods and Experimental Design/Labs","no","mono","no","18","no","white","no","yes","768","legacy","57","57","C:/Users/warne/OneDrive/Documents/Tarleton - MS Applied Psychology/Adv Quantitative Methods and Experimental Design/Labs/AV-subject-0.csv","legacy","Lentiform Loewenfeld","3.3.9","0","h","NA","h","NA","NA","h","437","NA","68217","NA","NA","437","2","legacy","1024","2","48000","-16","experiment","SSHSS","0","even","71297","NA","NA","NA","167103","3079","NA","NA","103613","3068","NA","168164","168265","168702","168162","168265","Flanker Task","57","30001","58","yes","1024"
"98.30508474576271","98.30508474576271","519.1525423728814","519.1525423728814","black","legacy","legacy","legacy","0","incongruent","uniform","1","undefined","1","h","0","0","0","0","58","0","0","0","58","0","58","58","58","58","58","58","Sun Sep 19 12:11:53 2021","1500","The main experiment item","yes","FlankerTask.osexp","C:/Users/warne/OneDrive/Documents/Tarleton - MS Applied Psychology/Adv Quantitative Methods and Experimental Design/Labs","no","mono","no","18","no","white","no","yes","768","legacy","58","58","C:/Users/warne/OneDrive/Documents/Tarleton - MS Applied Psychology/Adv Quantitative Methods and Experimental Design/Labs/AV-subject-0.csv","legacy","Lentiform Loewenfeld","3.3.9","0","h","NA","h","NA","NA","h","629","NA","68217","NA","NA","629","2","legacy","1024","2","48000","-16","experiment","SSHSS","0","even","71297","NA","NA","NA","168707","3079","NA","NA","103613","3068","NA","169772","169873","170502","169770","169873","Flanker Task","58","30630","59","yes","1024"
"98.33333333333333","98.33333333333333","520.2","520.2","black","legacy","legacy","legacy","0","incongruent","uniform","1","undefined","1","h","0","0","0","0","59","0","0","0","59","0","59","59","59","59","59","59","Sun Sep 19 12:11:53 2021","1500","The main experiment item","yes","FlankerTask.osexp","C:/Users/warne/OneDrive/Documents/Tarleton - MS Applied Psychology/Adv Quantitative Methods and Experimental Design/Labs","no","mono","no","18","no","white","no","yes","768","legacy","59","59","C:/Users/warne/OneDrive/Documents/Tarleton - MS Applied Psychology/Adv Quantitative Methods and Experimental Design/Labs/AV-subject-0.csv","legacy","Lentiform Loewenfeld","3.3.9","0","h","NA","h","NA","NA","h","582","NA","68217","NA","NA","582","2","legacy","1024","2","48000","-16","experiment","SSHSS","0","even","71297","NA","NA","NA","170507","3079","NA","NA","103613","3068","NA","171574","171675","172258","171571","171675","Flanker Task","59","31212","60","yes","1024"
"98.36065573770492","98.36065573770492","520.8196721311475","520.8196721311475","black","legacy","legacy","legacy","0","congruent","uniform","1","undefined","1","h","0","0","0","0","60","0","0","0","60","0","60","60","60","60","60","60","Sun Sep 19 12:11:53 2021","1500","The main experiment item","yes","FlankerTask.osexp","C:/Users/warne/OneDrive/Documents/Tarleton - MS Applied Psychology/Adv Quantitative Methods and Experimental Design/Labs","no","mono","no","18","no","white","no","yes","768","legacy","60","60","C:/Users/warne/OneDrive/Documents/Tarleton - MS Applied Psychology/Adv Quantitative Methods and Experimental Design/Labs/AV-subject-0.csv","legacy","Lentiform Loewenfeld","3.3.9","0","h","NA","h","NA","NA","h","558","NA","68217","NA","NA","558","2","legacy","1024","2","48000","-16","experiment","HHHHH","0","even","71297","NA","NA","NA","172261","3079","NA","NA","103613","3068","NA","173323","173424","173982","173321","173424","Flanker Task","60","31770","61","yes","1024"
"98.38709677419355","98.38709677419355","520.6774193548387","520.6774193548387","black","legacy","legacy","legacy","0","incongruent","uniform","1","undefined","1","h","0","0","0","0","61","0","0","0","61","0","61","61","61","61","61","61","Sun Sep 19 12:11:53 2021","1500","The main experiment item","yes","FlankerTask.osexp","C:/Users/warne/OneDrive/Documents/Tarleton - MS Applied Psychology/Adv Quantitative Methods and Experimental Design/Labs","no","mono","no","18","no","white","no","yes","768","legacy","61","61","C:/Users/warne/OneDrive/Documents/Tarleton - MS Applied Psychology/Adv Quantitative Methods and Experimental Design/Labs/AV-subject-0.csv","legacy","Lentiform Loewenfeld","3.3.9","0","h","NA","h","NA","NA","h","512","NA","68217","NA","NA","512","2","legacy","1024","2","48000","-16","experiment","SSHSS","0","even","71297","NA","NA","NA","173988","3079","NA","NA","103613","3068","NA","175049","175150","175663","175047","175150","Flanker Task","61","32282","62","yes","1024"
"98.41269841269842","98.41269841269842","518.984126984127","518.984126984127","black","legacy","legacy","legacy","0","incongruent","uniform","1","undefined","1","s","0","0","0","0","62","0","0","0","62","0","62","62","62","62","62","62","Sun Sep 19 12:11:53 2021","1500","The main experiment item","yes","FlankerTask.osexp","C:/Users/warne/OneDrive/Documents/Tarleton - MS Applied Psychology/Adv Quantitative Methods and Experimental Design/Labs","no","mono","no","18","no","white","no","yes","768","legacy","62","62","C:/Users/warne/OneDrive/Documents/Tarleton - MS Applied Psychology/Adv Quantitative Methods and Experimental Design/Labs/AV-subject-0.csv","legacy","Lentiform Loewenfeld","3.3.9","0","s","NA","h","NA","NA","s","414","NA","68217","NA","NA","414","2","legacy","1024","2","48000","-16","experiment","HHSHH","0","even","71297","NA","NA","NA","175668","3079","NA","NA","103613","3068","NA","176735","176836","177251","176733","176836","Flanker Task","62","32696","63","yes","1024"
"98.4375","98.4375","517.953125","517.953125","black","legacy","legacy","legacy","0","congruent","uniform","1","undefined","1","s","0","0","0","0","63","0","0","0","63","0","63","63","63","63","63","63","Sun Sep 19 12:11:53 2021","1500","The main experiment item","yes","FlankerTask.osexp","C:/Users/warne/OneDrive/Documents/Tarleton - MS Applied Psychology/Adv Quantitative Methods and Experimental Design/Labs","no","mono","no","18","no","white","no","yes","768","legacy","63","63","C:/Users/warne/OneDrive/Documents/Tarleton - MS Applied Psychology/Adv Quantitative Methods and Experimental Design/Labs/AV-subject-0.csv","legacy","Lentiform Loewenfeld","3.3.9","0","s","NA","h","NA","NA","s","453","NA","68217","NA","NA","453","2","legacy","1024","2","48000","-16","experiment","SSSSS","0","even","71297","NA","NA","NA","177256","3079","NA","NA","103613","3068","NA","178319","178420","178873","178317","178420","Flanker Task","63","33149","64","yes","1024"
"98.46153846153847","98.46153846153847","517.3538461538461","517.3538461538461","black","legacy","legacy","legacy","0","incongruent","uniform","1","undefined","1","s","0","0","0","0","64","0","0","0","64","0","64","64","64","64","64","64","Sun Sep 19 12:11:53 2021","1500","The main experiment item","yes","FlankerTask.osexp","C:/Users/warne/OneDrive/Documents/Tarleton - MS Applied Psychology/Adv Quantitative Methods and Experimental Design/Labs","no","mono","no","18","no","white","no","yes","768","legacy","64","64","C:/Users/warne/OneDrive/Documents/Tarleton - MS Applied Psychology/Adv Quantitative Methods and Experimental Design/Labs/AV-subject-0.csv","legacy","Lentiform Loewenfeld","3.3.9","0","s","NA","h","NA","NA","s","479","NA","68217","NA","NA","479","2","legacy","1024","2","48000","-16","experiment","HHSHH","0","even","71297","NA","NA","NA","178879","3079","NA","NA","103613","3068","NA","179943","180044","180523","179941","180044","Flanker Task","64","33628","65","yes","1024"
"98.48484848484848","98.48484848484848","516.8181818181819","516.8181818181819","black","legacy","legacy","legacy","0","congruent","uniform","1","undefined","1","s","0","0","0","0","65","0","0","0","65","0","65","65","65","65","65","65","Sun Sep 19 12:11:53 2021","1500","The main experiment item","yes","FlankerTask.osexp","C:/Users/warne/OneDrive/Documents/Tarleton - MS Applied Psychology/Adv Quantitative Methods and Experimental Design/Labs","no","mono","no","18","no","white","no","yes","768","legacy","65","65","C:/Users/warne/OneDrive/Documents/Tarleton - MS Applied Psychology/Adv Quantitative Methods and Experimental Design/Labs/AV-subject-0.csv","legacy","Lentiform Loewenfeld","3.3.9","0","s","NA","h","NA","NA","s","482","NA","68217","NA","NA","482","2","legacy","1024","2","48000","-16","experiment","SSSSS","0","even","71297","NA","NA","NA","180528","3079","NA","NA","103613","3068","NA","181590","181691","182174","181587","181691","Flanker Task","65","34110","66","yes","1024"
"98.50746268656717","98.50746268656717","516.2089552238806","516.2089552238806","black","legacy","legacy","legacy","0","incongruent","uniform","1","undefined","1","s","0","0","0","0","66","0","0","0","66","0","66","66","66","66","66","66","Sun Sep 19 12:11:53 2021","1500","The main experiment item","yes","FlankerTask.osexp","C:/Users/warne/OneDrive/Documents/Tarleton - MS Applied Psychology/Adv Quantitative Methods and Experimental Design/Labs","no","mono","no","18","no","white","no","yes","768","legacy","66","66","C:/Users/warne/OneDrive/Documents/Tarleton - MS Applied Psychology/Adv Quantitative Methods and Experimental Design/Labs/AV-subject-0.csv","legacy","Lentiform Loewenfeld","3.3.9","0","s","NA","h","NA","NA","s","476","NA","68217","NA","NA","476","2","legacy","1024","2","48000","-16","experiment","HHSHH","0","even","71297","NA","NA","NA","182179","3079","NA","NA","103613","3068","NA","183246","183347","183824","183244","183347","Flanker Task","66","34586","67","yes","1024"
"98.52941176470588","98.52941176470588","515.6911764705883","515.6911764705883","black","legacy","legacy","legacy","0","congruent","uniform","1","undefined","1","s","0","0","0","0","67","0","0","0","67","0","67","67","67","67","67","67","Sun Sep 19 12:11:53 2021","1500","The main experiment item","yes","FlankerTask.osexp","C:/Users/warne/OneDrive/Documents/Tarleton - MS Applied Psychology/Adv Quantitative Methods and Experimental Design/Labs","no","mono","no","18","no","white","no","yes","768","legacy","67","67","C:/Users/warne/OneDrive/Documents/Tarleton - MS Applied Psychology/Adv Quantitative Methods and Experimental Design/Labs/AV-subject-0.csv","legacy","Lentiform Loewenfeld","3.3.9","0","s","NA","h","NA","NA","s","481","NA","68217","NA","NA","481","2","legacy","1024","2","48000","-16","experiment","SSSSS","0","even","71297","NA","NA","NA","183829","3079","NA","NA","103613","3068","NA","184892","184993","185475","184889","184993","Flanker Task","67","35067","68","yes","1024"
"97.10144927536231","97.10144927536231","515.5652173913044","515.5652173913044","black","legacy","legacy","legacy","0","congruent","uniform","0","undefined","0","h","0","0","0","0","68","0","0","0","68","0","68","68","68","68","68","68","Sun Sep 19 12:11:53 2021","1500","The main experiment item","yes","FlankerTask.osexp","C:/Users/warne/OneDrive/Documents/Tarleton - MS Applied Psychology/Adv Quantitative Methods and Experimental Design/Labs","no","mono","no","18","no","white","no","yes","768","legacy","68","68","C:/Users/warne/OneDrive/Documents/Tarleton - MS Applied Psychology/Adv Quantitative Methods and Experimental Design/Labs/AV-subject-0.csv","legacy","Lentiform Loewenfeld","3.3.9","0","s","NA","h","NA","NA","s","507","NA","68217","NA","NA","507","2","legacy","1024","2","48000","-16","experiment","HHHHH","0","even","71297","NA","NA","NA","185480","3079","NA","NA","103613","3068","NA","186546","186647","187154","186544","186647","Flanker Task","67","35574","69","yes","1024"
"97.14285714285714","97.14285714285714","517.4285714285714","517.4285714285714","black","legacy","legacy","legacy","0","congruent","uniform","1","undefined","1","h","0","0","0","0","69","0","0","0","69","0","69","69","69","69","69","69","Sun Sep 19 12:11:53 2021","1500","The main experiment item","yes","FlankerTask.osexp","C:/Users/warne/OneDrive/Documents/Tarleton - MS Applied Psychology/Adv Quantitative Methods and Experimental Design/Labs","no","mono","no","18","no","white","no","yes","768","legacy","69","69","C:/Users/warne/OneDrive/Documents/Tarleton - MS Applied Psychology/Adv Quantitative Methods and Experimental Design/Labs/AV-subject-0.csv","legacy","Lentiform Loewenfeld","3.3.9","0","h","NA","h","NA","NA","h","646","NA","68217","NA","NA","646","2","legacy","1024","2","48000","-16","experiment","HHHHH","0","even","71297","NA","NA","NA","187658","3079","NA","NA","187157","3068","NA","188721","188822","189469","188719","188822","Flanker Task","68","36220","70","yes","1024"
"97.1830985915493","97.1830985915493","516.3239436619718","516.3239436619718","black","legacy","legacy","legacy","0","congruent","uniform","1","undefined","1","s","0","0","0","0","70","0","0","0","70","0","70","70","70","70","70","70","Sun Sep 19 12:11:53 2021","1500","The main experiment item","yes","FlankerTask.osexp","C:/Users/warne/OneDrive/Documents/Tarleton - MS Applied Psychology/Adv Quantitative Methods and Experimental Design/Labs","no","mono","no","18","no","white","no","yes","768","legacy","70","70","C:/Users/warne/OneDrive/Documents/Tarleton - MS Applied Psychology/Adv Quantitative Methods and Experimental Design/Labs/AV-subject-0.csv","legacy","Lentiform Loewenfeld","3.3.9","0","s","NA","h","NA","NA","s","439","NA","68217","NA","NA","439","2","legacy","1024","2","48000","-16","experiment","SSSSS","0","even","71297","NA","NA","NA","189474","3079","NA","NA","187157","3068","NA","190545","190646","191085","190543","190646","Flanker Task","69","36659","71","yes","1024"
"97.22222222222223","97.22222222222223","515.4166666666666","515.4166666666666","black","legacy","legacy","legacy","0","congruent","uniform","1","undefined","1","s","0","0","0","0","71","0","0","0","71","0","71","71","71","71","71","71","Sun Sep 19 12:11:53 2021","1500","The main experiment item","yes","FlankerTask.osexp","C:/Users/warne/OneDrive/Documents/Tarleton - MS Applied Psychology/Adv Quantitative Methods and Experimental Design/Labs","no","mono","no","18","no","white","no","yes","768","legacy","71","71","C:/Users/warne/OneDrive/Documents/Tarleton - MS Applied Psychology/Adv Quantitative Methods and Experimental Design/Labs/AV-subject-0.csv","legacy","Lentiform Loewenfeld","3.3.9","0","s","NA","h","NA","NA","s","451","NA","68217","NA","NA","451","2","legacy","1024","2","48000","-16","experiment","SSSSS","0","even","71297","NA","NA","NA","191092","3079","NA","NA","187157","3068","NA","192153","192254","192706","192151","192254","Flanker Task","70","37110","72","yes","1024"
"97.26027397260275","97.26027397260275","515.3561643835617","515.3561643835617","black","legacy","legacy","legacy","0","incongruent","uniform","1","undefined","1","h","0","0","0","0","72","0","0","0","72","0","72","72","72","72","72","72","Sun Sep 19 12:11:53 2021","1500","The main experiment item","yes","FlankerTask.osexp","C:/Users/warne/OneDrive/Documents/Tarleton - MS Applied Psychology/Adv Quantitative Methods and Experimental Design/Labs","no","mono","no","18","no","white","no","yes","768","legacy","72","72","C:/Users/warne/OneDrive/Documents/Tarleton - MS Applied Psychology/Adv Quantitative Methods and Experimental Design/Labs/AV-subject-0.csv","legacy","Lentiform Loewenfeld","3.3.9","0","h","NA","h","NA","NA","h","511","NA","68217","NA","NA","511","2","legacy","1024","2","48000","-16","experiment","SSHSS","0","even","71297","NA","NA","NA","192710","3079","NA","NA","187157","3068","NA","193773","193874","194386","193771","193874","Flanker Task","71","37621","73","yes","1024"
"97.29729729729729","97.29729729729729","514","514","black","legacy","legacy","legacy","0","congruent","uniform","1","undefined","1","s","0","0","0","0","73","0","0","0","73","0","73","73","73","73","73","73","Sun Sep 19 12:11:53 2021","1500","The main experiment item","yes","FlankerTask.osexp","C:/Users/warne/OneDrive/Documents/Tarleton - MS Applied Psychology/Adv Quantitative Methods and Experimental Design/Labs","no","mono","no","18","no","white","no","yes","768","legacy","73","73","C:/Users/warne/OneDrive/Documents/Tarleton - MS Applied Psychology/Adv Quantitative Methods and Experimental Design/Labs/AV-subject-0.csv","legacy","Lentiform Loewenfeld","3.3.9","0","s","NA","h","NA","NA","s","415","NA","68217","NA","NA","415","2","legacy","1024","2","48000","-16","experiment","SSSSS","0","even","71297","NA","NA","NA","194391","3079","NA","NA","187157","3068","NA","195460","195561","195977","195457","195561","Flanker Task","72","38036","74","yes","1024"
"97.33333333333333","97.33333333333333","513.5866666666667","513.5866666666667","black","legacy","legacy","legacy","0","incongruent","uniform","1","undefined","1","s","0","0","0","0","74","0","0","0","74","0","74","74","74","74","74","74","Sun Sep 19 12:11:53 2021","1500","The main experiment item","yes","FlankerTask.osexp","C:/Users/warne/OneDrive/Documents/Tarleton - MS Applied Psychology/Adv Quantitative Methods and Experimental Design/Labs","no","mono","no","18","no","white","no","yes","768","legacy","74","74","C:/Users/warne/OneDrive/Documents/Tarleton - MS Applied Psychology/Adv Quantitative Methods and Experimental Design/Labs/AV-subject-0.csv","legacy","Lentiform Loewenfeld","3.3.9","0","s","NA","h","NA","NA","s","483","NA","68217","NA","NA","483","2","legacy","1024","2","48000","-16","experiment","HHSHH","0","even","71297","NA","NA","NA","195981","3079","NA","NA","187157","3068","NA","197042","197143","197627","197040","197143","Flanker Task","73","38519","75","yes","1024"
"97.36842105263158","97.36842105263158","514.6973684210526","514.6973684210526","black","legacy","legacy","legacy","0","incongruent","uniform","1","undefined","1","h","0","0","0","0","75","0","0","0","75","0","75","75","75","75","75","75","Sun Sep 19 12:11:53 2021","1500","The main experiment item","yes","FlankerTask.osexp","C:/Users/warne/OneDrive/Documents/Tarleton - MS Applied Psychology/Adv Quantitative Methods and Experimental Design/Labs","no","mono","no","18","no","white","no","yes","768","legacy","75","75","C:/Users/warne/OneDrive/Documents/Tarleton - MS Applied Psychology/Adv Quantitative Methods and Experimental Design/Labs/AV-subject-0.csv","legacy","Lentiform Loewenfeld","3.3.9","0","h","NA","h","NA","NA","h","598","NA","68217","NA","NA","598","2","legacy","1024","2","48000","-16","experiment","SSHSS","0","even","71297","NA","NA","NA","197632","3079","NA","NA","187157","3068","NA","198697","198798","199397","198694","198798","Flanker Task","74","39117","76","yes","1024"
"97.40259740259741","97.40259740259741","514.4155844155844","514.4155844155844","black","legacy","legacy","legacy","0","incongruent","uniform","1","undefined","1","h","0","0","0","0","76","0","0","0","76","0","76","76","76","76","76","76","Sun Sep 19 12:11:53 2021","1500","The main experiment item","yes","FlankerTask.osexp","C:/Users/warne/OneDrive/Documents/Tarleton - MS Applied Psychology/Adv Quantitative Methods and Experimental Design/Labs","no","mono","no","18","no","white","no","yes","768","legacy","76","76","C:/Users/warne/OneDrive/Documents/Tarleton - MS Applied Psychology/Adv Quantitative Methods and Experimental Design/Labs/AV-subject-0.csv","legacy","Lentiform Loewenfeld","3.3.9","0","h","NA","h","NA","NA","h","493","NA","68217","NA","NA","493","2","legacy","1024","2","48000","-16","experiment","SSHSS","0","even","71297","NA","NA","NA","199402","3079","NA","NA","187157","3068","NA","200468","200569","201062","200466","200569","Flanker Task","75","39610","77","yes","1024"
"97.43589743589743","97.43589743589743","513.4102564102565","513.4102564102565","black","legacy","legacy","legacy","0","incongruent","uniform","1","undefined","1","s","0","0","0","0","77","0","0","0","77","0","77","77","77","77","77","77","Sun Sep 19 12:11:53 2021","1500","The main experiment item","yes","FlankerTask.osexp","C:/Users/warne/OneDrive/Documents/Tarleton - MS Applied Psychology/Adv Quantitative Methods and Experimental Design/Labs","no","mono","no","18","no","white","no","yes","768","legacy","77","77","C:/Users/warne/OneDrive/Documents/Tarleton - MS Applied Psychology/Adv Quantitative Methods and Experimental Design/Labs/AV-subject-0.csv","legacy","Lentiform Loewenfeld","3.3.9","0","s","NA","h","NA","NA","s","436","NA","68217","NA","NA","436","2","legacy","1024","2","48000","-16","experiment","HHSHH","0","even","71297","NA","NA","NA","201067","3079","NA","NA","187157","3068","NA","202129","202230","202667","202127","202230","Flanker Task","76","40046","78","yes","1024"
"97.46835443037975","97.46835443037975","512.2405063291139","512.2405063291139","black","legacy","legacy","legacy","0","congruent","uniform","1","undefined","1","s","0","0","0","0","78","0","0","0","78","0","78","78","78","78","78","78","Sun Sep 19 12:11:53 2021","1500","The main experiment item","yes","FlankerTask.osexp","C:/Users/warne/OneDrive/Documents/Tarleton - MS Applied Psychology/Adv Quantitative Methods and Experimental Design/Labs","no","mono","no","18","no","white","no","yes","768","legacy","78","78","C:/Users/warne/OneDrive/Documents/Tarleton - MS Applied Psychology/Adv Quantitative Methods and Experimental Design/Labs/AV-subject-0.csv","legacy","Lentiform Loewenfeld","3.3.9","0","s","NA","h","NA","NA","s","421","NA","68217","NA","NA","421","2","legacy","1024","2","48000","-16","experiment","SSSSS","0","even","71297","NA","NA","NA","202673","3079","NA","NA","187157","3068","NA","203735","203836","204257","203733","203836","Flanker Task","77","40467","79","yes","1024"
"97.5","97.5","511.1125","511.1125","black","legacy","legacy","legacy","0","congruent","uniform","1","undefined","1","s","0","0","0","0","79","0","0","0","79","0","79","79","79","79","79","79","Sun Sep 19 12:11:53 2021","1500","The main experiment item","yes","FlankerTask.osexp","C:/Users/warne/OneDrive/Documents/Tarleton - MS Applied Psychology/Adv Quantitative Methods and Experimental Design/Labs","no","mono","no","18","no","white","no","yes","768","legacy","79","79","C:/Users/warne/OneDrive/Documents/Tarleton - MS Applied Psychology/Adv Quantitative Methods and Experimental Design/Labs/AV-subject-0.csv","legacy","Lentiform Loewenfeld","3.3.9","0","s","NA","h","NA","NA","s","422","NA","68217","NA","NA","422","2","legacy","1024","2","48000","-16","experiment","SSSSS","0","even","71297","NA","NA","NA","204261","3079","NA","NA","187157","3068","NA","205324","205425","205848","205321","205425","Flanker Task","78","40889","80","yes","1024"
"97.53086419753086","97.53086419753086","511.7901234567901","511.7901234567901","black","legacy","legacy","legacy","0","congruent","uniform","1","undefined","1","s","0","0","0","0","80","0","0","0","80","0","80","80","80","80","80","80","Sun Sep 19 12:11:53 2021","600","The main experiment item","yes","FlankerTask.osexp","C:/Users/warne/OneDrive/Documents/Tarleton - MS Applied Psychology/Adv Quantitative Methods and Experimental Design/Labs","no","mono","no","18","no","white","no","yes","768","legacy","0","79","C:/Users/warne/OneDrive/Documents/Tarleton - MS Applied Psychology/Adv Quantitative Methods and Experimental Design/Labs/AV-subject-0.csv","legacy","Lentiform Loewenfeld","3.3.9","0","s","NA","h","s","NA","s","566","NA","68217","9361","NA","566","2","legacy","1024","2","48000","-16","experiment","SSSSS","0","even","71297","216233","NA","NA","205853","3079","206872","NA","187157","3068","NA","216282","216383","216949","216281","216383","Flanker Task","79","41455","81","yes","1024"
"97.5609756097561","97.5609756097561","511.8658536585366","511.8658536585366","black","legacy","legacy","legacy","0","congruent","uniform","1","undefined","1","h","0","0","0","0","81","0","0","0","81","0","81","81","81","81","81","81","Sun Sep 19 12:11:53 2021","600","The main experiment item","yes","FlankerTask.osexp","C:/Users/warne/OneDrive/Documents/Tarleton - MS Applied Psychology/Adv Quantitative Methods and Experimental Design/Labs","no","mono","no","18","no","white","no","yes","768","legacy","1","79","C:/Users/warne/OneDrive/Documents/Tarleton - MS Applied Psychology/Adv Quantitative Methods and Experimental Design/Labs/AV-subject-0.csv","legacy","Lentiform Loewenfeld","3.3.9","0","h","NA","h","s","NA","h","518","NA","68217","9361","NA","518","2","legacy","1024","2","48000","-16","experiment","HHHHH","0","even","71297","216233","NA","NA","216954","3079","206872","NA","187157","3068","NA","218025","218126","218645","218023","218126","Flanker Task","80","41973","82","yes","1024"
"96.3855421686747","96.3855421686747","510.2530120481928","510.2530120481928","black","legacy","legacy","legacy","0","incongruent","uniform","0","undefined","0","h","0","0","0","0","82","0","0","0","82","0","82","82","82","82","82","82","Sun Sep 19 12:11:53 2021","600","The main experiment item","yes","FlankerTask.osexp","C:/Users/warne/OneDrive/Documents/Tarleton - MS Applied Psychology/Adv Quantitative Methods and Experimental Design/Labs","no","mono","no","18","no","white","no","yes","768","legacy","2","79","C:/Users/warne/OneDrive/Documents/Tarleton - MS Applied Psychology/Adv Quantitative Methods and Experimental Design/Labs/AV-subject-0.csv","legacy","Lentiform Loewenfeld","3.3.9","0","s","NA","h","s","NA","s","378","NA","68217","9361","NA","378","2","legacy","1024","2","48000","-16","experiment","SSHSS","0","even","71297","216233","NA","NA","218648","3079","206872","NA","187157","3068","NA","219710","219811","220190","219709","219811","Flanker Task","80","42351","83","yes","1024"
"96.42857142857143","96.42857142857143","510.57142857142856","510.57142857142856","black","legacy","legacy","legacy","0","congruent","uniform","1","undefined","1","h","0","0","0","0","83","0","0","0","83","0","83","83","83","83","83","83","Sun Sep 19 12:11:53 2021","600","The main experiment item","yes","FlankerTask.osexp","C:/Users/warne/OneDrive/Documents/Tarleton - MS Applied Psychology/Adv Quantitative Methods and Experimental Design/Labs","no","mono","no","18","no","white","no","yes","768","legacy","3","79","C:/Users/warne/OneDrive/Documents/Tarleton - MS Applied Psychology/Adv Quantitative Methods and Experimental Design/Labs/AV-subject-0.csv","legacy","Lentiform Loewenfeld","3.3.9","0","h","NA","h","s","NA","h","537","NA","68217","9361","NA","537","2","legacy","1024","2","48000","-16","experiment","HHHHH","0","even","71297","216233","NA","NA","220696","3079","206872","NA","220195","3068","NA","221759","221860","222398","221757","221860","Flanker Task","81","42888","84","yes","1024"
"96.47058823529412","96.47058823529412","510.7176470588235","510.7176470588235","black","legacy","legacy","legacy","0","congruent","uniform","1","undefined","1","s","0","0","0","0","84","0","0","0","84","0","84","84","84","84","84","84","Sun Sep 19 12:11:53 2021","600","The main experiment item","yes","FlankerTask.osexp","C:/Users/warne/OneDrive/Documents/Tarleton - MS Applied Psychology/Adv Quantitative Methods and Experimental Design/Labs","no","mono","no","18","no","white","no","yes","768","legacy","4","79","C:/Users/warne/OneDrive/Documents/Tarleton - MS Applied Psychology/Adv Quantitative Methods and Experimental Design/Labs/AV-subject-0.csv","legacy","Lentiform Loewenfeld","3.3.9","0","s","NA","h","s","NA","s","523","NA","68217","9361","NA","523","2","legacy","1024","2","48000","-16","experiment","SSSSS","0","even","71297","216233","NA","NA","222403","3079","206872","NA","220195","3068","NA","223465","223566","224090","223464","223566","Flanker Task","82","43411","85","yes","1024"
"96.51162790697674","96.51162790697674","510.22093023255815","510.22093023255815","black","legacy","legacy","legacy","0","congruent","uniform","1","undefined","1","h","0","0","0","0","85","0","0","0","85","0","85","85","85","85","85","85","Sun Sep 19 12:11:53 2021","600","The main experiment item","yes","FlankerTask.osexp","C:/Users/warne/OneDrive/Documents/Tarleton - MS Applied Psychology/Adv Quantitative Methods and Experimental Design/Labs","no","mono","no","18","no","white","no","yes","768","legacy","5","79","C:/Users/warne/OneDrive/Documents/Tarleton - MS Applied Psychology/Adv Quantitative Methods and Experimental Design/Labs/AV-subject-0.csv","legacy","Lentiform Loewenfeld","3.3.9","0","h","NA","h","s","NA","h","468","NA","68217","9361","NA","468","2","legacy","1024","2","48000","-16","experiment","HHHHH","0","even","71297","216233","NA","NA","224094","3079","206872","NA","220195","3068","NA","225156","225257","225725","225154","225257","Flanker Task","83","43879","86","yes","1024"
"96.55172413793103","96.55172413793103","509.7241379310345","509.7241379310345","black","legacy","legacy","legacy","0","congruent","uniform","1","undefined","1","h","0","0","0","0","86","0","0","0","86","0","86","86","86","86","86","86","Sun Sep 19 12:11:53 2021","600","The main experiment item","yes","FlankerTask.osexp","C:/Users/warne/OneDrive/Documents/Tarleton - MS Applied Psychology/Adv Quantitative Methods and Experimental Design/Labs","no","mono","no","18","no","white","no","yes","768","legacy","6","79","C:/Users/warne/OneDrive/Documents/Tarleton - MS Applied Psychology/Adv Quantitative Methods and Experimental Design/Labs/AV-subject-0.csv","legacy","Lentiform Loewenfeld","3.3.9","0","h","NA","h","s","NA","h","467","NA","68217","9361","NA","467","2","legacy","1024","2","48000","-16","experiment","HHHHH","0","even","71297","216233","NA","NA","225730","3079","206872","NA","220195","3068","NA","226792","226893","227361","226790","226893","Flanker Task","84","44346","87","yes","1024"
"96.5909090909091","96.5909090909091","510.04545454545456","510.04545454545456","black","legacy","legacy","legacy","0","incongruent","uniform","1","undefined","1","s","0","0","0","0","87","0","0","0","87","0","87","87","87","87","87","87","Sun Sep 19 12:11:53 2021","600","The main experiment item","yes","FlankerTask.osexp","C:/Users/warne/OneDrive/Documents/Tarleton - MS Applied Psychology/Adv Quantitative Methods and Experimental Design/Labs","no","mono","no","18","no","white","no","yes","768","legacy","7","79","C:/Users/warne/OneDrive/Documents/Tarleton - MS Applied Psychology/Adv Quantitative Methods and Experimental Design/Labs/AV-subject-0.csv","legacy","Lentiform Loewenfeld","3.3.9","0","s","NA","h","s","NA","s","538","NA","68217","9361","NA","538","2","legacy","1024","2","48000","-16","experiment","HHSHH","0","even","71297","216233","NA","NA","227366","3079","206872","NA","220195","3068","NA","228431","228532","229071","228429","228532","Flanker Task","85","44884","88","yes","1024"
"96.62921348314607","96.62921348314607","510.3820224719101","510.3820224719101","black","legacy","legacy","legacy","0","incongruent","uniform","1","undefined","1","s","0","0","0","0","88","0","0","0","88","0","88","88","88","88","88","88","Sun Sep 19 12:11:53 2021","600","The main experiment item","yes","FlankerTask.osexp","C:/Users/warne/OneDrive/Documents/Tarleton - MS Applied Psychology/Adv Quantitative Methods and Experimental Design/Labs","no","mono","no","18","no","white","no","yes","768","legacy","8","79","C:/Users/warne/OneDrive/Documents/Tarleton - MS Applied Psychology/Adv Quantitative Methods and Experimental Design/Labs/AV-subject-0.csv","legacy","Lentiform Loewenfeld","3.3.9","0","s","NA","h","s","NA","s","540","NA","68217","9361","NA","540","2","legacy","1024","2","48000","-16","experiment","HHSHH","0","even","71297","216233","NA","NA","229076","3079","206872","NA","220195","3068","NA","230140","230241","230782","230137","230241","Flanker Task","86","45424","89","yes","1024"
"96.66666666666667","96.66666666666667","510.73333333333335","510.73333333333335","black","legacy","legacy","legacy","0","incongruent","uniform","1","undefined","1","h","0","0","0","0","89","0","0","0","89","0","89","89","89","89","89","89","Sun Sep 19 12:11:53 2021","600","The main experiment item","yes","FlankerTask.osexp","C:/Users/warne/OneDrive/Documents/Tarleton - MS Applied Psychology/Adv Quantitative Methods and Experimental Design/Labs","no","mono","no","18","no","white","no","yes","768","legacy","9","79","C:/Users/warne/OneDrive/Documents/Tarleton - MS Applied Psychology/Adv Quantitative Methods and Experimental Design/Labs/AV-subject-0.csv","legacy","Lentiform Loewenfeld","3.3.9","0","h","NA","h","s","NA","h","542","NA","68217","9361","NA","542","2","legacy","1024","2","48000","-16","experiment","SSHSS","0","even","71297","216233","NA","NA","230785","3079","206872","NA","220195","3068","NA","231848","231949","232492","231846","231949","Flanker Task","87","45966","90","yes","1024"
"96.7032967032967","96.7032967032967","512.2197802197802","512.2197802197802","black","legacy","legacy","legacy","0","incongruent","uniform","1","undefined","1","s","0","0","0","0","90","0","0","0","90","0","90","90","90","90","90","90","Sun Sep 19 12:11:53 2021","600","The main experiment item","yes","FlankerTask.osexp","C:/Users/warne/OneDrive/Documents/Tarleton - MS Applied Psychology/Adv Quantitative Methods and Experimental Design/Labs","no","mono","no","18","no","white","no","yes","768","legacy","10","79","C:/Users/warne/OneDrive/Documents/Tarleton - MS Applied Psychology/Adv Quantitative Methods and Experimental Design/Labs/AV-subject-0.csv","legacy","Lentiform Loewenfeld","3.3.9","0","s","NA","h","s","NA","s","646","NA","68217","9361","NA","646","2","legacy","1024","2","48000","-16","experiment","HHSHH","0","even","71297","216233","NA","NA","232497","3079","206872","NA","220195","3068","NA","233559","233660","234307","233557","233660","Flanker Task","88","46612","91","yes","1024"
"96.73913043478261","96.73913043478261","512.0108695652174","512.0108695652174","black","legacy","legacy","legacy","0","congruent","uniform","1","undefined","1","h","0","0","0","0","91","0","0","0","91","0","91","91","91","91","91","91","Sun Sep 19 12:11:53 2021","600","The main experiment item","yes","FlankerTask.osexp","C:/Users/warne/OneDrive/Documents/Tarleton - MS Applied Psychology/Adv Quantitative Methods and Experimental Design/Labs","no","mono","no","18","no","white","no","yes","768","legacy","11","79","C:/Users/warne/OneDrive/Documents/Tarleton - MS Applied Psychology/Adv Quantitative Methods and Experimental Design/Labs/AV-subject-0.csv","legacy","Lentiform Loewenfeld","3.3.9","0","h","NA","h","s","NA","h","493","NA","68217","9361","NA","493","2","legacy","1024","2","48000","-16","experiment","HHHHH","0","even","71297","216233","NA","NA","234811","3079","206872","NA","220195","3068","234310","235871","235973","236467","235869","235973","Flanker Task","89","47105","92","yes","1024"
"96.7741935483871","96.7741935483871","511.4516129032258","511.4516129032258","black","legacy","legacy","legacy","0","congruent","uniform","1","undefined","1","s","0","0","0","0","92","0","0","0","92","0","92","92","92","92","92","92","Sun Sep 19 12:11:53 2021","600","The main experiment item","yes","FlankerTask.osexp","C:/Users/warne/OneDrive/Documents/Tarleton - MS Applied Psychology/Adv Quantitative Methods and Experimental Design/Labs","no","mono","no","18","no","white","no","yes","768","legacy","12","79","C:/Users/warne/OneDrive/Documents/Tarleton - MS Applied Psychology/Adv Quantitative Methods and Experimental Design/Labs/AV-subject-0.csv","legacy","Lentiform Loewenfeld","3.3.9","0","s","NA","h","s","NA","s","460","NA","68217","9361","NA","460","2","legacy","1024","2","48000","-16","experiment","SSSSS","0","even","71297","216233","NA","NA","236473","3079","206872","NA","220195","3068","234310","237541","237642","238103","237538","237642","Flanker Task","90","47565","93","yes","1024"
"96.80851063829788","96.80851063829788","511.28723404255317","511.28723404255317","black","legacy","legacy","legacy","0","incongruent","uniform","1","undefined","1","s","0","0","0","0","93","0","0","0","93","0","93","93","93","93","93","93","Sun Sep 19 12:11:53 2021","600","The main experiment item","yes","FlankerTask.osexp","C:/Users/warne/OneDrive/Documents/Tarleton - MS Applied Psychology/Adv Quantitative Methods and Experimental Design/Labs","no","mono","no","18","no","white","no","yes","768","legacy","13","79","C:/Users/warne/OneDrive/Documents/Tarleton - MS Applied Psychology/Adv Quantitative Methods and Experimental Design/Labs/AV-subject-0.csv","legacy","Lentiform Loewenfeld","3.3.9","0","s","NA","h","s","NA","s","496","NA","68217","9361","NA","496","2","legacy","1024","2","48000","-16","experiment","HHSHH","0","even","71297","216233","NA","NA","238108","3079","206872","NA","220195","3068","234310","239170","239271","239768","239168","239271","Flanker Task","91","48061","94","yes","1024"
"96.84210526315789","96.84210526315789","511.0842105263158","511.0842105263158","black","legacy","legacy","legacy","0","congruent","uniform","1","undefined","1","s","0","0","0","0","94","0","0","0","94","0","94","94","94","94","94","94","Sun Sep 19 12:11:53 2021","600","The main experiment item","yes","FlankerTask.osexp","C:/Users/warne/OneDrive/Documents/Tarleton - MS Applied Psychology/Adv Quantitative Methods and Experimental Design/Labs","no","mono","no","18","no","white","no","yes","768","legacy","14","79","C:/Users/warne/OneDrive/Documents/Tarleton - MS Applied Psychology/Adv Quantitative Methods and Experimental Design/Labs/AV-subject-0.csv","legacy","Lentiform Loewenfeld","3.3.9","0","s","NA","h","s","NA","s","492","NA","68217","9361","NA","492","2","legacy","1024","2","48000","-16","experiment","SSSSS","0","even","71297","216233","NA","NA","239773","3079","206872","NA","220195","3068","234310","240839","240940","241433","240837","240940","Flanker Task","92","48553","95","yes","1024"
"96.875","96.875","510.4270833333333","510.4270833333333","black","legacy","legacy","legacy","0","congruent","uniform","1","undefined","1","h","0","0","0","0","95","0","0","0","95","0","95","95","95","95","95","95","Sun Sep 19 12:11:53 2021","600","The main experiment item","yes","FlankerTask.osexp","C:/Users/warne/OneDrive/Documents/Tarleton - MS Applied Psychology/Adv Quantitative Methods and Experimental Design/Labs","no","mono","no","18","no","white","no","yes","768","legacy","15","79","C:/Users/warne/OneDrive/Documents/Tarleton - MS Applied Psychology/Adv Quantitative Methods and Experimental Design/Labs/AV-subject-0.csv","legacy","Lentiform Loewenfeld","3.3.9","0","h","NA","h","s","NA","h","448","NA","68217","9361","NA","448","2","legacy","1024","2","48000","-16","experiment","HHHHH","0","even","71297","216233","NA","NA","241438","3079","206872","NA","220195","3068","234310","242503","242604","243053","242500","242604","Flanker Task","93","49001","96","yes","1024"
"96.90721649484536","96.90721649484536","509.82474226804123","509.82474226804123","black","legacy","legacy","legacy","0","congruent","uniform","1","undefined","1","h","0","0","0","0","96","0","0","0","96","0","96","96","96","96","96","96","Sun Sep 19 12:11:53 2021","600","The main experiment item","yes","FlankerTask.osexp","C:/Users/warne/OneDrive/Documents/Tarleton - MS Applied Psychology/Adv Quantitative Methods and Experimental Design/Labs","no","mono","no","18","no","white","no","yes","768","legacy","16","79","C:/Users/warne/OneDrive/Documents/Tarleton - MS Applied Psychology/Adv Quantitative Methods and Experimental Design/Labs/AV-subject-0.csv","legacy","Lentiform Loewenfeld","3.3.9","0","h","NA","h","s","NA","h","452","NA","68217","9361","NA","452","2","legacy","1024","2","48000","-16","experiment","HHHHH","0","even","71297","216233","NA","NA","243056","3079","206872","NA","220195","3068","234310","244119","244220","244673","244117","244220","Flanker Task","94","49453","97","yes","1024"
"96.93877551020408","96.93877551020408","509.83673469387753","509.83673469387753","black","legacy","legacy","legacy","0","congruent","uniform","1","undefined","1","h","0","0","0","0","97","0","0","0","97","0","97","97","97","97","97","97","Sun Sep 19 12:11:53 2021","600","The main experiment item","yes","FlankerTask.osexp","C:/Users/warne/OneDrive/Documents/Tarleton - MS Applied Psychology/Adv Quantitative Methods and Experimental Design/Labs","no","mono","no","18","no","white","no","yes","768","legacy","17","79","C:/Users/warne/OneDrive/Documents/Tarleton - MS Applied Psychology/Adv Quantitative Methods and Experimental Design/Labs/AV-subject-0.csv","legacy","Lentiform Loewenfeld","3.3.9","0","h","NA","h","s","NA","h","511","NA","68217","9361","NA","511","2","legacy","1024","2","48000","-16","experiment","HHHHH","0","even","71297","216233","NA","NA","244678","3079","206872","NA","220195","3068","234310","245741","245842","246354","245739","245842","Flanker Task","95","49964","98","yes","1024"
"96.96969696969697","96.96969696969697","510.7676767676768","510.7676767676768","black","legacy","legacy","legacy","0","incongruent","uniform","1","undefined","1","h","0","0","0","0","98","0","0","0","98","0","98","98","98","98","98","98","Sun Sep 19 12:11:53 2021","600","The main experiment item","yes","FlankerTask.osexp","C:/Users/warne/OneDrive/Documents/Tarleton - MS Applied Psychology/Adv Quantitative Methods and Experimental Design/Labs","no","mono","no","18","no","white","no","yes","768","legacy","18","79","C:/Users/warne/OneDrive/Documents/Tarleton - MS Applied Psychology/Adv Quantitative Methods and Experimental Design/Labs/AV-subject-0.csv","legacy","Lentiform Loewenfeld","3.3.9","0","h","NA","h","s","NA","h","602","NA","68217","9361","NA","602","2","legacy","1024","2","48000","-16","experiment","SSHSS","0","even","71297","216233","NA","NA","246359","3079","206872","NA","220195","3068","234310","247420","247521","248125","247418","247521","Flanker Task","96","50566","99","yes","1024"
"97","97","510.38","510.38","black","legacy","legacy","legacy","0","congruent","uniform","1","undefined","1","s","0","0","0","0","99","0","0","0","99","0","99","99","99","99","99","99","Sun Sep 19 12:11:53 2021","600","The main experiment item","yes","FlankerTask.osexp","C:/Users/warne/OneDrive/Documents/Tarleton - MS Applied Psychology/Adv Quantitative Methods and Experimental Design/Labs","no","mono","no","18","no","white","no","yes","768","legacy","19","79","C:/Users/warne/OneDrive/Documents/Tarleton - MS Applied Psychology/Adv Quantitative Methods and Experimental Design/Labs/AV-subject-0.csv","legacy","Lentiform Loewenfeld","3.3.9","0","s","NA","h","s","NA","s","472","NA","68217","9361","NA","472","2","legacy","1024","2","48000","-16","experiment","SSSSS","0","even","71297","216233","NA","NA","248631","3079","206872","NA","220195","3068","248130","249695","249796","250269","249693","249796","Flanker Task","97","51038","100","yes","1024"
