"acc","accuracy","average_response_time","avg_rt","background","canvas_backend","clock_backend","color_backend","compensation","condition","coordinates","correct","correct_instructions1","correct_keyboard_response","correct_response","count_ISI","count_block1","count_block2","count_block3","count_errorFeedback","count_experiment","count_faster","count_finish","count_fixation","count_instructions1","count_instructions2","count_instructions3","count_keyboard_response","count_logger","count_sequence","count_stimulus","datetime","deadline","description","disable_garbage_collection","experiment_file","experiment_path","font_bold","font_family","font_italic","font_size","font_underline","foreground","form_clicks","fullscreen","height","keyboard_backend","live_row","live_row_block1","logfile","mouse_backend","opensesame_codename","opensesame_version","repeat_cycle","response","response_finish","response_instructions1","response_instructions2","response_instructions3","response_keyboard_response","response_time","response_time_finish","response_time_instructions1","response_time_instructions2","response_time_instructions3","response_time_keyboard_response","round_decimals","sampler_backend","sound_buf_size","sound_channels","sound_freq","sound_sample_size","start","stimulus","subject_nr","subject_parity","time_ISI","time_block1","time_block2","time_block3","time_errorFeedback","time_experiment","time_faster","time_finish","time_fixation","time_instructions1","time_instructions2","time_instructions3","time_keyboard_response","time_logger","time_sequence","time_stimulus","title","total_correct","total_response_time","total_responses","uniform_coordinates","width"
"100","100","416.4980999994441","416.4980999994441","black","psycho","psycho","psycho","0","congruent","uniform","1","undefined","1","h","0","0","0","0","0","0","0","0","0","0","0","0","0","0","0","0","Sat Sep 26 17:09:46 2020","1500","The main experiment item","yes","CS-FlankerTask2.1.osexp","C:/Users/Colton/OneDrive/Desktop","no","mono","no","18","no","white","no","yes","768","psycho","0","0","C:/Users/Colton/OneDrive/Desktop/CS-subject-4.csv","psycho","Lentiform Loewenfeld","3.3.3","0","h","NA","h","NA","NA","h","416.4980999994441","NA","19204.27429999836","NA","NA","416.4980999994441","2","psycho","1024","2","48000","-16","experiment","HHHHH","4","even","NA","67465.90669999932","NA","NA","NA","48225.93480000069","NA","NA","67691.86679999984","48256.96830000015","NA","NA","67800.93449999913","68220.00079999998","67678.78349999955","67800.49639999925","Flanker Task 2.1","1","416.4980999994441","1","yes","1024"
"100","100","375.46075000136625","375.46075000136625","black","psycho","psycho","psycho","0","congruent","uniform","1","undefined","1","s","1","0","0","0","1","0","1","0","1","0","0","0","1","1","1","1","Sat Sep 26 17:09:46 2020","1500","The main experiment item","yes","CS-FlankerTask2.1.osexp","C:/Users/Colton/OneDrive/Desktop","no","mono","no","18","no","white","no","yes","768","psycho","1","1","C:/Users/Colton/OneDrive/Desktop/CS-subject-4.csv","psycho","Lentiform Loewenfeld","3.3.3","0","s","NA","h","NA","NA","s","334.4234000032884","NA","19204.27429999836","NA","NA","334.4234000032884","2","psycho","1024","2","48000","-16","experiment","SSSSS","4","even","68303.19859999872","67465.90669999932","NA","NA","NA","48225.93480000069","NA","NA","69600.24870000052","48256.96830000015","NA","NA","69709.69169999807","70047.40110000057","69590.65610000107","69709.21219999946","Flanker Task 2.1","2","750.9215000027325","2","yes","1024"
"66.66666666666667","66.66666666666667","367.47540000093676","367.47540000093676","black","psycho","psycho","psycho","0","incongruent","uniform","0","undefined","0","s","2","0","0","0","2","0","2","0","2","0","0","0","2","2","2","2","Sat Sep 26 17:09:46 2020","1500","The main experiment item","yes","CS-FlankerTask2.1.osexp","C:/Users/Colton/OneDrive/Desktop","no","mono","no","18","no","white","no","yes","768","psycho","2","2","C:/Users/Colton/OneDrive/Desktop/CS-subject-4.csv","psycho","Lentiform Loewenfeld","3.3.3","0","h","NA","h","NA","NA","h","351.5047000000777","NA","19204.27429999836","NA","NA","351.5047000000777","2","psycho","1024","2","48000","-16","experiment","HHSHH","4","even","70114.92169999838","67465.90669999932","NA","NA","NA","48225.93480000069","NA","NA","71447.6610999991","48256.96830000015","NA","NA","71558.54700000054","71912.5552000005","71434.43589999879","71558.02680000124","Flanker Task 2.1","2","1102.4262000028102","3","yes","1024"
"75","75","366.41825000060635","366.41825000060635","black","psycho","psycho","psycho","0","incongruent","uniform","1","undefined","1","s","3","0","0","0","3","0","3","0","3","0","0","0","3","3","3","3","Sat Sep 26 17:09:46 2020","1500","The main experiment item","yes","CS-FlankerTask2.1.osexp","C:/Users/Colton/OneDrive/Desktop","no","mono","no","18","no","white","no","yes","768","psycho","3","3","C:/Users/Colton/OneDrive/Desktop/CS-subject-4.csv","psycho","Lentiform Loewenfeld","3.3.3","0","s","NA","h","NA","NA","s","363.2467999996152","NA","19204.27429999836","NA","NA","363.2467999996152","2","psycho","1024","2","48000","-16","experiment","HHSHH","4","even","72504.168200001","67465.90669999932","NA","NA","71983.5364999999","48225.93480000069","NA","NA","73815.20910000108","48256.96830000015","NA","NA","73923.81530000057","74289.64989999804","73805.66320000071","73923.32769999848","Flanker Task 2.1","3","1465.6730000024254","4","yes","1024"
"80","80","345.7646599999862","345.7646599999862","black","psycho","psycho","psycho","0","congruent","uniform","1","undefined","1","s","4","0","0","0","4","0","4","0","4","0","0","0","4","4","4","4","Sat Sep 26 17:09:46 2020","1500","The main experiment item","yes","CS-FlankerTask2.1.osexp","C:/Users/Colton/OneDrive/Desktop","no","mono","no","18","no","white","no","yes","768","psycho","4","4","C:/Users/Colton/OneDrive/Desktop/CS-subject-4.csv","psycho","Lentiform Loewenfeld","3.3.3","0","s","NA","h","NA","NA","s","263.1502999975055","NA","19204.27429999836","NA","NA","263.1502999975055","2","psycho","1024","2","48000","-16","experiment","SSSSS","4","even","74360.33809999935","67465.90669999932","NA","NA","71983.5364999999","48225.93480000069","NA","NA","75658.90840000066","48256.96830000015","NA","NA","75767.21270000053","76033.0337000014","75649.62960000048","75766.6481999986","Flanker Task 2.1","4","1728.823299999931","5","yes","1024"
"83.33333333333333","83.33333333333333","366.22758333336","366.22758333336","black","psycho","psycho","psycho","0","incongruent","uniform","1","undefined","1","h","5","0","0","0","5","0","5","0","5","0","0","0","5","5","5","5","Sat Sep 26 17:09:46 2020","1500","The main experiment item","yes","CS-FlankerTask2.1.osexp","C:/Users/Colton/OneDrive/Desktop","no","mono","no","18","no","white","no","yes","768","psycho","5","5","C:/Users/Colton/OneDrive/Desktop/CS-subject-4.csv","psycho","Lentiform Loewenfeld","3.3.3","0","h","NA","h","NA","NA","h","468.54220000022906","NA","19204.27429999836","NA","NA","468.54220000022906","2","psycho","1024","2","48000","-16","experiment","SSHSS","4","even","76103.2481000002","67465.90669999932","NA","NA","71983.5364999999","48225.93480000069","NA","NA","77400.30359999946","48256.96830000015","NA","NA","77508.3682000004","77979.53039999993","77390.99540000097","77507.90849999976","Flanker Task 2.1","5","2197.36550000016","6","yes","1024"
"71.42857142857143","71.42857142857143","352.22321428591385","352.22321428591385","black","psycho","psycho","psycho","0","congruent","uniform","0","undefined","0","h","6","0","0","0","6","0","6","0","6","0","0","0","6","6","6","6","Sat Sep 26 17:09:46 2020","1500","The main experiment item","yes","CS-FlankerTask2.1.osexp","C:/Users/Colton/OneDrive/Desktop","no","mono","no","18","no","white","no","yes","768","psycho","6","6","C:/Users/Colton/OneDrive/Desktop/CS-subject-4.csv","psycho","Lentiform Loewenfeld","3.3.3","0","s","NA","h","NA","NA","s","268.19700000123703","NA","19204.27429999836","NA","NA","268.19700000123703","2","psycho","1024","2","48000","-16","experiment","HHHHH","4","even","78048.54139999952","67465.90669999932","NA","NA","71983.5364999999","48225.93480000069","NA","NA","79350.24599999815","48256.96830000015","NA","NA","79459.7161999991","79730.52050000115","79341.70009999798","79459.15550000063","Flanker Task 2.1","5","2465.562500001397","7","yes","1024"
"75","75","366.5084875001412","366.5084875001412","black","psycho","psycho","psycho","0","incongruent","uniform","1","undefined","1","s","7","0","0","0","7","0","7","0","7","0","0","0","7","7","7","7","Sat Sep 26 17:09:46 2020","1500","The main experiment item","yes","CS-FlankerTask2.1.osexp","C:/Users/Colton/OneDrive/Desktop","no","mono","no","18","no","white","no","yes","768","psycho","7","7","C:/Users/Colton/OneDrive/Desktop/CS-subject-4.csv","psycho","Lentiform Loewenfeld","3.3.3","0","s","NA","h","NA","NA","s","466.5053999997326","NA","19204.27429999836","NA","NA","466.5053999997326","2","psycho","1024","2","48000","-16","experiment","HHSHH","4","even","80307.23379999836","67465.90669999932","NA","NA","79794.94189999969","48225.93480000069","NA","NA","81622.58500000098","48256.96830000015","NA","NA","81731.2380000003","82200.31999999992","81613.29019999903","81730.73039999872","Flanker Task 2.1","6","2932.0679000011296","8","yes","1024"
"77.77777777777777","77.77777777777777","361.66280000017855","361.66280000017855","black","psycho","psycho","psycho","0","congruent","uniform","1","undefined","1","s","8","0","0","0","8","0","8","0","8","0","0","0","8","8","8","8","Sat Sep 26 17:09:46 2020","1500","The main experiment item","yes","CS-FlankerTask2.1.osexp","C:/Users/Colton/OneDrive/Desktop","no","mono","no","18","no","white","no","yes","768","psycho","8","8","C:/Users/Colton/OneDrive/Desktop/CS-subject-4.csv","psycho","Lentiform Loewenfeld","3.3.3","0","s","NA","h","NA","NA","s","322.8973000004771","NA","19204.27429999836","NA","NA","322.8973000004771","2","psycho","1024","2","48000","-16","experiment","SSSSS","4","even","82298.50029999943","67465.90669999932","NA","NA","79794.94189999969","48225.93480000069","NA","NA","83610.83449999933","48256.96830000015","NA","NA","83719.5944999985","84045.39089999889","83601.85199999978","83719.12990000055","Flanker Task 2.1","7","3254.9652000016067","9","yes","1024"
"70","70","357.3247000003903","357.3247000003903","black","psycho","psycho","psycho","0","incongruent","uniform","0","undefined","0","h","9","0","0","0","9","0","9","0","9","0","0","0","9","9","9","9","Sat Sep 26 17:09:46 2020","1500","The main experiment item","yes","CS-FlankerTask2.1.osexp","C:/Users/Colton/OneDrive/Desktop","no","mono","no","18","no","white","no","yes","768","psycho","9","9","C:/Users/Colton/OneDrive/Desktop/CS-subject-4.csv","psycho","Lentiform Loewenfeld","3.3.3","0","s","NA","h","NA","NA","s","318.2818000022962","NA","19204.27429999836","NA","NA","318.2818000022962","2","psycho","1024","2","48000","-16","experiment","SSHSS","4","even","84081.62019999872","67465.90669999932","NA","NA","79794.94189999969","48225.93480000069","NA","NA","85388.33589999922","48256.96830000015","NA","NA","85496.63589999909","85817.77130000046","85379.14589999855","85496.1727000009","Flanker Task 2.1","7","3573.247000003903","10","yes","1024"
"72.72727272727273","72.72727272727273","357.6129000003593","357.6129000003593","black","psycho","psycho","psycho","0","incongruent","uniform","1","undefined","1","s","10","0","0","0","10","0","10","0","10","0","0","0","10","10","10","10","Sat Sep 26 17:09:46 2020","1500","The main experiment item","yes","CS-FlankerTask2.1.osexp","C:/Users/Colton/OneDrive/Desktop","no","mono","no","18","no","white","no","yes","768","psycho","10","10","C:/Users/Colton/OneDrive/Desktop/CS-subject-4.csv","psycho","Lentiform Loewenfeld","3.3.3","0","s","NA","h","NA","NA","s","360.4949000000488","NA","19204.27429999836","NA","NA","360.4949000000488","2","psycho","1024","2","48000","-16","experiment","HHSHH","4","even","86378.4358999983","67465.90669999932","NA","NA","85859.39959999814","48225.93480000069","NA","NA","87694.40119999854","48256.96830000015","NA","NA","87802.50800000067","88165.95170000073","87684.12470000112","87802.06759999783","Flanker Task 2.1","8","3933.7419000039517","11","yes","1024"
"75","75","363.90589166694554","363.90589166694554","black","psycho","psycho","psycho","0","incongruent","uniform","1","undefined","1","h","11","0","0","0","11","0","11","0","11","0","0","0","11","11","11","11","Sat Sep 26 17:09:46 2020","1500","The main experiment item","yes","CS-FlankerTask2.1.osexp","C:/Users/Colton/OneDrive/Desktop","no","mono","no","18","no","white","no","yes","768","psycho","11","11","C:/Users/Colton/OneDrive/Desktop/CS-subject-4.csv","psycho","Lentiform Loewenfeld","3.3.3","0","h","NA","h","NA","NA","h","433.1287999993947","NA","19204.27429999836","NA","NA","433.1287999993947","2","psycho","1024","2","48000","-16","experiment","SSHSS","4","even","88238.45639999854","67465.90669999932","NA","NA","85859.39959999814","48225.93480000069","NA","NA","89553.77849999786","48256.96830000015","NA","NA","89661.69960000116","90097.86710000117","89543.46219999934","89661.2325999995","Flanker Task 2.1","9","4366.870700003346","12","yes","1024"
"76.92307692307692","76.92307692307692","372.84227692334053","372.84227692334053","black","psycho","psycho","psycho","0","incongruent","uniform","1","undefined","1","h","12","0","0","0","12","0","12","0","12","0","0","0","12","12","12","12","Sat Sep 26 17:09:46 2020","1500","The main experiment item","yes","CS-FlankerTask2.1.osexp","C:/Users/Colton/OneDrive/Desktop","no","mono","no","18","no","white","no","yes","768","psycho","12","12","C:/Users/Colton/OneDrive/Desktop/CS-subject-4.csv","psycho","Lentiform Loewenfeld","3.3.3","0","h","NA","h","NA","NA","h","480.07890000008047","NA","19204.27429999836","NA","NA","480.07890000008047","2","psycho","1024","2","48000","-16","experiment","SSHSS","4","even","90137.10069999797","67465.90669999932","NA","NA","85859.39959999814","48225.93480000069","NA","NA","91438.32079999993","48256.96830000015","NA","NA","91546.56999999861","92029.34069999901","91428.72039999929","91546.15320000084","Flanker Task 2.1","10","4846.949600003427","13","yes","1024"
"78.57142857142857","78.57142857142857","379.0169285717379","379.0169285717379","black","psycho","psycho","psycho","0","incongruent","uniform","1","undefined","1","h","13","0","0","0","13","0","13","0","13","0","0","0","13","13","13","13","Sat Sep 26 17:09:46 2020","1500","The main experiment item","yes","CS-FlankerTask2.1.osexp","C:/Users/Colton/OneDrive/Desktop","no","mono","no","18","no","white","no","yes","768","psycho","13","13","C:/Users/Colton/OneDrive/Desktop/CS-subject-4.csv","psycho","Lentiform Loewenfeld","3.3.3","0","h","NA","h","NA","NA","h","459.2874000009033","NA","19204.27429999836","NA","NA","459.2874000009033","2","psycho","1024","2","48000","-16","experiment","SSHSS","4","even","92094.61200000078","67465.90669999932","NA","NA","85859.39959999814","48225.93480000069","NA","NA","93398.32269999897","48256.96830000015","NA","NA","93506.30819999787","93968.88760000002","93389.35109999875","93505.82410000061","Flanker Task 2.1","11","5306.23700000433","14","yes","1024"
"80","80","375.7700466667302","375.7700466667302","black","psycho","psycho","psycho","0","congruent","uniform","1","undefined","1","s","14","0","0","0","14","0","14","0","14","0","0","0","14","14","14","14","Sat Sep 26 17:09:46 2020","1500","The main experiment item","yes","CS-FlankerTask2.1.osexp","C:/Users/Colton/OneDrive/Desktop","no","mono","no","18","no","white","no","yes","768","psycho","14","14","C:/Users/Colton/OneDrive/Desktop/CS-subject-4.csv","psycho","Lentiform Loewenfeld","3.3.3","0","s","NA","h","NA","NA","s","330.31369999662274","NA","19204.27429999836","NA","NA","330.31369999662274","2","psycho","1024","2","48000","-16","experiment","SSSSS","4","even","94004.08500000049","67465.90669999932","NA","NA","85859.39959999814","48225.93480000069","NA","NA","95297.8226999985","48256.96830000015","NA","NA","95406.66200000123","95740.4921999987","95288.5352000012","95406.11440000066","Flanker Task 2.1","12","5636.550700000953","15","yes","1024"
"81.25","81.25","377.3421812500146","377.3421812500146","black","psycho","psycho","psycho","0","congruent","uniform","1","undefined","1","s","15","0","0","0","15","0","15","0","15","0","0","0","15","15","15","15","Sat Sep 26 17:09:46 2020","1500","The main experiment item","yes","CS-FlankerTask2.1.osexp","C:/Users/Colton/OneDrive/Desktop","no","mono","no","18","no","white","no","yes","768","psycho","15","15","C:/Users/Colton/OneDrive/Desktop/CS-subject-4.csv","psycho","Lentiform Loewenfeld","3.3.3","0","s","NA","h","NA","NA","s","400.924199999281","NA","19204.27429999836","NA","NA","400.924199999281","2","psycho","1024","2","48000","-16","experiment","SSSSS","4","even","95805.15709999963","67465.90669999932","NA","NA","85859.39959999814","48225.93480000069","NA","NA","97113.1118000012","48256.96830000015","NA","NA","97221.36070000124","97625.95890000011","97103.96109999783","97220.89929999856","Flanker Task 2.1","13","6037.474900000234","16","yes","1024"
"82.3529411764706","82.3529411764706","378.3126941176734","378.3126941176734","black","psycho","psycho","psycho","0","congruent","uniform","1","undefined","1","h","16","0","0","0","16","0","16","0","16","0","0","0","16","16","16","16","Sat Sep 26 17:09:46 2020","1500","The main experiment item","yes","CS-FlankerTask2.1.osexp","C:/Users/Colton/OneDrive/Desktop","no","mono","no","18","no","white","no","yes","768","psycho","16","16","C:/Users/Colton/OneDrive/Desktop/CS-subject-4.csv","psycho","Lentiform Loewenfeld","3.3.3","0","h","NA","h","NA","NA","h","393.8409000002139","NA","19204.27429999836","NA","NA","393.8409000002139","2","psycho","1024","2","48000","-16","experiment","HHHHH","4","even","97694.60450000042","67465.90669999932","NA","NA","85859.39959999814","48225.93480000069","NA","NA","99008.93279999946","48256.96830000015","NA","NA","99117.2779999979","99514.72490000015","98999.37299999874","99116.80260000139","Flanker Task 2.1","14","6431.315800000448","17","yes","1024"
"83.33333333333333","83.33333333333333","379.12229999993644","379.12229999993644","black","psycho","psycho","psycho","0","incongruent","uniform","1","undefined","1","s","17","0","0","0","17","0","17","0","17","0","0","0","17","17","17","17","Sat Sep 26 17:09:46 2020","1500","The main experiment item","yes","CS-FlankerTask2.1.osexp","C:/Users/Colton/OneDrive/Desktop","no","mono","no","18","no","white","no","yes","768","psycho","17","17","C:/Users/Colton/OneDrive/Desktop/CS-subject-4.csv","psycho","Lentiform Loewenfeld","3.3.3","0","s","NA","h","NA","NA","s","392.885599998408","NA","19204.27429999836","NA","NA","392.885599998408","2","psycho","1024","2","48000","-16","experiment","HHSHH","4","even","99560.80659999861","67465.90669999932","NA","NA","85859.39959999814","48225.93480000069","NA","NA","100860.38499999995","48256.96830000015","NA","NA","100969.35550000126","101366.1577999992","100851.10899999927","100968.88580000086","Flanker Task 2.1","15","6824.201399998856","18","yes","1024"
"84.21052631578948","84.21052631578948","377.0738000000021","377.0738000000021","black","psycho","psycho","psycho","0","incongruent","uniform","1","undefined","1","s","18","0","0","0","18","0","18","0","18","0","0","0","18","18","18","18","Sat Sep 26 17:09:46 2020","1500","The main experiment item","yes","CS-FlankerTask2.1.osexp","C:/Users/Colton/OneDrive/Desktop","no","mono","no","18","no","white","no","yes","768","psycho","18","18","C:/Users/Colton/OneDrive/Desktop/CS-subject-4.csv","psycho","Lentiform Loewenfeld","3.3.3","0","s","NA","h","NA","NA","s","340.2008000011847","NA","19204.27429999836","NA","NA","340.2008000011847","2","psycho","1024","2","48000","-16","experiment","HHSHH","4","even","101415.75929999817","67465.90669999932","NA","NA","85859.39959999814","48225.93480000069","NA","NA","102722.09179999845","48256.96830000015","NA","NA","102830.5607000002","103173.86559999795","102711.52359999905","102830.04559999972","Flanker Task 2.1","16","7164.4022000000405","19","yes","1024"
"85","85","374.3338300000687","374.3338300000687","black","psycho","psycho","psycho","0","incongruent","uniform","1","undefined","1","s","19","0","0","0","19","0","19","0","19","0","0","0","19","19","19","19","Sat Sep 26 17:09:46 2020","1500","The main experiment item","yes","CS-FlankerTask2.1.osexp","C:/Users/Colton/OneDrive/Desktop","no","mono","no","18","no","white","no","yes","768","psycho","19","19","C:/Users/Colton/OneDrive/Desktop/CS-subject-4.csv","psycho","Lentiform Loewenfeld","3.3.3","0","s","NA","h","NA","NA","s","322.27440000133356","NA","19204.27429999836","NA","NA","322.27440000133356","2","psycho","1024","2","48000","-16","experiment","HHSHH","4","even","103214.88070000123","67465.90669999932","NA","NA","85859.39959999814","48225.93480000069","NA","NA","104514.73799999803","48256.96830000015","NA","NA","104623.68879999849","104948.99929999883","104505.88659999994","104623.25449999844","Flanker Task 2.1","17","7486.676600001374","20","yes","1024"
"85.71428571428571","85.71428571428571","375.213590476224","375.213590476224","black","psycho","psycho","psycho","0","incongruent","uniform","1","undefined","1","h","20","0","0","0","20","0","20","0","20","0","0","0","20","20","20","20","Sat Sep 26 17:09:46 2020","1500","The main experiment item","yes","CS-FlankerTask2.1.osexp","C:/Users/Colton/OneDrive/Desktop","no","mono","no","18","no","white","no","yes","768","psycho","20","20","C:/Users/Colton/OneDrive/Desktop/CS-subject-4.csv","psycho","Lentiform Loewenfeld","3.3.3","0","h","NA","h","NA","NA","h","392.8087999993295","NA","19204.27429999836","NA","NA","392.8087999993295","2","psycho","1024","2","48000","-16","experiment","SSHSS","4","even","104982.31849999866","67465.90669999932","NA","NA","85859.39959999814","48225.93480000069","NA","NA","106287.47980000117","48256.96830000015","NA","NA","106396.29879999848","106792.08749999816","106278.41930000068","106395.85129999978","Flanker Task 2.1","18","7879.4854000007035","21","yes","1024"
"86.36363636363636","86.36363636363636","379.2298681819375","379.2298681819375","black","psycho","psycho","psycho","0","incongruent","uniform","1","undefined","1","s","21","0","0","0","21","0","21","0","21","0","0","0","21","21","21","21","Sat Sep 26 17:09:46 2020","1500","The main experiment item","yes","CS-FlankerTask2.1.osexp","C:/Users/Colton/OneDrive/Desktop","no","mono","no","18","no","white","no","yes","768","psycho","21","21","C:/Users/Colton/OneDrive/Desktop/CS-subject-4.csv","psycho","Lentiform Loewenfeld","3.3.3","0","s","NA","h","NA","NA","s","463.5717000019213","NA","19204.27429999836","NA","NA","463.5717000019213","2","psycho","1024","2","48000","-16","experiment","HHSHH","4","even","106836.47159999964","67465.90669999932","NA","NA","85859.39959999814","48225.93480000069","NA","NA","108146.84259999922","48256.96830000015","NA","NA","108255.62789999822","108722.8901999988","108136.28590000008","108255.06920000043","Flanker Task 2.1","19","8343.057100002625","22","yes","1024"
"86.95652173913044","86.95652173913044","380.3838782609408","380.3838782609408","black","psycho","psycho","psycho","0","incongruent","uniform","1","undefined","1","s","22","0","0","0","22","0","22","0","22","0","0","0","22","22","22","22","Sat Sep 26 17:09:46 2020","1500","The main experiment item","yes","CS-FlankerTask2.1.osexp","C:/Users/Colton/OneDrive/Desktop","no","mono","no","18","no","white","no","yes","768","psycho","22","22","C:/Users/Colton/OneDrive/Desktop/CS-subject-4.csv","psycho","Lentiform Loewenfeld","3.3.3","0","s","NA","h","NA","NA","s","405.7720999990124","NA","19204.27429999836","NA","NA","405.7720999990124","2","psycho","1024","2","48000","-16","experiment","HHSHH","4","even","108794.77010000119","67465.90669999932","NA","NA","85859.39959999814","48225.93480000069","NA","NA","110094.78989999843","48256.96830000015","NA","NA","110203.22920000035","110611.97320000065","110085.38829999816","110202.73779999843","Flanker Task 2.1","20","8748.829200001637","23","yes","1024"
"83.33333333333333","83.33333333333333","375.8170041667957","375.8170041667957","black","psycho","psycho","psycho","0","congruent","uniform","0","undefined","0","h","23","0","0","0","23","0","23","0","23","0","0","0","23","23","23","23","Sat Sep 26 17:09:46 2020","1500","The main experiment item","yes","CS-FlankerTask2.1.osexp","C:/Users/Colton/OneDrive/Desktop","no","mono","no","18","no","white","no","yes","768","psycho","23","23","C:/Users/Colton/OneDrive/Desktop/CS-subject-4.csv","psycho","Lentiform Loewenfeld","3.3.3","0","s","NA","h","NA","NA","s","270.77890000146","NA","19204.27429999836","NA","NA","270.77890000146","2","psycho","1024","2","48000","-16","experiment","HHHHH","4","even","110648.1477999987","67465.90669999932","NA","NA","85859.39959999814","48225.93480000069","NA","NA","111947.56810000035","48256.96830000015","NA","NA","112056.392399998","112330.43769999858","111937.54089999857","112055.82349999895","Flanker Task 2.1","20","9019.608100003097","24","yes","1024"
"84","84","375.9284560001106","375.9284560001106","black","psycho","psycho","psycho","0","congruent","uniform","1","undefined","1","s","24","0","0","0","24","0","24","0","24","0","0","0","24","24","24","24","Sat Sep 26 17:09:46 2020","1500","The main experiment item","yes","CS-FlankerTask2.1.osexp","C:/Users/Colton/OneDrive/Desktop","no","mono","no","18","no","white","no","yes","768","psycho","24","24","C:/Users/Colton/OneDrive/Desktop/CS-subject-4.csv","psycho","Lentiform Loewenfeld","3.3.3","0","s","NA","h","NA","NA","s","378.6032999996678","NA","19204.27429999836","NA","NA","378.6032999996678","2","psycho","1024","2","48000","-16","experiment","SSSSS","4","even","112917.6179999995","67465.90669999932","NA","NA","112393.62729999993","48225.93480000069","NA","NA","114211.65629999814","48256.96830000015","NA","NA","114319.9280000008","114702.13890000014","114202.8919000004","114319.43630000023","Flanker Task 2.1","21","9398.211400002765","25","yes","1024"
"84.61538461538461","84.61538461538461","380.05731153862143","380.05731153862143","black","psycho","psycho","psycho","0","incongruent","uniform","1","undefined","1","s","25","0","0","0","25","0","25","0","25","0","0","0","25","25","25","25","Sat Sep 26 17:09:46 2020","1500","The main experiment item","yes","CS-FlankerTask2.1.osexp","C:/Users/Colton/OneDrive/Desktop","no","mono","no","18","no","white","no","yes","768","psycho","25","25","C:/Users/Colton/OneDrive/Desktop/CS-subject-4.csv","psycho","Lentiform Loewenfeld","3.3.3","0","s","NA","h","NA","NA","s","483.2787000013923","NA","19204.27429999836","NA","NA","483.2787000013923","2","psycho","1024","2","48000","-16","experiment","HHSHH","4","even","114785.86730000097","67465.90669999932","NA","NA","112393.62729999993","48225.93480000069","NA","NA","116080.6253999981","48256.96830000015","NA","NA","116188.91919999805","116675.15319999802","116071.15020000128","116188.47910000113","Flanker Task 2.1","22","9881.490100004157","26","yes","1024"
"85.18518518518519","85.18518518518519","382.28660740760796","382.28660740760796","black","psycho","psycho","psycho","0","incongruent","uniform","1","undefined","1","h","26","0","0","0","26","0","26","0","26","0","0","0","26","26","26","26","Sat Sep 26 17:09:46 2020","1500","The main experiment item","yes","CS-FlankerTask2.1.osexp","C:/Users/Colton/OneDrive/Desktop","no","mono","no","18","no","white","no","yes","768","psycho","26","26","C:/Users/Colton/OneDrive/Desktop/CS-subject-4.csv","psycho","Lentiform Loewenfeld","3.3.3","0","h","NA","h","NA","NA","h","440.24830000125803","NA","19204.27429999836","NA","NA","440.24830000125803","2","psycho","1024","2","48000","-16","experiment","SSHSS","4","even","116739.58059999859","67465.90669999932","NA","NA","112393.62729999993","48225.93480000069","NA","NA","118047.89879999953","48256.96830000015","NA","NA","118155.98529999988","118599.82219999802","118039.25549999985","118155.52870000101","Flanker Task 2.1","23","10321.738400005415","27","yes","1024"
"85.71428571428571","85.71428571428571","406.920617857395","406.920617857395","black","psycho","psycho","psycho","0","incongruent","uniform","1","undefined","1","s","27","0","0","0","27","0","27","0","27","0","0","0","27","27","27","27","Sat Sep 26 17:09:46 2020","1500","The main experiment item","yes","CS-FlankerTask2.1.osexp","C:/Users/Colton/OneDrive/Desktop","no","mono","no","18","no","white","no","yes","768","psycho","27","27","C:/Users/Colton/OneDrive/Desktop/CS-subject-4.csv","psycho","Lentiform Loewenfeld","3.3.3","0","s","NA","h","NA","NA","s","1072.038900001644","NA","19204.27429999836","NA","NA","1072.038900001644","2","psycho","1024","2","48000","-16","experiment","HHSHH","4","even","118637.43109999996","67465.90669999932","NA","NA","112393.62729999993","48225.93480000069","NA","NA","119929.23689999952","48256.96830000015","NA","NA","120038.19949999888","121113.538900001","119920.19649999929","120037.66669999823","Flanker Task 2.1","24","11393.77730000706","28","yes","1024"
"86.20689655172414","86.20689655172414","406.3457586209928","406.3457586209928","black","psycho","psycho","psycho","0","congruent","uniform","1","undefined","1","s","28","0","0","0","28","0","28","0","28","0","0","0","28","28","28","28","Sat Sep 26 17:09:46 2020","1500","The main experiment item","yes","CS-FlankerTask2.1.osexp","C:/Users/Colton/OneDrive/Desktop","no","mono","no","18","no","white","no","yes","768","psycho","28","28","C:/Users/Colton/OneDrive/Desktop/CS-subject-4.csv","psycho","Lentiform Loewenfeld","3.3.3","0","s","NA","h","NA","NA","s","390.249700001732","NA","19204.27429999836","NA","NA","390.249700001732","2","psycho","1024","2","48000","-16","experiment","SSSSS","4","even","121180.25739999939","67465.90669999932","NA","NA","112393.62729999993","48225.93480000069","NA","NA","122479.58509999808","48256.96830000015","NA","NA","122587.60419999817","122981.76719999901","122469.52089999832","122587.1272000004","Flanker Task 2.1","25","11784.027000008791","29","yes","1024"
"86.66666666666667","86.66666666666667","406.45262000034563","406.45262000034563","black","psycho","psycho","psycho","0","congruent","uniform","1","undefined","1","h","29","0","0","0","29","0","29","0","29","0","0","0","29","29","29","29","Sat Sep 26 17:09:46 2020","1500","The main experiment item","yes","CS-FlankerTask2.1.osexp","C:/Users/Colton/OneDrive/Desktop","no","mono","no","18","no","white","no","yes","768","psycho","29","29","C:/Users/Colton/OneDrive/Desktop/CS-subject-4.csv","psycho","Lentiform Loewenfeld","3.3.3","0","h","NA","h","NA","NA","h","409.55160000157775","NA","19204.27429999836","NA","NA","409.55160000157775","2","psycho","1024","2","48000","-16","experiment","HHHHH","4","even","123049.73099999916","67465.90669999932","NA","NA","112393.62729999993","48225.93480000069","NA","NA","124358.71319999933","48256.96830000015","NA","NA","124467.68769999835","124880.55349999922","124349.9738999999","124467.16839999863","Flanker Task 2.1","26","12193.578600010369","30","yes","1024"
"87.09677419354838","87.09677419354838","407.75193225847266","407.75193225847266","black","psycho","psycho","psycho","0","incongruent","uniform","1","undefined","1","s","30","0","0","0","30","0","30","0","30","0","0","0","30","30","30","30","Sat Sep 26 17:09:46 2020","1500","The main experiment item","yes","CS-FlankerTask2.1.osexp","C:/Users/Colton/OneDrive/Desktop","no","mono","no","18","no","white","no","yes","768","psycho","30","30","C:/Users/Colton/OneDrive/Desktop/CS-subject-4.csv","psycho","Lentiform Loewenfeld","3.3.3","0","s","NA","h","NA","NA","s","446.7313000022841","NA","19204.27429999836","NA","NA","446.7313000022841","2","psycho","1024","2","48000","-16","experiment","HHSHH","4","even","124951.4323000003","67465.90669999932","NA","NA","112393.62729999993","48225.93480000069","NA","NA","126244.65639999835","48256.96830000015","NA","NA","126353.141399999","126802.72580000019","126235.62859999947","126352.6443999981","Flanker Task 2.1","27","12640.309900012653","31","yes","1024"
"87.5","87.5","405.52145000037854","405.52145000037854","black","psycho","psycho","psycho","0","incongruent","uniform","1","undefined","1","s","31","0","0","0","31","0","31","0","31","0","0","0","31","31","31","31","Sat Sep 26 17:09:46 2020","1500","The main experiment item","yes","CS-FlankerTask2.1.osexp","C:/Users/Colton/OneDrive/Desktop","no","mono","no","18","no","white","no","yes","768","psycho","31","31","C:/Users/Colton/OneDrive/Desktop/CS-subject-4.csv","psycho","Lentiform Loewenfeld","3.3.3","0","s","NA","h","NA","NA","s","336.37649999946007","NA","19204.27429999836","NA","NA","336.37649999946007","2","psycho","1024","2","48000","-16","experiment","HHSHH","4","even","126837.85820000048","67465.90669999932","NA","NA","112393.62729999993","48225.93480000069","NA","NA","128149.07260000109","48256.96830000015","NA","NA","128257.60770000124","128597.42850000112","128139.08739999897","128257.16769999781","Flanker Task 2.1","28","12976.686400012113","32","yes","1024"
"84.84848484848484","84.84848484848484","402.7091939397823","402.7091939397823","black","psycho","psycho","psycho","0","incongruent","uniform","0","undefined","0","h","32","0","0","0","32","0","32","0","32","0","0","0","32","32","32","32","Sat Sep 26 17:09:46 2020","1500","The main experiment item","yes","CS-FlankerTask2.1.osexp","C:/Users/Colton/OneDrive/Desktop","no","mono","no","18","no","white","no","yes","768","psycho","32","32","C:/Users/Colton/OneDrive/Desktop/CS-subject-4.csv","psycho","Lentiform Loewenfeld","3.3.3","0","s","NA","h","NA","NA","s","312.7170000007027","NA","19204.27429999836","NA","NA","312.7170000007027","2","psycho","1024","2","48000","-16","experiment","SSHSS","4","even","128660.31060000023","67465.90669999932","NA","NA","112393.62729999993","48225.93480000069","NA","NA","129965.13839999898","48256.96830000015","NA","NA","130074.86789999894","130391.38839999941","129955.90069999889","130074.43520000015","Flanker Task 2.1","28","13289.403400012816","33","yes","1024"
"85.29411764705883","85.29411764705883","406.62088235330884","406.62088235330884","black","psycho","psycho","psycho","0","congruent","uniform","1","undefined","1","h","33","0","0","0","33","0","33","0","33","0","0","0","33","33","33","33","Sat Sep 26 17:09:46 2020","1500","The main experiment item","yes","CS-FlankerTask2.1.osexp","C:/Users/Colton/OneDrive/Desktop","no","mono","no","18","no","white","no","yes","768","psycho","33","33","C:/Users/Colton/OneDrive/Desktop/CS-subject-4.csv","psycho","Lentiform Loewenfeld","3.3.3","0","h","NA","h","NA","NA","h","535.7065999996848","NA","19204.27429999836","NA","NA","535.7065999996848","2","psycho","1024","2","48000","-16","experiment","HHHHH","4","even","130971.57180000067","67465.90669999932","NA","NA","130461.58350000042","48225.93480000069","NA","NA","132289.59430000032","48256.96830000015","NA","NA","132400.92659999937","132940.32320000042","132277.79569999984","132400.37440000015","Flanker Task 2.1","29","13825.1100000125","34","yes","1024"
"85.71428571428571","85.71428571428571","406.82322857184255","406.82322857184255","black","psycho","psycho","psycho","0","incongruent","uniform","1","undefined","1","h","34","0","0","0","34","0","34","0","34","0","0","0","34","34","34","34","Sat Sep 26 17:09:46 2020","1500","The main experiment item","yes","CS-FlankerTask2.1.osexp","C:/Users/Colton/OneDrive/Desktop","no","mono","no","18","no","white","no","yes","768","psycho","34","34","C:/Users/Colton/OneDrive/Desktop/CS-subject-4.csv","psycho","Lentiform Loewenfeld","3.3.3","0","h","NA","h","NA","NA","h","413.7030000019877","NA","19204.27429999836","NA","NA","413.7030000019877","2","psycho","1024","2","48000","-16","experiment","SSHSS","4","even","133005.8160999979","67465.90669999932","NA","NA","130461.58350000042","48225.93480000069","NA","NA","134310.7147999981","48256.96830000015","NA","NA","134420.72869999902","134837.8945000004","134302.29699999836","134420.27830000006","Flanker Task 2.1","30","14238.813000014488","35","yes","1024"
"86.11111111111111","86.11111111111111","406.12820000044144","406.12820000044144","black","psycho","psycho","psycho","0","congruent","uniform","1","undefined","1","h","35","0","0","0","35","0","35","0","35","0","0","0","35","35","35","35","Sat Sep 26 17:09:46 2020","1500","The main experiment item","yes","CS-FlankerTask2.1.osexp","C:/Users/Colton/OneDrive/Desktop","no","mono","no","18","no","white","no","yes","768","psycho","35","35","C:/Users/Colton/OneDrive/Desktop/CS-subject-4.csv","psycho","Lentiform Loewenfeld","3.3.3","0","h","NA","h","NA","NA","h","381.8022000014025","NA","19204.27429999836","NA","NA","381.8022000014025","2","psycho","1024","2","48000","-16","experiment","HHHHH","4","even","134871.87260000064","67465.90669999932","NA","NA","130461.58350000042","48225.93480000069","NA","NA","136185.4084000006","48256.96830000015","NA","NA","136294.7639999984","136680.27989999973","136175.47059999924","136294.26909999893","Flanker Task 2.1","31","14620.61520001589","36","yes","1024"
"86.48648648648648","86.48648648648648","404.89816756795534","404.89816756795534","black","psycho","psycho","psycho","0","congruent","uniform","1","undefined","1","s","36","0","0","0","36","0","36","0","36","0","0","0","36","36","36","36","Sat Sep 26 17:09:46 2020","1500","The main experiment item","yes","CS-FlankerTask2.1.osexp","C:/Users/Colton/OneDrive/Desktop","no","mono","no","18","no","white","no","yes","768","psycho","36","36","C:/Users/Colton/OneDrive/Desktop/CS-subject-4.csv","psycho","Lentiform Loewenfeld","3.3.3","0","s","NA","h","NA","NA","s","360.61699999845587","NA","19204.27429999836","NA","NA","360.61699999845587","2","psycho","1024","2","48000","-16","experiment","SSSSS","4","even","136751.35089999822","67465.90669999932","NA","NA","130461.58350000042","48225.93480000069","NA","NA","138046.0020999999","48256.96830000015","NA","NA","138154.53960000013","138518.69960000113","138036.80520000125","138154.0501999989","Flanker Task 2.1","32","14981.232200014347","37","yes","1024"
"86.84210526315789","86.84210526315789","403.31350526350053","403.31350526350053","black","psycho","psycho","psycho","0","incongruent","uniform","1","undefined","1","s","37","0","0","0","37","0","37","0","37","0","0","0","37","37","37","37","Sat Sep 26 17:09:46 2020","1500","The main experiment item","yes","CS-FlankerTask2.1.osexp","C:/Users/Colton/OneDrive/Desktop","no","mono","no","18","no","white","no","yes","768","psycho","37","37","C:/Users/Colton/OneDrive/Desktop/CS-subject-4.csv","psycho","Lentiform Loewenfeld","3.3.3","0","s","NA","h","NA","NA","s","344.68099999867263","NA","19204.27429999836","NA","NA","344.68099999867263","2","psycho","1024","2","48000","-16","experiment","HHSHH","4","even","138582.585199998","67465.90669999932","NA","NA","130461.58350000042","48225.93480000069","NA","NA","139890.01469999857","48256.96830000015","NA","NA","139998.0448999995","140346.37350000048","139880.7859999979","139997.60999999853","Flanker Task 2.1","33","15325.91320001302","38","yes","1024"
"87.17948717948718","87.17948717948718","401.2187333336885","401.2187333336885","black","psycho","psycho","psycho","0","congruent","uniform","1","undefined","1","s","38","0","0","0","38","0","38","0","38","0","0","0","38","38","38","38","Sat Sep 26 17:09:46 2020","1500","The main experiment item","yes","CS-FlankerTask2.1.osexp","C:/Users/Colton/OneDrive/Desktop","no","mono","no","18","no","white","no","yes","768","psycho","38","38","C:/Users/Colton/OneDrive/Desktop/CS-subject-4.csv","psycho","Lentiform Loewenfeld","3.3.3","0","s","NA","h","NA","NA","s","321.6174000008323","NA","19204.27429999836","NA","NA","321.6174000008323","2","psycho","1024","2","48000","-16","experiment","SSSSS","4","even","140393.57019999807","67465.90669999932","NA","NA","130461.58350000042","48225.93480000069","NA","NA","141689.24250000055","48256.96830000015","NA","NA","141798.18779999914","142123.59410000136","141680.00169999868","141797.6725999979","Flanker Task 2.1","34","15647.530600013852","39","yes","1024"
"87.5","87.5","397.44783250034743","397.44783250034743","black","psycho","psycho","psycho","0","congruent","uniform","1","undefined","1","s","39","0","0","0","39","0","39","0","39","0","0","0","39","39","39","39","Sat Sep 26 17:09:46 2020","1500","The main experiment item","yes","CS-FlankerTask2.1.osexp","C:/Users/Colton/OneDrive/Desktop","no","mono","no","18","no","white","no","yes","768","psycho","39","39","C:/Users/Colton/OneDrive/Desktop/CS-subject-4.csv","psycho","Lentiform Loewenfeld","3.3.3","0","s","NA","h","NA","NA","s","250.3827000000456","NA","19204.27429999836","NA","NA","250.3827000000456","2","psycho","1024","2","48000","-16","experiment","SSSSS","4","even","142181.88849999933","67465.90669999932","NA","NA","130461.58350000042","48225.93480000069","NA","NA","143485.2690000007","48256.96830000015","NA","NA","143594.26650000023","143849.5612000006","143475.9097999995","143593.7578999983","Flanker Task 2.1","35","15897.913300013897","40","yes","1024"
"87.8048780487805","87.8048780487805","395.84461219543834","395.84461219543834","black","psycho","psycho","psycho","0","incongruent","uniform","1","undefined","1","h","40","0","0","0","40","0","40","0","40","0","0","0","40","40","40","40","Sat Sep 26 17:09:46 2020","1500","The main experiment item","yes","CS-FlankerTask2.1.osexp","C:/Users/Colton/OneDrive/Desktop","no","mono","no","18","no","white","no","yes","768","psycho","40","40","C:/Users/Colton/OneDrive/Desktop/CS-subject-4.csv","psycho","Lentiform Loewenfeld","3.3.3","0","h","NA","h","NA","NA","h","331.7157999990741","NA","19204.27429999836","NA","NA","331.7157999990741","2","psycho","1024","2","48000","-16","experiment","SSHSS","4","even","143893.90529999946","67465.90669999932","NA","NA","130461.58350000042","48225.93480000069","NA","NA","145199.11819999834","48256.96830000015","NA","NA","145309.05519999942","145644.6490999988","145189.7495000012","145308.6179999991","Flanker Task 2.1","36","16229.629100012971","41","yes","1024"
"88.0952380952381","88.0952380952381","396.0804166669862","396.0804166669862","black","psycho","psycho","psycho","0","incongruent","uniform","1","undefined","1","h","41","0","0","0","41","0","41","0","41","0","0","0","41","41","41","41","Sat Sep 26 17:09:46 2020","1500","The main experiment item","yes","CS-FlankerTask2.1.osexp","C:/Users/Colton/OneDrive/Desktop","no","mono","no","18","no","white","no","yes","768","psycho","41","41","C:/Users/Colton/OneDrive/Desktop/CS-subject-4.csv","psycho","Lentiform Loewenfeld","3.3.3","0","h","NA","h","NA","NA","h","405.7484000004479","NA","19204.27429999836","NA","NA","405.7484000004479","2","psycho","1024","2","48000","-16","experiment","SSHSS","4","even","145706.3758000004","67465.90669999932","NA","NA","130461.58350000042","48225.93480000069","NA","NA","147011.10859999972","48256.96830000015","NA","NA","147120.14529999942","147529.48090000064","147002.4811000003","147119.6846999992","Flanker Task 2.1","37","16635.37750001342","42","yes","1024"
"88.37209302325581","88.37209302325581","394.0110534886751","394.0110534886751","black","psycho","psycho","psycho","0","congruent","uniform","1","undefined","1","h","42","0","0","0","42","0","42","0","42","0","0","0","42","42","42","42","Sat Sep 26 17:09:46 2020","1500","The main experiment item","yes","CS-FlankerTask2.1.osexp","C:/Users/Colton/OneDrive/Desktop","no","mono","no","18","no","white","no","yes","768","psycho","42","42","C:/Users/Colton/OneDrive/Desktop/CS-subject-4.csv","psycho","Lentiform Loewenfeld","3.3.3","0","h","NA","h","NA","NA","h","307.0977999996103","NA","19204.27429999836","NA","NA","307.0977999996103","2","psycho","1024","2","48000","-16","experiment","HHHHH","4","even","147595.72370000024","67465.90669999932","NA","NA","130461.58350000042","48225.93480000069","NA","NA","148898.4789999995","48256.96830000015","NA","NA","149007.67059999998","149318.00640000074","148889.0023999993","149007.1868999985","Flanker Task 2.1","38","16942.47530001303","43","yes","1024"
"88.63636363636364","88.63636363636364","393.36496818214073","393.36496818214073","black","psycho","psycho","psycho","0","congruent","uniform","1","undefined","1","s","43","0","0","0","43","0","43","0","43","0","0","0","43","43","43","43","Sat Sep 26 17:09:46 2020","1500","The main experiment item","yes","CS-FlankerTask2.1.osexp","C:/Users/Colton/OneDrive/Desktop","no","mono","no","18","no","white","no","yes","768","psycho","43","43","C:/Users/Colton/OneDrive/Desktop/CS-subject-4.csv","psycho","Lentiform Loewenfeld","3.3.3","0","s","NA","h","NA","NA","s","365.58330000116257","NA","19204.27429999836","NA","NA","365.58330000116257","2","psycho","1024","2","48000","-16","experiment","SSSSS","4","even","149350.061000001","67465.90669999932","NA","NA","130461.58350000042","48225.93480000069","NA","NA","150640.86580000003","48256.96830000015","NA","NA","150749.36479999815","151118.9693999986","150631.68510000105","150748.87129999843","Flanker Task 2.1","39","17308.058600014192","44","yes","1024"
"88.88888888888889","88.88888888888889","391.57263555591476","391.57263555591476","black","psycho","psycho","psycho","0","congruent","uniform","1","undefined","1","s","44","0","0","0","44","0","44","0","44","0","0","0","44","44","44","44","Sat Sep 26 17:09:46 2020","1500","The main experiment item","yes","CS-FlankerTask2.1.osexp","C:/Users/Colton/OneDrive/Desktop","no","mono","no","18","no","white","no","yes","768","psycho","44","44","C:/Users/Colton/OneDrive/Desktop/CS-subject-4.csv","psycho","Lentiform Loewenfeld","3.3.3","0","s","NA","h","NA","NA","s","312.7100000019709","NA","19204.27429999836","NA","NA","312.7100000019709","2","psycho","1024","2","48000","-16","experiment","SSSSS","4","even","151187.56709999798","67465.90669999932","NA","NA","130461.58350000042","48225.93480000069","NA","NA","152487.57520000072","48256.96830000015","NA","NA","152596.15389999817","152912.70480000094","152477.9450999995","152595.73810000074","Flanker Task 2.1","40","17620.768600016163","45","yes","1024"
"89.1304347826087","89.1304347826087","389.1723956525232","389.1723956525232","black","psycho","psycho","psycho","0","congruent","uniform","1","undefined","1","s","45","0","0","0","45","0","45","0","45","0","0","0","45","45","45","45","Sat Sep 26 17:09:46 2020","1500","The main experiment item","yes","CS-FlankerTask2.1.osexp","C:/Users/Colton/OneDrive/Desktop","no","mono","no","18","no","white","no","yes","768","psycho","45","45","C:/Users/Colton/OneDrive/Desktop/CS-subject-4.csv","psycho","Lentiform Loewenfeld","3.3.3","0","s","NA","h","NA","NA","s","281.16159999990487","NA","19204.27429999836","NA","NA","281.16159999990487","2","psycho","1024","2","48000","-16","experiment","SSSSS","4","even","152985.59319999913","67465.90669999932","NA","NA","130461.58350000042","48225.93480000069","NA","NA","154298.46759999782","48256.96830000015","NA","NA","154406.0798999999","154691.46199999886","154287.28369999953","154405.6289","Flanker Task 2.1","41","17901.930200016068","46","yes","1024"
"87.23404255319149","87.23404255319149","388.9340042555983","388.9340042555983","black","psycho","psycho","psycho","0","incongruent","uniform","0","undefined","0","s","46","0","0","0","46","0","46","0","46","0","0","0","46","46","46","46","Sat Sep 26 17:09:46 2020","1500","The main experiment item","yes","CS-FlankerTask2.1.osexp","C:/Users/Colton/OneDrive/Desktop","no","mono","no","18","no","white","no","yes","768","psycho","46","46","C:/Users/Colton/OneDrive/Desktop/CS-subject-4.csv","psycho","Lentiform Loewenfeld","3.3.3","0","h","NA","h","NA","NA","h","377.967999997054","NA","19204.27429999836","NA","NA","377.967999997054","2","psycho","1024","2","48000","-16","experiment","HHSHH","4","even","154739.53319999782","67465.90669999932","NA","NA","130461.58350000042","48225.93480000069","NA","NA","156057.2898999999","48256.96830000015","NA","NA","156166.4376000008","156548.8938999988","156047.07140000028","156165.95020000022","Flanker Task 2.1","41","18279.898200013122","47","yes","1024"
"87.5","87.5","387.1149375002763","387.1149375002763","black","psycho","psycho","psycho","0","incongruent","uniform","1","undefined","1","h","47","0","0","0","47","0","47","0","47","0","0","0","47","47","47","47","Sat Sep 26 17:09:46 2020","1500","The main experiment item","yes","CS-FlankerTask2.1.osexp","C:/Users/Colton/OneDrive/Desktop","no","mono","no","18","no","white","no","yes","768","psycho","47","47","C:/Users/Colton/OneDrive/Desktop/CS-subject-4.csv","psycho","Lentiform Loewenfeld","3.3.3","0","h","NA","h","NA","NA","h","301.6188000001421","NA","19204.27429999836","NA","NA","301.6188000001421","2","psycho","1024","2","48000","-16","experiment","SSHSS","4","even","157118.21449999843","67465.90669999932","NA","NA","156607.87720000008","48225.93480000069","NA","NA","158420.51549999815","48256.96830000015","NA","NA","158528.55519999866","158834.4247999994","158410.89830000055","158528.08480000022","Flanker Task 2.1","42","18581.517000013264","48","yes","1024"
"87.75510204081633","87.75510204081633","385.3831918369943","385.3831918369943","black","psycho","psycho","psycho","0","congruent","uniform","1","undefined","1","h","48","0","0","0","48","0","48","0","48","0","0","0","48","48","48","48","Sat Sep 26 17:09:46 2020","1500","The main experiment item","yes","CS-FlankerTask2.1.osexp","C:/Users/Colton/OneDrive/Desktop","no","mono","no","18","no","white","no","yes","768","psycho","48","48","C:/Users/Colton/OneDrive/Desktop/CS-subject-4.csv","psycho","Lentiform Loewenfeld","3.3.3","0","h","NA","h","NA","NA","h","302.25939999945695","NA","19204.27429999836","NA","NA","302.25939999945695","2","psycho","1024","2","48000","-16","experiment","HHHHH","4","even","158895.25969999886","67465.90669999932","NA","NA","156607.87720000008","48225.93480000069","NA","NA","160203.93150000018","48256.96830000015","NA","NA","160312.5899000006","160618.5403999989","160194.82960000096","160312.12909999886","Flanker Task 2.1","43","18883.77640001272","49","yes","1024"
"88","88","385.2408600002673","385.2408600002673","black","psycho","psycho","psycho","0","congruent","uniform","1","undefined","1","s","49","0","0","0","49","0","49","0","49","0","0","0","49","49","49","49","Sat Sep 26 17:09:46 2020","1500","The main experiment item","yes","CS-FlankerTask2.1.osexp","C:/Users/Colton/OneDrive/Desktop","no","mono","no","18","no","white","no","yes","768","psycho","49","49","C:/Users/Colton/OneDrive/Desktop/CS-subject-4.csv","psycho","Lentiform Loewenfeld","3.3.3","0","s","NA","h","NA","NA","s","378.26660000064294","NA","19204.27429999836","NA","NA","378.26660000064294","2","psycho","1024","2","48000","-16","experiment","SSSSS","4","even","160701.39740000013","67465.90669999932","NA","NA","156607.87720000008","48225.93480000069","NA","NA","162012.40730000063","48256.96830000015","NA","NA","162121.23079999947","162503.2401999997","162003.49310000092","162120.7379999978","Flanker Task 2.1","44","19262.043000013364","50","yes","1024"
"88.23529411764706","88.23529411764706","386.2707607845996","386.2707607845996","black","psycho","psycho","psycho","0","incongruent","uniform","1","undefined","1","h","50","0","0","0","50","0","50","0","50","0","0","0","50","50","50","50","Sat Sep 26 17:09:46 2020","1500","The main experiment item","yes","CS-FlankerTask2.1.osexp","C:/Users/Colton/OneDrive/Desktop","no","mono","no","18","no","white","no","yes","768","psycho","50","50","C:/Users/Colton/OneDrive/Desktop/CS-subject-4.csv","psycho","Lentiform Loewenfeld","3.3.3","0","h","NA","h","NA","NA","h","437.7658000012161","NA","19204.27429999836","NA","NA","437.7658000012161","2","psycho","1024","2","48000","-16","experiment","SSHSS","4","even","162537.8352000007","67465.90669999932","NA","NA","156607.87720000008","48225.93480000069","NA","NA","163848.78659999958","48256.96830000015","NA","NA","163957.45119999992","164399.59109999836","163838.45010000005","163956.88470000096","Flanker Task 2.1","45","19699.80880001458","51","yes","1024"
"88.46153846153847","88.46153846153847","388.40674423108095","388.40674423108095","black","psycho","psycho","psycho","0","congruent","uniform","1","undefined","1","h","51","0","0","0","51","0","51","0","51","0","0","0","51","51","51","51","Sat Sep 26 17:09:46 2020","1500","The main experiment item","yes","CS-FlankerTask2.1.osexp","C:/Users/Colton/OneDrive/Desktop","no","mono","no","18","no","white","no","yes","768","psycho","51","51","C:/Users/Colton/OneDrive/Desktop/CS-subject-4.csv","psycho","Lentiform Loewenfeld","3.3.3","0","h","NA","h","NA","NA","h","497.34190000162926","NA","19204.27429999836","NA","NA","497.34190000162926","2","psycho","1024","2","48000","-16","experiment","HHHHH","4","even","164427.70839999866","67465.90669999932","NA","NA","156607.87720000008","48225.93480000069","NA","NA","165729.17059999963","48256.96830000015","NA","NA","165837.47869999934","166338.7866999983","165719.82919999937","165837.03109999988","Flanker Task 2.1","46","20197.15070001621","52","yes","1024"
"88.67924528301887","88.67924528301887","388.2729943399235","388.2729943399235","black","psycho","psycho","psycho","0","congruent","uniform","1","undefined","1","h","52","0","0","0","52","0","52","0","52","0","0","0","52","52","52","52","Sat Sep 26 17:09:46 2020","1500","The main experiment item","yes","CS-FlankerTask2.1.osexp","C:/Users/Colton/OneDrive/Desktop","no","mono","no","18","no","white","no","yes","768","psycho","52","52","C:/Users/Colton/OneDrive/Desktop/CS-subject-4.csv","psycho","Lentiform Loewenfeld","3.3.3","0","h","NA","h","NA","NA","h","381.31799999973737","NA","19204.27429999836","NA","NA","381.31799999973737","2","psycho","1024","2","48000","-16","experiment","HHHHH","4","even","166372.0973999989","67465.90669999932","NA","NA","156607.87720000008","48225.93480000069","NA","NA","167681.52289999853","48256.96830000015","NA","NA","167790.2690999981","168175.0690000008","167672.0497999995","167789.82099999848","Flanker Task 2.1","47","20578.468700015947","53","yes","1024"
"88.88888888888889","88.88888888888889","388.56511666697907","388.56511666697907","black","psycho","psycho","psycho","0","congruent","uniform","1","undefined","1","h","53","0","0","0","53","0","53","0","53","0","0","0","53","53","53","53","Sat Sep 26 17:09:46 2020","1500","The main experiment item","yes","CS-FlankerTask2.1.osexp","C:/Users/Colton/OneDrive/Desktop","no","mono","no","18","no","white","no","yes","768","psycho","53","53","C:/Users/Colton/OneDrive/Desktop/CS-subject-4.csv","psycho","Lentiform Loewenfeld","3.3.3","0","h","NA","h","NA","NA","h","404.0476000009221","NA","19204.27429999836","NA","NA","404.0476000009221","2","psycho","1024","2","48000","-16","experiment","HHHHH","4","even","168242.81079999855","67465.90669999932","NA","NA","156607.87720000008","48225.93480000069","NA","NA","169558.76649999846","48256.96830000015","NA","NA","169667.47779999787","170075.7795999998","169549.39720000039","169667.02839999925","Flanker Task 2.1","48","20982.51630001687","54","yes","1024"
"89.0909090909091","89.0909090909091","388.77923272759125","388.77923272759125","black","psycho","psycho","psycho","0","incongruent","uniform","1","undefined","1","h","54","0","0","0","54","0","54","0","54","0","0","0","54","54","54","54","Sat Sep 26 17:09:46 2020","1500","The main experiment item","yes","CS-FlankerTask2.1.osexp","C:/Users/Colton/OneDrive/Desktop","no","mono","no","18","no","white","no","yes","768","psycho","54","54","C:/Users/Colton/OneDrive/Desktop/CS-subject-4.csv","psycho","Lentiform Loewenfeld","3.3.3","0","h","NA","h","NA","NA","h","400.34150000064983","NA","19204.27429999836","NA","NA","400.34150000064983","2","psycho","1024","2","48000","-16","experiment","SSHSS","4","even","170106.0752000012","67465.90669999932","NA","NA","156607.87720000008","48225.93480000069","NA","NA","171406.58229999826","48256.96830000015","NA","NA","171514.73989999795","171919.29189999792","171397.29330000046","171514.25469999958","Flanker Task 2.1","49","21382.85780001752","55","yes","1024"
"89.28571428571429","89.28571428571429","387.64420714317436","387.64420714317436","black","psycho","psycho","psycho","0","incongruent","uniform","1","undefined","1","h","55","0","0","0","55","0","55","0","55","0","0","0","55","55","55","55","Sat Sep 26 17:09:46 2020","1500","The main experiment item","yes","CS-FlankerTask2.1.osexp","C:/Users/Colton/OneDrive/Desktop","no","mono","no","18","no","white","no","yes","768","psycho","55","55","C:/Users/Colton/OneDrive/Desktop/CS-subject-4.csv","psycho","Lentiform Loewenfeld","3.3.3","0","h","NA","h","NA","NA","h","325.2178000002459","NA","19204.27429999836","NA","NA","325.2178000002459","2","psycho","1024","2","48000","-16","experiment","SSHSS","4","even","171983.21719999876","67465.90669999932","NA","NA","156607.87720000008","48225.93480000069","NA","NA","173294.77000000043","48256.96830000015","NA","NA","173404.8557999995","173734.4090000006","173285.7613999986","173404.40039999885","Flanker Task 2.1","50","21708.075600017764","56","yes","1024"
"89.47368421052632","89.47368421052632","386.0599491230811","386.0599491230811","black","psycho","psycho","psycho","0","congruent","uniform","1","undefined","1","s","56","0","0","0","56","0","56","0","56","0","0","0","56","56","56","56","Sat Sep 26 17:09:46 2020","1500","The main experiment item","yes","CS-FlankerTask2.1.osexp","C:/Users/Colton/OneDrive/Desktop","no","mono","no","18","no","white","no","yes","768","psycho","56","56","C:/Users/Colton/OneDrive/Desktop/CS-subject-4.csv","psycho","Lentiform Loewenfeld","3.3.3","0","s","NA","h","NA","NA","s","297.34149999785586","NA","19204.27429999836","NA","NA","297.34149999785586","2","psycho","1024","2","48000","-16","experiment","SSSSS","4","even","173795.85589999988","67465.90669999932","NA","NA","156607.87720000008","48225.93480000069","NA","NA","175102.35610000018","48256.96830000015","NA","NA","175211.38480000081","175513.30419999795","175092.19830000075","175210.84039999914","Flanker Task 2.1","51","22005.41710001562","57","yes","1024"
"87.93103448275862","87.93103448275862","384.6982413795496","384.6982413795496","black","psycho","psycho","psycho","0","congruent","uniform","0","undefined","0","h","57","0","0","0","57","0","57","0","57","0","0","0","57","57","57","57","Sat Sep 26 17:09:46 2020","1500","The main experiment item","yes","CS-FlankerTask2.1.osexp","C:/Users/Colton/OneDrive/Desktop","no","mono","no","18","no","white","no","yes","768","psycho","57","57","C:/Users/Colton/OneDrive/Desktop/CS-subject-4.csv","psycho","Lentiform Loewenfeld","3.3.3","0","s","NA","h","NA","NA","s","307.0808999982546","NA","19204.27429999836","NA","NA","307.0808999982546","2","psycho","1024","2","48000","-16","experiment","HHHHH","4","even","175573.32029999816","67465.90669999932","NA","NA","156607.87720000008","48225.93480000069","NA","NA","176884.1938000005","48256.96830000015","NA","NA","176992.88309999974","177304.87549999816","176874.5768000008","176992.3888000012","Flanker Task 2.1","51","22312.498000013875","58","yes","1024"
"88.13559322033899","88.13559322033899","385.00542033925433","385.00542033925433","black","psycho","psycho","psycho","0","congruent","uniform","1","undefined","1","h","58","0","0","0","58","0","58","0","58","0","0","0","58","58","58","58","Sat Sep 26 17:09:46 2020","1500","The main experiment item","yes","CS-FlankerTask2.1.osexp","C:/Users/Colton/OneDrive/Desktop","no","mono","no","18","no","white","no","yes","768","psycho","58","58","C:/Users/Colton/OneDrive/Desktop/CS-subject-4.csv","psycho","Lentiform Loewenfeld","3.3.3","0","h","NA","h","NA","NA","h","402.82180000212975","NA","19204.27429999836","NA","NA","402.82180000212975","2","psycho","1024","2","48000","-16","experiment","HHHHH","4","even","177892.8057000012","67465.90669999932","NA","NA","177375.48009999955","48225.93480000069","NA","NA","179187.33240000074","48256.96830000015","NA","NA","179296.28899999807","179702.82189999853","179178.71240000022","179295.83419999835","Flanker Task 2.1","52","22715.319800016005","59","yes","1024"
"88.33333333333333","88.33333333333333","384.437226666887","384.437226666887","black","psycho","psycho","psycho","0","congruent","uniform","1","undefined","1","s","59","0","0","0","59","0","59","0","59","0","0","0","59","59","59","59","Sat Sep 26 17:09:46 2020","1500","The main experiment item","yes","CS-FlankerTask2.1.osexp","C:/Users/Colton/OneDrive/Desktop","no","mono","no","18","no","white","no","yes","768","psycho","59","59","C:/Users/Colton/OneDrive/Desktop/CS-subject-4.csv","psycho","Lentiform Loewenfeld","3.3.3","0","s","NA","h","NA","NA","s","350.9137999972154","NA","19204.27429999836","NA","NA","350.9137999972154","2","psycho","1024","2","48000","-16","experiment","SSSSS","4","even","179784.54870000132","67465.90669999932","NA","NA","177375.48009999955","48225.93480000069","NA","NA","181089.1946999982","48256.96830000015","NA","NA","181197.8534000009","181553.75930000082","181080.0464999993","181197.28810000015","Flanker Task 2.1","53","23066.23360001322","60","yes","1024"
"88.52459016393442","88.52459016393442","384.94792295106714","384.94792295106714","black","psycho","psycho","psycho","0","incongruent","uniform","1","undefined","1","h","60","0","0","0","60","0","60","0","60","0","0","0","60","60","60","60","Sat Sep 26 17:09:46 2020","1500","The main experiment item","yes","CS-FlankerTask2.1.osexp","C:/Users/Colton/OneDrive/Desktop","no","mono","no","18","no","white","no","yes","768","psycho","60","60","C:/Users/Colton/OneDrive/Desktop/CS-subject-4.csv","psycho","Lentiform Loewenfeld","3.3.3","0","h","NA","h","NA","NA","h","415.589700001874","NA","19204.27429999836","NA","NA","415.589700001874","2","psycho","1024","2","48000","-16","experiment","SSHSS","4","even","181619.28859999898","67465.90669999932","NA","NA","177375.48009999955","48225.93480000069","NA","NA","182924.24849999952","48256.96830000015","NA","NA","183032.173399999","183451.5680000004","182915.23510000115","183031.70300000056","Flanker Task 2.1","54","23481.823300015094","61","yes","1024"
"88.70967741935483","88.70967741935483","386.32340000021355","386.32340000021355","black","psycho","psycho","psycho","0","incongruent","uniform","1","undefined","1","h","61","0","0","0","61","0","61","0","61","0","0","0","61","61","61","61","Sat Sep 26 17:09:46 2020","1500","The main experiment item","yes","CS-FlankerTask2.1.osexp","C:/Users/Colton/OneDrive/Desktop","no","mono","no","18","no","white","no","yes","768","psycho","61","61","C:/Users/Colton/OneDrive/Desktop/CS-subject-4.csv","psycho","Lentiform Loewenfeld","3.3.3","0","h","NA","h","NA","NA","h","470.2274999981455","NA","19204.27429999836","NA","NA","470.2274999981455","2","psycho","1024","2","48000","-16","experiment","SSHSS","4","even","183507.47209999827","67465.90669999932","NA","NA","177375.48009999955","48225.93480000069","NA","NA","184805.85939999946","48256.96830000015","NA","NA","184914.4926000008","185388.9691000004","184796.04280000058","184914.02989999915","Flanker Task 2.1","55","23952.05080001324","62","yes","1024"
"88.88888888888889","88.88888888888889","386.938696825613","386.938696825613","black","psycho","psycho","psycho","0","incongruent","uniform","1","undefined","1","h","62","0","0","0","62","0","62","0","62","0","0","0","62","62","62","62","Sat Sep 26 17:09:46 2020","1500","The main experiment item","yes","CS-FlankerTask2.1.osexp","C:/Users/Colton/OneDrive/Desktop","no","mono","no","18","no","white","no","yes","768","psycho","62","62","C:/Users/Colton/OneDrive/Desktop/CS-subject-4.csv","psycho","Lentiform Loewenfeld","3.3.3","0","h","NA","h","NA","NA","h","425.08710000038263","NA","19204.27429999836","NA","NA","425.08710000038263","2","psycho","1024","2","48000","-16","experiment","SSHSS","4","even","185418.27299999932","67465.90669999932","NA","NA","177375.48009999955","48225.93480000069","NA","NA","186716.57010000126","48256.96830000015","NA","NA","186825.7980999988","187254.72589999845","186706.98959999936","186825.2966","Flanker Task 2.1","56","24377.137900013622","63","yes","1024"
"89.0625","89.0625","385.564300000226","385.564300000226","black","psycho","psycho","psycho","0","congruent","uniform","1","undefined","1","h","63","0","0","0","63","0","63","0","63","0","0","0","63","63","63","63","Sat Sep 26 17:09:46 2020","1500","The main experiment item","yes","CS-FlankerTask2.1.osexp","C:/Users/Colton/OneDrive/Desktop","no","mono","no","18","no","white","no","yes","768","psycho","63","63","C:/Users/Colton/OneDrive/Desktop/CS-subject-4.csv","psycho","Lentiform Loewenfeld","3.3.3","0","h","NA","h","NA","NA","h","298.97730000084266","NA","19204.27429999836","NA","NA","298.97730000084266","2","psycho","1024","2","48000","-16","experiment","HHHHH","4","even","187317.02890000088","67465.90669999932","NA","NA","177375.48009999955","48225.93480000069","NA","NA","188617.7347999983","48256.96830000015","NA","NA","188725.65209999811","189029.1799000006","188607.23309999958","188725.1886999984","Flanker Task 2.1","57","24676.115200014465","64","yes","1024"
"89.23076923076923","89.23076923076923","385.362466154038","385.362466154038","black","psycho","psycho","psycho","0","incongruent","uniform","1","undefined","1","h","64","0","0","0","64","0","64","0","64","0","0","0","64","64","64","64","Sat Sep 26 17:09:46 2020","1500","The main experiment item","yes","CS-FlankerTask2.1.osexp","C:/Users/Colton/OneDrive/Desktop","no","mono","no","18","no","white","no","yes","768","psycho","64","64","C:/Users/Colton/OneDrive/Desktop/CS-subject-4.csv","psycho","Lentiform Loewenfeld","3.3.3","0","h","NA","h","NA","NA","h","372.44509999800357","NA","19204.27429999836","NA","NA","372.44509999800357","2","psycho","1024","2","48000","-16","experiment","SSHSS","4","even","189084.91819999836","67465.90669999932","NA","NA","177375.48009999955","48225.93480000069","NA","NA","190376.4420999978","48256.96830000015","NA","NA","190485.08740000034","190862.1364999999","190365.8570999978","190484.55339999782","Flanker Task 2.1","58","25048.56030001247","65","yes","1024"
"89.39393939393939","89.39393939393939","384.4149772729438","384.4149772729438","black","psycho","psycho","psycho","0","congruent","uniform","1","undefined","1","h","65","0","0","0","65","0","65","0","65","0","0","0","65","65","65","65","Sat Sep 26 17:09:46 2020","1500","The main experiment item","yes","CS-FlankerTask2.1.osexp","C:/Users/Colton/OneDrive/Desktop","no","mono","no","18","no","white","no","yes","768","psycho","65","65","C:/Users/Colton/OneDrive/Desktop/CS-subject-4.csv","psycho","Lentiform Loewenfeld","3.3.3","0","h","NA","h","NA","NA","h","322.82820000182255","NA","19204.27429999836","NA","NA","322.82820000182255","2","psycho","1024","2","48000","-16","experiment","HHHHH","4","even","190894.63780000005","67465.90669999932","NA","NA","177375.48009999955","48225.93480000069","NA","NA","192185.74549999903","48256.96830000015","NA","NA","192294.22949999935","192620.96380000003","192176.92259999967","192293.74180000013","Flanker Task 2.1","59","25371.38850001429","66","yes","1024"
"89.55223880597015","89.55223880597015","384.91888059721913","384.91888059721913","black","psycho","psycho","psycho","0","congruent","uniform","1","undefined","1","h","66","0","0","0","66","0","66","0","66","0","0","0","66","66","66","66","Sat Sep 26 17:09:46 2020","1500","The main experiment item","yes","CS-FlankerTask2.1.osexp","C:/Users/Colton/OneDrive/Desktop","no","mono","no","18","no","white","no","yes","768","psycho","66","66","C:/Users/Colton/OneDrive/Desktop/CS-subject-4.csv","psycho","Lentiform Loewenfeld","3.3.3","0","h","NA","h","NA","NA","h","418.1764999993902","NA","19204.27429999836","NA","NA","418.1764999993902","2","psycho","1024","2","48000","-16","experiment","HHHHH","4","even","192684.9340000008","67465.90669999932","NA","NA","177375.48009999955","48225.93480000069","NA","NA","193992.56830000013","48256.96830000015","NA","NA","194100.85009999966","194524.99829999942","193983.5768999983","194100.42220000105","Flanker Task 2.1","60","25789.56500001368","67","yes","1024"
"89.70588235294117","89.70588235294117","384.4036970590691","384.4036970590691","black","psycho","psycho","psycho","0","incongruent","uniform","1","undefined","1","h","67","0","0","0","67","0","67","0","67","0","0","0","67","67","67","67","Sat Sep 26 17:09:46 2020","1500","The main experiment item","yes","CS-FlankerTask2.1.osexp","C:/Users/Colton/OneDrive/Desktop","no","mono","no","18","no","white","no","yes","768","psycho","67","67","C:/Users/Colton/OneDrive/Desktop/CS-subject-4.csv","psycho","Lentiform Loewenfeld","3.3.3","0","h","NA","h","NA","NA","h","349.8864000030153","NA","19204.27429999836","NA","NA","349.8864000030153","2","psycho","1024","2","48000","-16","experiment","SSHSS","4","even","194561.45190000098","67465.90669999932","NA","NA","177375.48009999955","48225.93480000069","NA","NA","195862.50089999885","48256.96830000015","NA","NA","195971.8714999981","196326.51339999939","195853.03560000102","195971.22129999843","Flanker Task 2.1","61","26139.451400016696","68","yes","1024"
"89.85507246376811","89.85507246376811","383.45536376837646","383.45536376837646","black","psycho","psycho","psycho","0","congruent","uniform","1","undefined","1","h","68","0","0","0","68","0","68","0","68","0","0","0","68","68","68","68","Sat Sep 26 17:09:46 2020","1500","The main experiment item","yes","CS-FlankerTask2.1.osexp","C:/Users/Colton/OneDrive/Desktop","no","mono","no","18","no","white","no","yes","768","psycho","68","68","C:/Users/Colton/OneDrive/Desktop/CS-subject-4.csv","psycho","Lentiform Loewenfeld","3.3.3","0","h","NA","h","NA","NA","h","318.9687000012782","NA","19204.27429999836","NA","NA","318.9687000012782","2","psycho","1024","2","48000","-16","experiment","HHHHH","4","even","196361.734099999","67465.90669999932","NA","NA","177375.48009999955","48225.93480000069","NA","NA","197672.10290000003","48256.96830000015","NA","NA","197780.8746999981","198104.20529999828","197661.54579999784","197780.41070000108","Flanker Task 2.1","62","26458.420100017975","69","yes","1024"
"88.57142857142857","88.57142857142857","381.9418171431088","381.9418171431088","black","psycho","psycho","psycho","0","congruent","uniform","0","undefined","0","s","69","0","0","0","69","0","69","0","69","0","0","0","69","69","69","69","Sat Sep 26 17:09:46 2020","1500","The main experiment item","yes","CS-FlankerTask2.1.osexp","C:/Users/Colton/OneDrive/Desktop","no","mono","no","18","no","white","no","yes","768","psycho","69","69","C:/Users/Colton/OneDrive/Desktop/CS-subject-4.csv","psycho","Lentiform Loewenfeld","3.3.3","0","h","NA","h","NA","NA","h","277.50709999963874","NA","19204.27429999836","NA","NA","277.50709999963874","2","psycho","1024","2","48000","-16","experiment","SSSSS","4","even","198162.32060000038","67465.90669999932","NA","NA","177375.48009999955","48225.93480000069","NA","NA","199458.11559999856","48256.96830000015","NA","NA","199566.18610000078","199847.9598999984","199448.76769999973","199565.74919999912","Flanker Task 2.1","62","26735.927200017613","70","yes","1024"
"87.32394366197182","87.32394366197182","382.2400690143285","382.2400690143285","black","psycho","psycho","psycho","0","incongruent","uniform","0","undefined","0","s","70","0","0","0","70","0","70","0","70","0","0","0","70","70","70","70","Sat Sep 26 17:09:46 2020","1500","The main experiment item","yes","CS-FlankerTask2.1.osexp","C:/Users/Colton/OneDrive/Desktop","no","mono","no","18","no","white","no","yes","768","psycho","70","70","C:/Users/Colton/OneDrive/Desktop/CS-subject-4.csv","psycho","Lentiform Loewenfeld","3.3.3","0","h","NA","h","NA","NA","h","403.1176999997115","NA","19204.27429999836","NA","NA","403.1176999997115","2","psycho","1024","2","48000","-16","experiment","HHSHH","4","even","200426.42390000037","67465.90669999932","NA","NA","199907.85229999892","48225.93480000069","NA","NA","201719.72209999876","48256.96830000015","NA","NA","201830.26410000093","202237.7125999992","201711.0618000006","201829.7566000001","Flanker Task 2.1","62","27139.044900017325","71","yes","1024"
"87.5","87.5","382.7493638891105","382.7493638891105","black","psycho","psycho","psycho","0","incongruent","uniform","1","undefined","1","s","71","0","0","0","71","0","71","0","71","0","0","0","71","71","71","71","Sat Sep 26 17:09:46 2020","1500","The main experiment item","yes","CS-FlankerTask2.1.osexp","C:/Users/Colton/OneDrive/Desktop","no","mono","no","18","no","white","no","yes","768","psycho","71","71","C:/Users/Colton/OneDrive/Desktop/CS-subject-4.csv","psycho","Lentiform Loewenfeld","3.3.3","0","s","NA","h","NA","NA","s","418.90929999863147","NA","19204.27429999836","NA","NA","418.90929999863147","2","psycho","1024","2","48000","-16","experiment","HHSHH","4","even","202875.31339999987","67465.90669999932","NA","NA","202357.54280000037","48225.93480000069","NA","NA","204188.1179999982","48256.96830000015","NA","NA","204297.14590000003","204721.12019999986","204178.47619999884","204296.6465999998","Flanker Task 2.1","63","27557.954200015956","72","yes","1024"
"86.3013698630137","86.3013698630137","383.23684383580604","383.23684383580604","black","psycho","psycho","psycho","0","incongruent","uniform","0","undefined","0","s","72","0","0","0","72","0","72","0","72","0","0","0","72","72","72","72","Sat Sep 26 17:09:46 2020","1500","The main experiment item","yes","CS-FlankerTask2.1.osexp","C:/Users/Colton/OneDrive/Desktop","no","mono","no","18","no","white","no","yes","768","psycho","72","72","C:/Users/Colton/OneDrive/Desktop/CS-subject-4.csv","psycho","Lentiform Loewenfeld","3.3.3","0","h","NA","h","NA","NA","h","418.33539999788627","NA","19204.27429999836","NA","NA","418.33539999788627","2","psycho","1024","2","48000","-16","experiment","HHSHH","4","even","204787.08600000027","67465.90669999932","NA","NA","202357.54280000037","48225.93480000069","NA","NA","206086.69019999797","48256.96830000015","NA","NA","206194.75700000112","206618.0835999985","206077.51629999984","206194.34320000073","Flanker Task 2.1","63","27976.289600013843","73","yes","1024"
"86.48648648648648","86.48648648648648","384.0904378380278","384.0904378380278","black","psycho","psycho","psycho","0","congruent","uniform","1","undefined","1","h","73","0","0","0","73","0","73","0","73","0","0","0","73","73","73","73","Sat Sep 26 17:09:46 2020","1500","The main experiment item","yes","CS-FlankerTask2.1.osexp","C:/Users/Colton/OneDrive/Desktop","no","mono","no","18","no","white","no","yes","768","psycho","73","73","C:/Users/Colton/OneDrive/Desktop/CS-subject-4.csv","psycho","Lentiform Loewenfeld","3.3.3","0","h","NA","h","NA","NA","h","446.4028000002145","NA","19204.27429999836","NA","NA","446.4028000002145","2","psycho","1024","2","48000","-16","experiment","HHHHH","4","even","207187.20499999836","67465.90669999932","NA","NA","206674.8117999996","48225.93480000069","NA","NA","208502.01000000015","48256.96830000015","NA","NA","208611.1724000002","209062.17109999852","208492.42930000037","208610.7278999989","Flanker Task 2.1","64","28422.692400014057","74","yes","1024"
"86.66666666666667","86.66666666666667","384.53903866684414","384.53903866684414","black","psycho","psycho","psycho","0","congruent","uniform","1","undefined","1","s","74","0","0","0","74","0","74","0","74","0","0","0","74","74","74","74","Sat Sep 26 17:09:46 2020","1500","The main experiment item","yes","CS-FlankerTask2.1.osexp","C:/Users/Colton/OneDrive/Desktop","no","mono","no","18","no","white","no","yes","768","psycho","74","74","C:/Users/Colton/OneDrive/Desktop/CS-subject-4.csv","psycho","Lentiform Loewenfeld","3.3.3","0","s","NA","h","NA","NA","s","417.7354999992531","NA","19204.27429999836","NA","NA","417.7354999992531","2","psycho","1024","2","48000","-16","experiment","SSSSS","4","even","209117.77019999863","67465.90669999932","NA","NA","206674.8117999996","48225.93480000069","NA","NA","210421.388499999","48256.96830000015","NA","NA","210530.10920000088","210952.8179000008","210411.53069999928","210529.61309999955","Flanker Task 2.1","65","28840.42790001331","75","yes","1024"
"86.84210526315789","86.84210526315789","385.8354342107161","385.8354342107161","black","psycho","psycho","psycho","0","incongruent","uniform","1","undefined","1","s","75","0","0","0","75","0","75","0","75","0","0","0","75","75","75","75","Sat Sep 26 17:09:46 2020","1500","The main experiment item","yes","CS-FlankerTask2.1.osexp","C:/Users/Colton/OneDrive/Desktop","no","mono","no","18","no","white","no","yes","768","psycho","75","75","C:/Users/Colton/OneDrive/Desktop/CS-subject-4.csv","psycho","Lentiform Loewenfeld","3.3.3","0","s","NA","h","NA","NA","s","483.065100001113","NA","19204.27429999836","NA","NA","483.065100001113","2","psycho","1024","2","48000","-16","experiment","HHSHH","4","even","211008.27769999887","67465.90669999932","NA","NA","206674.8117999996","48225.93480000069","NA","NA","212321.0164000011","48256.96830000015","NA","NA","212429.0766999984","212917.68149999916","212311.2637999984","212428.6663999992","Flanker Task 2.1","66","29323.493000014423","76","yes","1024"
"87.01298701298701","87.01298701298701","385.4004584417535","385.4004584417535","black","psycho","psycho","psycho","0","congruent","uniform","1","undefined","1","s","76","0","0","0","76","0","76","0","76","0","0","0","76","76","76","76","Sat Sep 26 17:09:46 2020","1500","The main experiment item","yes","CS-FlankerTask2.1.osexp","C:/Users/Colton/OneDrive/Desktop","no","mono","no","18","no","white","no","yes","768","psycho","76","76","C:/Users/Colton/OneDrive/Desktop/CS-subject-4.csv","psycho","Lentiform Loewenfeld","3.3.3","0","s","NA","h","NA","NA","s","352.3423000006005","NA","19204.27429999836","NA","NA","352.3423000006005","2","psycho","1024","2","48000","-16","experiment","SSSSS","4","even","212974.74130000046","67465.90669999932","NA","NA","206674.8117999996","48225.93480000069","NA","NA","214283.7170999992","48256.96830000015","NA","NA","214393.1902000004","214750.59930000134","214273.83310000005","214392.67760000075","Flanker Task 2.1","67","29675.835300015024","77","yes","1024"
"87.17948717948718","87.17948717948718","387.3743871796857","387.3743871796857","black","psycho","psycho","psycho","0","congruent","uniform","1","undefined","1","h","77","0","0","0","77","0","77","0","77","0","0","0","77","77","77","77","Sat Sep 26 17:09:46 2020","1500","The main experiment item","yes","CS-FlankerTask2.1.osexp","C:/Users/Colton/OneDrive/Desktop","no","mono","no","18","no","white","no","yes","768","psycho","77","77","C:/Users/Colton/OneDrive/Desktop/CS-subject-4.csv","psycho","Lentiform Loewenfeld","3.3.3","0","h","NA","h","NA","NA","h","539.3669000004593","NA","19204.27429999836","NA","NA","539.3669000004593","2","psycho","1024","2","48000","-16","experiment","HHHHH","4","even","214783.66069999902","67465.90669999932","NA","NA","206674.8117999996","48225.93480000069","NA","NA","216088.78249999907","48256.96830000015","NA","NA","216196.93019999977","216740.73040000076","216079.04899999994","216196.45899999887","Flanker Task 2.1","68","30215.202200015483","78","yes","1024"
"87.34177215189874","87.34177215189874","387.530726582485","387.530726582485","black","psycho","psycho","psycho","0","congruent","uniform","1","undefined","1","s","78","0","0","0","78","0","78","0","78","0","0","0","78","78","78","78","Sat Sep 26 17:09:46 2020","1500","The main experiment item","yes","CS-FlankerTask2.1.osexp","C:/Users/Colton/OneDrive/Desktop","no","mono","no","18","no","white","no","yes","768","psycho","78","78","C:/Users/Colton/OneDrive/Desktop/CS-subject-4.csv","psycho","Lentiform Loewenfeld","3.3.3","0","s","NA","h","NA","NA","s","399.7252000008302","NA","19204.27429999836","NA","NA","399.7252000008302","2","psycho","1024","2","48000","-16","experiment","SSSSS","4","even","216774.4003000007","67465.90669999932","NA","NA","206674.8117999996","48225.93480000069","NA","NA","218060.10830000014","48256.96830000015","NA","NA","218168.27909999847","218573.01599999846","218050.73690000063","218167.60129999966","Flanker Task 2.1","69","30614.927400016313","79","yes","1024"
"87.5","87.5","388.41589500020746","388.41589500020746","black","psycho","psycho","psycho","0","incongruent","uniform","1","undefined","1","s","79","0","0","0","79","0","79","0","79","0","0","0","79","79","79","79","Sat Sep 26 17:09:46 2020","1500","The main experiment item","yes","CS-FlankerTask2.1.osexp","C:/Users/Colton/OneDrive/Desktop","no","mono","no","18","no","white","no","yes","768","psycho","79","79","C:/Users/Colton/OneDrive/Desktop/CS-subject-4.csv","psycho","Lentiform Loewenfeld","3.3.3","0","s","NA","h","NA","NA","s","458.3442000002833","NA","19204.27429999836","NA","NA","458.3442000002833","2","psycho","1024","2","48000","-16","experiment","HHSHH","4","even","218629.04069999786","67465.90669999932","NA","NA","206674.8117999996","48225.93480000069","NA","NA","219925.8430000009","48256.96830000015","NA","NA","220034.42859999996","220497.37620000087","219917.061199998","220033.95079999973","Flanker Task 2.1","70","31073.271600016596","80","yes","1024"
"86.41975308641975","86.41975308641975","388.3673074076033","388.3673074076033","black","psycho","psycho","psycho","0","incongruent","uniform","0","undefined","0","h","80","0","0","0","80","0","80","0","80","0","0","0","80","80","80","80","Sat Sep 26 17:09:46 2020","600","The main experiment item","yes","CS-FlankerTask2.1.osexp","C:/Users/Colton/OneDrive/Desktop","no","mono","no","18","no","white","no","yes","768","psycho","0","79","C:/Users/Colton/OneDrive/Desktop/CS-subject-4.csv","psycho","Lentiform Loewenfeld","3.3.3","0","s","NA","h","s","NA","s","384.480299999268","NA","19204.27429999836","36093.13480000128","NA","384.480299999268","2","psycho","1024","2","48000","-16","experiment","SSHSS","4","even","220574.8351000002","67465.90669999932","257851.91269999996","NA","206674.8117999996","48225.93480000069","NA","NA","258041.18010000093","48256.96830000015","221754.12159999905","NA","258151.49100000053","258541.00459999972","258031.5273999986","258151.06789999845","Flanker Task 2.1","70","31457.751900015865","81","yes","1024"
"86.58536585365853","86.58536585365853","387.9409963416792","387.9409963416792","black","psycho","psycho","psycho","0","congruent","uniform","1","undefined","1","h","81","0","0","0","81","0","81","0","81","0","0","0","81","81","81","81","Sat Sep 26 17:09:46 2020","600","The main experiment item","yes","CS-FlankerTask2.1.osexp","C:/Users/Colton/OneDrive/Desktop","no","mono","no","18","no","white","no","yes","768","psycho","1","79","C:/Users/Colton/OneDrive/Desktop/CS-subject-4.csv","psycho","Lentiform Loewenfeld","3.3.3","0","h","NA","h","s","NA","h","353.40980000182753","NA","19204.27429999836","36093.13480000128","NA","353.40980000182753","2","psycho","1024","2","48000","-16","experiment","HHHHH","4","even","259098.47869999794","67465.90669999932","257851.91269999996","NA","258575.9188000011","48225.93480000069","NA","NA","260411.77740000057","48256.96830000015","221754.12159999905","NA","260521.36819999942","260879.76659999913","260401.60059999835","260520.85729999817","Flanker Task 2.1","71","31811.161700017692","82","yes","1024"
"86.74698795180723","86.74698795180723","387.6639120484119","387.6639120484119","black","psycho","psycho","psycho","0","congruent","uniform","1","undefined","1","h","82","0","0","0","82","0","82","0","82","0","0","0","82","82","82","82","Sat Sep 26 17:09:46 2020","600","The main experiment item","yes","CS-FlankerTask2.1.osexp","C:/Users/Colton/OneDrive/Desktop","no","mono","no","18","no","white","no","yes","768","psycho","2","79","C:/Users/Colton/OneDrive/Desktop/CS-subject-4.csv","psycho","Lentiform Loewenfeld","3.3.3","0","h","NA","h","s","NA","h","364.94300000049407","NA","19204.27429999836","36093.13480000128","NA","364.94300000049407","2","psycho","1024","2","48000","-16","experiment","HHHHH","4","even","260940.56360000104","67465.90669999932","257851.91269999996","NA","258575.9188000011","48225.93480000069","NA","NA","262243.1813000003","48256.96830000015","221754.12159999905","NA","262351.54630000034","262722.16760000086","262233.6049000005","262351.10590000113","Flanker Task 2.1","72","32176.104700018186","83","yes","1024"
"86.9047619047619","86.9047619047619","388.13407261927966","388.13407261927966","black","psycho","psycho","psycho","0","incongruent","uniform","1","undefined","1","s","83","0","0","0","83","0","83","0","83","0","0","0","83","83","83","83","Sat Sep 26 17:09:46 2020","600","The main experiment item","yes","CS-FlankerTask2.1.osexp","C:/Users/Colton/OneDrive/Desktop","no","mono","no","18","no","white","no","yes","768","psycho","3","79","C:/Users/Colton/OneDrive/Desktop/CS-subject-4.csv","psycho","Lentiform Loewenfeld","3.3.3","0","s","NA","h","s","NA","s","427.1574000013061","NA","19204.27429999836","36093.13480000128","NA","427.1574000013061","2","psycho","1024","2","48000","-16","experiment","HHSHH","4","even","262784.6654999994","67465.90669999932","257851.91269999996","NA","258575.9188000011","48225.93480000069","NA","NA","264083.15329999826","48256.96830000015","221754.12159999905","NA","264191.94259999855","264624.287300001","264073.7939999999","264191.45629999915","Flanker Task 2.1","73","32603.262100019492","84","yes","1024"
"87.05882352941177","87.05882352941177","388.88797764726297","388.88797764726297","black","psycho","psycho","psycho","0","incongruent","uniform","1","undefined","1","h","84","0","0","0","84","0","84","0","84","0","0","0","84","84","84","84","Sat Sep 26 17:09:46 2020","600","The main experiment item","yes","CS-FlankerTask2.1.osexp","C:/Users/Colton/OneDrive/Desktop","no","mono","no","18","no","white","no","yes","768","psycho","4","79","C:/Users/Colton/OneDrive/Desktop/CS-subject-4.csv","psycho","Lentiform Loewenfeld","3.3.3","0","h","NA","h","s","NA","h","452.2159999978612","NA","19204.27429999836","36093.13480000128","NA","452.2159999978612","2","psycho","1024","2","48000","-16","experiment","SSHSS","4","even","264687.03699999966","67465.90669999932","257851.91269999996","NA","258575.9188000011","48225.93480000069","NA","NA","266001.8046000005","48256.96830000015","221754.12159999905","NA","266111.1677000008","266568.45299999986","265991.27159999986","266110.6972999987","Flanker Task 2.1","74","33055.47810001735","85","yes","1024"
"87.20930232558139","87.20930232558139","389.12889883740263","389.12889883740263","black","psycho","psycho","psycho","0","congruent","uniform","1","undefined","1","h","85","0","0","0","85","0","85","0","85","0","0","0","85","85","85","85","Sat Sep 26 17:09:46 2020","600","The main experiment item","yes","CS-FlankerTask2.1.osexp","C:/Users/Colton/OneDrive/Desktop","no","mono","no","18","no","white","no","yes","768","psycho","5","79","C:/Users/Colton/OneDrive/Desktop/CS-subject-4.csv","psycho","Lentiform Loewenfeld","3.3.3","0","h","NA","h","s","NA","h","409.60719999927096","NA","19204.27429999836","36093.13480000128","NA","409.60719999927096","2","psycho","1024","2","48000","-16","experiment","HHHHH","4","even","266630.70289999817","67465.90669999932","257851.91269999996","NA","258575.9188000011","48225.93480000069","NA","NA","267942.93370000017","48256.96830000015","221754.12159999905","NA","268051.3318000012","268465.8591000007","267933.98789999995","268050.8889000012","Flanker Task 2.1","75","33465.085300016624","86","yes","1024"
"87.35632183908046","87.35632183908046","390.0065942530349","390.0065942530349","black","psycho","psycho","psycho","0","incongruent","uniform","1","undefined","1","h","86","0","0","0","86","0","86","0","86","0","0","0","86","86","86","86","Sat Sep 26 17:09:46 2020","600","The main experiment item","yes","CS-FlankerTask2.1.osexp","C:/Users/Colton/OneDrive/Desktop","no","mono","no","18","no","white","no","yes","768","psycho","6","79","C:/Users/Colton/OneDrive/Desktop/CS-subject-4.csv","psycho","Lentiform Loewenfeld","3.3.3","0","h","NA","h","s","NA","h","465.48839999741176","NA","19204.27429999836","36093.13480000128","NA","465.48839999741176","2","psycho","1024","2","48000","-16","experiment","SSHSS","4","even","268495.96399999794","67465.90669999932","257851.91269999996","NA","258575.9188000011","48225.93480000069","NA","NA","269808.37650000106","48256.96830000015","221754.12159999905","NA","269918.2507000005","270388.5854","269798.59099999885","269917.72019999917","Flanker Task 2.1","76","33930.573700014036","87","yes","1024"
"87.5","87.5","390.40695568200977","390.40695568200977","black","psycho","psycho","psycho","0","congruent","uniform","1","undefined","1","h","87","0","0","0","87","0","87","0","87","0","0","0","87","87","87","87","Sat Sep 26 17:09:46 2020","600","The main experiment item","yes","CS-FlankerTask2.1.osexp","C:/Users/Colton/OneDrive/Desktop","no","mono","no","18","no","white","no","yes","768","psycho","7","79","C:/Users/Colton/OneDrive/Desktop/CS-subject-4.csv","psycho","Lentiform Loewenfeld","3.3.3","0","h","NA","h","s","NA","h","425.2384000028251","NA","19204.27429999836","36093.13480000128","NA","425.2384000028251","2","psycho","1024","2","48000","-16","experiment","HHHHH","4","even","270418.4987000008","67465.90669999932","257851.91269999996","NA","258575.9188000011","48225.93480000069","NA","NA","271733.16960000014","48256.96830000015","221754.12159999905","NA","271841.80809999816","272272.2523000011","271723.6960000009","271841.3760000003","Flanker Task 2.1","77","34355.81210001686","88","yes","1024"
"87.64044943820225","87.64044943820225","390.5209449440407","390.5209449440407","black","psycho","psycho","psycho","0","incongruent","uniform","1","undefined","1","h","88","0","0","0","88","0","88","0","88","0","0","0","88","88","88","88","Sat Sep 26 17:09:46 2020","600","The main experiment item","yes","CS-FlankerTask2.1.osexp","C:/Users/Colton/OneDrive/Desktop","no","mono","no","18","no","white","no","yes","768","psycho","8","79","C:/Users/Colton/OneDrive/Desktop/CS-subject-4.csv","psycho","Lentiform Loewenfeld","3.3.3","0","h","NA","h","s","NA","h","400.5520000027609","NA","19204.27429999836","36093.13480000128","NA","400.5520000027609","2","psycho","1024","2","48000","-16","experiment","SSHSS","4","even","272333.63459999964","67465.90669999932","257851.91269999996","NA","258575.9188000011","48225.93480000069","NA","NA","273646.6935999997","48256.96830000015","221754.12159999905","NA","273754.8161999985","274160.3931999998","273637.3600000006","273754.3489999989","Flanker Task 2.1","78","34756.36410001962","89","yes","1024"
"87.77777777777777","87.77777777777777","390.6211544446699","390.6211544446699","black","psycho","psycho","psycho","0","incongruent","uniform","1","undefined","1","h","89","0","0","0","89","0","89","0","89","0","0","0","89","89","89","89","Sat Sep 26 17:09:46 2020","600","The main experiment item","yes","CS-FlankerTask2.1.osexp","C:/Users/Colton/OneDrive/Desktop","no","mono","no","18","no","white","no","yes","768","psycho","9","79","C:/Users/Colton/OneDrive/Desktop/CS-subject-4.csv","psycho","Lentiform Loewenfeld","3.3.3","0","h","NA","h","s","NA","h","399.53980000066804","NA","19204.27429999836","36093.13480000128","NA","399.53980000066804","2","psycho","1024","2","48000","-16","experiment","SSHSS","4","even","274219.1410999985","67465.90669999932","257851.91269999996","NA","258575.9188000011","48225.93480000069","NA","NA","275529.28429999884","48256.96830000015","221754.12159999905","NA","275638.94209999853","276043.5518000013","275519.45239999983","275638.4156999993","Flanker Task 2.1","79","35155.90390002029","90","yes","1024"
"87.91208791208791","87.91208791208791","390.1890340661899","390.1890340661899","black","psycho","psycho","psycho","0","congruent","uniform","1","undefined","1","s","90","0","0","0","90","0","90","0","90","0","0","0","90","90","90","90","Sat Sep 26 17:09:46 2020","600","The main experiment item","yes","CS-FlankerTask2.1.osexp","C:/Users/Colton/OneDrive/Desktop","no","mono","no","18","no","white","no","yes","768","psycho","10","79","C:/Users/Colton/OneDrive/Desktop/CS-subject-4.csv","psycho","Lentiform Loewenfeld","3.3.3","0","s","NA","h","s","NA","s","351.29820000298787","NA","19204.27429999836","36093.13480000128","NA","351.29820000298787","2","psycho","1024","2","48000","-16","experiment","SSSSS","4","even","276097.6826000005","67465.90669999932","257851.91269999996","NA","258575.9188000011","48225.93480000069","NA","NA","277399.7969999982","48256.96830000015","221754.12159999905","NA","277508.16149999807","277864.84049999854","277390.60619999876","277507.65219999815","Flanker Task 2.1","80","35507.20210002328","91","yes","1024"
"86.95652173913044","86.95652173913044","389.5403108698425","389.5403108698425","black","psycho","psycho","psycho","0","incongruent","uniform","0","undefined","0","h","91","0","0","0","91","0","91","0","91","0","0","0","91","91","91","91","Sat Sep 26 17:09:46 2020","600","The main experiment item","yes","CS-FlankerTask2.1.osexp","C:/Users/Colton/OneDrive/Desktop","no","mono","no","18","no","white","no","yes","768","psycho","11","79","C:/Users/Colton/OneDrive/Desktop/CS-subject-4.csv","psycho","Lentiform Loewenfeld","3.3.3","0","s","NA","h","s","NA","s","330.5065000022296","NA","19204.27429999836","36093.13480000128","NA","330.5065000022296","2","psycho","1024","2","48000","-16","experiment","SSHSS","4","even","277920.13869999937","67465.90669999932","257851.91269999996","NA","258575.9188000011","48225.93480000069","NA","NA","279229.4610999997","48256.96830000015","221754.12159999905","NA","279337.5353999982","279673.2215000011","279220.68880000006","279337.08719999774","Flanker Task 2.1","80","35837.70860002551","92","yes","1024"
"87.09677419354838","87.09677419354838","390.1949451615645","390.1949451615645","black","psycho","psycho","psycho","0","congruent","uniform","1","undefined","1","h","92","0","0","0","92","0","92","0","92","0","0","0","92","92","92","92","Sat Sep 26 17:09:46 2020","600","The main experiment item","yes","CS-FlankerTask2.1.osexp","C:/Users/Colton/OneDrive/Desktop","no","mono","no","18","no","white","no","yes","768","psycho","12","79","C:/Users/Colton/OneDrive/Desktop/CS-subject-4.csv","psycho","Lentiform Loewenfeld","3.3.3","0","h","NA","h","s","NA","h","450.42129999998724","NA","19204.27429999836","36093.13480000128","NA","450.42129999998724","2","psycho","1024","2","48000","-16","experiment","HHHHH","4","even","280241.39859999926","67465.90669999932","257851.91269999996","NA","279732.8664999986","48225.93480000069","NA","NA","281552.9319999987","48256.96830000015","221754.12159999905","NA","281661.16619999957","282116.6406000011","281543.83130000136","281660.7005000005","Flanker Task 2.1","81","36288.129900025495","93","yes","1024"
"87.23404255319149","87.23404255319149","390.29704574494747","390.29704574494747","black","psycho","psycho","psycho","0","incongruent","uniform","1","undefined","1","h","93","0","0","0","93","0","93","0","93","0","0","0","93","93","93","93","Sat Sep 26 17:09:46 2020","600","The main experiment item","yes","CS-FlankerTask2.1.osexp","C:/Users/Colton/OneDrive/Desktop","no","mono","no","18","no","white","no","yes","768","psycho","13","79","C:/Users/Colton/OneDrive/Desktop/CS-subject-4.csv","psycho","Lentiform Loewenfeld","3.3.3","0","h","NA","h","s","NA","h","399.79239999956917","NA","19204.27429999836","36093.13480000128","NA","399.79239999956917","2","psycho","1024","2","48000","-16","experiment","SSHSS","4","even","282153.3597999987","67465.90669999932","257851.91269999996","NA","279732.8664999986","48225.93480000069","NA","NA","283459.4333999994","48256.96830000015","221754.12159999905","NA","283567.6084000006","283972.619600001","283450.6161999998","283567.1734999996","Flanker Task 2.1","82","36687.922300025064","94","yes","1024"
"87.36842105263158","87.36842105263158","390.11715263186426","390.11715263186426","black","psycho","psycho","psycho","0","incongruent","uniform","1","undefined","1","h","94","0","0","0","94","0","94","0","94","0","0","0","94","94","94","94","Sat Sep 26 17:09:46 2020","600","The main experiment item","yes","CS-FlankerTask2.1.osexp","C:/Users/Colton/OneDrive/Desktop","no","mono","no","18","no","white","no","yes","768","psycho","14","79","C:/Users/Colton/OneDrive/Desktop/CS-subject-4.csv","psycho","Lentiform Loewenfeld","3.3.3","0","h","NA","h","s","NA","h","373.20720000204165","NA","19204.27429999836","36093.13480000128","NA","373.20720000204165","2","psycho","1024","2","48000","-16","experiment","SSHSS","4","even","284032.5115999986","67465.90669999932","257851.91269999996","NA","279732.8664999986","48225.93480000069","NA","NA","285332.7686000011","48256.96830000015","221754.12159999905","NA","285441.0720999986","285820.1679000013","285324.2514999984","285440.6439000013","Flanker Task 2.1","83","37061.129500027106","95","yes","1024"
"87.5","87.5","390.0710114586066","390.0710114586066","black","psycho","psycho","psycho","0","incongruent","uniform","1","undefined","1","h","95","0","0","0","95","0","95","0","95","0","0","0","95","95","95","95","Sat Sep 26 17:09:46 2020","600","The main experiment item","yes","CS-FlankerTask2.1.osexp","C:/Users/Colton/OneDrive/Desktop","no","mono","no","18","no","white","no","yes","768","psycho","15","79","C:/Users/Colton/OneDrive/Desktop/CS-subject-4.csv","psycho","Lentiform Loewenfeld","3.3.3","0","h","NA","h","s","NA","h","385.68759999913163","NA","19204.27429999836","36093.13480000128","NA","385.68759999913163","2","psycho","1024","2","48000","-16","experiment","SSHSS","4","even","285852.1914999983","67465.90669999932","257851.91269999996","NA","279732.8664999986","48225.93480000069","NA","NA","287161.05880000035","48256.96830000015","221754.12159999905","NA","287269.9033999997","287660.856399998","287150.5207999981","287269.35049999884","Flanker Task 2.1","84","37446.81710002624","96","yes","1024"
"87.62886597938144","87.62886597938144","389.87822680439757","389.87822680439757","black","psycho","psycho","psycho","0","congruent","uniform","1","undefined","1","s","96","0","0","0","96","0","96","0","96","0","0","0","96","96","96","96","Sat Sep 26 17:09:46 2020","600","The main experiment item","yes","CS-FlankerTask2.1.osexp","C:/Users/Colton/OneDrive/Desktop","no","mono","no","18","no","white","no","yes","768","psycho","16","79","C:/Users/Colton/OneDrive/Desktop/CS-subject-4.csv","psycho","Lentiform Loewenfeld","3.3.3","0","s","NA","h","s","NA","s","371.37090000032913","NA","19204.27429999836","36093.13480000128","NA","371.37090000032913","2","psycho","1024","2","48000","-16","experiment","SSSSS","4","even","287697.3871000009","67465.90669999932","257851.91269999996","NA","279732.8664999986","48225.93480000069","NA","NA","288996.71939999826","48256.96830000015","221754.12159999905","NA","289104.9985999998","289482.10290000134","288987.4820000004","289104.45740000065","Flanker Task 2.1","85","37818.18800002657","97","yes","1024"
