acc,accuracy,average_response_time,avg_rt,background,canvas_backend,clock_backend,color_backend,condition,correct,correct_instructions1,correct_keyboard_response,correct_response,count_ISI,count_block1,count_block2,count_block3,count_errorFeedback,count_experiment,count_faster,count_finish,count_fixation,count_instructions1,count_instructions2,count_instructions3,count_keyboard_response,count_logger,count_new_sketchpad,count_sequence,count_stimulus,datetime,deadline,description,disable_garbage_collection,experiment_file,experiment_path,font_bold,font_family,font_italic,font_size,font_underline,foreground,form_clicks,fullscreen,height,keyboard_backend,live_row,live_row_block1,logfile,mouse_backend,opensesame_codename,opensesame_version,repeat_cycle,response,response_finish,response_instructions1,response_instructions2,response_instructions3,response_keyboard_response,response_new_sketchpad,response_time,response_time_finish,response_time_instructions1,response_time_instructions2,response_time_instructions3,response_time_keyboard_response,response_time_new_sketchpad,round_decimals,sampler_backend,sound_buf_size,sound_channels,sound_freq,sound_sample_size,start,stimulus,subject_nr,subject_parity,time_ISI,time_block1,time_block2,time_block3,time_errorFeedback,time_experiment,time_faster,time_finish,time_fixation,time_instructions1,time_instructions2,time_instructions3,time_keyboard_response,time_logger,time_new_sketchpad,time_sequence,time_stimulus,title,total_correct,total_response_time,total_responses,width
100,100,940,940,black,legacy,legacy,legacy,incongruent,1,undefined,1,h,0,0,0,0,0,0,0,0,0,0,0,0,0,0,NA,0,0,Thu Sep 21 14:19:19 2023,1500,The main experiment item,TRUE,FlankerTask.osexp,C:\Users\Simone\Desktop,FALSE,mono,FALSE,18,no,white,no,yes,768,legacy,0,0,C:/Users/Simone/Desktop/SD-subject-3.csv,legacy,Melodramatic Milgram,4.0.5,0,h,NA,s,NA,NA,h,NA,940,NA,5753,NA,NA,940,NA,2,legacy,1024,2,48000,-16,experiment,SSHSS,3,odd,NA,8130,NA,NA,NA,2372,NA,NA,8210,2376,NA,NA,8311,9251,NA,8208,8311,Flanker Task,1,940,1,1024
100,100,703,703,black,legacy,legacy,legacy,incongruent,1,undefined,1,s,1,0,0,0,1,0,1,0,1,0,0,0,1,1,NA,1,1,Thu Sep 21 14:19:19 2023,1500,The main experiment item,TRUE,FlankerTask.osexp,C:\Users\Simone\Desktop,FALSE,mono,FALSE,18,no,white,no,yes,768,legacy,1,1,C:/Users/Simone/Desktop/SD-subject-3.csv,legacy,Melodramatic Milgram,4.0.5,0,s,NA,s,NA,NA,s,NA,467,NA,5753,NA,NA,467,NA,2,legacy,1024,2,48000,-16,experiment,HHSHH,3,odd,9258,8130,NA,NA,NA,2372,NA,NA,10302,2376,NA,NA,10406,10873,NA,10299,10406,Flanker Task,2,1407,2,1024
100,100,609,609,black,legacy,legacy,legacy,incongruent,1,undefined,1,s,2,0,0,0,2,0,2,0,2,0,0,0,2,2,NA,2,2,Thu Sep 21 14:19:19 2023,1500,The main experiment item,TRUE,FlankerTask.osexp,C:\Users\Simone\Desktop,FALSE,mono,FALSE,18,no,white,no,yes,768,legacy,2,2,C:/Users/Simone/Desktop/SD-subject-3.csv,legacy,Melodramatic Milgram,4.0.5,0,s,NA,s,NA,NA,s,NA,422,NA,5753,NA,NA,422,NA,2,legacy,1024,2,48000,-16,experiment,HHSHH,3,odd,10877,8130,NA,NA,NA,2372,NA,NA,11908,2376,NA,NA,12009,12431,NA,11907,12009,Flanker Task,3,1829,3,1024
100,100,565,565,black,legacy,legacy,legacy,incongruent,1,undefined,1,s,3,0,0,0,3,0,3,0,3,0,0,0,3,3,NA,3,3,Thu Sep 21 14:19:19 2023,1500,The main experiment item,TRUE,FlankerTask.osexp,C:\Users\Simone\Desktop,FALSE,mono,FALSE,18,no,white,no,yes,768,legacy,3,3,C:/Users/Simone/Desktop/SD-subject-3.csv,legacy,Melodramatic Milgram,4.0.5,0,s,NA,s,NA,NA,s,NA,433,NA,5753,NA,NA,433,NA,2,legacy,1024,2,48000,-16,experiment,HHSHH,3,odd,12434,8130,NA,NA,NA,2372,NA,NA,13465,2376,NA,NA,13566,13999,NA,13463,13566,Flanker Task,4,2262,4,1024
100,100,517,517,black,legacy,legacy,legacy,congruent ,1,undefined,1,h,4,0,0,0,4,0,4,0,4,0,0,0,4,4,NA,4,4,Thu Sep 21 14:19:19 2023,1500,The main experiment item,TRUE,FlankerTask.osexp,C:\Users\Simone\Desktop,FALSE,mono,FALSE,18,no,white,no,yes,768,legacy,4,4,C:/Users/Simone/Desktop/SD-subject-3.csv,legacy,Melodramatic Milgram,4.0.5,0,h,NA,s,NA,NA,h,NA,327,NA,5753,NA,NA,327,NA,2,legacy,1024,2,48000,-16,experiment,HHHHH,3,odd,14003,8130,NA,NA,NA,2372,NA,NA,15034,2376,NA,NA,15135,15463,NA,15033,15135,Flanker Task,5,2589,5,1024
100,100,491,491,black,legacy,legacy,legacy,congruent ,1,undefined,1,s,5,0,0,0,5,0,5,0,5,0,0,0,5,5,NA,5,5,Thu Sep 21 14:19:19 2023,1500,The main experiment item,TRUE,FlankerTask.osexp,C:\Users\Simone\Desktop,FALSE,mono,FALSE,18,no,white,no,yes,768,legacy,5,5,C:/Users/Simone/Desktop/SD-subject-3.csv,legacy,Melodramatic Milgram,4.0.5,0,s,NA,s,NA,NA,s,NA,359,NA,5753,NA,NA,359,NA,2,legacy,1024,2,48000,-16,experiment,SSSSS,3,odd,15466,8130,NA,NA,NA,2372,NA,NA,16490,2376,NA,NA,16591,16950,NA,16488,16591,Flanker Task,6,2948,6,1024
100,100,468,468,black,legacy,legacy,legacy,congruent ,1,undefined,1,s,6,0,0,0,6,0,6,0,6,0,0,0,6,6,NA,6,6,Thu Sep 21 14:19:19 2023,1500,The main experiment item,TRUE,FlankerTask.osexp,C:\Users\Simone\Desktop,FALSE,mono,FALSE,18,no,white,no,yes,768,legacy,6,6,C:/Users/Simone/Desktop/SD-subject-3.csv,legacy,Melodramatic Milgram,4.0.5,0,s,NA,s,NA,NA,s,NA,329,NA,5753,NA,NA,329,NA,2,legacy,1024,2,48000,-16,experiment,SSSSS,3,odd,16953,8130,NA,NA,NA,2372,NA,NA,17990,2376,NA,NA,18091,18421,NA,17987,18091,Flanker Task,7,3277,7,1024
100,100,460,460,black,legacy,legacy,legacy,congruent ,1,undefined,1,h,7,0,0,0,7,0,7,0,7,0,0,0,7,7,NA,7,7,Thu Sep 21 14:19:19 2023,1500,The main experiment item,TRUE,FlankerTask.osexp,C:\Users\Simone\Desktop,FALSE,mono,FALSE,18,no,white,no,yes,768,legacy,7,7,C:/Users/Simone/Desktop/SD-subject-3.csv,legacy,Melodramatic Milgram,4.0.5,0,h,NA,s,NA,NA,h,NA,406,NA,5753,NA,NA,406,NA,2,legacy,1024,2,48000,-16,experiment,HHHHH,3,odd,18425,8130,NA,NA,NA,2372,NA,NA,19457,2376,NA,NA,19558,19964,NA,19455,19558,Flanker Task,8,3683,8,1024
100,100,456,456,black,legacy,legacy,legacy,incongruent,1,undefined,1,s,8,0,0,0,8,0,8,0,8,0,0,0,8,8,NA,8,8,Thu Sep 21 14:19:19 2023,1500,The main experiment item,TRUE,FlankerTask.osexp,C:\Users\Simone\Desktop,FALSE,mono,FALSE,18,no,white,no,yes,768,legacy,8,8,C:/Users/Simone/Desktop/SD-subject-3.csv,legacy,Melodramatic Milgram,4.0.5,0,s,NA,s,NA,NA,s,NA,429,NA,5753,NA,NA,429,NA,2,legacy,1024,2,48000,-16,experiment,HHSHH,3,odd,19967,8130,NA,NA,NA,2372,NA,NA,20998,2376,NA,NA,21100,21529,NA,20996,21100,Flanker Task,9,4112,9,1024
100,100,449,449,black,legacy,legacy,legacy,congruent ,1,undefined,1,s,9,0,0,0,9,0,9,0,9,0,0,0,9,9,NA,9,9,Thu Sep 21 14:19:19 2023,1500,The main experiment item,TRUE,FlankerTask.osexp,C:\Users\Simone\Desktop,FALSE,mono,FALSE,18,no,white,no,yes,768,legacy,9,9,C:/Users/Simone/Desktop/SD-subject-3.csv,legacy,Melodramatic Milgram,4.0.5,0,s,NA,s,NA,NA,s,NA,382,NA,5753,NA,NA,382,NA,2,legacy,1024,2,48000,-16,experiment,SSSSS,3,odd,21532,8130,NA,NA,NA,2372,NA,NA,22567,2376,NA,NA,22668,23050,NA,22564,22668,Flanker Task,10,4494,10,1024
100,100,443,443,black,legacy,legacy,legacy,congruent ,1,undefined,1,h,10,0,0,0,10,0,10,0,10,0,0,0,10,10,NA,10,10,Thu Sep 21 14:19:19 2023,1500,The main experiment item,TRUE,FlankerTask.osexp,C:\Users\Simone\Desktop,FALSE,mono,FALSE,18,no,white,no,yes,768,legacy,10,10,C:/Users/Simone/Desktop/SD-subject-3.csv,legacy,Melodramatic Milgram,4.0.5,0,h,NA,s,NA,NA,h,NA,389,NA,5753,NA,NA,389,NA,2,legacy,1024,2,48000,-16,experiment,HHHHH,3,odd,23052,8130,NA,NA,NA,2372,NA,NA,24088,2376,NA,NA,24189,24578,NA,24086,24189,Flanker Task,11,4883,11,1024
100,100,443,443,black,legacy,legacy,legacy,congruent ,1,undefined,1,h,11,0,0,0,11,0,11,0,11,0,0,0,11,11,NA,11,11,Thu Sep 21 14:19:19 2023,1500,The main experiment item,TRUE,FlankerTask.osexp,C:\Users\Simone\Desktop,FALSE,mono,FALSE,18,no,white,no,yes,768,legacy,11,11,C:/Users/Simone/Desktop/SD-subject-3.csv,legacy,Melodramatic Milgram,4.0.5,0,h,NA,s,NA,NA,h,NA,439,NA,5753,NA,NA,439,NA,2,legacy,1024,2,48000,-16,experiment,HHHHH,3,odd,24581,8130,NA,NA,NA,2372,NA,NA,25626,2376,NA,NA,25728,26168,NA,25622,25727,Flanker Task,12,5322,12,1024
100,100,440,440,black,legacy,legacy,legacy,congruent ,1,undefined,1,h,12,0,0,0,12,0,12,0,12,0,0,0,12,12,NA,12,12,Thu Sep 21 14:19:19 2023,1500,The main experiment item,TRUE,FlankerTask.osexp,C:\Users\Simone\Desktop,FALSE,mono,FALSE,18,no,white,no,yes,768,legacy,12,12,C:/Users/Simone/Desktop/SD-subject-3.csv,legacy,Melodramatic Milgram,4.0.5,0,h,NA,s,NA,NA,h,NA,407,NA,5753,NA,NA,407,NA,2,legacy,1024,2,48000,-16,experiment,HHHHH,3,odd,26172,8130,NA,NA,NA,2372,NA,NA,27206,2376,NA,NA,27307,27714,NA,27204,27307,Flanker Task,13,5729,13,1024
100,100,442,442,black,legacy,legacy,legacy,incongruent,1,undefined,1,s,13,0,0,0,13,0,13,0,13,0,0,0,13,13,NA,13,13,Thu Sep 21 14:19:19 2023,1500,The main experiment item,TRUE,FlankerTask.osexp,C:\Users\Simone\Desktop,FALSE,mono,FALSE,18,no,white,no,yes,768,legacy,13,13,C:/Users/Simone/Desktop/SD-subject-3.csv,legacy,Melodramatic Milgram,4.0.5,0,s,NA,s,NA,NA,s,NA,466,NA,5753,NA,NA,466,NA,2,legacy,1024,2,48000,-16,experiment,HHSHH,3,odd,27718,8130,NA,NA,NA,2372,NA,NA,28750,2376,NA,NA,28851,29318,NA,28748,28851,Flanker Task,14,6195,14,1024
100,100,440,440,black,legacy,legacy,legacy,congruent ,1,undefined,1,h,14,0,0,0,14,0,14,0,14,0,0,0,14,14,NA,14,14,Thu Sep 21 14:19:19 2023,1500,The main experiment item,TRUE,FlankerTask.osexp,C:\Users\Simone\Desktop,FALSE,mono,FALSE,18,no,white,no,yes,768,legacy,14,14,C:/Users/Simone/Desktop/SD-subject-3.csv,legacy,Melodramatic Milgram,4.0.5,0,h,NA,s,NA,NA,h,NA,406,NA,5753,NA,NA,406,NA,2,legacy,1024,2,48000,-16,experiment,HHHHH,3,odd,29322,8130,NA,NA,NA,2372,NA,NA,30357,2376,NA,NA,30459,30865,NA,30354,30459,Flanker Task,15,6601,15,1024
100,100,435,435,black,legacy,legacy,legacy,congruent ,1,undefined,1,s,15,0,0,0,15,0,15,0,15,0,0,0,15,15,NA,15,15,Thu Sep 21 14:19:19 2023,1500,The main experiment item,TRUE,FlankerTask.osexp,C:\Users\Simone\Desktop,FALSE,mono,FALSE,18,no,white,no,yes,768,legacy,15,15,C:/Users/Simone/Desktop/SD-subject-3.csv,legacy,Melodramatic Milgram,4.0.5,0,s,NA,s,NA,NA,s,NA,360,NA,5753,NA,NA,360,NA,2,legacy,1024,2,48000,-16,experiment,SSSSS,3,odd,30869,8130,NA,NA,NA,2372,NA,NA,31901,2376,NA,NA,32002,32362,NA,31899,32002,Flanker Task,16,6961,16,1024
94,94,430,430,black,legacy,legacy,legacy,incongruent,0,undefined,0,h,16,0,0,0,16,0,16,0,16,0,0,0,16,16,NA,16,16,Thu Sep 21 14:19:19 2023,1500,The main experiment item,TRUE,FlankerTask.osexp,C:\Users\Simone\Desktop,FALSE,mono,FALSE,18,no,white,no,yes,768,legacy,16,16,C:/Users/Simone/Desktop/SD-subject-3.csv,legacy,Melodramatic Milgram,4.0.5,0,s,NA,s,NA,NA,s,NA,355,NA,5753,NA,NA,355,NA,2,legacy,1024,2,48000,-16,experiment,SSHSS,3,odd,32366,8130,NA,NA,NA,2372,NA,NA,33399,2376,NA,NA,33500,33856,NA,33397,33500,Flanker Task,16,7316,17,1024
94,94,436,436,black,legacy,legacy,legacy,congruent ,1,undefined,1,s,17,0,0,0,17,0,17,0,17,0,0,0,17,17,NA,17,17,Thu Sep 21 14:19:19 2023,1500,The main experiment item,TRUE,FlankerTask.osexp,C:\Users\Simone\Desktop,FALSE,mono,FALSE,18,no,white,no,yes,768,legacy,17,17,C:/Users/Simone/Desktop/SD-subject-3.csv,legacy,Melodramatic Milgram,4.0.5,0,s,NA,s,NA,NA,s,NA,547,NA,5753,NA,NA,547,NA,2,legacy,1024,2,48000,-16,experiment,SSSSS,3,odd,34360,8130,NA,NA,33859,2372,NA,NA,35385,2376,NA,NA,35486,36034,NA,35383,35486,Flanker Task,17,7863,18,1024
94,94,443,443,black,legacy,legacy,legacy,incongruent,1,undefined,1,s,18,0,0,0,18,0,18,0,18,0,0,0,18,18,NA,18,18,Thu Sep 21 14:19:19 2023,1500,The main experiment item,TRUE,FlankerTask.osexp,C:\Users\Simone\Desktop,FALSE,mono,FALSE,18,no,white,no,yes,768,legacy,18,18,C:/Users/Simone/Desktop/SD-subject-3.csv,legacy,Melodramatic Milgram,4.0.5,0,s,NA,s,NA,NA,s,NA,564,NA,5753,NA,NA,564,NA,2,legacy,1024,2,48000,-16,experiment,HHSHH,3,odd,36038,8130,NA,NA,33859,2372,NA,NA,37070,2376,NA,NA,37171,37736,NA,37068,37171,Flanker Task,18,8427,19,1024
90,90,438,438,black,legacy,legacy,legacy,incongruent,0,undefined,0,s,19,0,0,0,19,0,19,0,19,0,0,0,19,19,NA,19,19,Thu Sep 21 14:19:19 2023,1500,The main experiment item,TRUE,FlankerTask.osexp,C:\Users\Simone\Desktop,FALSE,mono,FALSE,18,no,white,no,yes,768,legacy,19,19,C:/Users/Simone/Desktop/SD-subject-3.csv,legacy,Melodramatic Milgram,4.0.5,0,h,NA,s,NA,NA,h,NA,341,NA,5753,NA,NA,341,NA,2,legacy,1024,2,48000,-16,experiment,HHSHH,3,odd,37740,8130,NA,NA,33859,2372,NA,NA,38778,2376,NA,NA,38879,39220,NA,38776,38879,Flanker Task,18,8768,20,1024
90,90,442,442,black,legacy,legacy,legacy,incongruent,1,undefined,1,s,20,0,0,0,20,0,20,0,20,0,0,0,20,20,NA,20,20,Thu Sep 21 14:19:19 2023,1500,The main experiment item,TRUE,FlankerTask.osexp,C:\Users\Simone\Desktop,FALSE,mono,FALSE,18,no,white,no,yes,768,legacy,20,20,C:/Users/Simone/Desktop/SD-subject-3.csv,legacy,Melodramatic Milgram,4.0.5,0,s,NA,s,NA,NA,s,NA,519,NA,5753,NA,NA,519,NA,2,legacy,1024,2,48000,-16,experiment,HHSHH,3,odd,39725,8130,NA,NA,39224,2372,NA,NA,40769,2376,NA,NA,40870,41389,NA,40763,40870,Flanker Task,19,9287,21,1024
90,90,444,444,black,legacy,legacy,legacy,incongruent,1,undefined,1,s,21,0,0,0,21,0,21,0,21,0,0,0,21,21,NA,21,21,Thu Sep 21 14:19:19 2023,1500,The main experiment item,TRUE,FlankerTask.osexp,C:\Users\Simone\Desktop,FALSE,mono,FALSE,18,no,white,no,yes,768,legacy,21,21,C:/Users/Simone/Desktop/SD-subject-3.csv,legacy,Melodramatic Milgram,4.0.5,0,s,NA,s,NA,NA,s,NA,492,NA,5753,NA,NA,492,NA,2,legacy,1024,2,48000,-16,experiment,HHSHH,3,odd,41394,8130,NA,NA,39224,2372,NA,NA,42425,2376,NA,NA,42526,43019,NA,42423,42526,Flanker Task,20,9779,22,1024
91,91,443,443,black,legacy,legacy,legacy,congruent ,1,undefined,1,h,22,0,0,0,22,0,22,0,22,0,0,0,22,22,NA,22,22,Thu Sep 21 14:19:19 2023,1500,The main experiment item,TRUE,FlankerTask.osexp,C:\Users\Simone\Desktop,FALSE,mono,FALSE,18,no,white,no,yes,768,legacy,22,22,C:/Users/Simone/Desktop/SD-subject-3.csv,legacy,Melodramatic Milgram,4.0.5,0,h,NA,s,NA,NA,h,NA,414,NA,5753,NA,NA,414,NA,2,legacy,1024,2,48000,-16,experiment,HHHHH,3,odd,43021,8130,NA,NA,39224,2372,NA,NA,44057,2376,NA,NA,44158,44573,NA,44055,44158,Flanker Task,21,10193,23,1024
91,91,442,442,black,legacy,legacy,legacy,incongruent,1,undefined,1,h,23,0,0,0,23,0,23,0,23,0,0,0,23,23,NA,23,23,Thu Sep 21 14:19:19 2023,1500,The main experiment item,TRUE,FlankerTask.osexp,C:\Users\Simone\Desktop,FALSE,mono,FALSE,18,no,white,no,yes,768,legacy,23,23,C:/Users/Simone/Desktop/SD-subject-3.csv,legacy,Melodramatic Milgram,4.0.5,0,h,NA,s,NA,NA,h,NA,438,NA,5753,NA,NA,438,NA,2,legacy,1024,2,48000,-16,experiment,SSHSS,3,odd,44576,8130,NA,NA,39224,2372,NA,NA,45615,2376,NA,NA,45717,46155,NA,45612,45717,Flanker Task,22,10631,24,1024
92,92,441,441,black,legacy,legacy,legacy,incongruent,1,undefined,1,s,24,0,0,0,24,0,24,0,24,0,0,0,24,24,NA,24,24,Thu Sep 21 14:19:19 2023,1500,The main experiment item,TRUE,FlankerTask.osexp,C:\Users\Simone\Desktop,FALSE,mono,FALSE,18,no,white,no,yes,768,legacy,24,24,C:/Users/Simone/Desktop/SD-subject-3.csv,legacy,Melodramatic Milgram,4.0.5,0,s,NA,s,NA,NA,s,NA,404,NA,5753,NA,NA,404,NA,2,legacy,1024,2,48000,-16,experiment,HHSHH,3,odd,46159,8130,NA,NA,39224,2372,NA,NA,47185,2376,NA,NA,47286,47690,NA,47183,47286,Flanker Task,23,11035,25,1024
92,92,439,439,black,legacy,legacy,legacy,incongruent,1,undefined,1,s,25,0,0,0,25,0,25,0,25,0,0,0,25,25,NA,25,25,Thu Sep 21 14:19:19 2023,1500,The main experiment item,TRUE,FlankerTask.osexp,C:\Users\Simone\Desktop,FALSE,mono,FALSE,18,no,white,no,yes,768,legacy,25,25,C:/Users/Simone/Desktop/SD-subject-3.csv,legacy,Melodramatic Milgram,4.0.5,0,s,NA,s,NA,NA,s,NA,404,NA,5753,NA,NA,404,NA,2,legacy,1024,2,48000,-16,experiment,HHSHH,3,odd,47694,8130,NA,NA,39224,2372,NA,NA,48726,2376,NA,NA,48827,49231,NA,48724,48827,Flanker Task,24,11439,26,1024
92,92,438,438,black,legacy,legacy,legacy,incongruent,1,undefined,1,s,26,0,0,0,26,0,26,0,26,0,0,0,26,26,NA,26,26,Thu Sep 21 14:19:19 2023,1500,The main experiment item,TRUE,FlankerTask.osexp,C:\Users\Simone\Desktop,FALSE,mono,FALSE,18,no,white,no,yes,768,legacy,26,26,C:/Users/Simone/Desktop/SD-subject-3.csv,legacy,Melodramatic Milgram,4.0.5,0,s,NA,s,NA,NA,s,NA,406,NA,5753,NA,NA,406,NA,2,legacy,1024,2,48000,-16,experiment,HHSHH,3,odd,49235,8130,NA,NA,39224,2372,NA,NA,50265,2376,NA,NA,50366,50772,NA,50264,50366,Flanker Task,25,11845,27,1024
92,92,436,436,black,legacy,legacy,legacy,congruent ,1,undefined,1,s,27,0,0,0,27,0,27,0,27,0,0,0,27,27,NA,27,27,Thu Sep 21 14:19:19 2023,1500,The main experiment item,TRUE,FlankerTask.osexp,C:\Users\Simone\Desktop,FALSE,mono,FALSE,18,no,white,no,yes,768,legacy,27,27,C:/Users/Simone/Desktop/SD-subject-3.csv,legacy,Melodramatic Milgram,4.0.5,0,s,NA,s,NA,NA,s,NA,373,NA,5753,NA,NA,373,NA,2,legacy,1024,2,48000,-16,experiment,SSSSS,3,odd,50776,8130,NA,NA,39224,2372,NA,NA,51807,2376,NA,NA,51908,52282,NA,51805,51908,Flanker Task,26,12218,28,1024
93,93,435,435,black,legacy,legacy,legacy,incongruent,1,undefined,1,s,28,0,0,0,28,0,28,0,28,0,0,0,28,28,NA,28,28,Thu Sep 21 14:19:19 2023,1500,The main experiment item,TRUE,FlankerTask.osexp,C:\Users\Simone\Desktop,FALSE,mono,FALSE,18,no,white,no,yes,768,legacy,28,28,C:/Users/Simone/Desktop/SD-subject-3.csv,legacy,Melodramatic Milgram,4.0.5,0,s,NA,s,NA,NA,s,NA,399,NA,5753,NA,NA,399,NA,2,legacy,1024,2,48000,-16,experiment,HHSHH,3,odd,52285,8130,NA,NA,39224,2372,NA,NA,53319,2376,NA,NA,53420,53819,NA,53316,53420,Flanker Task,27,12617,29,1024
93,93,435,435,black,legacy,legacy,legacy,incongruent,1,undefined,1,h,29,0,0,0,29,0,29,0,29,0,0,0,29,29,NA,29,29,Thu Sep 21 14:19:19 2023,1500,The main experiment item,TRUE,FlankerTask.osexp,C:\Users\Simone\Desktop,FALSE,mono,FALSE,18,no,white,no,yes,768,legacy,29,29,C:/Users/Simone/Desktop/SD-subject-3.csv,legacy,Melodramatic Milgram,4.0.5,0,h,NA,s,NA,NA,h,NA,439,NA,5753,NA,NA,439,NA,2,legacy,1024,2,48000,-16,experiment,SSHSS,3,odd,53823,8130,NA,NA,39224,2372,NA,NA,54868,2376,NA,NA,54970,55409,NA,54866,54970,Flanker Task,28,13056,30,1024
93,93,432,432,black,legacy,legacy,legacy,congruent ,1,undefined,1,h,30,0,0,0,30,0,30,0,30,0,0,0,30,30,NA,30,30,Thu Sep 21 14:19:19 2023,1500,The main experiment item,TRUE,FlankerTask.osexp,C:\Users\Simone\Desktop,FALSE,mono,FALSE,18,no,white,no,yes,768,legacy,30,30,C:/Users/Simone/Desktop/SD-subject-3.csv,legacy,Melodramatic Milgram,4.0.5,0,h,NA,s,NA,NA,h,NA,364,NA,5753,NA,NA,364,NA,2,legacy,1024,2,48000,-16,experiment,HHHHH,3,odd,55415,8130,NA,NA,39224,2372,NA,NA,56445,2376,NA,NA,56546,56911,NA,56444,56546,Flanker Task,29,13420,31,1024
93,93,432,432,black,legacy,legacy,legacy,congruent ,1,undefined,1,s,31,0,0,0,31,0,31,0,31,0,0,0,31,31,NA,31,31,Thu Sep 21 14:19:19 2023,1500,The main experiment item,TRUE,FlankerTask.osexp,C:\Users\Simone\Desktop,FALSE,mono,FALSE,18,no,white,no,yes,768,legacy,31,31,C:/Users/Simone/Desktop/SD-subject-3.csv,legacy,Melodramatic Milgram,4.0.5,0,s,NA,s,NA,NA,s,NA,432,NA,5753,NA,NA,432,NA,2,legacy,1024,2,48000,-16,experiment,SSSSS,3,odd,56922,8130,NA,NA,39224,2372,NA,NA,57957,2376,NA,NA,58058,58491,NA,57955,58058,Flanker Task,30,13852,32,1024
93,93,435,435,black,legacy,legacy,legacy,incongruent,1,undefined,1,s,32,0,0,0,32,0,32,0,32,0,0,0,32,32,NA,32,32,Thu Sep 21 14:19:19 2023,1500,The main experiment item,TRUE,FlankerTask.osexp,C:\Users\Simone\Desktop,FALSE,mono,FALSE,18,no,white,no,yes,768,legacy,32,32,C:/Users/Simone/Desktop/SD-subject-3.csv,legacy,Melodramatic Milgram,4.0.5,0,s,NA,s,NA,NA,s,NA,510,NA,5753,NA,NA,510,NA,2,legacy,1024,2,48000,-16,experiment,HHSHH,3,odd,58495,8130,NA,NA,39224,2372,NA,NA,59533,2376,NA,NA,59634,60144,NA,59530,59634,Flanker Task,31,14362,33,1024
91,91,433,433,black,legacy,legacy,legacy,incongruent,0,undefined,0,h,33,0,0,0,33,0,33,0,33,0,0,0,33,33,NA,33,33,Thu Sep 21 14:19:19 2023,1500,The main experiment item,TRUE,FlankerTask.osexp,C:\Users\Simone\Desktop,FALSE,mono,FALSE,18,no,white,no,yes,768,legacy,33,33,C:/Users/Simone/Desktop/SD-subject-3.csv,legacy,Melodramatic Milgram,4.0.5,0,s,NA,s,NA,NA,s,NA,366,NA,5753,NA,NA,366,NA,2,legacy,1024,2,48000,-16,experiment,SSHSS,3,odd,60148,8130,NA,NA,39224,2372,NA,NA,61181,2376,NA,NA,61282,61649,NA,61179,61282,Flanker Task,31,14728,34,1024
91,91,432,432,black,legacy,legacy,legacy,congruent ,1,undefined,1,s,34,0,0,0,34,0,34,0,34,0,0,0,34,34,NA,34,34,Thu Sep 21 14:19:19 2023,1500,The main experiment item,TRUE,FlankerTask.osexp,C:\Users\Simone\Desktop,FALSE,mono,FALSE,18,no,white,no,yes,768,legacy,34,34,C:/Users/Simone/Desktop/SD-subject-3.csv,legacy,Melodramatic Milgram,4.0.5,0,s,NA,s,NA,NA,s,NA,409,NA,5753,NA,NA,409,NA,2,legacy,1024,2,48000,-16,experiment,SSSSS,3,odd,62153,8130,NA,NA,61652,2372,NA,NA,63183,2376,NA,NA,63284,63693,NA,63181,63284,Flanker Task,32,15137,35,1024
91,91,434,434,black,legacy,legacy,legacy,incongruent,1,undefined,1,h,35,0,0,0,35,0,35,0,35,0,0,0,35,35,NA,35,35,Thu Sep 21 14:19:19 2023,1500,The main experiment item,TRUE,FlankerTask.osexp,C:\Users\Simone\Desktop,FALSE,mono,FALSE,18,no,white,no,yes,768,legacy,35,35,C:/Users/Simone/Desktop/SD-subject-3.csv,legacy,Melodramatic Milgram,4.0.5,0,h,NA,s,NA,NA,h,NA,490,NA,5753,NA,NA,490,NA,2,legacy,1024,2,48000,-16,experiment,SSHSS,3,odd,63697,8130,NA,NA,61652,2372,NA,NA,64725,2376,NA,NA,64828,65318,NA,64723,64828,Flanker Task,33,15627,36,1024
91,91,433,433,black,legacy,legacy,legacy,incongruent,1,undefined,1,h,36,0,0,0,36,0,36,0,36,0,0,0,36,36,NA,36,36,Thu Sep 21 14:19:19 2023,1500,The main experiment item,TRUE,FlankerTask.osexp,C:\Users\Simone\Desktop,FALSE,mono,FALSE,18,no,white,no,yes,768,legacy,36,36,C:/Users/Simone/Desktop/SD-subject-3.csv,legacy,Melodramatic Milgram,4.0.5,0,h,NA,s,NA,NA,h,NA,403,NA,5753,NA,NA,403,NA,2,legacy,1024,2,48000,-16,experiment,SSHSS,3,odd,65322,8130,NA,NA,61652,2372,NA,NA,66352,2376,NA,NA,66453,66857,NA,66350,66453,Flanker Task,34,16030,37,1024
92,92,434,434,black,legacy,legacy,legacy,incongruent,1,undefined,1,s,37,0,0,0,37,0,37,0,37,0,0,0,37,37,NA,37,37,Thu Sep 21 14:19:19 2023,1500,The main experiment item,TRUE,FlankerTask.osexp,C:\Users\Simone\Desktop,FALSE,mono,FALSE,18,no,white,no,yes,768,legacy,37,37,C:/Users/Simone/Desktop/SD-subject-3.csv,legacy,Melodramatic Milgram,4.0.5,0,s,NA,s,NA,NA,s,NA,463,NA,5753,NA,NA,463,NA,2,legacy,1024,2,48000,-16,experiment,HHSHH,3,odd,66860,8130,NA,NA,61652,2372,NA,NA,67888,2376,NA,NA,67989,68453,NA,67887,67989,Flanker Task,35,16493,38,1024
92,92,433,433,black,legacy,legacy,legacy,congruent ,1,undefined,1,s,38,0,0,0,38,0,38,0,38,0,0,0,38,38,NA,38,38,Thu Sep 21 14:19:19 2023,1500,The main experiment item,TRUE,FlankerTask.osexp,C:\Users\Simone\Desktop,FALSE,mono,FALSE,18,no,white,no,yes,768,legacy,38,38,C:/Users/Simone/Desktop/SD-subject-3.csv,legacy,Melodramatic Milgram,4.0.5,0,s,NA,s,NA,NA,s,NA,411,NA,5753,NA,NA,411,NA,2,legacy,1024,2,48000,-16,experiment,SSSSS,3,odd,68456,8130,NA,NA,61652,2372,NA,NA,69493,2376,NA,NA,69594,70005,NA,69492,69594,Flanker Task,36,16904,39,1024
92,92,432,432,black,legacy,legacy,legacy,congruent ,1,undefined,1,h,39,0,0,0,39,0,39,0,39,0,0,0,39,39,NA,39,39,Thu Sep 21 14:19:19 2023,1500,The main experiment item,TRUE,FlankerTask.osexp,C:\Users\Simone\Desktop,FALSE,mono,FALSE,18,no,white,no,yes,768,legacy,39,39,C:/Users/Simone/Desktop/SD-subject-3.csv,legacy,Melodramatic Milgram,4.0.5,0,h,NA,s,NA,NA,h,NA,407,NA,5753,NA,NA,407,NA,2,legacy,1024,2,48000,-16,experiment,HHHHH,3,odd,70009,8130,NA,NA,61652,2372,NA,NA,71042,2376,NA,NA,71143,71551,NA,71040,71143,Flanker Task,37,17311,40,1024
92,92,432,432,black,legacy,legacy,legacy,congruent ,1,undefined,1,s,40,0,0,0,40,0,40,0,40,0,0,0,40,40,NA,40,40,Thu Sep 21 14:19:19 2023,1500,The main experiment item,TRUE,FlankerTask.osexp,C:\Users\Simone\Desktop,FALSE,mono,FALSE,18,no,white,no,yes,768,legacy,40,40,C:/Users/Simone/Desktop/SD-subject-3.csv,legacy,Melodramatic Milgram,4.0.5,0,s,NA,s,NA,NA,s,NA,422,NA,5753,NA,NA,422,NA,2,legacy,1024,2,48000,-16,experiment,SSSSS,3,odd,71554,8130,NA,NA,61652,2372,NA,NA,72584,2376,NA,NA,72685,73108,NA,72582,72685,Flanker Task,38,17733,41,1024
92,92,432,432,black,legacy,legacy,legacy,incongruent,1,undefined,1,s,41,0,0,0,41,0,41,0,41,0,0,0,41,41,NA,41,41,Thu Sep 21 14:19:19 2023,1500,The main experiment item,TRUE,FlankerTask.osexp,C:\Users\Simone\Desktop,FALSE,mono,FALSE,18,no,white,no,yes,768,legacy,41,41,C:/Users/Simone/Desktop/SD-subject-3.csv,legacy,Melodramatic Milgram,4.0.5,0,s,NA,s,NA,NA,s,NA,411,NA,5753,NA,NA,411,NA,2,legacy,1024,2,48000,-16,experiment,HHSHH,3,odd,73112,8130,NA,NA,61652,2372,NA,NA,74147,2376,NA,NA,74248,74659,NA,74144,74248,Flanker Task,39,18144,42,1024
93,93,431,431,black,legacy,legacy,legacy,congruent ,1,undefined,1,h,42,0,0,0,42,0,42,0,42,0,0,0,42,42,NA,42,42,Thu Sep 21 14:19:19 2023,1500,The main experiment item,TRUE,FlankerTask.osexp,C:\Users\Simone\Desktop,FALSE,mono,FALSE,18,no,white,no,yes,768,legacy,42,42,C:/Users/Simone/Desktop/SD-subject-3.csv,legacy,Melodramatic Milgram,4.0.5,0,h,NA,s,NA,NA,h,NA,411,NA,5753,NA,NA,411,NA,2,legacy,1024,2,48000,-16,experiment,HHHHH,3,odd,74663,8130,NA,NA,61652,2372,NA,NA,75697,2376,NA,NA,75798,76209,NA,75695,75798,Flanker Task,40,18555,43,1024
93,93,435,435,black,legacy,legacy,legacy,incongruent,1,undefined,1,h,43,0,0,0,43,0,43,0,43,0,0,0,43,43,NA,43,43,Thu Sep 21 14:19:19 2023,1500,The main experiment item,TRUE,FlankerTask.osexp,C:\Users\Simone\Desktop,FALSE,mono,FALSE,18,no,white,no,yes,768,legacy,43,43,C:/Users/Simone/Desktop/SD-subject-3.csv,legacy,Melodramatic Milgram,4.0.5,0,h,NA,s,NA,NA,h,NA,592,NA,5753,NA,NA,592,NA,2,legacy,1024,2,48000,-16,experiment,SSHSS,3,odd,76212,8130,NA,NA,61652,2372,NA,NA,77244,2376,NA,NA,77345,77938,NA,77242,77345,Flanker Task,41,19147,44,1024
93,93,434,434,black,legacy,legacy,legacy,congruent ,1,undefined,1,s,44,0,0,0,44,0,44,0,44,0,0,0,44,44,NA,44,44,Thu Sep 21 14:19:19 2023,1500,The main experiment item,TRUE,FlankerTask.osexp,C:\Users\Simone\Desktop,FALSE,mono,FALSE,18,no,white,no,yes,768,legacy,44,44,C:/Users/Simone/Desktop/SD-subject-3.csv,legacy,Melodramatic Milgram,4.0.5,0,s,NA,s,NA,NA,s,NA,407,NA,5753,NA,NA,407,NA,2,legacy,1024,2,48000,-16,experiment,SSSSS,3,odd,77941,8130,NA,NA,61652,2372,NA,NA,78977,2376,NA,NA,79078,79486,NA,78975,79078,Flanker Task,42,19554,45,1024
93,93,432,432,black,legacy,legacy,legacy,congruent ,1,undefined,1,s,45,0,0,0,45,0,45,0,45,0,0,0,45,45,NA,45,45,Thu Sep 21 14:19:19 2023,1500,The main experiment item,TRUE,FlankerTask.osexp,C:\Users\Simone\Desktop,FALSE,mono,FALSE,18,no,white,no,yes,768,legacy,45,45,C:/Users/Simone/Desktop/SD-subject-3.csv,legacy,Melodramatic Milgram,4.0.5,0,s,NA,s,NA,NA,s,NA,356,NA,5753,NA,NA,356,NA,2,legacy,1024,2,48000,-16,experiment,SSSSS,3,odd,79490,8130,NA,NA,61652,2372,NA,NA,80526,2376,NA,NA,80627,80983,NA,80524,80627,Flanker Task,43,19910,46,1024
93,93,432,432,black,legacy,legacy,legacy,incongruent,1,undefined,1,h,46,0,0,0,46,0,46,0,46,0,0,0,46,46,NA,46,46,Thu Sep 21 14:19:19 2023,1500,The main experiment item,TRUE,FlankerTask.osexp,C:\Users\Simone\Desktop,FALSE,mono,FALSE,18,no,white,no,yes,768,legacy,46,46,C:/Users/Simone/Desktop/SD-subject-3.csv,legacy,Melodramatic Milgram,4.0.5,0,h,NA,s,NA,NA,h,NA,424,NA,5753,NA,NA,424,NA,2,legacy,1024,2,48000,-16,experiment,SSHSS,3,odd,80987,8130,NA,NA,61652,2372,NA,NA,82017,2376,NA,NA,82118,82543,NA,82014,82118,Flanker Task,44,20334,47,1024
93,93,432,432,black,legacy,legacy,legacy,congruent ,1,undefined,1,h,47,0,0,0,47,0,47,0,47,0,0,0,47,47,NA,47,47,Thu Sep 21 14:19:19 2023,1500,The main experiment item,TRUE,FlankerTask.osexp,C:\Users\Simone\Desktop,FALSE,mono,FALSE,18,no,white,no,yes,768,legacy,47,47,C:/Users/Simone/Desktop/SD-subject-3.csv,legacy,Melodramatic Milgram,4.0.5,0,h,NA,s,NA,NA,h,NA,438,NA,5753,NA,NA,438,NA,2,legacy,1024,2,48000,-16,experiment,HHHHH,3,odd,82548,8130,NA,NA,61652,2372,NA,NA,83589,2376,NA,NA,83690,84128,NA,83586,83690,Flanker Task,45,20772,48,1024
93,93,431,431,black,legacy,legacy,legacy,congruent ,1,undefined,1,s,48,0,0,0,48,0,48,0,48,0,0,0,48,48,NA,48,48,Thu Sep 21 14:19:19 2023,1500,The main experiment item,TRUE,FlankerTask.osexp,C:\Users\Simone\Desktop,FALSE,mono,FALSE,18,no,white,no,yes,768,legacy,48,48,C:/Users/Simone/Desktop/SD-subject-3.csv,legacy,Melodramatic Milgram,4.0.5,0,s,NA,s,NA,NA,s,NA,380,NA,5753,NA,NA,380,NA,2,legacy,1024,2,48000,-16,experiment,SSSSS,3,odd,84132,8130,NA,NA,61652,2372,NA,NA,85157,2376,NA,NA,85258,85638,NA,85156,85258,Flanker Task,46,21152,49,1024
92,92,429,429,black,legacy,legacy,legacy,incongruent,0,undefined,0,s,49,0,0,0,49,0,49,0,49,0,0,0,49,49,NA,49,49,Thu Sep 21 14:19:19 2023,1500,The main experiment item,TRUE,FlankerTask.osexp,C:\Users\Simone\Desktop,FALSE,mono,FALSE,18,no,white,no,yes,768,legacy,49,49,C:/Users/Simone/Desktop/SD-subject-3.csv,legacy,Melodramatic Milgram,4.0.5,0,h,NA,s,NA,NA,h,NA,318,NA,5753,NA,NA,318,NA,2,legacy,1024,2,48000,-16,experiment,HHSHH,3,odd,85642,8130,NA,NA,61652,2372,NA,NA,86675,2376,NA,NA,86776,87094,NA,86673,86776,Flanker Task,46,21470,50,1024
92,92,429,429,black,legacy,legacy,legacy,incongruent,1,undefined,1,s,50,0,0,0,50,0,50,0,50,0,0,0,50,50,NA,50,50,Thu Sep 21 14:19:19 2023,1500,The main experiment item,TRUE,FlankerTask.osexp,C:\Users\Simone\Desktop,FALSE,mono,FALSE,18,no,white,no,yes,768,legacy,50,50,C:/Users/Simone/Desktop/SD-subject-3.csv,legacy,Melodramatic Milgram,4.0.5,0,s,NA,s,NA,NA,s,NA,439,NA,5753,NA,NA,439,NA,2,legacy,1024,2,48000,-16,experiment,HHSHH,3,odd,87599,8130,NA,NA,87098,2372,NA,NA,88628,2376,NA,NA,88729,89168,NA,88625,88729,Flanker Task,47,21909,51,1024
92,92,430,430,black,legacy,legacy,legacy,congruent ,1,undefined,1,h,51,0,0,0,51,0,51,0,51,0,0,0,51,51,NA,51,51,Thu Sep 21 14:19:19 2023,1500,The main experiment item,TRUE,FlankerTask.osexp,C:\Users\Simone\Desktop,FALSE,mono,FALSE,18,no,white,no,yes,768,legacy,51,51,C:/Users/Simone/Desktop/SD-subject-3.csv,legacy,Melodramatic Milgram,4.0.5,0,h,NA,s,NA,NA,h,NA,451,NA,5753,NA,NA,451,NA,2,legacy,1024,2,48000,-16,experiment,HHHHH,3,odd,89172,8130,NA,NA,87098,2372,NA,NA,90200,2376,NA,NA,90301,90753,NA,90199,90301,Flanker Task,48,22360,52,1024
92,92,429,429,black,legacy,legacy,legacy,incongruent,1,undefined,1,s,52,0,0,0,52,0,52,0,52,0,0,0,52,52,NA,52,52,Thu Sep 21 14:19:19 2023,1500,The main experiment item,TRUE,FlankerTask.osexp,C:\Users\Simone\Desktop,FALSE,mono,FALSE,18,no,white,no,yes,768,legacy,52,52,C:/Users/Simone/Desktop/SD-subject-3.csv,legacy,Melodramatic Milgram,4.0.5,0,s,NA,s,NA,NA,s,NA,420,NA,5753,NA,NA,420,NA,2,legacy,1024,2,48000,-16,experiment,HHSHH,3,odd,90757,8130,NA,NA,87098,2372,NA,NA,91784,2376,NA,NA,91885,92306,NA,91782,91885,Flanker Task,49,22780,53,1024
92,92,430,430,black,legacy,legacy,legacy,congruent ,1,undefined,1,h,53,0,0,0,53,0,53,0,53,0,0,0,53,53,NA,53,53,Thu Sep 21 14:19:19 2023,1500,The main experiment item,TRUE,FlankerTask.osexp,C:\Users\Simone\Desktop,FALSE,mono,FALSE,18,no,white,no,yes,768,legacy,53,53,C:/Users/Simone/Desktop/SD-subject-3.csv,legacy,Melodramatic Milgram,4.0.5,0,h,NA,s,NA,NA,h,NA,468,NA,5753,NA,NA,468,NA,2,legacy,1024,2,48000,-16,experiment,HHHHH,3,odd,92308,8130,NA,NA,87098,2372,NA,NA,93337,2376,NA,NA,93438,93907,NA,93334,93438,Flanker Task,50,23248,54,1024
92,92,431,431,black,legacy,legacy,legacy,congruent ,1,undefined,1,h,54,0,0,0,54,0,54,0,54,0,0,0,54,54,NA,54,54,Thu Sep 21 14:19:19 2023,1500,The main experiment item,TRUE,FlankerTask.osexp,C:\Users\Simone\Desktop,FALSE,mono,FALSE,18,no,white,no,yes,768,legacy,54,54,C:/Users/Simone/Desktop/SD-subject-3.csv,legacy,Melodramatic Milgram,4.0.5,0,h,NA,s,NA,NA,h,NA,486,NA,5753,NA,NA,486,NA,2,legacy,1024,2,48000,-16,experiment,HHHHH,3,odd,93912,8130,NA,NA,87098,2372,NA,NA,94941,2376,NA,NA,95042,95529,NA,94939,95042,Flanker Task,51,23734,55,1024
92,92,431,431,black,legacy,legacy,legacy,congruent ,1,undefined,1,h,55,0,0,0,55,0,55,0,55,0,0,0,55,55,NA,55,55,Thu Sep 21 14:19:19 2023,1500,The main experiment item,TRUE,FlankerTask.osexp,C:\Users\Simone\Desktop,FALSE,mono,FALSE,18,no,white,no,yes,768,legacy,55,55,C:/Users/Simone/Desktop/SD-subject-3.csv,legacy,Melodramatic Milgram,4.0.5,0,h,NA,s,NA,NA,h,NA,412,NA,5753,NA,NA,412,NA,2,legacy,1024,2,48000,-16,experiment,HHHHH,3,odd,95533,8130,NA,NA,87098,2372,NA,NA,96568,2376,NA,NA,96669,97082,NA,96565,96669,Flanker Task,52,24146,56,1024
92,92,432,432,black,legacy,legacy,legacy,incongruent,1,undefined,1,h,56,0,0,0,56,0,56,0,56,0,0,0,56,56,NA,56,56,Thu Sep 21 14:19:19 2023,1500,The main experiment item,TRUE,FlankerTask.osexp,C:\Users\Simone\Desktop,FALSE,mono,FALSE,18,no,white,no,yes,768,legacy,56,56,C:/Users/Simone/Desktop/SD-subject-3.csv,legacy,Melodramatic Milgram,4.0.5,0,h,NA,s,NA,NA,h,NA,480,NA,5753,NA,NA,480,NA,2,legacy,1024,2,48000,-16,experiment,SSHSS,3,odd,97087,8130,NA,NA,87098,2372,NA,NA,98130,2376,NA,NA,98231,98711,NA,98128,98231,Flanker Task,53,24626,57,1024
93,93,433,433,black,legacy,legacy,legacy,incongruent,1,undefined,1,h,57,0,0,0,57,0,57,0,57,0,0,0,57,57,NA,57,57,Thu Sep 21 14:19:19 2023,1500,The main experiment item,TRUE,FlankerTask.osexp,C:\Users\Simone\Desktop,FALSE,mono,FALSE,18,no,white,no,yes,768,legacy,57,57,C:/Users/Simone/Desktop/SD-subject-3.csv,legacy,Melodramatic Milgram,4.0.5,0,h,NA,s,NA,NA,h,NA,494,NA,5753,NA,NA,494,NA,2,legacy,1024,2,48000,-16,experiment,SSHSS,3,odd,98715,8130,NA,NA,87098,2372,NA,NA,99750,2376,NA,NA,99851,100346,NA,99748,99851,Flanker Task,54,25120,58,1024
93,93,432,432,black,legacy,legacy,legacy,congruent ,1,undefined,1,s,58,0,0,0,58,0,58,0,58,0,0,0,58,58,NA,58,58,Thu Sep 21 14:19:19 2023,1500,The main experiment item,TRUE,FlankerTask.osexp,C:\Users\Simone\Desktop,FALSE,mono,FALSE,18,no,white,no,yes,768,legacy,58,58,C:/Users/Simone/Desktop/SD-subject-3.csv,legacy,Melodramatic Milgram,4.0.5,0,s,NA,s,NA,NA,s,NA,408,NA,5753,NA,NA,408,NA,2,legacy,1024,2,48000,-16,experiment,SSSSS,3,odd,100350,8130,NA,NA,87098,2372,NA,NA,101388,2376,NA,NA,101489,101898,NA,101385,101489,Flanker Task,55,25528,59,1024
93,93,431,431,black,legacy,legacy,legacy,congruent ,1,undefined,1,s,59,0,0,0,59,0,59,0,59,0,0,0,59,59,NA,59,59,Thu Sep 21 14:19:19 2023,1500,The main experiment item,TRUE,FlankerTask.osexp,C:\Users\Simone\Desktop,FALSE,mono,FALSE,18,no,white,no,yes,768,legacy,59,59,C:/Users/Simone/Desktop/SD-subject-3.csv,legacy,Melodramatic Milgram,4.0.5,0,s,NA,s,NA,NA,s,NA,369,NA,5753,NA,NA,369,NA,2,legacy,1024,2,48000,-16,experiment,SSSSS,3,odd,101901,8130,NA,NA,87098,2372,NA,NA,102935,2376,NA,NA,103036,103406,NA,102933,103036,Flanker Task,56,25897,60,1024
93,93,431,431,black,legacy,legacy,legacy,congruent ,1,undefined,1,s,60,0,0,0,60,0,60,0,60,0,0,0,60,60,NA,60,60,Thu Sep 21 14:19:19 2023,1500,The main experiment item,TRUE,FlankerTask.osexp,C:\Users\Simone\Desktop,FALSE,mono,FALSE,18,no,white,no,yes,768,legacy,60,60,C:/Users/Simone/Desktop/SD-subject-3.csv,legacy,Melodramatic Milgram,4.0.5,0,s,NA,s,NA,NA,s,NA,394,NA,5753,NA,NA,394,NA,2,legacy,1024,2,48000,-16,experiment,SSSSS,3,odd,103410,8130,NA,NA,87098,2372,NA,NA,104434,2376,NA,NA,104535,104930,NA,104432,104535,Flanker Task,57,26291,61,1024
93,93,430,430,black,legacy,legacy,legacy,congruent ,1,undefined,1,s,61,0,0,0,61,0,61,0,61,0,0,0,61,61,NA,61,61,Thu Sep 21 14:19:19 2023,1500,The main experiment item,TRUE,FlankerTask.osexp,C:\Users\Simone\Desktop,FALSE,mono,FALSE,18,no,white,no,yes,768,legacy,61,61,C:/Users/Simone/Desktop/SD-subject-3.csv,legacy,Melodramatic Milgram,4.0.5,0,s,NA,s,NA,NA,s,NA,370,NA,5753,NA,NA,370,NA,2,legacy,1024,2,48000,-16,experiment,SSSSS,3,odd,104934,8130,NA,NA,87098,2372,NA,NA,105962,2376,NA,NA,106064,106434,NA,105960,106064,Flanker Task,58,26661,62,1024
93,93,431,431,black,legacy,legacy,legacy,incongruent,1,undefined,1,h,62,0,0,0,62,0,62,0,62,0,0,0,62,62,NA,62,62,Thu Sep 21 14:19:19 2023,1500,The main experiment item,TRUE,FlankerTask.osexp,C:\Users\Simone\Desktop,FALSE,mono,FALSE,18,no,white,no,yes,768,legacy,62,62,C:/Users/Simone/Desktop/SD-subject-3.csv,legacy,Melodramatic Milgram,4.0.5,0,h,NA,s,NA,NA,h,NA,510,NA,5753,NA,NA,510,NA,2,legacy,1024,2,48000,-16,experiment,SSHSS,3,odd,106441,8130,NA,NA,87098,2372,NA,NA,107470,2376,NA,NA,107571,108081,NA,107468,107571,Flanker Task,59,27171,63,1024
93,93,431,431,black,legacy,legacy,legacy,congruent ,1,undefined,1,s,63,0,0,0,63,0,63,0,63,0,0,0,63,63,NA,63,63,Thu Sep 21 14:19:19 2023,1500,The main experiment item,TRUE,FlankerTask.osexp,C:\Users\Simone\Desktop,FALSE,mono,FALSE,18,no,white,no,yes,768,legacy,63,63,C:/Users/Simone/Desktop/SD-subject-3.csv,legacy,Melodramatic Milgram,4.0.5,0,s,NA,s,NA,NA,s,NA,414,NA,5753,NA,NA,414,NA,2,legacy,1024,2,48000,-16,experiment,SSSSS,3,odd,108085,8130,NA,NA,87098,2372,NA,NA,109123,2376,NA,NA,109224,109639,NA,109120,109224,Flanker Task,60,27585,64,1024
93,93,430,430,black,legacy,legacy,legacy,congruent ,1,undefined,1,h,64,0,0,0,64,0,64,0,64,0,0,0,64,64,NA,64,64,Thu Sep 21 14:19:19 2023,1500,The main experiment item,TRUE,FlankerTask.osexp,C:\Users\Simone\Desktop,FALSE,mono,FALSE,18,no,white,no,yes,768,legacy,64,64,C:/Users/Simone/Desktop/SD-subject-3.csv,legacy,Melodramatic Milgram,4.0.5,0,h,NA,s,NA,NA,h,NA,427,NA,5753,NA,NA,427,NA,2,legacy,1024,2,48000,-16,experiment,HHHHH,3,odd,109643,8130,NA,NA,87098,2372,NA,NA,110678,2376,NA,NA,110782,111209,NA,110677,110782,Flanker Task,61,28012,65,1024
93,93,432,432,black,legacy,legacy,legacy,incongruent,1,undefined,1,h,65,0,0,0,65,0,65,0,65,0,0,0,65,65,NA,65,65,Thu Sep 21 14:19:19 2023,1500,The main experiment item,TRUE,FlankerTask.osexp,C:\Users\Simone\Desktop,FALSE,mono,FALSE,18,no,white,no,yes,768,legacy,65,65,C:/Users/Simone/Desktop/SD-subject-3.csv,legacy,Melodramatic Milgram,4.0.5,0,h,NA,s,NA,NA,h,NA,548,NA,5753,NA,NA,548,NA,2,legacy,1024,2,48000,-16,experiment,SSHSS,3,odd,111212,8130,NA,NA,87098,2372,NA,NA,112263,2376,NA,NA,112364,112913,NA,112262,112364,Flanker Task,62,28560,66,1024
94,94,434,434,black,legacy,legacy,legacy,incongruent,1,undefined,1,h,66,0,0,0,66,0,66,0,66,0,0,0,66,66,NA,66,66,Thu Sep 21 14:19:19 2023,1500,The main experiment item,TRUE,FlankerTask.osexp,C:\Users\Simone\Desktop,FALSE,mono,FALSE,18,no,white,no,yes,768,legacy,66,66,C:/Users/Simone/Desktop/SD-subject-3.csv,legacy,Melodramatic Milgram,4.0.5,0,h,NA,s,NA,NA,h,NA,548,NA,5753,NA,NA,548,NA,2,legacy,1024,2,48000,-16,experiment,SSHSS,3,odd,112917,8130,NA,NA,87098,2372,NA,NA,113947,2376,NA,NA,114048,114597,NA,113945,114048,Flanker Task,63,29108,67,1024
94,94,435,435,black,legacy,legacy,legacy,incongruent,1,undefined,1,h,67,0,0,0,67,0,67,0,67,0,0,0,67,67,NA,67,67,Thu Sep 21 14:19:19 2023,1500,The main experiment item,TRUE,FlankerTask.osexp,C:\Users\Simone\Desktop,FALSE,mono,FALSE,18,no,white,no,yes,768,legacy,67,67,C:/Users/Simone/Desktop/SD-subject-3.csv,legacy,Melodramatic Milgram,4.0.5,0,h,NA,s,NA,NA,h,NA,507,NA,5753,NA,NA,507,NA,2,legacy,1024,2,48000,-16,experiment,SSHSS,3,odd,114600,8130,NA,NA,87098,2372,NA,NA,115633,2376,NA,NA,115734,116242,NA,115631,115734,Flanker Task,64,29615,68,1024
94,94,435,435,black,legacy,legacy,legacy,congruent ,1,undefined,1,s,68,0,0,0,68,0,68,0,68,0,0,0,68,68,NA,68,68,Thu Sep 21 14:19:19 2023,1500,The main experiment item,TRUE,FlankerTask.osexp,C:\Users\Simone\Desktop,FALSE,mono,FALSE,18,no,white,no,yes,768,legacy,68,68,C:/Users/Simone/Desktop/SD-subject-3.csv,legacy,Melodramatic Milgram,4.0.5,0,s,NA,s,NA,NA,s,NA,422,NA,5753,NA,NA,422,NA,2,legacy,1024,2,48000,-16,experiment,SSSSS,3,odd,116265,8130,NA,NA,87098,2372,NA,NA,117295,2376,NA,NA,117397,117820,NA,117293,117396,Flanker Task,65,30037,69,1024
94,94,435,435,black,legacy,legacy,legacy,congruent ,1,undefined,1,s,69,0,0,0,69,0,69,0,69,0,0,0,69,69,NA,69,69,Thu Sep 21 14:19:19 2023,1500,The main experiment item,TRUE,FlankerTask.osexp,C:\Users\Simone\Desktop,FALSE,mono,FALSE,18,no,white,no,yes,768,legacy,69,69,C:/Users/Simone/Desktop/SD-subject-3.csv,legacy,Melodramatic Milgram,4.0.5,0,s,NA,s,NA,NA,s,NA,431,NA,5753,NA,NA,431,NA,2,legacy,1024,2,48000,-16,experiment,SSSSS,3,odd,117822,8130,NA,NA,87098,2372,NA,NA,118850,2376,NA,NA,118951,119382,NA,118848,118951,Flanker Task,66,30468,70,1024
94,94,435,435,black,legacy,legacy,legacy,incongruent,1,undefined,1,h,70,0,0,0,70,0,70,0,70,0,0,0,70,70,NA,70,70,Thu Sep 21 14:19:19 2023,1500,The main experiment item,TRUE,FlankerTask.osexp,C:\Users\Simone\Desktop,FALSE,mono,FALSE,18,no,white,no,yes,768,legacy,70,70,C:/Users/Simone/Desktop/SD-subject-3.csv,legacy,Melodramatic Milgram,4.0.5,0,h,NA,s,NA,NA,h,NA,451,NA,5753,NA,NA,451,NA,2,legacy,1024,2,48000,-16,experiment,SSHSS,3,odd,119384,8130,NA,NA,87098,2372,NA,NA,120417,2376,NA,NA,120518,120970,NA,120414,120518,Flanker Task,67,30919,71,1024
94,94,434,434,black,legacy,legacy,legacy,congruent ,1,undefined,1,h,71,0,0,0,71,0,71,0,71,0,0,0,71,71,NA,71,71,Thu Sep 21 14:19:19 2023,1500,The main experiment item,TRUE,FlankerTask.osexp,C:\Users\Simone\Desktop,FALSE,mono,FALSE,18,no,white,no,yes,768,legacy,71,71,C:/Users/Simone/Desktop/SD-subject-3.csv,legacy,Melodramatic Milgram,4.0.5,0,h,NA,s,NA,NA,h,NA,394,NA,5753,NA,NA,394,NA,2,legacy,1024,2,48000,-16,experiment,HHHHH,3,odd,120974,8130,NA,NA,87098,2372,NA,NA,122006,2376,NA,NA,122107,122501,NA,122005,122107,Flanker Task,68,31313,72,1024
94,94,434,434,black,legacy,legacy,legacy,congruent ,1,undefined,1,h,72,0,0,0,72,0,72,0,72,0,0,0,72,72,NA,72,72,Thu Sep 21 14:19:19 2023,1500,The main experiment item,TRUE,FlankerTask.osexp,C:\Users\Simone\Desktop,FALSE,mono,FALSE,18,no,white,no,yes,768,legacy,72,72,C:/Users/Simone/Desktop/SD-subject-3.csv,legacy,Melodramatic Milgram,4.0.5,0,h,NA,s,NA,NA,h,NA,376,NA,5753,NA,NA,376,NA,2,legacy,1024,2,48000,-16,experiment,HHHHH,3,odd,122505,8130,NA,NA,87098,2372,NA,NA,123531,2376,NA,NA,123632,124009,NA,123530,123632,Flanker Task,69,31689,73,1024
94,94,434,434,black,legacy,legacy,legacy,incongruent,1,undefined,1,h,73,0,0,0,73,0,73,0,73,0,0,0,73,73,NA,73,73,Thu Sep 21 14:19:19 2023,1500,The main experiment item,TRUE,FlankerTask.osexp,C:\Users\Simone\Desktop,FALSE,mono,FALSE,18,no,white,no,yes,768,legacy,73,73,C:/Users/Simone/Desktop/SD-subject-3.csv,legacy,Melodramatic Milgram,4.0.5,0,h,NA,s,NA,NA,h,NA,478,NA,5753,NA,NA,478,NA,2,legacy,1024,2,48000,-16,experiment,SSHSS,3,odd,124013,8130,NA,NA,87098,2372,NA,NA,125044,2376,NA,NA,125145,125624,NA,125042,125145,Flanker Task,70,32167,74,1024
94,94,434,434,black,legacy,legacy,legacy,congruent ,1,undefined,1,h,74,0,0,0,74,0,74,0,74,0,0,0,74,74,NA,74,74,Thu Sep 21 14:19:19 2023,1500,The main experiment item,TRUE,FlankerTask.osexp,C:\Users\Simone\Desktop,FALSE,mono,FALSE,18,no,white,no,yes,768,legacy,74,74,C:/Users/Simone/Desktop/SD-subject-3.csv,legacy,Melodramatic Milgram,4.0.5,0,h,NA,s,NA,NA,h,NA,417,NA,5753,NA,NA,417,NA,2,legacy,1024,2,48000,-16,experiment,HHHHH,3,odd,125628,8130,NA,NA,87098,2372,NA,NA,126677,2376,NA,NA,126779,127197,NA,126675,126779,Flanker Task,71,32584,75,1024
94,94,434,434,black,legacy,legacy,legacy,incongruent,1,undefined,1,h,75,0,0,0,75,0,75,0,75,0,0,0,75,75,NA,75,75,Thu Sep 21 14:19:19 2023,1500,The main experiment item,TRUE,FlankerTask.osexp,C:\Users\Simone\Desktop,FALSE,mono,FALSE,18,no,white,no,yes,768,legacy,75,75,C:/Users/Simone/Desktop/SD-subject-3.csv,legacy,Melodramatic Milgram,4.0.5,0,h,NA,s,NA,NA,h,NA,421,NA,5753,NA,NA,421,NA,2,legacy,1024,2,48000,-16,experiment,SSHSS,3,odd,127200,8130,NA,NA,87098,2372,NA,NA,128232,2376,NA,NA,128333,128755,NA,128229,128333,Flanker Task,72,33005,76,1024
94,94,434,434,black,legacy,legacy,legacy,incongruent,1,undefined,1,s,76,0,0,0,76,0,76,0,76,0,0,0,76,76,NA,76,76,Thu Sep 21 14:19:19 2023,1500,The main experiment item,TRUE,FlankerTask.osexp,C:\Users\Simone\Desktop,FALSE,mono,FALSE,18,no,white,no,yes,768,legacy,76,76,C:/Users/Simone/Desktop/SD-subject-3.csv,legacy,Melodramatic Milgram,4.0.5,0,s,NA,s,NA,NA,s,NA,437,NA,5753,NA,NA,437,NA,2,legacy,1024,2,48000,-16,experiment,HHSHH,3,odd,128759,8130,NA,NA,87098,2372,NA,NA,129790,2376,NA,NA,129891,130329,NA,129788,129891,Flanker Task,73,33442,77,1024
94,94,434,434,black,legacy,legacy,legacy,incongruent,1,undefined,1,h,77,0,0,0,77,0,77,0,77,0,0,0,77,77,NA,77,77,Thu Sep 21 14:19:19 2023,1500,The main experiment item,TRUE,FlankerTask.osexp,C:\Users\Simone\Desktop,FALSE,mono,FALSE,18,no,white,no,yes,768,legacy,77,77,C:/Users/Simone/Desktop/SD-subject-3.csv,legacy,Melodramatic Milgram,4.0.5,0,h,NA,s,NA,NA,h,NA,421,NA,5753,NA,NA,421,NA,2,legacy,1024,2,48000,-16,experiment,SSHSS,3,odd,130333,8130,NA,NA,87098,2372,NA,NA,131365,2376,NA,NA,131466,131888,NA,131363,131466,Flanker Task,74,33863,78,1024
94,94,434,434,black,legacy,legacy,legacy,congruent ,1,undefined,1,h,78,0,0,0,78,0,78,0,78,0,0,0,78,78,NA,78,78,Thu Sep 21 14:19:19 2023,1500,The main experiment item,TRUE,FlankerTask.osexp,C:\Users\Simone\Desktop,FALSE,mono,FALSE,18,no,white,no,yes,768,legacy,78,78,C:/Users/Simone/Desktop/SD-subject-3.csv,legacy,Melodramatic Milgram,4.0.5,0,h,NA,s,NA,NA,h,NA,427,NA,5753,NA,NA,427,NA,2,legacy,1024,2,48000,-16,experiment,HHHHH,3,odd,131892,8130,NA,NA,87098,2372,NA,NA,132927,2376,NA,NA,133029,133457,NA,132925,133028,Flanker Task,75,34290,79,1024
95,95,434,434,black,legacy,legacy,legacy,incongruent,1,undefined,1,h,79,0,0,0,79,0,79,0,79,0,0,0,79,79,NA,79,79,Thu Sep 21 14:19:19 2023,1500,The main experiment item,TRUE,FlankerTask.osexp,C:\Users\Simone\Desktop,FALSE,mono,FALSE,18,no,white,no,yes,768,legacy,79,79,C:/Users/Simone/Desktop/SD-subject-3.csv,legacy,Melodramatic Milgram,4.0.5,0,h,NA,s,NA,NA,h,NA,450,NA,5753,NA,NA,450,NA,2,legacy,1024,2,48000,-16,experiment,SSHSS,3,odd,133460,8130,NA,NA,87098,2372,NA,NA,134490,2376,NA,NA,134591,135041,NA,134488,134591,Flanker Task,76,34740,80,1024
95,95,436,436,black,legacy,legacy,legacy,incongruent,1,undefined,1,h,80,0,0,0,80,0,80,0,80,0,0,0,80,80,NA,80,80,Thu Sep 21 14:19:19 2023,600,The main experiment item,TRUE,FlankerTask.osexp,C:\Users\Simone\Desktop,FALSE,mono,FALSE,18,no,white,no,yes,768,legacy,0,79,C:/Users/Simone/Desktop/SD-subject-3.csv,legacy,Melodramatic Milgram,4.0.5,0,h,NA,s,h,NA,h,NA,597,NA,5753,49145,NA,597,NA,2,legacy,1024,2,48000,-16,experiment,SSHSS,3,odd,135045,8130,185192,NA,87098,2372,NA,NA,185232,2376,136046,NA,185333,185931,NA,185231,185333,Flanker Task,77,35337,81,1024
95,95,435,435,black,legacy,legacy,legacy,congruent ,1,undefined,1,s,81,0,0,0,81,0,81,0,81,0,0,0,81,81,NA,81,81,Thu Sep 21 14:19:19 2023,600,The main experiment item,TRUE,FlankerTask.osexp,C:\Users\Simone\Desktop,FALSE,mono,FALSE,18,no,white,no,yes,768,legacy,1,79,C:/Users/Simone/Desktop/SD-subject-3.csv,legacy,Melodramatic Milgram,4.0.5,0,s,NA,s,h,NA,s,NA,408,NA,5753,49145,NA,408,NA,2,legacy,1024,2,48000,-16,experiment,SSSSS,3,odd,185935,8130,185192,NA,87098,2372,NA,NA,186973,2376,136046,NA,187074,187482,NA,186971,187074,Flanker Task,78,35745,82,1024
95,95,435,435,black,legacy,legacy,legacy,incongruent,1,undefined,1,s,82,0,0,0,82,0,82,0,82,0,0,0,82,82,NA,82,82,Thu Sep 21 14:19:19 2023,600,The main experiment item,TRUE,FlankerTask.osexp,C:\Users\Simone\Desktop,FALSE,mono,FALSE,18,no,white,no,yes,768,legacy,2,79,C:/Users/Simone/Desktop/SD-subject-3.csv,legacy,Melodramatic Milgram,4.0.5,0,s,NA,s,h,NA,s,NA,432,NA,5753,49145,NA,432,NA,2,legacy,1024,2,48000,-16,experiment,HHSHH,3,odd,187486,8130,185192,NA,87098,2372,NA,NA,188520,2376,136046,NA,188621,189054,NA,188518,188621,Flanker Task,79,36177,83,1024
95,95,435,435,black,legacy,legacy,legacy,incongruent,1,undefined,1,s,83,0,0,0,83,0,83,0,83,0,0,0,83,83,NA,83,83,Thu Sep 21 14:19:19 2023,600,The main experiment item,TRUE,FlankerTask.osexp,C:\Users\Simone\Desktop,FALSE,mono,FALSE,18,no,white,no,yes,768,legacy,3,79,C:/Users/Simone/Desktop/SD-subject-3.csv,legacy,Melodramatic Milgram,4.0.5,0,s,NA,s,h,NA,s,NA,429,NA,5753,49145,NA,429,NA,2,legacy,1024,2,48000,-16,experiment,HHSHH,3,odd,189058,8130,185192,NA,87098,2372,NA,NA,190093,2376,136046,NA,190195,190625,NA,190091,190194,Flanker Task,80,36606,84,1024
95,95,435,435,black,legacy,legacy,legacy,congruent ,1,undefined,1,s,84,0,0,0,84,0,84,0,84,0,0,0,84,84,NA,84,84,Thu Sep 21 14:19:19 2023,600,The main experiment item,TRUE,FlankerTask.osexp,C:\Users\Simone\Desktop,FALSE,mono,FALSE,18,no,white,no,yes,768,legacy,4,79,C:/Users/Simone/Desktop/SD-subject-3.csv,legacy,Melodramatic Milgram,4.0.5,0,s,NA,s,h,NA,s,NA,375,NA,5753,49145,NA,375,NA,2,legacy,1024,2,48000,-16,experiment,SSSSS,3,odd,190629,8130,185192,NA,87098,2372,NA,NA,191663,2376,136046,NA,191764,192140,NA,191661,191764,Flanker Task,81,36981,85,1024
95,95,434,434,black,legacy,legacy,legacy,incongruent,1,undefined,1,h,85,0,0,0,85,0,85,0,85,0,0,0,85,85,NA,85,85,Thu Sep 21 14:19:19 2023,600,The main experiment item,TRUE,FlankerTask.osexp,C:\Users\Simone\Desktop,FALSE,mono,FALSE,18,no,white,no,yes,768,legacy,5,79,C:/Users/Simone/Desktop/SD-subject-3.csv,legacy,Melodramatic Milgram,4.0.5,0,h,NA,s,h,NA,h,NA,368,NA,5753,49145,NA,368,NA,2,legacy,1024,2,48000,-16,experiment,SSHSS,3,odd,192145,8130,185192,NA,87098,2372,NA,NA,193182,2376,136046,NA,193283,193652,NA,193179,193283,Flanker Task,82,37349,86,1024
95,95,433,433,black,legacy,legacy,legacy,congruent ,1,undefined,1,h,86,0,0,0,86,0,86,0,86,0,0,0,86,86,NA,86,86,Thu Sep 21 14:19:19 2023,600,The main experiment item,TRUE,FlankerTask.osexp,C:\Users\Simone\Desktop,FALSE,mono,FALSE,18,no,white,no,yes,768,legacy,6,79,C:/Users/Simone/Desktop/SD-subject-3.csv,legacy,Melodramatic Milgram,4.0.5,0,h,NA,s,h,NA,h,NA,355,NA,5753,49145,NA,355,NA,2,legacy,1024,2,48000,-16,experiment,HHHHH,3,odd,193655,8130,185192,NA,87098,2372,NA,NA,194686,2376,136046,NA,194787,195143,NA,194684,194787,Flanker Task,83,37704,87,1024
95,95,432,432,black,legacy,legacy,legacy,congruent ,1,undefined,1,s,87,0,0,0,87,0,87,0,87,0,0,0,87,87,NA,87,87,Thu Sep 21 14:19:19 2023,600,The main experiment item,TRUE,FlankerTask.osexp,C:\Users\Simone\Desktop,FALSE,mono,FALSE,18,no,white,no,yes,768,legacy,7,79,C:/Users/Simone/Desktop/SD-subject-3.csv,legacy,Melodramatic Milgram,4.0.5,0,s,NA,s,h,NA,s,NA,317,NA,5753,49145,NA,317,NA,2,legacy,1024,2,48000,-16,experiment,SSSSS,3,odd,195146,8130,185192,NA,87098,2372,NA,NA,196181,2376,136046,NA,196282,196600,NA,196179,196282,Flanker Task,84,38021,88,1024
95,95,431,431,black,legacy,legacy,legacy,incongruent,1,undefined,1,h,88,0,0,0,88,0,88,0,88,0,0,0,88,88,NA,88,88,Thu Sep 21 14:19:19 2023,600,The main experiment item,TRUE,FlankerTask.osexp,C:\Users\Simone\Desktop,FALSE,mono,FALSE,18,no,white,no,yes,768,legacy,8,79,C:/Users/Simone/Desktop/SD-subject-3.csv,legacy,Melodramatic Milgram,4.0.5,0,h,NA,s,h,NA,h,NA,415,NA,5753,49145,NA,415,NA,2,legacy,1024,2,48000,-16,experiment,SSHSS,3,odd,196604,8130,185192,NA,87098,2372,NA,NA,197627,2376,136046,NA,197728,198143,NA,197625,197728,Flanker Task,85,38436,89,1024
95,95,432,432,black,legacy,legacy,legacy,incongruent,1,undefined,1,s,89,0,0,0,89,0,89,0,89,0,0,0,89,89,NA,89,89,Thu Sep 21 14:19:19 2023,600,The main experiment item,TRUE,FlankerTask.osexp,C:\Users\Simone\Desktop,FALSE,mono,FALSE,18,no,white,no,yes,768,legacy,9,79,C:/Users/Simone/Desktop/SD-subject-3.csv,legacy,Melodramatic Milgram,4.0.5,0,s,NA,s,h,NA,s,NA,475,NA,5753,49145,NA,475,NA,2,legacy,1024,2,48000,-16,experiment,HHSHH,3,odd,198147,8130,185192,NA,87098,2372,NA,NA,199192,2376,136046,NA,199293,199769,NA,199190,199293,Flanker Task,86,38911,90,1024
95,95,432,432,black,legacy,legacy,legacy,incongruent,1,undefined,1,s,90,0,0,0,90,0,90,0,90,0,0,0,90,90,NA,90,90,Thu Sep 21 14:19:19 2023,600,The main experiment item,TRUE,FlankerTask.osexp,C:\Users\Simone\Desktop,FALSE,mono,FALSE,18,no,white,no,yes,768,legacy,10,79,C:/Users/Simone/Desktop/SD-subject-3.csv,legacy,Melodramatic Milgram,4.0.5,0,s,NA,s,h,NA,s,NA,421,NA,5753,49145,NA,421,NA,2,legacy,1024,2,48000,-16,experiment,HHSHH,3,odd,199773,8130,185192,NA,87098,2372,NA,NA,200801,2376,136046,NA,200902,201324,NA,200800,200902,Flanker Task,87,39332,91,1024
95,95,431,431,black,legacy,legacy,legacy,congruent ,1,undefined,1,h,91,0,0,0,91,0,91,0,91,0,0,0,91,91,NA,91,91,Thu Sep 21 14:19:19 2023,600,The main experiment item,TRUE,FlankerTask.osexp,C:\Users\Simone\Desktop,FALSE,mono,FALSE,18,no,white,no,yes,768,legacy,11,79,C:/Users/Simone/Desktop/SD-subject-3.csv,legacy,Melodramatic Milgram,4.0.5,0,h,NA,s,h,NA,h,NA,377,NA,5753,49145,NA,377,NA,2,legacy,1024,2,48000,-16,experiment,HHHHH,3,odd,201328,8130,185192,NA,87098,2372,NA,NA,202354,2376,136046,NA,202456,202834,NA,202352,202456,Flanker Task,88,39709,92,1024
95,95,430,430,black,legacy,legacy,legacy,congruent ,1,undefined,1,s,92,0,0,0,92,0,92,0,92,0,0,0,92,92,NA,92,92,Thu Sep 21 14:19:19 2023,600,The main experiment item,TRUE,FlankerTask.osexp,C:\Users\Simone\Desktop,FALSE,mono,FALSE,18,no,white,no,yes,768,legacy,12,79,C:/Users/Simone/Desktop/SD-subject-3.csv,legacy,Melodramatic Milgram,4.0.5,0,s,NA,s,h,NA,s,NA,338,NA,5753,49145,NA,338,NA,2,legacy,1024,2,48000,-16,experiment,SSSSS,3,odd,202837,8130,185192,NA,87098,2372,NA,NA,203870,2376,136046,NA,203971,204310,NA,203869,203971,Flanker Task,89,40047,93,1024
95,95,430,430,black,legacy,legacy,legacy,congruent ,1,undefined,1,s,93,0,0,0,93,0,93,0,93,0,0,0,93,93,NA,93,93,Thu Sep 21 14:19:19 2023,600,The main experiment item,TRUE,FlankerTask.osexp,C:\Users\Simone\Desktop,FALSE,mono,FALSE,18,no,white,no,yes,768,legacy,13,79,C:/Users/Simone/Desktop/SD-subject-3.csv,legacy,Melodramatic Milgram,4.0.5,0,s,NA,s,h,NA,s,NA,416,NA,5753,49145,NA,416,NA,2,legacy,1024,2,48000,-16,experiment,SSSSS,3,odd,204314,8130,185192,NA,87098,2372,NA,NA,205342,2376,136046,NA,205443,205860,NA,205340,205443,Flanker Task,90,40463,94,1024
95,95,430,430,black,legacy,legacy,legacy,congruent ,1,undefined,1,h,94,0,0,0,94,0,94,0,94,0,0,0,94,94,NA,94,94,Thu Sep 21 14:19:19 2023,600,The main experiment item,TRUE,FlankerTask.osexp,C:\Users\Simone\Desktop,FALSE,mono,FALSE,18,no,white,no,yes,768,legacy,14,79,C:/Users/Simone/Desktop/SD-subject-3.csv,legacy,Melodramatic Milgram,4.0.5,0,h,NA,s,h,NA,h,NA,406,NA,5753,49145,NA,406,NA,2,legacy,1024,2,48000,-16,experiment,HHHHH,3,odd,205864,8130,185192,NA,87098,2372,NA,NA,206893,2376,136046,NA,206994,207401,NA,206891,206994,Flanker Task,91,40869,95,1024
95,95,429,429,black,legacy,legacy,legacy,congruent ,1,undefined,1,h,95,0,0,0,95,0,95,0,95,0,0,0,95,95,NA,95,95,Thu Sep 21 14:19:19 2023,600,The main experiment item,TRUE,FlankerTask.osexp,C:\Users\Simone\Desktop,FALSE,mono,FALSE,18,no,white,no,yes,768,legacy,15,79,C:/Users/Simone/Desktop/SD-subject-3.csv,legacy,Melodramatic Milgram,4.0.5,0,h,NA,s,h,NA,h,NA,391,NA,5753,49145,NA,391,NA,2,legacy,1024,2,48000,-16,experiment,HHHHH,3,odd,207405,8130,185192,NA,87098,2372,NA,NA,208435,2376,136046,NA,208536,208928,NA,208434,208536,Flanker Task,92,41260,96,1024
95,95,429,429,black,legacy,legacy,legacy,incongruent,1,undefined,1,h,96,0,0,0,96,0,96,0,96,0,0,0,96,96,NA,96,96,Thu Sep 21 14:19:19 2023,600,The main experiment item,TRUE,FlankerTask.osexp,C:\Users\Simone\Desktop,FALSE,mono,FALSE,18,no,white,no,yes,768,legacy,16,79,C:/Users/Simone/Desktop/SD-subject-3.csv,legacy,Melodramatic Milgram,4.0.5,0,h,NA,s,h,NA,h,NA,406,NA,5753,49145,NA,406,NA,2,legacy,1024,2,48000,-16,experiment,SSHSS,3,odd,208932,8130,185192,NA,87098,2372,NA,NA,209964,2376,136046,NA,210065,210471,NA,209962,210065,Flanker Task,93,41666,97,1024
95,95,429,429,black,legacy,legacy,legacy,incongruent,1,undefined,1,h,97,0,0,0,97,0,97,0,97,0,0,0,97,97,NA,97,97,Thu Sep 21 14:19:19 2023,600,The main experiment item,TRUE,FlankerTask.osexp,C:\Users\Simone\Desktop,FALSE,mono,FALSE,18,no,white,no,yes,768,legacy,17,79,C:/Users/Simone/Desktop/SD-subject-3.csv,legacy,Melodramatic Milgram,4.0.5,0,h,NA,s,h,NA,h,NA,429,NA,5753,49145,NA,429,NA,2,legacy,1024,2,48000,-16,experiment,SSHSS,3,odd,210475,8130,185192,NA,87098,2372,NA,NA,211507,2376,136046,NA,211608,212037,NA,211505,211608,Flanker Task,94,42095,98,1024
95,95,429,429,black,legacy,legacy,legacy,incongruent,1,undefined,1,h,98,0,0,0,98,0,98,0,98,0,0,0,98,98,NA,98,98,Thu Sep 21 14:19:19 2023,600,The main experiment item,TRUE,FlankerTask.osexp,C:\Users\Simone\Desktop,FALSE,mono,FALSE,18,no,white,no,yes,768,legacy,18,79,C:/Users/Simone/Desktop/SD-subject-3.csv,legacy,Melodramatic Milgram,4.0.5,0,h,NA,s,h,NA,h,NA,417,NA,5753,49145,NA,417,NA,2,legacy,1024,2,48000,-16,experiment,SSHSS,3,odd,212041,8130,185192,NA,87098,2372,NA,NA,213089,2376,136046,NA,213191,213609,NA,213088,213191,Flanker Task,95,42512,99,1024
96,96,429,429,black,legacy,legacy,legacy,incongruent,1,undefined,1,h,99,0,0,0,99,0,99,0,99,0,0,0,99,99,NA,99,99,Thu Sep 21 14:19:19 2023,600,The main experiment item,TRUE,FlankerTask.osexp,C:\Users\Simone\Desktop,FALSE,mono,FALSE,18,no,white,no,yes,768,legacy,19,79,C:/Users/Simone/Desktop/SD-subject-3.csv,legacy,Melodramatic Milgram,4.0.5,0,h,NA,s,h,NA,h,NA,420,NA,5753,49145,NA,420,NA,2,legacy,1024,2,48000,-16,experiment,SSHSS,3,odd,213613,8130,185192,NA,87098,2372,NA,NA,214647,2376,136046,NA,214748,215169,NA,214645,214748,Flanker Task,96,42932,100,1024
96,96,429,429,black,legacy,legacy,legacy,congruent ,1,undefined,1,h,100,0,0,0,100,0,100,0,100,0,0,0,100,100,NA,100,100,Thu Sep 21 14:19:19 2023,600,The main experiment item,TRUE,FlankerTask.osexp,C:\Users\Simone\Desktop,FALSE,mono,FALSE,18,no,white,no,yes,768,legacy,20,79,C:/Users/Simone/Desktop/SD-subject-3.csv,legacy,Melodramatic Milgram,4.0.5,0,h,NA,s,h,NA,h,NA,410,NA,5753,49145,NA,410,NA,2,legacy,1024,2,48000,-16,experiment,HHHHH,3,odd,215174,8130,185192,NA,87098,2372,NA,NA,216204,2376,136046,NA,216305,216716,NA,216201,216305,Flanker Task,97,43342,101,1024
96,96,428,428,black,legacy,legacy,legacy,congruent ,1,undefined,1,s,101,0,0,0,101,0,101,0,101,0,0,0,101,101,NA,101,101,Thu Sep 21 14:19:19 2023,600,The main experiment item,TRUE,FlankerTask.osexp,C:\Users\Simone\Desktop,FALSE,mono,FALSE,18,no,white,no,yes,768,legacy,21,79,C:/Users/Simone/Desktop/SD-subject-3.csv,legacy,Melodramatic Milgram,4.0.5,0,s,NA,s,h,NA,s,NA,375,NA,5753,49145,NA,375,NA,2,legacy,1024,2,48000,-16,experiment,SSSSS,3,odd,216719,8130,185192,NA,87098,2372,NA,NA,217745,2376,136046,NA,217847,218223,NA,217744,217846,Flanker Task,98,43717,102,1024
96,96,428,428,black,legacy,legacy,legacy,incongruent,1,undefined,1,s,102,0,0,0,102,0,102,0,102,0,0,0,102,102,NA,102,102,Thu Sep 21 14:19:19 2023,600,The main experiment item,TRUE,FlankerTask.osexp,C:\Users\Simone\Desktop,FALSE,mono,FALSE,18,no,white,no,yes,768,legacy,22,79,C:/Users/Simone/Desktop/SD-subject-3.csv,legacy,Melodramatic Milgram,4.0.5,0,s,NA,s,h,NA,s,NA,406,NA,5753,49145,NA,406,NA,2,legacy,1024,2,48000,-16,experiment,HHSHH,3,odd,218227,8130,185192,NA,87098,2372,NA,NA,219258,2376,136046,NA,219360,219767,NA,219257,219360,Flanker Task,99,44123,103,1024
96,96,428,428,black,legacy,legacy,legacy,incongruent,1,undefined,1,s,103,0,0,0,103,0,103,0,103,0,0,0,103,103,NA,103,103,Thu Sep 21 14:19:19 2023,600,The main experiment item,TRUE,FlankerTask.osexp,C:\Users\Simone\Desktop,FALSE,mono,FALSE,18,no,white,no,yes,768,legacy,23,79,C:/Users/Simone/Desktop/SD-subject-3.csv,legacy,Melodramatic Milgram,4.0.5,0,s,NA,s,h,NA,s,NA,425,NA,5753,49145,NA,425,NA,2,legacy,1024,2,48000,-16,experiment,HHSHH,3,odd,219770,8130,185192,NA,87098,2372,NA,NA,220803,2376,136046,NA,220904,221330,NA,220801,220904,Flanker Task,100,44548,104,1024
96,96,428,428,black,legacy,legacy,legacy,incongruent,1,undefined,1,s,104,0,0,0,104,0,104,0,104,0,0,0,104,104,NA,104,104,Thu Sep 21 14:19:19 2023,600,The main experiment item,TRUE,FlankerTask.osexp,C:\Users\Simone\Desktop,FALSE,mono,FALSE,18,no,white,no,yes,768,legacy,24,79,C:/Users/Simone/Desktop/SD-subject-3.csv,legacy,Melodramatic Milgram,4.0.5,0,s,NA,s,h,NA,s,NA,415,NA,5753,49145,NA,415,NA,2,legacy,1024,2,48000,-16,experiment,HHSHH,3,odd,221334,8130,185192,NA,87098,2372,NA,NA,222368,2376,136046,NA,222469,222885,NA,222366,222469,Flanker Task,101,44963,105,1024
96,96,427,427,black,legacy,legacy,legacy,congruent ,1,undefined,1,s,105,0,0,0,105,0,105,0,105,0,0,0,105,105,NA,105,105,Thu Sep 21 14:19:19 2023,600,The main experiment item,TRUE,FlankerTask.osexp,C:\Users\Simone\Desktop,FALSE,mono,FALSE,18,no,white,no,yes,768,legacy,25,79,C:/Users/Simone/Desktop/SD-subject-3.csv,legacy,Melodramatic Milgram,4.0.5,0,s,NA,s,h,NA,s,NA,362,NA,5753,49145,NA,362,NA,2,legacy,1024,2,48000,-16,experiment,SSSSS,3,odd,222889,8130,185192,NA,87098,2372,NA,NA,223923,2376,136046,NA,224024,224387,NA,223921,224024,Flanker Task,102,45325,106,1024
96,96,427,427,black,legacy,legacy,legacy,congruent ,1,undefined,1,h,106,0,0,0,106,0,106,0,106,0,0,0,106,106,NA,106,106,Thu Sep 21 14:19:19 2023,600,The main experiment item,TRUE,FlankerTask.osexp,C:\Users\Simone\Desktop,FALSE,mono,FALSE,18,no,white,no,yes,768,legacy,26,79,C:/Users/Simone/Desktop/SD-subject-3.csv,legacy,Melodramatic Milgram,4.0.5,0,h,NA,s,h,NA,h,NA,404,NA,5753,49145,NA,404,NA,2,legacy,1024,2,48000,-16,experiment,HHHHH,3,odd,224391,8130,185192,NA,87098,2372,NA,NA,225418,2376,136046,NA,225519,225924,NA,225416,225519,Flanker Task,103,45729,107,1024
96,96,427,427,black,legacy,legacy,legacy,incongruent,1,undefined,1,s,107,0,0,0,107,0,107,0,107,0,0,0,107,107,NA,107,107,Thu Sep 21 14:19:19 2023,600,The main experiment item,TRUE,FlankerTask.osexp,C:\Users\Simone\Desktop,FALSE,mono,FALSE,18,no,white,no,yes,768,legacy,27,79,C:/Users/Simone/Desktop/SD-subject-3.csv,legacy,Melodramatic Milgram,4.0.5,0,s,NA,s,h,NA,s,NA,438,NA,5753,49145,NA,438,NA,2,legacy,1024,2,48000,-16,experiment,HHSHH,3,odd,225928,8130,185192,NA,87098,2372,NA,NA,226971,2376,136046,NA,227072,227511,NA,226969,227072,Flanker Task,104,46167,108,1024
96,96,426,426,black,legacy,legacy,legacy,congruent ,1,undefined,1,s,108,0,0,0,108,0,108,0,108,0,0,0,108,108,NA,108,108,Thu Sep 21 14:19:19 2023,600,The main experiment item,TRUE,FlankerTask.osexp,C:\Users\Simone\Desktop,FALSE,mono,FALSE,18,no,white,no,yes,768,legacy,28,79,C:/Users/Simone/Desktop/SD-subject-3.csv,legacy,Melodramatic Milgram,4.0.5,0,s,NA,s,h,NA,s,NA,367,NA,5753,49145,NA,367,NA,2,legacy,1024,2,48000,-16,experiment,SSSSS,3,odd,227515,8130,185192,NA,87098,2372,NA,NA,228552,2376,136046,NA,228653,229021,NA,228550,228653,Flanker Task,105,46534,109,1024
96,96,427,427,black,legacy,legacy,legacy,incongruent,1,undefined,1,h,109,0,0,0,109,0,109,0,109,0,0,0,109,109,NA,109,109,Thu Sep 21 14:19:19 2023,600,The main experiment item,TRUE,FlankerTask.osexp,C:\Users\Simone\Desktop,FALSE,mono,FALSE,18,no,white,no,yes,768,legacy,29,79,C:/Users/Simone/Desktop/SD-subject-3.csv,legacy,Melodramatic Milgram,4.0.5,0,h,NA,s,h,NA,h,NA,443,NA,5753,49145,NA,443,NA,2,legacy,1024,2,48000,-16,experiment,SSHSS,3,odd,229025,8130,185192,NA,87098,2372,NA,NA,230058,2376,136046,NA,230159,230603,NA,230056,230159,Flanker Task,106,46977,110,1024
96,96,427,427,black,legacy,legacy,legacy,congruent ,1,undefined,1,h,110,0,0,0,110,0,110,0,110,0,0,0,110,110,NA,110,110,Thu Sep 21 14:19:19 2023,600,The main experiment item,TRUE,FlankerTask.osexp,C:\Users\Simone\Desktop,FALSE,mono,FALSE,18,no,white,no,yes,768,legacy,30,79,C:/Users/Simone/Desktop/SD-subject-3.csv,legacy,Melodramatic Milgram,4.0.5,0,h,NA,s,h,NA,h,NA,423,NA,5753,49145,NA,423,NA,2,legacy,1024,2,48000,-16,experiment,HHHHH,3,odd,230607,8130,185192,NA,87098,2372,NA,NA,231636,2376,136046,NA,231737,232161,NA,231634,231737,Flanker Task,107,47400,111,1024
96,96,427,427,black,legacy,legacy,legacy,incongruent,1,undefined,1,h,111,0,0,0,111,0,111,0,111,0,0,0,111,111,NA,111,111,Thu Sep 21 14:19:19 2023,600,The main experiment item,TRUE,FlankerTask.osexp,C:\Users\Simone\Desktop,FALSE,mono,FALSE,18,no,white,no,yes,768,legacy,31,79,C:/Users/Simone/Desktop/SD-subject-3.csv,legacy,Melodramatic Milgram,4.0.5,0,h,NA,s,h,NA,h,NA,508,NA,5753,49145,NA,508,NA,2,legacy,1024,2,48000,-16,experiment,SSHSS,3,odd,232164,8130,185192,NA,87098,2372,NA,NA,233195,2376,136046,NA,233296,233804,NA,233193,233296,Flanker Task,108,47908,112,1024
96,96,427,427,black,legacy,legacy,legacy,incongruent,1,undefined,1,s,112,0,0,0,112,0,112,0,112,0,0,0,112,112,NA,112,112,Thu Sep 21 14:19:19 2023,600,The main experiment item,TRUE,FlankerTask.osexp,C:\Users\Simone\Desktop,FALSE,mono,FALSE,18,no,white,no,yes,768,legacy,32,79,C:/Users/Simone/Desktop/SD-subject-3.csv,legacy,Melodramatic Milgram,4.0.5,0,s,NA,s,h,NA,s,NA,377,NA,5753,49145,NA,377,NA,2,legacy,1024,2,48000,-16,experiment,HHSHH,3,odd,233808,8130,185192,NA,87098,2372,NA,NA,234837,2376,136046,NA,234938,235316,NA,234836,234938,Flanker Task,109,48285,113,1024
96,96,426,426,black,legacy,legacy,legacy,congruent ,1,undefined,1,h,113,0,0,0,113,0,113,0,113,0,0,0,113,113,NA,113,113,Thu Sep 21 14:19:19 2023,600,The main experiment item,TRUE,FlankerTask.osexp,C:\Users\Simone\Desktop,FALSE,mono,FALSE,18,no,white,no,yes,768,legacy,33,79,C:/Users/Simone/Desktop/SD-subject-3.csv,legacy,Melodramatic Milgram,4.0.5,0,h,NA,s,h,NA,h,NA,389,NA,5753,49145,NA,389,NA,2,legacy,1024,2,48000,-16,experiment,HHHHH,3,odd,235318,8130,185192,NA,87098,2372,NA,NA,236346,2376,136046,NA,236447,236837,NA,236344,236447,Flanker Task,110,48674,114,1024
96,96,427,427,black,legacy,legacy,legacy,congruent ,1,undefined,1,h,114,0,0,0,114,0,114,0,114,0,0,0,114,114,NA,114,114,Thu Sep 21 14:19:19 2023,600,The main experiment item,TRUE,FlankerTask.osexp,C:\Users\Simone\Desktop,FALSE,mono,FALSE,18,no,white,no,yes,768,legacy,34,79,C:/Users/Simone/Desktop/SD-subject-3.csv,legacy,Melodramatic Milgram,4.0.5,0,h,NA,s,h,NA,h,NA,440,NA,5753,49145,NA,440,NA,2,legacy,1024,2,48000,-16,experiment,HHHHH,3,odd,236841,8130,185192,NA,87098,2372,NA,NA,237872,2376,136046,NA,237973,238414,NA,237871,237973,Flanker Task,111,49114,115,1024
96,96,427,427,black,legacy,legacy,legacy,congruent ,1,undefined,1,h,115,0,0,0,115,0,115,0,115,0,0,0,115,115,NA,115,115,Thu Sep 21 14:19:19 2023,600,The main experiment item,TRUE,FlankerTask.osexp,C:\Users\Simone\Desktop,FALSE,mono,FALSE,18,no,white,no,yes,768,legacy,35,79,C:/Users/Simone/Desktop/SD-subject-3.csv,legacy,Melodramatic Milgram,4.0.5,0,h,NA,s,h,NA,h,NA,436,NA,5753,49145,NA,436,NA,2,legacy,1024,2,48000,-16,experiment,HHHHH,3,odd,238437,8130,185192,NA,87098,2372,NA,NA,239461,2376,136046,NA,239562,239999,NA,239460,239562,Flanker Task,112,49550,116,1024
96,96,427,427,black,legacy,legacy,legacy,incongruent,1,undefined,1,s,116,0,0,0,116,0,116,0,116,0,0,0,116,116,NA,116,116,Thu Sep 21 14:19:19 2023,600,The main experiment item,TRUE,FlankerTask.osexp,C:\Users\Simone\Desktop,FALSE,mono,FALSE,18,no,white,no,yes,768,legacy,36,79,C:/Users/Simone/Desktop/SD-subject-3.csv,legacy,Melodramatic Milgram,4.0.5,0,s,NA,s,h,NA,s,NA,427,NA,5753,49145,NA,427,NA,2,legacy,1024,2,48000,-16,experiment,HHSHH,3,odd,240002,8130,185192,NA,87098,2372,NA,NA,241042,2376,136046,NA,241143,241572,NA,241039,241143,Flanker Task,113,49977,117,1024
96,96,427,427,black,legacy,legacy,legacy,incongruent,1,undefined,1,s,117,0,0,0,117,0,117,0,117,0,0,0,117,117,NA,117,117,Thu Sep 21 14:19:19 2023,600,The main experiment item,TRUE,FlankerTask.osexp,C:\Users\Simone\Desktop,FALSE,mono,FALSE,18,no,white,no,yes,768,legacy,37,79,C:/Users/Simone/Desktop/SD-subject-3.csv,legacy,Melodramatic Milgram,4.0.5,0,s,NA,s,h,NA,s,NA,430,NA,5753,49145,NA,430,NA,2,legacy,1024,2,48000,-16,experiment,HHSHH,3,odd,241575,8130,185192,NA,87098,2372,NA,NA,242606,2376,136046,NA,242707,243138,NA,242604,242707,Flanker Task,114,50407,118,1024
95,95,426,426,black,legacy,legacy,legacy,incongruent,0,undefined,0,h,118,0,0,0,118,0,118,0,118,0,0,0,118,118,NA,118,118,Thu Sep 21 14:19:19 2023,600,The main experiment item,TRUE,FlankerTask.osexp,C:\Users\Simone\Desktop,FALSE,mono,FALSE,18,no,white,no,yes,768,legacy,38,79,C:/Users/Simone/Desktop/SD-subject-3.csv,legacy,Melodramatic Milgram,4.0.5,0,s,NA,s,h,NA,s,NA,386,NA,5753,49145,NA,386,NA,2,legacy,1024,2,48000,-16,experiment,SSHSS,3,odd,243142,8130,185192,NA,87098,2372,NA,NA,244179,2376,136046,NA,244281,244668,NA,244178,244281,Flanker Task,114,50793,119,1024
95,95,427,427,black,legacy,legacy,legacy,congruent ,1,undefined,1,s,119,0,0,0,119,0,119,0,119,0,0,0,119,119,NA,119,119,Thu Sep 21 14:19:19 2023,600,The main experiment item,TRUE,FlankerTask.osexp,C:\Users\Simone\Desktop,FALSE,mono,FALSE,18,no,white,no,yes,768,legacy,39,79,C:/Users/Simone/Desktop/SD-subject-3.csv,legacy,Melodramatic Milgram,4.0.5,0,s,NA,s,h,NA,s,NA,493,NA,5753,49145,NA,493,NA,2,legacy,1024,2,48000,-16,experiment,SSSSS,3,odd,245173,8130,185192,NA,244672,2372,NA,NA,246201,2376,136046,NA,246302,246797,NA,246200,246302,Flanker Task,115,51286,120,1024
95,95,426,426,black,legacy,legacy,legacy,congruent ,1,undefined,1,h,120,0,0,0,120,0,120,0,120,0,0,0,120,120,NA,120,120,Thu Sep 21 14:19:19 2023,600,The main experiment item,TRUE,FlankerTask.osexp,C:\Users\Simone\Desktop,FALSE,mono,FALSE,18,no,white,no,yes,768,legacy,40,79,C:/Users/Simone/Desktop/SD-subject-3.csv,legacy,Melodramatic Milgram,4.0.5,0,h,NA,s,h,NA,h,NA,375,NA,5753,49145,NA,375,NA,2,legacy,1024,2,48000,-16,experiment,HHHHH,3,odd,246802,8130,185192,NA,244672,2372,NA,NA,247831,2376,136046,NA,247932,248308,NA,247830,247932,Flanker Task,116,51661,121,1024
95,95,426,426,black,legacy,legacy,legacy,incongruent,1,undefined,1,s,121,0,0,0,121,0,121,0,121,0,0,0,121,121,NA,121,121,Thu Sep 21 14:19:19 2023,600,The main experiment item,TRUE,FlankerTask.osexp,C:\Users\Simone\Desktop,FALSE,mono,FALSE,18,no,white,no,yes,768,legacy,41,79,C:/Users/Simone/Desktop/SD-subject-3.csv,legacy,Melodramatic Milgram,4.0.5,0,s,NA,s,h,NA,s,NA,402,NA,5753,49145,NA,402,NA,2,legacy,1024,2,48000,-16,experiment,HHSHH,3,odd,248312,8130,185192,NA,244672,2372,NA,NA,249339,2376,136046,NA,249440,249843,NA,249337,249440,Flanker Task,117,52063,122,1024
95,95,426,426,black,legacy,legacy,legacy,congruent ,1,undefined,1,s,122,0,0,0,122,0,122,0,122,0,0,0,122,122,NA,122,122,Thu Sep 21 14:19:19 2023,600,The main experiment item,TRUE,FlankerTask.osexp,C:\Users\Simone\Desktop,FALSE,mono,FALSE,18,no,white,no,yes,768,legacy,42,79,C:/Users/Simone/Desktop/SD-subject-3.csv,legacy,Melodramatic Milgram,4.0.5,0,s,NA,s,h,NA,s,NA,425,NA,5753,49145,NA,425,NA,2,legacy,1024,2,48000,-16,experiment,SSSSS,3,odd,249845,8130,185192,NA,244672,2372,NA,NA,250880,2376,136046,NA,250981,251407,NA,250878,250981,Flanker Task,118,52488,123,1024
95,95,426,426,black,legacy,legacy,legacy,incongruent,1,undefined,1,s,123,0,0,0,123,0,123,0,123,0,0,0,123,123,NA,123,123,Thu Sep 21 14:19:19 2023,600,The main experiment item,TRUE,FlankerTask.osexp,C:\Users\Simone\Desktop,FALSE,mono,FALSE,18,no,white,no,yes,768,legacy,43,79,C:/Users/Simone/Desktop/SD-subject-3.csv,legacy,Melodramatic Milgram,4.0.5,0,s,NA,s,h,NA,s,NA,434,NA,5753,49145,NA,434,NA,2,legacy,1024,2,48000,-16,experiment,HHSHH,3,odd,251411,8130,185192,NA,244672,2372,NA,NA,252443,2376,136046,NA,252544,252979,NA,252442,252544,Flanker Task,119,52922,124,1024
96,96,428,428,black,legacy,legacy,legacy,incongruent,1,undefined,1,s,124,0,0,0,124,0,124,0,124,0,0,0,124,124,NA,124,124,Thu Sep 21 14:19:19 2023,600,The main experiment item,TRUE,FlankerTask.osexp,C:\Users\Simone\Desktop,FALSE,mono,FALSE,18,no,white,no,yes,768,legacy,44,79,C:/Users/Simone/Desktop/SD-subject-3.csv,legacy,Melodramatic Milgram,4.0.5,0,s,NA,s,h,NA,s,NA,686,NA,5753,49145,NA,686,NA,2,legacy,1024,2,48000,-16,experiment,HHSHH,3,odd,252984,8130,185192,NA,244672,2372,NA,NA,254014,2376,136046,NA,254115,254802,NA,254013,254115,Flanker Task,120,53608,125,1024
96,96,428,428,black,legacy,legacy,legacy,incongruent,1,undefined,1,h,125,0,0,0,125,0,125,0,125,0,0,0,125,125,NA,125,125,Thu Sep 21 14:19:19 2023,600,The main experiment item,TRUE,FlankerTask.osexp,C:\Users\Simone\Desktop,FALSE,mono,FALSE,18,no,white,no,yes,768,legacy,45,79,C:/Users/Simone/Desktop/SD-subject-3.csv,legacy,Melodramatic Milgram,4.0.5,0,h,NA,s,h,NA,h,NA,428,NA,5753,49145,NA,428,NA,2,legacy,1024,2,48000,-16,experiment,SSHSS,3,odd,255307,8130,185192,NA,244672,2372,254806,NA,256345,2376,136046,NA,256446,256875,NA,256343,256446,Flanker Task,121,54036,126,1024
96,96,428,428,black,legacy,legacy,legacy,congruent ,1,undefined,1,s,126,0,0,0,126,0,126,0,126,0,0,0,126,126,NA,126,126,Thu Sep 21 14:19:19 2023,600,The main experiment item,TRUE,FlankerTask.osexp,C:\Users\Simone\Desktop,FALSE,mono,FALSE,18,no,white,no,yes,768,legacy,46,79,C:/Users/Simone/Desktop/SD-subject-3.csv,legacy,Melodramatic Milgram,4.0.5,0,s,NA,s,h,NA,s,NA,369,NA,5753,49145,NA,369,NA,2,legacy,1024,2,48000,-16,experiment,SSSSS,3,odd,256883,8130,185192,NA,244672,2372,254806,NA,257918,2376,136046,NA,258019,258389,NA,257915,258019,Flanker Task,122,54405,127,1024
96,96,428,428,black,legacy,legacy,legacy,congruent ,1,undefined,1,h,127,0,0,0,127,0,127,0,127,0,0,0,127,127,NA,127,127,Thu Sep 21 14:19:19 2023,600,The main experiment item,TRUE,FlankerTask.osexp,C:\Users\Simone\Desktop,FALSE,mono,FALSE,18,no,white,no,yes,768,legacy,47,79,C:/Users/Simone/Desktop/SD-subject-3.csv,legacy,Melodramatic Milgram,4.0.5,0,h,NA,s,h,NA,h,NA,406,NA,5753,49145,NA,406,NA,2,legacy,1024,2,48000,-16,experiment,HHHHH,3,odd,258393,8130,185192,NA,244672,2372,254806,NA,259425,2376,136046,NA,259527,259934,NA,259423,259526,Flanker Task,123,54811,128,1024
96,96,428,428,black,legacy,legacy,legacy,incongruent,1,undefined,1,h,128,0,0,0,128,0,128,0,128,0,0,0,128,128,NA,128,128,Thu Sep 21 14:19:19 2023,600,The main experiment item,TRUE,FlankerTask.osexp,C:\Users\Simone\Desktop,FALSE,mono,FALSE,18,no,white,no,yes,768,legacy,48,79,C:/Users/Simone/Desktop/SD-subject-3.csv,legacy,Melodramatic Milgram,4.0.5,0,h,NA,s,h,NA,h,NA,439,NA,5753,49145,NA,439,NA,2,legacy,1024,2,48000,-16,experiment,SSHSS,3,odd,259938,8130,185192,NA,244672,2372,254806,NA,260968,2376,136046,NA,261069,261509,NA,260966,261069,Flanker Task,124,55250,129,1024
96,96,428,428,black,legacy,legacy,legacy,incongruent,1,undefined,1,h,129,0,0,0,129,0,129,0,129,0,0,0,129,129,NA,129,129,Thu Sep 21 14:19:19 2023,600,The main experiment item,TRUE,FlankerTask.osexp,C:\Users\Simone\Desktop,FALSE,mono,FALSE,18,no,white,no,yes,768,legacy,49,79,C:/Users/Simone/Desktop/SD-subject-3.csv,legacy,Melodramatic Milgram,4.0.5,0,h,NA,s,h,NA,h,NA,408,NA,5753,49145,NA,408,NA,2,legacy,1024,2,48000,-16,experiment,SSHSS,3,odd,261513,8130,185192,NA,244672,2372,254806,NA,262548,2376,136046,NA,262649,263058,NA,262545,262649,Flanker Task,125,55658,130,1024
96,96,427,427,black,legacy,legacy,legacy,congruent ,1,undefined,1,h,130,0,0,0,130,0,130,0,130,0,0,0,130,130,NA,130,130,Thu Sep 21 14:19:19 2023,600,The main experiment item,TRUE,FlankerTask.osexp,C:\Users\Simone\Desktop,FALSE,mono,FALSE,18,no,white,no,yes,768,legacy,50,79,C:/Users/Simone/Desktop/SD-subject-3.csv,legacy,Melodramatic Milgram,4.0.5,0,h,NA,s,h,NA,h,NA,384,NA,5753,49145,NA,384,NA,2,legacy,1024,2,48000,-16,experiment,HHHHH,3,odd,263061,8130,185192,NA,244672,2372,254806,NA,264094,2376,136046,NA,264195,264580,NA,264091,264195,Flanker Task,126,56042,131,1024
96,96,427,427,black,legacy,legacy,legacy,congruent ,1,undefined,1,s,131,0,0,0,131,0,131,0,131,0,0,0,131,131,NA,131,131,Thu Sep 21 14:19:19 2023,600,The main experiment item,TRUE,FlankerTask.osexp,C:\Users\Simone\Desktop,FALSE,mono,FALSE,18,no,white,no,yes,768,legacy,51,79,C:/Users/Simone/Desktop/SD-subject-3.csv,legacy,Melodramatic Milgram,4.0.5,0,s,NA,s,h,NA,s,NA,371,NA,5753,49145,NA,371,NA,2,legacy,1024,2,48000,-16,experiment,SSSSS,3,odd,264584,8130,185192,NA,244672,2372,254806,NA,265613,2376,136046,NA,265714,266087,NA,265611,265714,Flanker Task,127,56413,132,1024
96,96,427,427,black,legacy,legacy,legacy,congruent ,1,undefined,1,h,132,0,0,0,132,0,132,0,132,0,0,0,132,132,NA,132,132,Thu Sep 21 14:19:19 2023,600,The main experiment item,TRUE,FlankerTask.osexp,C:\Users\Simone\Desktop,FALSE,mono,FALSE,18,no,white,no,yes,768,legacy,52,79,C:/Users/Simone/Desktop/SD-subject-3.csv,legacy,Melodramatic Milgram,4.0.5,0,h,NA,s,h,NA,h,NA,449,NA,5753,49145,NA,449,NA,2,legacy,1024,2,48000,-16,experiment,HHHHH,3,odd,266091,8130,185192,NA,244672,2372,254806,NA,267122,2376,136046,NA,267223,267673,NA,267120,267223,Flanker Task,128,56862,133,1024
96,96,427,427,black,legacy,legacy,legacy,congruent ,1,undefined,1,s,133,0,0,0,133,0,133,0,133,0,0,0,133,133,NA,133,133,Thu Sep 21 14:19:19 2023,600,The main experiment item,TRUE,FlankerTask.osexp,C:\Users\Simone\Desktop,FALSE,mono,FALSE,18,no,white,no,yes,768,legacy,53,79,C:/Users/Simone/Desktop/SD-subject-3.csv,legacy,Melodramatic Milgram,4.0.5,0,s,NA,s,h,NA,s,NA,420,NA,5753,49145,NA,420,NA,2,legacy,1024,2,48000,-16,experiment,SSSSS,3,odd,267677,8130,185192,NA,244672,2372,254806,NA,268711,2376,136046,NA,268813,269234,NA,268709,268812,Flanker Task,129,57282,134,1024
96,96,427,427,black,legacy,legacy,legacy,congruent ,1,undefined,1,h,134,0,0,0,134,0,134,0,134,0,0,0,134,134,NA,134,134,Thu Sep 21 14:19:19 2023,600,The main experiment item,TRUE,FlankerTask.osexp,C:\Users\Simone\Desktop,FALSE,mono,FALSE,18,no,white,no,yes,768,legacy,54,79,C:/Users/Simone/Desktop/SD-subject-3.csv,legacy,Melodramatic Milgram,4.0.5,0,h,NA,s,h,NA,h,NA,378,NA,5753,49145,NA,378,NA,2,legacy,1024,2,48000,-16,experiment,HHHHH,3,odd,269240,8130,185192,NA,244672,2372,254806,NA,270281,2376,136046,NA,270382,270762,NA,270280,270382,Flanker Task,130,57660,135,1024
96,96,427,427,black,legacy,legacy,legacy,incongruent,1,undefined,1,h,135,0,0,0,135,0,135,0,135,0,0,0,135,135,NA,135,135,Thu Sep 21 14:19:19 2023,600,The main experiment item,TRUE,FlankerTask.osexp,C:\Users\Simone\Desktop,FALSE,mono,FALSE,18,no,white,no,yes,768,legacy,55,79,C:/Users/Simone/Desktop/SD-subject-3.csv,legacy,Melodramatic Milgram,4.0.5,0,h,NA,s,h,NA,h,NA,459,NA,5753,49145,NA,459,NA,2,legacy,1024,2,48000,-16,experiment,SSHSS,3,odd,270765,8130,185192,NA,244672,2372,254806,NA,271793,2376,136046,NA,271894,272354,NA,271792,271894,Flanker Task,131,58119,136,1024
96,96,427,427,black,legacy,legacy,legacy,congruent ,1,undefined,1,h,136,0,0,0,136,0,136,0,136,0,0,0,136,136,NA,136,136,Thu Sep 21 14:19:19 2023,600,The main experiment item,TRUE,FlankerTask.osexp,C:\Users\Simone\Desktop,FALSE,mono,FALSE,18,no,white,no,yes,768,legacy,56,79,C:/Users/Simone/Desktop/SD-subject-3.csv,legacy,Melodramatic Milgram,4.0.5,0,h,NA,s,h,NA,h,NA,467,NA,5753,49145,NA,467,NA,2,legacy,1024,2,48000,-16,experiment,HHHHH,3,odd,272356,8130,185192,NA,244672,2372,254806,NA,273386,2376,136046,NA,273487,273954,NA,273384,273487,Flanker Task,132,58586,137,1024
96,96,427,427,black,legacy,legacy,legacy,incongruent,1,undefined,1,s,137,0,0,0,137,0,137,0,137,0,0,0,137,137,NA,137,137,Thu Sep 21 14:19:19 2023,600,The main experiment item,TRUE,FlankerTask.osexp,C:\Users\Simone\Desktop,FALSE,mono,FALSE,18,no,white,no,yes,768,legacy,57,79,C:/Users/Simone/Desktop/SD-subject-3.csv,legacy,Melodramatic Milgram,4.0.5,0,s,NA,s,h,NA,s,NA,429,NA,5753,49145,NA,429,NA,2,legacy,1024,2,48000,-16,experiment,HHSHH,3,odd,273958,8130,185192,NA,244672,2372,254806,NA,274986,2376,136046,NA,275087,275517,NA,274985,275087,Flanker Task,133,59015,138,1024
96,96,428,428,black,legacy,legacy,legacy,congruent ,1,undefined,1,h,138,0,0,0,138,0,138,0,138,0,0,0,138,138,NA,138,138,Thu Sep 21 14:19:19 2023,600,The main experiment item,TRUE,FlankerTask.osexp,C:\Users\Simone\Desktop,FALSE,mono,FALSE,18,no,white,no,yes,768,legacy,58,79,C:/Users/Simone/Desktop/SD-subject-3.csv,legacy,Melodramatic Milgram,4.0.5,0,h,NA,s,h,NA,h,NA,478,NA,5753,49145,NA,478,NA,2,legacy,1024,2,48000,-16,experiment,HHHHH,3,odd,275519,8130,185192,NA,244672,2372,254806,NA,276550,2376,136046,NA,276651,277129,NA,276548,276651,Flanker Task,134,59493,139,1024
96,96,428,428,black,legacy,legacy,legacy,congruent ,1,undefined,1,s,139,0,0,0,139,0,139,0,139,0,0,0,139,139,NA,139,139,Thu Sep 21 14:19:19 2023,600,The main experiment item,TRUE,FlankerTask.osexp,C:\Users\Simone\Desktop,FALSE,mono,FALSE,18,no,white,no,yes,768,legacy,59,79,C:/Users/Simone/Desktop/SD-subject-3.csv,legacy,Melodramatic Milgram,4.0.5,0,s,NA,s,h,NA,s,NA,489,NA,5753,49145,NA,489,NA,2,legacy,1024,2,48000,-16,experiment,SSSSS,3,odd,277133,8130,185192,NA,244672,2372,254806,NA,278162,2376,136046,NA,278263,278752,NA,278161,278263,Flanker Task,135,59982,140,1024
96,96,428,428,black,legacy,legacy,legacy,incongruent,1,undefined,1,h,140,0,0,0,140,0,140,0,140,0,0,0,140,140,NA,140,140,Thu Sep 21 14:19:19 2023,600,The main experiment item,TRUE,FlankerTask.osexp,C:\Users\Simone\Desktop,FALSE,mono,FALSE,18,no,white,no,yes,768,legacy,60,79,C:/Users/Simone/Desktop/SD-subject-3.csv,legacy,Melodramatic Milgram,4.0.5,0,h,NA,s,h,NA,h,NA,390,NA,5753,49145,NA,390,NA,2,legacy,1024,2,48000,-16,experiment,SSHSS,3,odd,278756,8130,185192,NA,244672,2372,254806,NA,279785,2376,136046,NA,279886,280277,NA,279783,279886,Flanker Task,136,60372,141,1024
96,96,428,428,black,legacy,legacy,legacy,incongruent,1,undefined,1,s,141,0,0,0,141,0,141,0,141,0,0,0,141,141,NA,141,141,Thu Sep 21 14:19:19 2023,600,The main experiment item,TRUE,FlankerTask.osexp,C:\Users\Simone\Desktop,FALSE,mono,FALSE,18,no,white,no,yes,768,legacy,61,79,C:/Users/Simone/Desktop/SD-subject-3.csv,legacy,Melodramatic Milgram,4.0.5,0,s,NA,s,h,NA,s,NA,432,NA,5753,49145,NA,432,NA,2,legacy,1024,2,48000,-16,experiment,HHSHH,3,odd,280279,8130,185192,NA,244672,2372,254806,NA,281303,2376,136046,NA,281404,281837,NA,281302,281404,Flanker Task,137,60804,142,1024
96,96,427,427,black,legacy,legacy,legacy,congruent ,1,undefined,1,h,142,0,0,0,142,0,142,0,142,0,0,0,142,142,NA,142,142,Thu Sep 21 14:19:19 2023,600,The main experiment item,TRUE,FlankerTask.osexp,C:\Users\Simone\Desktop,FALSE,mono,FALSE,18,no,white,no,yes,768,legacy,62,79,C:/Users/Simone/Desktop/SD-subject-3.csv,legacy,Melodramatic Milgram,4.0.5,0,h,NA,s,h,NA,h,NA,384,NA,5753,49145,NA,384,NA,2,legacy,1024,2,48000,-16,experiment,HHHHH,3,odd,281841,8130,185192,NA,244672,2372,254806,NA,282872,2376,136046,NA,282973,283358,NA,282870,282973,Flanker Task,138,61188,143,1024
96,96,427,427,black,legacy,legacy,legacy,congruent ,1,undefined,1,s,143,0,0,0,143,0,143,0,143,0,0,0,143,143,NA,143,143,Thu Sep 21 14:19:19 2023,600,The main experiment item,TRUE,FlankerTask.osexp,C:\Users\Simone\Desktop,FALSE,mono,FALSE,18,no,white,no,yes,768,legacy,63,79,C:/Users/Simone/Desktop/SD-subject-3.csv,legacy,Melodramatic Milgram,4.0.5,0,s,NA,s,h,NA,s,NA,404,NA,5753,49145,NA,404,NA,2,legacy,1024,2,48000,-16,experiment,SSSSS,3,odd,283362,8130,185192,NA,244672,2372,254806,NA,284396,2376,136046,NA,284498,284903,NA,284395,284497,Flanker Task,139,61592,144,1024
96,96,428,428,black,legacy,legacy,legacy,incongruent,1,undefined,1,s,144,0,0,0,144,0,144,0,144,0,0,0,144,144,NA,144,144,Thu Sep 21 14:19:19 2023,600,The main experiment item,TRUE,FlankerTask.osexp,C:\Users\Simone\Desktop,FALSE,mono,FALSE,18,no,white,no,yes,768,legacy,64,79,C:/Users/Simone/Desktop/SD-subject-3.csv,legacy,Melodramatic Milgram,4.0.5,0,s,NA,s,h,NA,s,NA,475,NA,5753,49145,NA,475,NA,2,legacy,1024,2,48000,-16,experiment,HHSHH,3,odd,284906,8130,185192,NA,244672,2372,254806,NA,285938,2376,136046,NA,286039,286515,NA,285937,286039,Flanker Task,140,62067,145,1024
96,96,429,429,black,legacy,legacy,legacy,congruent ,1,undefined,1,s,145,0,0,0,145,0,145,0,145,0,0,0,145,145,NA,145,145,Thu Sep 21 14:19:19 2023,600,The main experiment item,TRUE,FlankerTask.osexp,C:\Users\Simone\Desktop,FALSE,mono,FALSE,18,no,white,no,yes,768,legacy,65,79,C:/Users/Simone/Desktop/SD-subject-3.csv,legacy,Melodramatic Milgram,4.0.5,0,s,NA,s,h,NA,s,NA,621,NA,5753,49145,NA,621,NA,2,legacy,1024,2,48000,-16,experiment,SSSSS,3,odd,286519,8130,185192,NA,244672,2372,254806,NA,287547,2376,136046,NA,287648,288270,NA,287545,287648,Flanker Task,141,62688,146,1024
96,96,429,429,black,legacy,legacy,legacy,incongruent,1,undefined,1,h,146,0,0,0,146,0,146,0,146,0,0,0,146,146,NA,146,146,Thu Sep 21 14:19:19 2023,600,The main experiment item,TRUE,FlankerTask.osexp,C:\Users\Simone\Desktop,FALSE,mono,FALSE,18,no,white,no,yes,768,legacy,66,79,C:/Users/Simone/Desktop/SD-subject-3.csv,legacy,Melodramatic Milgram,4.0.5,0,h,NA,s,h,NA,h,NA,471,NA,5753,49145,NA,471,NA,2,legacy,1024,2,48000,-16,experiment,SSHSS,3,odd,288774,8130,185192,NA,244672,2372,288273,NA,289798,2376,136046,NA,289899,290371,NA,289796,289899,Flanker Task,142,63159,147,1024
96,96,429,429,black,legacy,legacy,legacy,congruent ,1,undefined,1,h,147,0,0,0,147,0,147,0,147,0,0,0,147,147,NA,147,147,Thu Sep 21 14:19:19 2023,600,The main experiment item,TRUE,FlankerTask.osexp,C:\Users\Simone\Desktop,FALSE,mono,FALSE,18,no,white,no,yes,768,legacy,67,79,C:/Users/Simone/Desktop/SD-subject-3.csv,legacy,Melodramatic Milgram,4.0.5,0,h,NA,s,h,NA,h,NA,380,NA,5753,49145,NA,380,NA,2,legacy,1024,2,48000,-16,experiment,HHHHH,3,odd,290374,8130,185192,NA,244672,2372,288273,NA,291400,2376,136046,NA,291501,291882,NA,291399,291501,Flanker Task,143,63539,148,1024
96,96,429,429,black,legacy,legacy,legacy,incongruent,1,undefined,1,h,148,0,0,0,148,0,148,0,148,0,0,0,148,148,NA,148,148,Thu Sep 21 14:19:19 2023,600,The main experiment item,TRUE,FlankerTask.osexp,C:\Users\Simone\Desktop,FALSE,mono,FALSE,18,no,white,no,yes,768,legacy,68,79,C:/Users/Simone/Desktop/SD-subject-3.csv,legacy,Melodramatic Milgram,4.0.5,0,h,NA,s,h,NA,h,NA,428,NA,5753,49145,NA,428,NA,2,legacy,1024,2,48000,-16,experiment,SSHSS,3,odd,291886,8130,185192,NA,244672,2372,288273,NA,292913,2376,136046,NA,293014,293443,NA,292912,293014,Flanker Task,144,63967,149,1024
96,96,429,429,black,legacy,legacy,legacy,incongruent,1,undefined,1,h,149,0,0,0,149,0,149,0,149,0,0,0,149,149,NA,149,149,Thu Sep 21 14:19:19 2023,600,The main experiment item,TRUE,FlankerTask.osexp,C:\Users\Simone\Desktop,FALSE,mono,FALSE,18,no,white,no,yes,768,legacy,69,79,C:/Users/Simone/Desktop/SD-subject-3.csv,legacy,Melodramatic Milgram,4.0.5,0,h,NA,s,h,NA,h,NA,447,NA,5753,49145,NA,447,NA,2,legacy,1024,2,48000,-16,experiment,SSHSS,3,odd,293447,8130,185192,NA,244672,2372,288273,NA,294473,2376,136046,NA,294574,295021,NA,294471,294574,Flanker Task,145,64414,150,1024
96,96,428,428,black,legacy,legacy,legacy,congruent ,1,undefined,1,s,150,0,0,0,150,0,150,0,150,0,0,0,150,150,NA,150,150,Thu Sep 21 14:19:19 2023,600,The main experiment item,TRUE,FlankerTask.osexp,C:\Users\Simone\Desktop,FALSE,mono,FALSE,18,no,white,no,yes,768,legacy,70,79,C:/Users/Simone/Desktop/SD-subject-3.csv,legacy,Melodramatic Milgram,4.0.5,0,s,NA,s,h,NA,s,NA,351,NA,5753,49145,NA,351,NA,2,legacy,1024,2,48000,-16,experiment,SSSSS,3,odd,295026,8130,185192,NA,244672,2372,288273,NA,296054,2376,136046,NA,296156,296508,NA,296053,296156,Flanker Task,146,64765,151,1024
96,96,428,428,black,legacy,legacy,legacy,incongruent,1,undefined,1,s,151,0,0,0,151,0,151,0,151,0,0,0,151,151,NA,151,151,Thu Sep 21 14:19:19 2023,600,The main experiment item,TRUE,FlankerTask.osexp,C:\Users\Simone\Desktop,FALSE,mono,FALSE,18,no,white,no,yes,768,legacy,71,79,C:/Users/Simone/Desktop/SD-subject-3.csv,legacy,Melodramatic Milgram,4.0.5,0,s,NA,s,h,NA,s,NA,415,NA,5753,49145,NA,415,NA,2,legacy,1024,2,48000,-16,experiment,HHSHH,3,odd,296512,8130,185192,NA,244672,2372,288273,NA,297536,2376,136046,NA,297638,298053,NA,297535,297638,Flanker Task,147,65180,152,1024
96,96,428,428,black,legacy,legacy,legacy,incongruent,1,undefined,1,s,152,0,0,0,152,0,152,0,152,0,0,0,152,152,NA,152,152,Thu Sep 21 14:19:19 2023,600,The main experiment item,TRUE,FlankerTask.osexp,C:\Users\Simone\Desktop,FALSE,mono,FALSE,18,no,white,no,yes,768,legacy,72,79,C:/Users/Simone/Desktop/SD-subject-3.csv,legacy,Melodramatic Milgram,4.0.5,0,s,NA,s,h,NA,s,NA,387,NA,5753,49145,NA,387,NA,2,legacy,1024,2,48000,-16,experiment,HHSHH,3,odd,298057,8130,185192,NA,244672,2372,288273,NA,299086,2376,136046,NA,299187,299575,NA,299085,299187,Flanker Task,148,65567,153,1024
96,96,428,428,black,legacy,legacy,legacy,congruent ,1,undefined,1,s,153,0,0,0,153,0,153,0,153,0,0,0,153,153,NA,153,153,Thu Sep 21 14:19:19 2023,600,The main experiment item,TRUE,FlankerTask.osexp,C:\Users\Simone\Desktop,FALSE,mono,FALSE,18,no,white,no,yes,768,legacy,73,79,C:/Users/Simone/Desktop/SD-subject-3.csv,legacy,Melodramatic Milgram,4.0.5,0,s,NA,s,h,NA,s,NA,347,NA,5753,49145,NA,347,NA,2,legacy,1024,2,48000,-16,experiment,SSSSS,3,odd,299580,8130,185192,NA,244672,2372,288273,NA,300604,2376,136046,NA,300705,301052,NA,300603,300705,Flanker Task,149,65914,154,1024
96,96,428,428,black,legacy,legacy,legacy,incongruent,1,undefined,1,s,154,0,0,0,154,0,154,0,154,0,0,0,154,154,NA,154,154,Thu Sep 21 14:19:19 2023,600,The main experiment item,TRUE,FlankerTask.osexp,C:\Users\Simone\Desktop,FALSE,mono,FALSE,18,no,white,no,yes,768,legacy,74,79,C:/Users/Simone/Desktop/SD-subject-3.csv,legacy,Melodramatic Milgram,4.0.5,0,s,NA,s,h,NA,s,NA,516,NA,5753,49145,NA,516,NA,2,legacy,1024,2,48000,-16,experiment,HHSHH,3,odd,301056,8130,185192,NA,244672,2372,288273,NA,302084,2376,136046,NA,302186,302703,NA,302083,302186,Flanker Task,150,66430,155,1024
96,96,428,428,black,legacy,legacy,legacy,congruent ,1,undefined,1,s,155,0,0,0,155,0,155,0,155,0,0,0,155,155,NA,155,155,Thu Sep 21 14:19:19 2023,600,The main experiment item,TRUE,FlankerTask.osexp,C:\Users\Simone\Desktop,FALSE,mono,FALSE,18,no,white,no,yes,768,legacy,75,79,C:/Users/Simone/Desktop/SD-subject-3.csv,legacy,Melodramatic Milgram,4.0.5,0,s,NA,s,h,NA,s,NA,474,NA,5753,49145,NA,474,NA,2,legacy,1024,2,48000,-16,experiment,SSSSS,3,odd,302707,8130,185192,NA,244672,2372,288273,NA,303732,2376,136046,NA,303833,304308,NA,303731,303833,Flanker Task,151,66904,156,1024
96,96,428,428,black,legacy,legacy,legacy,congruent ,1,undefined,1,s,156,0,0,0,156,0,156,0,156,0,0,0,156,156,NA,156,156,Thu Sep 21 14:19:19 2023,600,The main experiment item,TRUE,FlankerTask.osexp,C:\Users\Simone\Desktop,FALSE,mono,FALSE,18,no,white,no,yes,768,legacy,76,79,C:/Users/Simone/Desktop/SD-subject-3.csv,legacy,Melodramatic Milgram,4.0.5,0,s,NA,s,h,NA,s,NA,402,NA,5753,49145,NA,402,NA,2,legacy,1024,2,48000,-16,experiment,SSSSS,3,odd,304312,8130,185192,NA,244672,2372,288273,NA,305343,2376,136046,NA,305444,305847,NA,305342,305444,Flanker Task,152,67306,157,1024
96,96,428,428,black,legacy,legacy,legacy,incongruent,0,undefined,0,h,157,0,0,0,157,0,157,0,157,0,0,0,157,157,NA,157,157,Thu Sep 21 14:19:19 2023,600,The main experiment item,TRUE,FlankerTask.osexp,C:\Users\Simone\Desktop,FALSE,mono,FALSE,18,no,white,no,yes,768,legacy,77,79,C:/Users/Simone/Desktop/SD-subject-3.csv,legacy,Melodramatic Milgram,4.0.5,0,s,NA,s,h,NA,s,NA,330,NA,5753,49145,NA,330,NA,2,legacy,1024,2,48000,-16,experiment,SSHSS,3,odd,305851,8130,185192,NA,244672,2372,288273,NA,306880,2376,136046,NA,306981,307312,NA,306879,306981,Flanker Task,152,67636,158,1024
96,96,428,428,black,legacy,legacy,legacy,congruent ,1,undefined,1,h,158,0,0,0,158,0,158,0,158,0,0,0,158,158,NA,158,158,Thu Sep 21 14:19:19 2023,600,The main experiment item,TRUE,FlankerTask.osexp,C:\Users\Simone\Desktop,FALSE,mono,FALSE,18,no,white,no,yes,768,legacy,78,79,C:/Users/Simone/Desktop/SD-subject-3.csv,legacy,Melodramatic Milgram,4.0.5,0,h,NA,s,h,NA,h,NA,527,NA,5753,49145,NA,527,NA,2,legacy,1024,2,48000,-16,experiment,HHHHH,3,odd,307817,8130,185192,NA,307316,2372,288273,NA,308844,2376,136046,NA,308945,309473,NA,308842,308945,Flanker Task,153,68163,159,1024
96,96,429,429,black,legacy,legacy,legacy,incongruent,1,undefined,1,h,159,0,0,0,159,0,159,0,159,0,0,0,159,159,NA,159,159,Thu Sep 21 14:19:19 2023,600,The main experiment item,TRUE,FlankerTask.osexp,C:\Users\Simone\Desktop,FALSE,mono,FALSE,18,no,white,no,yes,768,legacy,79,79,C:/Users/Simone/Desktop/SD-subject-3.csv,legacy,Melodramatic Milgram,4.0.5,0,h,NA,s,h,NA,h,NA,543,NA,5753,49145,NA,543,NA,2,legacy,1024,2,48000,-16,experiment,SSHSS,3,odd,309477,8130,185192,NA,307316,2372,288273,NA,310501,2376,136046,NA,310602,311146,NA,310499,310602,Flanker Task,154,68706,160,1024
96,96,429,429,black,legacy,legacy,legacy,incongruent,1,undefined,1,s,160,0,0,0,160,0,160,0,160,0,0,0,160,160,NA,160,160,Thu Sep 21 14:19:19 2023,300,The main experiment item,TRUE,FlankerTask.osexp,C:\Users\Simone\Desktop,FALSE,mono,FALSE,18,no,white,no,yes,768,legacy,0,79,C:/Users/Simone/Desktop/SD-subject-3.csv,legacy,Melodramatic Milgram,4.0.5,0,s,NA,s,h,s,s,NA,477,NA,5753,49145,119788,477,NA,2,legacy,1024,2,48000,-16,experiment,HHSHH,3,odd,311150,8130,185192,431940,307316,2372,288273,NA,431985,2376,136046,312151,432086,432563,NA,431984,432086,Flanker Task,155,69183,161,1024
96,96,428,428,black,legacy,legacy,legacy,incongruent,1,undefined,1,h,161,0,0,0,161,0,161,0,161,0,0,0,161,161,NA,161,161,Thu Sep 21 14:19:19 2023,300,The main experiment item,TRUE,FlankerTask.osexp,C:\Users\Simone\Desktop,FALSE,mono,FALSE,18,no,white,no,yes,768,legacy,1,79,C:/Users/Simone/Desktop/SD-subject-3.csv,legacy,Melodramatic Milgram,4.0.5,0,h,NA,s,h,s,h,NA,300,NA,5753,49145,119788,300,NA,2,legacy,1024,2,48000,-16,experiment,SSHSS,3,odd,433068,8130,185192,431940,307316,2372,432567,NA,434090,2376,136046,312151,434191,434492,NA,434089,434191,Flanker Task,156,69483,162,1024
96,96,428,428,black,legacy,legacy,legacy,congruent ,1,undefined,1,s,162,0,0,0,162,0,162,0,162,0,0,0,162,162,NA,162,162,Thu Sep 21 14:19:19 2023,300,The main experiment item,TRUE,FlankerTask.osexp,C:\Users\Simone\Desktop,FALSE,mono,FALSE,18,no,white,no,yes,768,legacy,2,79,C:/Users/Simone/Desktop/SD-subject-3.csv,legacy,Melodramatic Milgram,4.0.5,0,s,NA,s,h,s,s,NA,334,NA,5753,49145,119788,334,NA,2,legacy,1024,2,48000,-16,experiment,SSSSS,3,odd,434496,8130,185192,431940,307316,2372,432567,NA,435532,2376,136046,312151,435633,435967,NA,435531,435633,Flanker Task,157,69817,163,1024
95,95,427,427,black,legacy,legacy,legacy,incongruent,0,undefined,0,h,163,0,0,0,163,0,163,0,163,0,0,0,163,163,NA,163,163,Thu Sep 21 14:19:19 2023,300,The main experiment item,TRUE,FlankerTask.osexp,C:\Users\Simone\Desktop,FALSE,mono,FALSE,18,no,white,no,yes,768,legacy,3,79,C:/Users/Simone/Desktop/SD-subject-3.csv,legacy,Melodramatic Milgram,4.0.5,0,s,NA,s,h,s,s,NA,306,NA,5753,49145,119788,306,NA,2,legacy,1024,2,48000,-16,experiment,SSHSS,3,odd,436472,8130,185192,431940,307316,2372,435971,NA,437497,2376,136046,312151,437598,437905,NA,437495,437598,Flanker Task,157,70123,164,1024
95,95,427,427,black,legacy,legacy,legacy,incongruent,1,undefined,1,s,164,0,0,0,164,0,164,0,164,0,0,0,164,164,NA,164,164,Thu Sep 21 14:19:19 2023,300,The main experiment item,TRUE,FlankerTask.osexp,C:\Users\Simone\Desktop,FALSE,mono,FALSE,18,no,white,no,yes,768,legacy,4,79,C:/Users/Simone/Desktop/SD-subject-3.csv,legacy,Melodramatic Milgram,4.0.5,0,s,NA,s,h,s,s,NA,363,NA,5753,49145,119788,363,NA,2,legacy,1024,2,48000,-16,experiment,HHSHH,3,odd,438911,8130,185192,431940,437909,2372,438410,NA,439936,2376,136046,312151,440037,440400,NA,439934,440037,Flanker Task,158,70486,165,1024
95,95,425,425,black,legacy,legacy,legacy,congruent ,0,undefined,0,s,165,0,0,0,165,0,165,0,165,0,0,0,165,165,NA,165,165,Thu Sep 21 14:19:19 2023,300,The main experiment item,TRUE,FlankerTask.osexp,C:\Users\Simone\Desktop,FALSE,mono,FALSE,18,no,white,no,yes,768,legacy,5,79,C:/Users/Simone/Desktop/SD-subject-3.csv,legacy,Melodramatic Milgram,4.0.5,0,h,NA,s,h,s,h,NA,96,NA,5753,49145,119788,96,NA,2,legacy,1024,2,48000,-16,experiment,SSSSS,3,odd,440905,8130,185192,431940,437909,2372,440404,NA,441929,2376,136046,312151,442030,442127,NA,441928,442030,Flanker Task,158,70582,166,1024
95,95,424,424,black,legacy,legacy,legacy,incongruent,1,undefined,1,s,166,0,0,0,166,0,166,0,166,0,0,0,166,166,NA,166,166,Thu Sep 21 14:19:19 2023,300,The main experiment item,TRUE,FlankerTask.osexp,C:\Users\Simone\Desktop,FALSE,mono,FALSE,18,no,white,no,yes,768,legacy,6,79,C:/Users/Simone/Desktop/SD-subject-3.csv,legacy,Melodramatic Milgram,4.0.5,0,s,NA,s,h,s,s,NA,365,NA,5753,49145,119788,365,NA,2,legacy,1024,2,48000,-16,experiment,HHSHH,3,odd,442632,8130,185192,431940,442131,2372,440404,NA,443654,2376,136046,312151,443755,444120,NA,443653,443755,Flanker Task,159,70947,167,1024
94,94,423,423,black,legacy,legacy,legacy,incongruent,0,undefined,0,s,167,0,0,0,167,0,167,0,167,0,0,0,167,167,NA,167,167,Thu Sep 21 14:19:19 2023,300,The main experiment item,TRUE,FlankerTask.osexp,C:\Users\Simone\Desktop,FALSE,mono,FALSE,18,no,white,no,yes,768,legacy,7,79,C:/Users/Simone/Desktop/SD-subject-3.csv,legacy,Melodramatic Milgram,4.0.5,0,h,NA,s,h,s,h,NA,186,NA,5753,49145,119788,186,NA,2,legacy,1024,2,48000,-16,experiment,HHSHH,3,odd,444625,8130,185192,431940,442131,2372,444124,NA,445656,2376,136046,312151,445757,445944,NA,445655,445757,Flanker Task,159,71133,168,1024
94,94,422,422,black,legacy,legacy,legacy,congruent ,1,undefined,1,h,168,0,0,0,168,0,168,0,168,0,0,0,168,168,NA,168,168,Thu Sep 21 14:19:19 2023,300,The main experiment item,TRUE,FlankerTask.osexp,C:\Users\Simone\Desktop,FALSE,mono,FALSE,18,no,white,no,yes,768,legacy,8,79,C:/Users/Simone/Desktop/SD-subject-3.csv,legacy,Melodramatic Milgram,4.0.5,0,h,NA,s,h,s,h,NA,243,NA,5753,49145,119788,243,NA,2,legacy,1024,2,48000,-16,experiment,HHHHH,3,odd,446449,8130,185192,431940,445948,2372,444124,NA,447471,2376,136046,312151,447572,447816,NA,447470,447572,Flanker Task,160,71376,169,1024
94,94,421,421,black,legacy,legacy,legacy,incongruent,1,undefined,1,s,169,0,0,0,169,0,169,0,169,0,0,0,169,169,NA,169,169,Thu Sep 21 14:19:19 2023,300,The main experiment item,TRUE,FlankerTask.osexp,C:\Users\Simone\Desktop,FALSE,mono,FALSE,18,no,white,no,yes,768,legacy,9,79,C:/Users/Simone/Desktop/SD-subject-3.csv,legacy,Melodramatic Milgram,4.0.5,0,s,NA,s,h,s,s,NA,285,NA,5753,49145,119788,285,NA,2,legacy,1024,2,48000,-16,experiment,HHSHH,3,odd,447820,8130,185192,431940,445948,2372,444124,NA,448844,2376,136046,312151,448945,449231,NA,448842,448945,Flanker Task,161,71661,170,1024
94,94,420,420,black,legacy,legacy,legacy,incongruent,0,undefined,0,s,170,0,0,0,170,0,170,0,170,0,0,0,170,170,NA,170,170,Thu Sep 21 14:19:19 2023,300,The main experiment item,TRUE,FlankerTask.osexp,C:\Users\Simone\Desktop,FALSE,mono,FALSE,18,no,white,no,yes,768,legacy,10,79,C:/Users/Simone/Desktop/SD-subject-3.csv,legacy,Melodramatic Milgram,4.0.5,0,h,NA,s,h,s,h,NA,249,NA,5753,49145,119788,249,NA,2,legacy,1024,2,48000,-16,experiment,HHSHH,3,odd,449234,8130,185192,431940,445948,2372,444124,NA,450256,2376,136046,312151,450357,450607,NA,450255,450357,Flanker Task,161,71910,171,1024
94,94,420,420,black,legacy,legacy,legacy,congruent ,1,undefined,1,h,171,0,0,0,171,0,171,0,171,0,0,0,171,171,NA,171,171,Thu Sep 21 14:19:19 2023,300,The main experiment item,TRUE,FlankerTask.osexp,C:\Users\Simone\Desktop,FALSE,mono,FALSE,18,no,white,no,yes,768,legacy,11,79,C:/Users/Simone/Desktop/SD-subject-3.csv,legacy,Melodramatic Milgram,4.0.5,0,h,NA,s,h,s,h,NA,349,NA,5753,49145,119788,349,NA,2,legacy,1024,2,48000,-16,experiment,HHHHH,3,odd,451112,8130,185192,431940,450611,2372,444124,NA,452137,2376,136046,312151,452238,452588,NA,452135,452238,Flanker Task,162,72259,172,1024
94,94,419,419,black,legacy,legacy,legacy,incongruent,1,undefined,1,s,172,0,0,0,172,0,172,0,172,0,0,0,172,172,NA,172,172,Thu Sep 21 14:19:19 2023,300,The main experiment item,TRUE,FlankerTask.osexp,C:\Users\Simone\Desktop,FALSE,mono,FALSE,18,no,white,no,yes,768,legacy,12,79,C:/Users/Simone/Desktop/SD-subject-3.csv,legacy,Melodramatic Milgram,4.0.5,0,s,NA,s,h,s,s,NA,243,NA,5753,49145,119788,243,NA,2,legacy,1024,2,48000,-16,experiment,HHSHH,3,odd,453093,8130,185192,431940,450611,2372,452592,NA,454116,2376,136046,312151,454217,454461,NA,454114,454217,Flanker Task,163,72502,173,1024
94,94,418,418,black,legacy,legacy,legacy,congruent ,1,undefined,1,h,173,0,0,0,173,0,173,0,173,0,0,0,173,173,NA,173,173,Thu Sep 21 14:19:19 2023,300,The main experiment item,TRUE,FlankerTask.osexp,C:\Users\Simone\Desktop,FALSE,mono,FALSE,18,no,white,no,yes,768,legacy,13,79,C:/Users/Simone/Desktop/SD-subject-3.csv,legacy,Melodramatic Milgram,4.0.5,0,h,NA,s,h,s,h,NA,328,NA,5753,49145,119788,328,NA,2,legacy,1024,2,48000,-16,experiment,HHHHH,3,odd,454465,8130,185192,431940,450611,2372,452592,NA,455490,2376,136046,312151,455591,455920,NA,455488,455591,Flanker Task,164,72830,174,1024
93,93,417,417,black,legacy,legacy,legacy,incongruent,0,undefined,0,h,174,0,0,0,174,0,174,0,174,0,0,0,174,174,NA,174,174,Thu Sep 21 14:19:19 2023,300,The main experiment item,TRUE,FlankerTask.osexp,C:\Users\Simone\Desktop,FALSE,mono,FALSE,18,no,white,no,yes,768,legacy,14,79,C:/Users/Simone/Desktop/SD-subject-3.csv,legacy,Melodramatic Milgram,4.0.5,0,s,NA,s,h,s,s,NA,243,NA,5753,49145,119788,243,NA,2,legacy,1024,2,48000,-16,experiment,SSHSS,3,odd,456425,8130,185192,431940,450611,2372,455924,NA,457450,2376,136046,312151,457551,457795,NA,457448,457551,Flanker Task,164,73073,175,1024
93,93,415,415,black,legacy,legacy,legacy,congruent ,0,undefined,0,h,175,0,0,0,175,0,175,0,175,0,0,0,175,175,NA,175,175,Thu Sep 21 14:19:19 2023,300,The main experiment item,TRUE,FlankerTask.osexp,C:\Users\Simone\Desktop,FALSE,mono,FALSE,18,no,white,no,yes,768,legacy,15,79,C:/Users/Simone/Desktop/SD-subject-3.csv,legacy,Melodramatic Milgram,4.0.5,0,s,NA,s,h,s,s,NA,125,NA,5753,49145,119788,125,NA,2,legacy,1024,2,48000,-16,experiment,HHHHH,3,odd,458300,8130,185192,431940,457799,2372,455924,NA,459324,2376,136046,312151,459425,459551,NA,459323,459425,Flanker Task,164,73198,176,1024
