"acc","accuracy","average_response_time","avg_rt","background","canvas_backend","clock_backend","color_backend","condition","correct","correct_instructions1_sketchpad","correct_keyboard_response","correct_response","count_Block1","count_Block2","count_Block3","count_Finish_sketchpad","count_ISI_sketchpad","count_Sequence","count_errorFeedback_sketchpad","count_experiment","count_faster_sketchpad","count_fixation_sketchpad","count_instructions1_sketchpad","count_keyboard_response","count_logger","count_new_1_sketchpad","count_new_sketchpad","count_stimulus_sketchpad","datetime","deadline","description","disable_garbage_collection","experiment_file","experiment_path","font_bold","font_family","font_italic","font_size","font_underline","foreground","form_clicks","fullscreen","height","keyboard_backend","live_row","live_row_Block1","logfile","mouse_backend","opensesame_codename","opensesame_version","repeat_cycle","response","response_Finish_sketchpad","response_instructions1_sketchpad","response_keyboard_response","response_new_1_sketchpad","response_new_sketchpad","response_time","response_time_Finish_sketchpad","response_time_instructions1_sketchpad","response_time_keyboard_response","response_time_new_1_sketchpad","response_time_new_sketchpad","round_decimals","sampler_backend","sound_buf_size","sound_channels","sound_freq","sound_sample_size","start","stimulus","subject_nr","subject_parity","time_Block1","time_Block2","time_Block3","time_Finish_sketchpad","time_ISI_sketchpad","time_Sequence","time_errorFeedback_sketchpad","time_experiment","time_faster_sketchpad","time_fixation_sketchpad","time_instructions1_sketchpad","time_keyboard_response","time_logger","time_new_1_sketchpad","time_new_sketchpad","time_stimulus_sketchpad","title","total_correct","total_response_time","total_responses","width"
"100","100","484","484","#3d3846","legacy","legacy","legacy","congruent","1","undefined","1","h","0","0","0","0","0","0","0","0","0","0","0","0","0","0","0","0","Tue Sep  5 16:37:24 2023","1500","The main experiment item","True","Flankertask.osexp","C:/Users/juzal/OneDrive/Documents/Masters of Equine Science/Advanced Quantitative Methods and Experiment Design","False","mono","False","18","no","white","no","yes","768","legacy","0","0","C:/Users/juzal/OneDrive/Documents/Masters of Equine Science/Advanced Quantitative Methods and Experiment Design/subject-0.csv","legacy","Melodramatic Milgram","4.0.5","0","h","NA","h","h","NA","NA","484.0","NA","1553","484","NA","NA","2","legacy","1024","2","48000","-16","experiment","HHHHH","0","even","2907","NA","NA","NA","NA","2954","NA","1346","NA","2955","1353","3056","3541","NA","NA","3055","Flanker task","1","484.0","1","1024"
"100","100","607","607","#3d3846","legacy","legacy","legacy","incongruent","1","undefined","1","s","0","0","0","0","1","1","1","0","1","1","0","1","1","0","0","1","Tue Sep  5 16:37:24 2023","1500","The main experiment item","True","Flankertask.osexp","C:/Users/juzal/OneDrive/Documents/Masters of Equine Science/Advanced Quantitative Methods and Experiment Design","False","mono","False","18","no","white","no","yes","768","legacy","1","1","C:/Users/juzal/OneDrive/Documents/Masters of Equine Science/Advanced Quantitative Methods and Experiment Design/subject-0.csv","legacy","Melodramatic Milgram","4.0.5","0","s","NA","h","s","NA","NA","730.0","NA","1553","730","NA","NA","2","legacy","1024","2","48000","-16","experiment","HHSHH","0","even","2907","NA","NA","NA","3586","4612","NA","1346","NA","4612","1353","4712","5442","NA","NA","4712","Flanker task","2","1214.0","2","1024"
"100","100","560","560","#3d3846","legacy","legacy","legacy","congruent","1","undefined","1","s","0","0","0","0","2","2","2","0","2","2","0","2","2","0","0","2","Tue Sep  5 16:37:24 2023","1500","The main experiment item","True","Flankertask.osexp","C:/Users/juzal/OneDrive/Documents/Masters of Equine Science/Advanced Quantitative Methods and Experiment Design","False","mono","False","18","no","white","no","yes","768","legacy","2","2","C:/Users/juzal/OneDrive/Documents/Masters of Equine Science/Advanced Quantitative Methods and Experiment Design/subject-0.csv","legacy","Melodramatic Milgram","4.0.5","0","s","NA","h","s","NA","NA","468.0","NA","1553","468","NA","NA","2","legacy","1024","2","48000","-16","experiment","SSSSS","0","even","2907","NA","NA","NA","5481","6505","NA","1346","NA","6507","1353","6607","7076","NA","NA","6607","Flanker task","3","1682.0","3","1024"
"100","100","603","603","#3d3846","legacy","legacy","legacy","congruent","1","undefined","1","h","0","0","0","0","3","3","3","0","3","3","0","3","3","0","0","3","Tue Sep  5 16:37:24 2023","1500","The main experiment item","True","Flankertask.osexp","C:/Users/juzal/OneDrive/Documents/Masters of Equine Science/Advanced Quantitative Methods and Experiment Design","False","mono","False","18","no","white","no","yes","768","legacy","3","3","C:/Users/juzal/OneDrive/Documents/Masters of Equine Science/Advanced Quantitative Methods and Experiment Design/subject-0.csv","legacy","Melodramatic Milgram","4.0.5","0","h","NA","h","h","NA","NA","732.0","NA","1553","732","NA","NA","2","legacy","1024","2","48000","-16","experiment","HHHHH","0","even","2907","NA","NA","NA","7101","8127","NA","1346","NA","8128","1353","8228","8960","NA","NA","8228","Flanker task","4","2414.0","4","1024"
"100","100","633","633","#3d3846","legacy","legacy","legacy","incongruent","1","undefined","1","s","0","0","0","0","4","4","4","0","4","4","0","4","4","0","0","4","Tue Sep  5 16:37:24 2023","1500","The main experiment item","True","Flankertask.osexp","C:/Users/juzal/OneDrive/Documents/Masters of Equine Science/Advanced Quantitative Methods and Experiment Design","False","mono","False","18","no","white","no","yes","768","legacy","4","4","C:/Users/juzal/OneDrive/Documents/Masters of Equine Science/Advanced Quantitative Methods and Experiment Design/subject-0.csv","legacy","Melodramatic Milgram","4.0.5","0","s","NA","h","s","NA","NA","754.0","NA","1553","754","NA","NA","2","legacy","1024","2","48000","-16","experiment","HHSHH","0","even","2907","NA","NA","NA","8986","10010","NA","1346","NA","10011","1353","10111","10866","NA","NA","10111","Flanker task","5","3168.0","5","1024"
"83","83","608","608","#3d3846","legacy","legacy","legacy","congruent","0","undefined","0","h","0","0","0","0","5","5","5","0","5","5","0","5","5","0","0","5","Tue Sep  5 16:37:24 2023","1500","The main experiment item","True","Flankertask.osexp","C:/Users/juzal/OneDrive/Documents/Masters of Equine Science/Advanced Quantitative Methods and Experiment Design","False","mono","False","18","no","white","no","yes","768","legacy","5","5","C:/Users/juzal/OneDrive/Documents/Masters of Equine Science/Advanced Quantitative Methods and Experiment Design/subject-0.csv","legacy","Melodramatic Milgram","4.0.5","0","s","NA","h","s","NA","NA","480.0","NA","1553","480","NA","NA","2","legacy","1024","2","48000","-16","experiment","HHHHH","0","even","2907","NA","NA","NA","10895","11919","NA","1346","NA","11920","1353","12020","12500","NA","NA","12020","Flanker task","5","3648.0","6","1024"
"85","85","634","634","#3d3846","legacy","legacy","legacy","incongruent","1","undefined","1","s","0","0","0","0","6","6","6","0","6","6","0","6","6","0","0","6","Tue Sep  5 16:37:24 2023","1500","The main experiment item","True","Flankertask.osexp","C:/Users/juzal/OneDrive/Documents/Masters of Equine Science/Advanced Quantitative Methods and Experiment Design","False","mono","False","18","no","white","no","yes","768","legacy","6","6","C:/Users/juzal/OneDrive/Documents/Masters of Equine Science/Advanced Quantitative Methods and Experiment Design/subject-0.csv","legacy","Melodramatic Milgram","4.0.5","0","s","NA","h","s","NA","NA","794.0","NA","1553","794","NA","NA","2","legacy","1024","2","48000","-16","experiment","HHSHH","0","even","2907","NA","NA","NA","13004","14029","12504","1346","NA","14030","1353","14130","14925","NA","NA","14130","Flanker task","6","4442.0","7","1024"
"87","87","610","610","#3d3846","legacy","legacy","legacy","congruent","1","undefined","1","h","0","0","0","0","7","7","7","0","7","7","0","7","7","0","0","7","Tue Sep  5 16:37:24 2023","1500","The main experiment item","True","Flankertask.osexp","C:/Users/juzal/OneDrive/Documents/Masters of Equine Science/Advanced Quantitative Methods and Experiment Design","False","mono","False","18","no","white","no","yes","768","legacy","7","7","C:/Users/juzal/OneDrive/Documents/Masters of Equine Science/Advanced Quantitative Methods and Experiment Design/subject-0.csv","legacy","Melodramatic Milgram","4.0.5","0","h","NA","h","h","NA","NA","438.0","NA","1553","438","NA","NA","2","legacy","1024","2","48000","-16","experiment","HHHHH","0","even","2907","NA","NA","NA","14962","15987","12504","1346","NA","15988","1353","16089","16527","NA","NA","16088","Flanker task","7","4880.0","8","1024"
"88","88","597","597","#3d3846","legacy","legacy","legacy","congruent","1","undefined","1","s","0","0","0","0","8","8","8","0","8","8","0","8","8","0","0","8","Tue Sep  5 16:37:24 2023","1500","The main experiment item","True","Flankertask.osexp","C:/Users/juzal/OneDrive/Documents/Masters of Equine Science/Advanced Quantitative Methods and Experiment Design","False","mono","False","18","no","white","no","yes","768","legacy","8","8","C:/Users/juzal/OneDrive/Documents/Masters of Equine Science/Advanced Quantitative Methods and Experiment Design/subject-0.csv","legacy","Melodramatic Milgram","4.0.5","0","s","NA","h","s","NA","NA","493.0","NA","1553","493","NA","NA","2","legacy","1024","2","48000","-16","experiment","SSSSS","0","even","2907","NA","NA","NA","16531","17554","12504","1346","NA","17556","1353","17657","18150","NA","NA","17656","Flanker task","8","5373.0","9","1024"
"90","90","587","587","#3d3846","legacy","legacy","legacy","incongruent","1","undefined","1","s","0","0","0","0","9","9","9","0","9","9","0","9","9","0","0","9","Tue Sep  5 16:37:24 2023","1500","The main experiment item","True","Flankertask.osexp","C:/Users/juzal/OneDrive/Documents/Masters of Equine Science/Advanced Quantitative Methods and Experiment Design","False","mono","False","18","no","white","no","yes","768","legacy","9","9","C:/Users/juzal/OneDrive/Documents/Masters of Equine Science/Advanced Quantitative Methods and Experiment Design/subject-0.csv","legacy","Melodramatic Milgram","4.0.5","0","s","NA","h","s","NA","NA","497.0","NA","1553","497","NA","NA","2","legacy","1024","2","48000","-16","experiment","HHSHH","0","even","2907","NA","NA","NA","18183","19211","12504","1346","NA","19212","1353","19312","19809","NA","NA","19312","Flanker task","9","5870.0","10","1024"
"90","90","569","569","#3d3846","legacy","legacy","legacy","congruent","1","undefined","1","s","0","0","0","0","10","10","10","0","10","10","0","10","10","0","0","10","Tue Sep  5 16:37:24 2023","1500","The main experiment item","True","Flankertask.osexp","C:/Users/juzal/OneDrive/Documents/Masters of Equine Science/Advanced Quantitative Methods and Experiment Design","False","mono","False","18","no","white","no","yes","768","legacy","10","10","C:/Users/juzal/OneDrive/Documents/Masters of Equine Science/Advanced Quantitative Methods and Experiment Design/subject-0.csv","legacy","Melodramatic Milgram","4.0.5","0","s","NA","h","s","NA","NA","395.0","NA","1553","395","NA","NA","2","legacy","1024","2","48000","-16","experiment","SSSSS","0","even","2907","NA","NA","NA","19840","20870","12504","1346","NA","20871","1353","20971","21367","NA","NA","20971","Flanker task","10","6265.0","11","1024"
"91","91","560","560","#3d3846","legacy","legacy","legacy","congruent","1","undefined","1","h","0","0","0","0","11","11","11","0","11","11","0","11","11","0","0","11","Tue Sep  5 16:37:24 2023","1500","The main experiment item","True","Flankertask.osexp","C:/Users/juzal/OneDrive/Documents/Masters of Equine Science/Advanced Quantitative Methods and Experiment Design","False","mono","False","18","no","white","no","yes","768","legacy","11","11","C:/Users/juzal/OneDrive/Documents/Masters of Equine Science/Advanced Quantitative Methods and Experiment Design/subject-0.csv","legacy","Melodramatic Milgram","4.0.5","0","h","NA","h","h","NA","NA","458.0","NA","1553","458","NA","NA","2","legacy","1024","2","48000","-16","experiment","HHHHH","0","even","2907","NA","NA","NA","21408","22432","12504","1346","NA","22433","1353","22533","22991","NA","NA","22533","Flanker task","11","6723.0","12","1024"
"92","92","545","545","#3d3846","legacy","legacy","legacy","incongruent","1","undefined","1","s","0","0","0","0","12","12","12","0","12","12","0","12","12","0","0","12","Tue Sep  5 16:37:24 2023","1500","The main experiment item","True","Flankertask.osexp","C:/Users/juzal/OneDrive/Documents/Masters of Equine Science/Advanced Quantitative Methods and Experiment Design","False","mono","False","18","no","white","no","yes","768","legacy","12","12","C:/Users/juzal/OneDrive/Documents/Masters of Equine Science/Advanced Quantitative Methods and Experiment Design/subject-0.csv","legacy","Melodramatic Milgram","4.0.5","0","s","NA","h","s","NA","NA","370.0","NA","1553","370","NA","NA","2","legacy","1024","2","48000","-16","experiment","HHSHH","0","even","2907","NA","NA","NA","23023","24048","12504","1346","NA","24048","1353","24148","24519","NA","NA","24148","Flanker task","12","7093.0","13","1024"
"92","92","536","536","#3d3846","legacy","legacy","legacy","congruent","1","undefined","1","s","0","0","0","0","13","13","13","0","13","13","0","13","13","0","0","13","Tue Sep  5 16:37:24 2023","1500","The main experiment item","True","Flankertask.osexp","C:/Users/juzal/OneDrive/Documents/Masters of Equine Science/Advanced Quantitative Methods and Experiment Design","False","mono","False","18","no","white","no","yes","768","legacy","13","13","C:/Users/juzal/OneDrive/Documents/Masters of Equine Science/Advanced Quantitative Methods and Experiment Design/subject-0.csv","legacy","Melodramatic Milgram","4.0.5","0","s","NA","h","s","NA","NA","421.0","NA","1553","421","NA","NA","2","legacy","1024","2","48000","-16","experiment","SSSSS","0","even","2907","NA","NA","NA","24553","25578","12504","1346","NA","25579","1353","25679","26101","NA","NA","25679","Flanker task","13","7514.0","14","1024"
"93","93","527","527","#3d3846","legacy","legacy","legacy","incongruent","1","undefined","1","s","0","0","0","0","14","14","14","0","14","14","0","14","14","0","0","14","Tue Sep  5 16:37:24 2023","1500","The main experiment item","True","Flankertask.osexp","C:/Users/juzal/OneDrive/Documents/Masters of Equine Science/Advanced Quantitative Methods and Experiment Design","False","mono","False","18","no","white","no","yes","768","legacy","14","14","C:/Users/juzal/OneDrive/Documents/Masters of Equine Science/Advanced Quantitative Methods and Experiment Design/subject-0.csv","legacy","Melodramatic Milgram","4.0.5","0","s","NA","h","s","NA","NA","402.0","NA","1553","402","NA","NA","2","legacy","1024","2","48000","-16","experiment","HHSHH","0","even","2907","NA","NA","NA","26106","27131","12504","1346","NA","27132","1353","27232","27634","NA","NA","27232","Flanker task","14","7916.0","15","1024"
"93","93","516","516","#3d3846","legacy","legacy","legacy","incongruent","1","undefined","1","s","0","0","0","0","15","15","15","0","15","15","0","15","15","0","0","15","Tue Sep  5 16:37:24 2023","1500","The main experiment item","True","Flankertask.osexp","C:/Users/juzal/OneDrive/Documents/Masters of Equine Science/Advanced Quantitative Methods and Experiment Design","False","mono","False","18","no","white","no","yes","768","legacy","15","15","C:/Users/juzal/OneDrive/Documents/Masters of Equine Science/Advanced Quantitative Methods and Experiment Design/subject-0.csv","legacy","Melodramatic Milgram","4.0.5","0","s","NA","h","s","NA","NA","353.0","NA","1553","353","NA","NA","2","legacy","1024","2","48000","-16","experiment","HHSHH","0","even","2907","NA","NA","NA","27677","28701","12504","1346","NA","28702","1353","28802","29156","NA","NA","28802","Flanker task","15","8269.0","16","1024"
"94","94","510","510","#3d3846","legacy","legacy","legacy","incongruent","1","undefined","1","s","0","0","0","0","16","16","16","0","16","16","0","16","16","0","0","16","Tue Sep  5 16:37:24 2023","1500","The main experiment item","True","Flankertask.osexp","C:/Users/juzal/OneDrive/Documents/Masters of Equine Science/Advanced Quantitative Methods and Experiment Design","False","mono","False","18","no","white","no","yes","768","legacy","16","16","C:/Users/juzal/OneDrive/Documents/Masters of Equine Science/Advanced Quantitative Methods and Experiment Design/subject-0.csv","legacy","Melodramatic Milgram","4.0.5","0","s","NA","h","s","NA","NA","407.0","NA","1553","407","NA","NA","2","legacy","1024","2","48000","-16","experiment","HHSHH","0","even","2907","NA","NA","NA","29206","30230","12504","1346","NA","30231","1353","30332","30740","NA","NA","30332","Flanker task","16","8676.0","17","1024"
"88","88","502","502","#3d3846","legacy","legacy","legacy","congruent","0","undefined","0","h","0","0","0","0","17","17","17","0","17","17","0","17","17","0","0","17","Tue Sep  5 16:37:24 2023","1500","The main experiment item","True","Flankertask.osexp","C:/Users/juzal/OneDrive/Documents/Masters of Equine Science/Advanced Quantitative Methods and Experiment Design","False","mono","False","18","no","white","no","yes","768","legacy","17","17","C:/Users/juzal/OneDrive/Documents/Masters of Equine Science/Advanced Quantitative Methods and Experiment Design/subject-0.csv","legacy","Melodramatic Milgram","4.0.5","0","s","NA","h","s","NA","NA","370.0","NA","1553","370","NA","NA","2","legacy","1024","2","48000","-16","experiment","HHHHH","0","even","2907","NA","NA","NA","30777","31800","12504","1346","NA","31801","1353","31902","32272","NA","NA","31902","Flanker task","16","9046.0","18","1024"
"89","89","514","514","#3d3846","legacy","legacy","legacy","incongruent","1","undefined","1","h","0","0","0","0","18","18","18","0","18","18","0","18","18","0","0","18","Tue Sep  5 16:37:24 2023","1500","The main experiment item","True","Flankertask.osexp","C:/Users/juzal/OneDrive/Documents/Masters of Equine Science/Advanced Quantitative Methods and Experiment Design","False","mono","False","18","no","white","no","yes","768","legacy","18","18","C:/Users/juzal/OneDrive/Documents/Masters of Equine Science/Advanced Quantitative Methods and Experiment Design/subject-0.csv","legacy","Melodramatic Milgram","4.0.5","0","h","NA","h","h","NA","NA","733.0","NA","1553","733","NA","NA","2","legacy","1024","2","48000","-16","experiment","SSHSS","0","even","2907","NA","NA","NA","32812","33837","32312","1346","NA","33838","1353","33939","34672","NA","NA","33939","Flanker task","17","9779.0","19","1024"
"90","90","512","512","#3d3846","legacy","legacy","legacy","congruent","1","undefined","1","s","0","0","0","0","19","19","19","0","19","19","0","19","19","0","0","19","Tue Sep  5 16:37:24 2023","1500","The main experiment item","True","Flankertask.osexp","C:/Users/juzal/OneDrive/Documents/Masters of Equine Science/Advanced Quantitative Methods and Experiment Design","False","mono","False","18","no","white","no","yes","768","legacy","19","19","C:/Users/juzal/OneDrive/Documents/Masters of Equine Science/Advanced Quantitative Methods and Experiment Design/subject-0.csv","legacy","Melodramatic Milgram","4.0.5","0","s","NA","h","s","NA","NA","466.0","NA","1553","466","NA","NA","2","legacy","1024","2","48000","-16","experiment","SSSSS","0","even","2907","NA","NA","NA","34706","35737","32312","1346","NA","35739","1353","35839","36305","NA","NA","35839","Flanker task","18","10245.0","20","1024"
"85","85","509","509","#3d3846","legacy","legacy","legacy","incongruent","0","undefined","0","h","0","0","0","0","20","20","20","0","20","20","0","20","20","0","0","20","Tue Sep  5 16:37:24 2023","1500","The main experiment item","True","Flankertask.osexp","C:/Users/juzal/OneDrive/Documents/Masters of Equine Science/Advanced Quantitative Methods and Experiment Design","False","mono","False","18","no","white","no","yes","768","legacy","20","20","C:/Users/juzal/OneDrive/Documents/Masters of Equine Science/Advanced Quantitative Methods and Experiment Design/subject-0.csv","legacy","Melodramatic Milgram","4.0.5","0","s","NA","h","s","NA","NA","450.0","NA","1553","450","NA","NA","2","legacy","1024","2","48000","-16","experiment","SSHSS","0","even","2907","NA","NA","NA","36312","37336","32312","1346","NA","37337","1353","37438","37889","NA","NA","37437","Flanker task","18","10695.0","21","1024"
"86","86","514","514","#3d3846","legacy","legacy","legacy","congruent","1","undefined","1","s","0","0","0","0","21","21","21","0","21","21","0","21","21","0","0","21","Tue Sep  5 16:37:24 2023","1500","The main experiment item","True","Flankertask.osexp","C:/Users/juzal/OneDrive/Documents/Masters of Equine Science/Advanced Quantitative Methods and Experiment Design","False","mono","False","18","no","white","no","yes","768","legacy","21","21","C:/Users/juzal/OneDrive/Documents/Masters of Equine Science/Advanced Quantitative Methods and Experiment Design/subject-0.csv","legacy","Melodramatic Milgram","4.0.5","0","s","NA","h","s","NA","NA","617.0","NA","1553","617","NA","NA","2","legacy","1024","2","48000","-16","experiment","SSSSS","0","even","2907","NA","NA","NA","38439","39464","37939","1346","NA","39465","1353","39565","40182","NA","NA","39565","Flanker task","19","11312.0","22","1024"
"86","86","515","515","#3d3846","legacy","legacy","legacy","incongruent","1","undefined","1","s","0","0","0","0","22","22","22","0","22","22","0","22","22","0","0","22","Tue Sep  5 16:37:24 2023","1500","The main experiment item","True","Flankertask.osexp","C:/Users/juzal/OneDrive/Documents/Masters of Equine Science/Advanced Quantitative Methods and Experiment Design","False","mono","False","18","no","white","no","yes","768","legacy","22","22","C:/Users/juzal/OneDrive/Documents/Masters of Equine Science/Advanced Quantitative Methods and Experiment Design/subject-0.csv","legacy","Melodramatic Milgram","4.0.5","0","s","NA","h","s","NA","NA","551.0","NA","1553","551","NA","NA","2","legacy","1024","2","48000","-16","experiment","HHSHH","0","even","2907","NA","NA","NA","40187","41218","37939","1346","NA","41220","1353","41320","41871","NA","NA","41320","Flanker task","20","11863.0","23","1024"
"83","83","512","512","#3d3846","legacy","legacy","legacy","incongruent","0","undefined","0","h","0","0","0","0","23","23","23","0","23","23","0","23","23","0","0","23","Tue Sep  5 16:37:24 2023","1500","The main experiment item","True","Flankertask.osexp","C:/Users/juzal/OneDrive/Documents/Masters of Equine Science/Advanced Quantitative Methods and Experiment Design","False","mono","False","18","no","white","no","yes","768","legacy","23","23","C:/Users/juzal/OneDrive/Documents/Masters of Equine Science/Advanced Quantitative Methods and Experiment Design/subject-0.csv","legacy","Melodramatic Milgram","4.0.5","0","s","NA","h","s","NA","NA","430.0","NA","1553","430","NA","NA","2","legacy","1024","2","48000","-16","experiment","SSHSS","0","even","2907","NA","NA","NA","41922","42946","37939","1346","NA","42947","1353","43048","43479","NA","NA","43047","Flanker task","20","12293.0","24","1024"
"84","84","507","507","#3d3846","legacy","legacy","legacy","congruent","1","undefined","1","s","0","0","0","0","24","24","24","0","24","24","0","24","24","0","0","24","Tue Sep  5 16:37:24 2023","1500","The main experiment item","True","Flankertask.osexp","C:/Users/juzal/OneDrive/Documents/Masters of Equine Science/Advanced Quantitative Methods and Experiment Design","False","mono","False","18","no","white","no","yes","768","legacy","24","24","C:/Users/juzal/OneDrive/Documents/Masters of Equine Science/Advanced Quantitative Methods and Experiment Design/subject-0.csv","legacy","Melodramatic Milgram","4.0.5","0","s","NA","h","s","NA","NA","387.0","NA","1553","387","NA","NA","2","legacy","1024","2","48000","-16","experiment","SSSSS","0","even","2907","NA","NA","NA","44019","45043","43519","1346","NA","45044","1353","45144","45531","NA","NA","45144","Flanker task","21","12680.0","25","1024"
"84","84","513","513","#3d3846","legacy","legacy","legacy","incongruent","1","undefined","1","s","0","0","0","0","25","25","25","0","25","25","0","25","25","0","0","25","Tue Sep  5 16:37:24 2023","1500","The main experiment item","True","Flankertask.osexp","C:/Users/juzal/OneDrive/Documents/Masters of Equine Science/Advanced Quantitative Methods and Experiment Design","False","mono","False","18","no","white","no","yes","768","legacy","25","25","C:/Users/juzal/OneDrive/Documents/Masters of Equine Science/Advanced Quantitative Methods and Experiment Design/subject-0.csv","legacy","Melodramatic Milgram","4.0.5","0","s","NA","h","s","NA","NA","670.0","NA","1553","670","NA","NA","2","legacy","1024","2","48000","-16","experiment","HHSHH","0","even","2907","NA","NA","NA","45580","46604","43519","1346","NA","46605","1353","46706","47377","NA","NA","46706","Flanker task","22","13350.0","26","1024"
"85","85","512","512","#3d3846","legacy","legacy","legacy","congruent","1","undefined","1","h","0","0","0","0","26","26","26","0","26","26","0","26","26","0","0","26","Tue Sep  5 16:37:24 2023","1500","The main experiment item","True","Flankertask.osexp","C:/Users/juzal/OneDrive/Documents/Masters of Equine Science/Advanced Quantitative Methods and Experiment Design","False","mono","False","18","no","white","no","yes","768","legacy","26","26","C:/Users/juzal/OneDrive/Documents/Masters of Equine Science/Advanced Quantitative Methods and Experiment Design/subject-0.csv","legacy","Melodramatic Milgram","4.0.5","0","h","NA","h","h","NA","NA","476.0","NA","1553","476","NA","NA","2","legacy","1024","2","48000","-16","experiment","HHHHH","0","even","2907","NA","NA","NA","47417","48442","43519","1346","NA","48443","1353","48543","49019","NA","NA","48543","Flanker task","23","13826.0","27","1024"
"85","85","512","512","#3d3846","legacy","legacy","legacy","congruent","1","undefined","1","s","0","0","0","0","27","27","27","0","27","27","0","27","27","0","0","27","Tue Sep  5 16:37:24 2023","1500","The main experiment item","True","Flankertask.osexp","C:/Users/juzal/OneDrive/Documents/Masters of Equine Science/Advanced Quantitative Methods and Experiment Design","False","mono","False","18","no","white","no","yes","768","legacy","27","27","C:/Users/juzal/OneDrive/Documents/Masters of Equine Science/Advanced Quantitative Methods and Experiment Design/subject-0.csv","legacy","Melodramatic Milgram","4.0.5","0","s","NA","h","s","NA","NA","532.0","NA","1553","532","NA","NA","2","legacy","1024","2","48000","-16","experiment","SSSSS","0","even","2907","NA","NA","NA","49063","50088","43519","1346","NA","50090","1353","50190","50723","NA","NA","50190","Flanker task","24","14358.0","28","1024"
"86","86","508","508","#3d3846","legacy","legacy","legacy","congruent","1","undefined","1","h","0","0","0","0","28","28","28","0","28","28","0","28","28","0","0","28","Tue Sep  5 16:37:24 2023","1500","The main experiment item","True","Flankertask.osexp","C:/Users/juzal/OneDrive/Documents/Masters of Equine Science/Advanced Quantitative Methods and Experiment Design","False","mono","False","18","no","white","no","yes","768","legacy","28","28","C:/Users/juzal/OneDrive/Documents/Masters of Equine Science/Advanced Quantitative Methods and Experiment Design/subject-0.csv","legacy","Melodramatic Milgram","4.0.5","0","h","NA","h","h","NA","NA","401.0","NA","1553","401","NA","NA","2","legacy","1024","2","48000","-16","experiment","HHHHH","0","even","2907","NA","NA","NA","50756","51787","43519","1346","NA","51788","1353","51889","52290","NA","NA","51889","Flanker task","25","14759.0","29","1024"
"86","86","513","513","#3d3846","legacy","legacy","legacy","incongruent","1","undefined","1","s","0","0","0","0","29","29","29","0","29","29","0","29","29","0","0","29","Tue Sep  5 16:37:24 2023","1500","The main experiment item","True","Flankertask.osexp","C:/Users/juzal/OneDrive/Documents/Masters of Equine Science/Advanced Quantitative Methods and Experiment Design","False","mono","False","18","no","white","no","yes","768","legacy","29","29","C:/Users/juzal/OneDrive/Documents/Masters of Equine Science/Advanced Quantitative Methods and Experiment Design/subject-0.csv","legacy","Melodramatic Milgram","4.0.5","0","s","NA","h","s","NA","NA","644.0","NA","1553","644","NA","NA","2","legacy","1024","2","48000","-16","experiment","HHSHH","0","even","2907","NA","NA","NA","52329","53353","43519","1346","NA","53355","1353","53456","54100","NA","NA","53456","Flanker task","26","15403.0","30","1024"
"87","87","518","518","#3d3846","legacy","legacy","legacy","incongruent","1","undefined","1","h","0","0","0","0","30","30","30","0","30","30","0","30","30","0","0","30","Tue Sep  5 16:37:24 2023","1500","The main experiment item","True","Flankertask.osexp","C:/Users/juzal/OneDrive/Documents/Masters of Equine Science/Advanced Quantitative Methods and Experiment Design","False","mono","False","18","no","white","no","yes","768","legacy","30","30","C:/Users/juzal/OneDrive/Documents/Masters of Equine Science/Advanced Quantitative Methods and Experiment Design/subject-0.csv","legacy","Melodramatic Milgram","4.0.5","0","h","NA","h","h","NA","NA","670.0","NA","1553","670","NA","NA","2","legacy","1024","2","48000","-16","experiment","SSHSS","0","even","2907","NA","NA","NA","54139","55164","43519","1346","NA","55165","1353","55265","55935","NA","NA","55265","Flanker task","27","16073.0","31","1024"
"87","87","520","520","#3d3846","legacy","legacy","legacy","incongruent","1","undefined","1","h","0","0","0","0","31","31","31","0","31","31","0","31","31","0","0","31","Tue Sep  5 16:37:24 2023","1500","The main experiment item","True","Flankertask.osexp","C:/Users/juzal/OneDrive/Documents/Masters of Equine Science/Advanced Quantitative Methods and Experiment Design","False","mono","False","18","no","white","no","yes","768","legacy","31","31","C:/Users/juzal/OneDrive/Documents/Masters of Equine Science/Advanced Quantitative Methods and Experiment Design/subject-0.csv","legacy","Melodramatic Milgram","4.0.5","0","h","NA","h","h","NA","NA","580.0","NA","1553","580","NA","NA","2","legacy","1024","2","48000","-16","experiment","SSHSS","0","even","2907","NA","NA","NA","55973","56998","43519","1346","NA","56999","1353","57099","57680","NA","NA","57099","Flanker task","28","16653.0","32","1024"
"87","87","520","520","#3d3846","legacy","legacy","legacy","incongruent","1","undefined","1","h","0","0","0","0","32","32","32","0","32","32","0","32","32","0","0","32","Tue Sep  5 16:37:24 2023","1500","The main experiment item","True","Flankertask.osexp","C:/Users/juzal/OneDrive/Documents/Masters of Equine Science/Advanced Quantitative Methods and Experiment Design","False","mono","False","18","no","white","no","yes","768","legacy","32","32","C:/Users/juzal/OneDrive/Documents/Masters of Equine Science/Advanced Quantitative Methods and Experiment Design/subject-0.csv","legacy","Melodramatic Milgram","4.0.5","0","h","NA","h","h","NA","NA","510.0","NA","1553","510","NA","NA","2","legacy","1024","2","48000","-16","experiment","SSHSS","0","even","2907","NA","NA","NA","57718","58742","43519","1346","NA","58743","1353","58843","59353","NA","NA","58843","Flanker task","29","17163.0","33","1024"
"88","88","522","522","#3d3846","legacy","legacy","legacy","congruent","1","undefined","1","s","0","0","0","0","33","33","33","0","33","33","0","33","33","0","0","33","Tue Sep  5 16:37:24 2023","1500","The main experiment item","True","Flankertask.osexp","C:/Users/juzal/OneDrive/Documents/Masters of Equine Science/Advanced Quantitative Methods and Experiment Design","False","mono","False","18","no","white","no","yes","768","legacy","33","33","C:/Users/juzal/OneDrive/Documents/Masters of Equine Science/Advanced Quantitative Methods and Experiment Design/subject-0.csv","legacy","Melodramatic Milgram","4.0.5","0","s","NA","h","s","NA","NA","597.0","NA","1553","597","NA","NA","2","legacy","1024","2","48000","-16","experiment","SSSSS","0","even","2907","NA","NA","NA","59399","60423","43519","1346","NA","60423","1353","60523","61120","NA","NA","60523","Flanker task","30","17760.0","34","1024"
"88","88","522","522","#3d3846","legacy","legacy","legacy","congruent","1","undefined","1","h","0","0","0","0","34","34","34","0","34","34","0","34","34","0","0","34","Tue Sep  5 16:37:24 2023","1500","The main experiment item","True","Flankertask.osexp","C:/Users/juzal/OneDrive/Documents/Masters of Equine Science/Advanced Quantitative Methods and Experiment Design","False","mono","False","18","no","white","no","yes","768","legacy","34","34","C:/Users/juzal/OneDrive/Documents/Masters of Equine Science/Advanced Quantitative Methods and Experiment Design/subject-0.csv","legacy","Melodramatic Milgram","4.0.5","0","h","NA","h","h","NA","NA","521.0","NA","1553","521","NA","NA","2","legacy","1024","2","48000","-16","experiment","HHHHH","0","even","2907","NA","NA","NA","61166","62192","43519","1346","NA","62193","1353","62293","62814","NA","NA","62293","Flanker task","31","18281.0","35","1024"
"88","88","526","526","#3d3846","legacy","legacy","legacy","incongruent","1","undefined","1","s","0","0","0","0","35","35","35","0","35","35","0","35","35","0","0","35","Tue Sep  5 16:37:24 2023","1500","The main experiment item","True","Flankertask.osexp","C:/Users/juzal/OneDrive/Documents/Masters of Equine Science/Advanced Quantitative Methods and Experiment Design","False","mono","False","18","no","white","no","yes","768","legacy","35","35","C:/Users/juzal/OneDrive/Documents/Masters of Equine Science/Advanced Quantitative Methods and Experiment Design/subject-0.csv","legacy","Melodramatic Milgram","4.0.5","0","s","NA","h","s","NA","NA","670.0","NA","1553","670","NA","NA","2","legacy","1024","2","48000","-16","experiment","HHSHH","0","even","2907","NA","NA","NA","62823","63848","43519","1346","NA","63849","1353","63949","64619","NA","NA","63949","Flanker task","32","18951.0","36","1024"
"89","89","525","525","#3d3846","legacy","legacy","legacy","congruent","1","undefined","1","h","0","0","0","0","36","36","36","0","36","36","0","36","36","0","0","36","Tue Sep  5 16:37:24 2023","1500","The main experiment item","True","Flankertask.osexp","C:/Users/juzal/OneDrive/Documents/Masters of Equine Science/Advanced Quantitative Methods and Experiment Design","False","mono","False","18","no","white","no","yes","768","legacy","36","36","C:/Users/juzal/OneDrive/Documents/Masters of Equine Science/Advanced Quantitative Methods and Experiment Design/subject-0.csv","legacy","Melodramatic Milgram","4.0.5","0","h","NA","h","h","NA","NA","483.0","NA","1553","483","NA","NA","2","legacy","1024","2","48000","-16","experiment","HHHHH","0","even","2907","NA","NA","NA","64667","65693","43519","1346","NA","65694","1353","65794","66278","NA","NA","65794","Flanker task","33","19434.0","37","1024"
"89","89","524","524","#3d3846","legacy","legacy","legacy","incongruent","1","undefined","1","h","0","0","0","0","37","37","37","0","37","37","0","37","37","0","0","37","Tue Sep  5 16:37:24 2023","1500","The main experiment item","True","Flankertask.osexp","C:/Users/juzal/OneDrive/Documents/Masters of Equine Science/Advanced Quantitative Methods and Experiment Design","False","mono","False","18","no","white","no","yes","768","legacy","37","37","C:/Users/juzal/OneDrive/Documents/Masters of Equine Science/Advanced Quantitative Methods and Experiment Design/subject-0.csv","legacy","Melodramatic Milgram","4.0.5","0","h","NA","h","h","NA","NA","498.0","NA","1553","498","NA","NA","2","legacy","1024","2","48000","-16","experiment","SSHSS","0","even","2907","NA","NA","NA","66321","67350","43519","1346","NA","67351","1353","67451","67949","NA","NA","67451","Flanker task","34","19932.0","38","1024"
"89","89","527","527","#3d3846","legacy","legacy","legacy","congruent","1","undefined","1","s","0","0","0","0","38","38","38","0","38","38","0","38","38","0","0","38","Tue Sep  5 16:37:24 2023","1500","The main experiment item","True","Flankertask.osexp","C:/Users/juzal/OneDrive/Documents/Masters of Equine Science/Advanced Quantitative Methods and Experiment Design","False","mono","False","18","no","white","no","yes","768","legacy","38","38","C:/Users/juzal/OneDrive/Documents/Masters of Equine Science/Advanced Quantitative Methods and Experiment Design/subject-0.csv","legacy","Melodramatic Milgram","4.0.5","0","s","NA","h","s","NA","NA","631.0","NA","1553","631","NA","NA","2","legacy","1024","2","48000","-16","experiment","SSSSS","0","even","2907","NA","NA","NA","67999","69022","43519","1346","NA","69023","1353","69123","69754","NA","NA","69123","Flanker task","35","20563.0","39","1024"
"87","87","523","523","#3d3846","legacy","legacy","legacy","incongruent","0","undefined","0","h","0","0","0","0","39","39","39","0","39","39","0","39","39","0","0","39","Tue Sep  5 16:37:24 2023","1500","The main experiment item","True","Flankertask.osexp","C:/Users/juzal/OneDrive/Documents/Masters of Equine Science/Advanced Quantitative Methods and Experiment Design","False","mono","False","18","no","white","no","yes","768","legacy","39","39","C:/Users/juzal/OneDrive/Documents/Masters of Equine Science/Advanced Quantitative Methods and Experiment Design/subject-0.csv","legacy","Melodramatic Milgram","4.0.5","0","s","NA","h","s","NA","NA","358.0","NA","1553","358","NA","NA","2","legacy","1024","2","48000","-16","experiment","SSHSS","0","even","2907","NA","NA","NA","69759","70782","43519","1346","NA","70783","1353","70883","71242","NA","NA","70883","Flanker task","35","20921.0","40","1024"
"87","87","524","524","#3d3846","legacy","legacy","legacy","congruent","1","undefined","1","s","0","0","0","0","40","40","40","0","40","40","0","40","40","0","0","40","Tue Sep  5 16:37:24 2023","1500","The main experiment item","True","Flankertask.osexp","C:/Users/juzal/OneDrive/Documents/Masters of Equine Science/Advanced Quantitative Methods and Experiment Design","False","mono","False","18","no","white","no","yes","768","legacy","40","40","C:/Users/juzal/OneDrive/Documents/Masters of Equine Science/Advanced Quantitative Methods and Experiment Design/subject-0.csv","legacy","Melodramatic Milgram","4.0.5","0","s","NA","h","s","NA","NA","588.0","NA","1553","588","NA","NA","2","legacy","1024","2","48000","-16","experiment","SSSSS","0","even","2907","NA","NA","NA","71773","72798","71273","1346","NA","72799","1353","72899","73488","NA","NA","72899","Flanker task","36","21509.0","41","1024"
"88","88","528","528","#3d3846","legacy","legacy","legacy","incongruent","1","undefined","1","s","0","0","0","0","41","41","41","0","41","41","0","41","41","0","0","41","Tue Sep  5 16:37:24 2023","1500","The main experiment item","True","Flankertask.osexp","C:/Users/juzal/OneDrive/Documents/Masters of Equine Science/Advanced Quantitative Methods and Experiment Design","False","mono","False","18","no","white","no","yes","768","legacy","41","41","C:/Users/juzal/OneDrive/Documents/Masters of Equine Science/Advanced Quantitative Methods and Experiment Design/subject-0.csv","legacy","Melodramatic Milgram","4.0.5","0","s","NA","h","s","NA","NA","672.0","NA","1553","672","NA","NA","2","legacy","1024","2","48000","-16","experiment","HHSHH","0","even","2907","NA","NA","NA","73506","74532","71273","1346","NA","74533","1353","74633","75306","NA","NA","74633","Flanker task","37","22181.0","42","1024"
"88","88","527","527","#3d3846","legacy","legacy","legacy","incongruent","1","undefined","1","s","0","0","0","0","42","42","42","0","42","42","0","42","42","0","0","42","Tue Sep  5 16:37:24 2023","1500","The main experiment item","True","Flankertask.osexp","C:/Users/juzal/OneDrive/Documents/Masters of Equine Science/Advanced Quantitative Methods and Experiment Design","False","mono","False","18","no","white","no","yes","768","legacy","42","42","C:/Users/juzal/OneDrive/Documents/Masters of Equine Science/Advanced Quantitative Methods and Experiment Design/subject-0.csv","legacy","Melodramatic Milgram","4.0.5","0","s","NA","h","s","NA","NA","510.0","NA","1553","510","NA","NA","2","legacy","1024","2","48000","-16","experiment","HHSHH","0","even","2907","NA","NA","NA","75335","76361","71273","1346","NA","76362","1353","76462","76972","NA","NA","76462","Flanker task","38","22691.0","43","1024"
"88","88","527","527","#3d3846","legacy","legacy","legacy","congruent","1","undefined","1","h","0","0","0","0","43","43","43","0","43","43","0","43","43","0","0","43","Tue Sep  5 16:37:24 2023","1500","The main experiment item","True","Flankertask.osexp","C:/Users/juzal/OneDrive/Documents/Masters of Equine Science/Advanced Quantitative Methods and Experiment Design","False","mono","False","18","no","white","no","yes","768","legacy","43","43","C:/Users/juzal/OneDrive/Documents/Masters of Equine Science/Advanced Quantitative Methods and Experiment Design/subject-0.csv","legacy","Melodramatic Milgram","4.0.5","0","h","NA","h","h","NA","NA","525.0","NA","1553","525","NA","NA","2","legacy","1024","2","48000","-16","experiment","HHHHH","0","even","2907","NA","NA","NA","77002","78038","71273","1346","NA","78039","1353","78140","78666","NA","NA","78139","Flanker task","39","23216.0","44","1024"
"88","88","527","527","#3d3846","legacy","legacy","legacy","incongruent","1","undefined","1","h","0","0","0","0","44","44","44","0","44","44","0","44","44","0","0","44","Tue Sep  5 16:37:24 2023","1500","The main experiment item","True","Flankertask.osexp","C:/Users/juzal/OneDrive/Documents/Masters of Equine Science/Advanced Quantitative Methods and Experiment Design","False","mono","False","18","no","white","no","yes","768","legacy","44","44","C:/Users/juzal/OneDrive/Documents/Masters of Equine Science/Advanced Quantitative Methods and Experiment Design/subject-0.csv","legacy","Melodramatic Milgram","4.0.5","0","h","NA","h","h","NA","NA","507.0","NA","1553","507","NA","NA","2","legacy","1024","2","48000","-16","experiment","SSHSS","0","even","2907","NA","NA","NA","78705","79729","71273","1346","NA","79730","1353","79830","80337","NA","NA","79830","Flanker task","40","23723.0","45","1024"
"89","89","524","524","#3d3846","legacy","legacy","legacy","congruent","1","undefined","1","s","0","0","0","0","45","45","45","0","45","45","0","45","45","0","0","45","Tue Sep  5 16:37:24 2023","1500","The main experiment item","True","Flankertask.osexp","C:/Users/juzal/OneDrive/Documents/Masters of Equine Science/Advanced Quantitative Methods and Experiment Design","False","mono","False","18","no","white","no","yes","768","legacy","45","45","C:/Users/juzal/OneDrive/Documents/Masters of Equine Science/Advanced Quantitative Methods and Experiment Design/subject-0.csv","legacy","Melodramatic Milgram","4.0.5","0","s","NA","h","s","NA","NA","410.0","NA","1553","410","NA","NA","2","legacy","1024","2","48000","-16","experiment","SSSSS","0","even","2907","NA","NA","NA","80379","81404","71273","1346","NA","81405","1353","81505","81915","NA","NA","81505","Flanker task","41","24133.0","46","1024"
"89","89","521","521","#3d3846","legacy","legacy","legacy","congruent","1","undefined","1","s","0","0","0","0","46","46","46","0","46","46","0","46","46","0","0","46","Tue Sep  5 16:37:24 2023","1500","The main experiment item","True","Flankertask.osexp","C:/Users/juzal/OneDrive/Documents/Masters of Equine Science/Advanced Quantitative Methods and Experiment Design","False","mono","False","18","no","white","no","yes","768","legacy","46","46","C:/Users/juzal/OneDrive/Documents/Masters of Equine Science/Advanced Quantitative Methods and Experiment Design/subject-0.csv","legacy","Melodramatic Milgram","4.0.5","0","s","NA","h","s","NA","NA","366.0","NA","1553","366","NA","NA","2","legacy","1024","2","48000","-16","experiment","SSSSS","0","even","2907","NA","NA","NA","81922","82951","71273","1346","NA","82953","1353","83053","83420","NA","NA","83053","Flanker task","42","24499.0","47","1024"
"89","89","518","518","#3d3846","legacy","legacy","legacy","congruent","1","undefined","1","s","0","0","0","0","47","47","47","0","47","47","0","47","47","0","0","47","Tue Sep  5 16:37:24 2023","1500","The main experiment item","True","Flankertask.osexp","C:/Users/juzal/OneDrive/Documents/Masters of Equine Science/Advanced Quantitative Methods and Experiment Design","False","mono","False","18","no","white","no","yes","768","legacy","47","47","C:/Users/juzal/OneDrive/Documents/Masters of Equine Science/Advanced Quantitative Methods and Experiment Design/subject-0.csv","legacy","Melodramatic Milgram","4.0.5","0","s","NA","h","s","NA","NA","397.0","NA","1553","397","NA","NA","2","legacy","1024","2","48000","-16","experiment","SSSSS","0","even","2907","NA","NA","NA","83457","84482","71273","1346","NA","84483","1353","84583","84981","NA","NA","84583","Flanker task","43","24896.0","48","1024"
"89","89","516","516","#3d3846","legacy","legacy","legacy","congruent","1","undefined","1","h","0","0","0","0","48","48","48","0","48","48","0","48","48","0","0","48","Tue Sep  5 16:37:24 2023","1500","The main experiment item","True","Flankertask.osexp","C:/Users/juzal/OneDrive/Documents/Masters of Equine Science/Advanced Quantitative Methods and Experiment Design","False","mono","False","18","no","white","no","yes","768","legacy","48","48","C:/Users/juzal/OneDrive/Documents/Masters of Equine Science/Advanced Quantitative Methods and Experiment Design/subject-0.csv","legacy","Melodramatic Milgram","4.0.5","0","h","NA","h","h","NA","NA","414.0","NA","1553","414","NA","NA","2","legacy","1024","2","48000","-16","experiment","HHHHH","0","even","2907","NA","NA","NA","85019","86043","71273","1346","NA","86044","1353","86144","86559","NA","NA","86144","Flanker task","44","25310.0","49","1024"
"88","88","514","514","#3d3846","legacy","legacy","legacy","incongruent","0","undefined","0","s","0","0","0","0","49","49","49","0","49","49","0","49","49","0","0","49","Tue Sep  5 16:37:24 2023","1500","The main experiment item","True","Flankertask.osexp","C:/Users/juzal/OneDrive/Documents/Masters of Equine Science/Advanced Quantitative Methods and Experiment Design","False","mono","False","18","no","white","no","yes","768","legacy","49","49","C:/Users/juzal/OneDrive/Documents/Masters of Equine Science/Advanced Quantitative Methods and Experiment Design/subject-0.csv","legacy","Melodramatic Milgram","4.0.5","0","h","NA","h","h","NA","NA","405.0","NA","1553","405","NA","NA","2","legacy","1024","2","48000","-16","experiment","HHSHH","0","even","2907","NA","NA","NA","86598","87625","71273","1346","NA","87626","1353","87726","88132","NA","NA","87726","Flanker task","44","25715.0","50","1024"
"88","88","514","514","#3d3846","legacy","legacy","legacy","incongruent","1","undefined","1","s","0","0","0","0","50","50","50","0","50","50","0","50","50","0","0","50","Tue Sep  5 16:37:24 2023","1500","The main experiment item","True","Flankertask.osexp","C:/Users/juzal/OneDrive/Documents/Masters of Equine Science/Advanced Quantitative Methods and Experiment Design","False","mono","False","18","no","white","no","yes","768","legacy","50","50","C:/Users/juzal/OneDrive/Documents/Masters of Equine Science/Advanced Quantitative Methods and Experiment Design/subject-0.csv","legacy","Melodramatic Milgram","4.0.5","0","s","NA","h","s","NA","NA","499.0","NA","1553","499","NA","NA","2","legacy","1024","2","48000","-16","experiment","HHSHH","0","even","2907","NA","NA","NA","88670","89694","88170","1346","NA","89695","1353","89795","90294","NA","NA","89795","Flanker task","45","26214.0","51","1024"
"88","88","513","513","#3d3846","legacy","legacy","legacy","congruent","1","undefined","1","h","0","0","0","0","51","51","51","0","51","51","0","51","51","0","0","51","Tue Sep  5 16:37:24 2023","1500","The main experiment item","True","Flankertask.osexp","C:/Users/juzal/OneDrive/Documents/Masters of Equine Science/Advanced Quantitative Methods and Experiment Design","False","mono","False","18","no","white","no","yes","768","legacy","51","51","C:/Users/juzal/OneDrive/Documents/Masters of Equine Science/Advanced Quantitative Methods and Experiment Design/subject-0.csv","legacy","Melodramatic Milgram","4.0.5","0","h","NA","h","h","NA","NA","464.0","NA","1553","464","NA","NA","2","legacy","1024","2","48000","-16","experiment","HHHHH","0","even","2907","NA","NA","NA","90322","91347","88170","1346","NA","91348","1353","91448","91913","NA","NA","91448","Flanker task","46","26678.0","52","1024"
"86","86","512","512","#3d3846","legacy","legacy","legacy","incongruent","0","undefined","0","h","0","0","0","0","52","52","52","0","52","52","0","52","52","0","0","52","Tue Sep  5 16:37:24 2023","1500","The main experiment item","True","Flankertask.osexp","C:/Users/juzal/OneDrive/Documents/Masters of Equine Science/Advanced Quantitative Methods and Experiment Design","False","mono","False","18","no","white","no","yes","768","legacy","52","52","C:/Users/juzal/OneDrive/Documents/Masters of Equine Science/Advanced Quantitative Methods and Experiment Design/subject-0.csv","legacy","Melodramatic Milgram","4.0.5","0","s","NA","h","s","NA","NA","478.0","NA","1553","478","NA","NA","2","legacy","1024","2","48000","-16","experiment","SSHSS","0","even","2907","NA","NA","NA","91946","92971","88170","1346","NA","92972","1353","93073","93552","NA","NA","93073","Flanker task","46","27156.0","53","1024"
"87","87","511","511","#3d3846","legacy","legacy","legacy","incongruent","1","undefined","1","s","0","0","0","0","53","53","53","0","53","53","0","53","53","0","0","53","Tue Sep  5 16:37:24 2023","1500","The main experiment item","True","Flankertask.osexp","C:/Users/juzal/OneDrive/Documents/Masters of Equine Science/Advanced Quantitative Methods and Experiment Design","False","mono","False","18","no","white","no","yes","768","legacy","53","53","C:/Users/juzal/OneDrive/Documents/Masters of Equine Science/Advanced Quantitative Methods and Experiment Design/subject-0.csv","legacy","Melodramatic Milgram","4.0.5","0","s","NA","h","s","NA","NA","487.0","NA","1553","487","NA","NA","2","legacy","1024","2","48000","-16","experiment","HHSHH","0","even","2907","NA","NA","NA","94089","95115","93589","1346","NA","95116","1353","95217","95704","NA","NA","95216","Flanker task","47","27643.0","54","1024"
"87","87","510","510","#3d3846","legacy","legacy","legacy","congruent","1","undefined","1","h","0","0","0","0","54","54","54","0","54","54","0","54","54","0","0","54","Tue Sep  5 16:37:24 2023","1500","The main experiment item","True","Flankertask.osexp","C:/Users/juzal/OneDrive/Documents/Masters of Equine Science/Advanced Quantitative Methods and Experiment Design","False","mono","False","18","no","white","no","yes","768","legacy","54","54","C:/Users/juzal/OneDrive/Documents/Masters of Equine Science/Advanced Quantitative Methods and Experiment Design/subject-0.csv","legacy","Melodramatic Milgram","4.0.5","0","h","NA","h","h","NA","NA","444.0","NA","1553","444","NA","NA","2","legacy","1024","2","48000","-16","experiment","HHHHH","0","even","2907","NA","NA","NA","95743","96767","93589","1346","NA","96768","1353","96868","97313","NA","NA","96868","Flanker task","48","28087.0","55","1024"
"87","87","508","508","#3d3846","legacy","legacy","legacy","congruent","1","undefined","1","h","0","0","0","0","55","55","55","0","55","55","0","55","55","0","0","55","Tue Sep  5 16:37:24 2023","1500","The main experiment item","True","Flankertask.osexp","C:/Users/juzal/OneDrive/Documents/Masters of Equine Science/Advanced Quantitative Methods and Experiment Design","False","mono","False","18","no","white","no","yes","768","legacy","55","55","C:/Users/juzal/OneDrive/Documents/Masters of Equine Science/Advanced Quantitative Methods and Experiment Design/subject-0.csv","legacy","Melodramatic Milgram","4.0.5","0","h","NA","h","h","NA","NA","365.0","NA","1553","365","NA","NA","2","legacy","1024","2","48000","-16","experiment","HHHHH","0","even","2907","NA","NA","NA","97348","98379","93589","1346","NA","98380","1353","98480","98845","NA","NA","98480","Flanker task","49","28452.0","56","1024"
"87","87","506","506","#3d3846","legacy","legacy","legacy","congruent","1","undefined","1","h","0","0","0","0","56","56","56","0","56","56","0","56","56","0","0","56","Tue Sep  5 16:37:24 2023","1500","The main experiment item","True","Flankertask.osexp","C:/Users/juzal/OneDrive/Documents/Masters of Equine Science/Advanced Quantitative Methods and Experiment Design","False","mono","False","18","no","white","no","yes","768","legacy","56","56","C:/Users/juzal/OneDrive/Documents/Masters of Equine Science/Advanced Quantitative Methods and Experiment Design/subject-0.csv","legacy","Melodramatic Milgram","4.0.5","0","h","NA","h","h","NA","NA","431.0","NA","1553","431","NA","NA","2","legacy","1024","2","48000","-16","experiment","HHHHH","0","even","2907","NA","NA","NA","98883","99907","93589","1346","NA","99908","1353","100008","100439","NA","NA","100008","Flanker task","50","28883.0","57","1024"
"87","87","507","507","#3d3846","legacy","legacy","legacy","incongruent","1","undefined","1","h","0","0","0","0","57","57","57","0","57","57","0","57","57","0","0","57","Tue Sep  5 16:37:24 2023","1500","The main experiment item","True","Flankertask.osexp","C:/Users/juzal/OneDrive/Documents/Masters of Equine Science/Advanced Quantitative Methods and Experiment Design","False","mono","False","18","no","white","no","yes","768","legacy","57","57","C:/Users/juzal/OneDrive/Documents/Masters of Equine Science/Advanced Quantitative Methods and Experiment Design/subject-0.csv","legacy","Melodramatic Milgram","4.0.5","0","h","NA","h","h","NA","NA","563.0","NA","1553","563","NA","NA","2","legacy","1024","2","48000","-16","experiment","SSHSS","0","even","2907","NA","NA","NA","100473","101497","93589","1346","NA","101498","1353","101599","102163","NA","NA","101598","Flanker task","51","29446.0","58","1024"
"88","88","506","506","#3d3846","legacy","legacy","legacy","congruent","1","undefined","1","h","0","0","0","0","58","58","58","0","58","58","0","58","58","0","0","58","Tue Sep  5 16:37:24 2023","1500","The main experiment item","True","Flankertask.osexp","C:/Users/juzal/OneDrive/Documents/Masters of Equine Science/Advanced Quantitative Methods and Experiment Design","False","mono","False","18","no","white","no","yes","768","legacy","58","58","C:/Users/juzal/OneDrive/Documents/Masters of Equine Science/Advanced Quantitative Methods and Experiment Design/subject-0.csv","legacy","Melodramatic Milgram","4.0.5","0","h","NA","h","h","NA","NA","421.0","NA","1553","421","NA","NA","2","legacy","1024","2","48000","-16","experiment","HHHHH","0","even","2907","NA","NA","NA","102197","103223","93589","1346","NA","103224","1353","103324","103746","NA","NA","103324","Flanker task","52","29867.0","59","1024"
"88","88","505","505","#3d3846","legacy","legacy","legacy","congruent","1","undefined","1","s","0","0","0","0","59","59","59","0","59","59","0","59","59","0","0","59","Tue Sep  5 16:37:24 2023","1500","The main experiment item","True","Flankertask.osexp","C:/Users/juzal/OneDrive/Documents/Masters of Equine Science/Advanced Quantitative Methods and Experiment Design","False","mono","False","18","no","white","no","yes","768","legacy","59","59","C:/Users/juzal/OneDrive/Documents/Masters of Equine Science/Advanced Quantitative Methods and Experiment Design/subject-0.csv","legacy","Melodramatic Milgram","4.0.5","0","s","NA","h","s","NA","NA","456.0","NA","1553","456","NA","NA","2","legacy","1024","2","48000","-16","experiment","SSSSS","0","even","2907","NA","NA","NA","103750","104776","93589","1346","NA","104777","1353","104877","105334","NA","NA","104877","Flanker task","53","30323.0","60","1024"
"88","88","507","507","#3d3846","legacy","legacy","legacy","incongruent","1","undefined","1","h","0","0","0","0","60","60","60","0","60","60","0","60","60","0","0","60","Tue Sep  5 16:37:24 2023","1500","The main experiment item","True","Flankertask.osexp","C:/Users/juzal/OneDrive/Documents/Masters of Equine Science/Advanced Quantitative Methods and Experiment Design","False","mono","False","18","no","white","no","yes","768","legacy","60","60","C:/Users/juzal/OneDrive/Documents/Masters of Equine Science/Advanced Quantitative Methods and Experiment Design/subject-0.csv","legacy","Melodramatic Milgram","4.0.5","0","h","NA","h","h","NA","NA","616.0","NA","1553","616","NA","NA","2","legacy","1024","2","48000","-16","experiment","SSHSS","0","even","2907","NA","NA","NA","105338","106361","93589","1346","NA","106362","1353","106462","107078","NA","NA","106462","Flanker task","54","30939.0","61","1024"
"88","88","507","507","#3d3846","legacy","legacy","legacy","congruent","1","undefined","1","s","0","0","0","0","61","61","61","0","61","61","0","61","61","0","0","61","Tue Sep  5 16:37:24 2023","1500","The main experiment item","True","Flankertask.osexp","C:/Users/juzal/OneDrive/Documents/Masters of Equine Science/Advanced Quantitative Methods and Experiment Design","False","mono","False","18","no","white","no","yes","768","legacy","61","61","C:/Users/juzal/OneDrive/Documents/Masters of Equine Science/Advanced Quantitative Methods and Experiment Design/subject-0.csv","legacy","Melodramatic Milgram","4.0.5","0","s","NA","h","s","NA","NA","507.0","NA","1553","507","NA","NA","2","legacy","1024","2","48000","-16","experiment","SSSSS","0","even","2907","NA","NA","NA","107111","108134","93589","1346","NA","108135","1353","108235","108742","NA","NA","108235","Flanker task","55","31446.0","62","1024"
"88","88","507","507","#3d3846","legacy","legacy","legacy","congruent","1","undefined","1","s","0","0","0","0","62","62","62","0","62","62","0","62","62","0","0","62","Tue Sep  5 16:37:24 2023","1500","The main experiment item","True","Flankertask.osexp","C:/Users/juzal/OneDrive/Documents/Masters of Equine Science/Advanced Quantitative Methods and Experiment Design","False","mono","False","18","no","white","no","yes","768","legacy","62","62","C:/Users/juzal/OneDrive/Documents/Masters of Equine Science/Advanced Quantitative Methods and Experiment Design/subject-0.csv","legacy","Melodramatic Milgram","4.0.5","0","s","NA","h","s","NA","NA","557.0","NA","1553","557","NA","NA","2","legacy","1024","2","48000","-16","experiment","SSSSS","0","even","2907","NA","NA","NA","108785","109808","93589","1346","NA","109809","1353","109909","110467","NA","NA","109909","Flanker task","56","32003.0","63","1024"
"87","87","506","506","#3d3846","legacy","legacy","legacy","incongruent","0","undefined","0","h","0","0","0","0","63","63","63","0","63","63","0","63","63","0","0","63","Tue Sep  5 16:37:24 2023","1500","The main experiment item","True","Flankertask.osexp","C:/Users/juzal/OneDrive/Documents/Masters of Equine Science/Advanced Quantitative Methods and Experiment Design","False","mono","False","18","no","white","no","yes","768","legacy","63","63","C:/Users/juzal/OneDrive/Documents/Masters of Equine Science/Advanced Quantitative Methods and Experiment Design/subject-0.csv","legacy","Melodramatic Milgram","4.0.5","0","s","NA","h","s","NA","NA","437.0","NA","1553","437","NA","NA","2","legacy","1024","2","48000","-16","experiment","SSHSS","0","even","2907","NA","NA","NA","110515","111541","93589","1346","NA","111542","1353","111642","112081","NA","NA","111642","Flanker task","56","32440.0","64","1024"
"87","87","506","506","#3d3846","legacy","legacy","legacy","congruent","1","undefined","1","h","0","0","0","0","64","64","64","0","64","64","0","64","64","0","0","64","Tue Sep  5 16:37:24 2023","1500","The main experiment item","True","Flankertask.osexp","C:/Users/juzal/OneDrive/Documents/Masters of Equine Science/Advanced Quantitative Methods and Experiment Design","False","mono","False","18","no","white","no","yes","768","legacy","64","64","C:/Users/juzal/OneDrive/Documents/Masters of Equine Science/Advanced Quantitative Methods and Experiment Design/subject-0.csv","legacy","Melodramatic Milgram","4.0.5","0","h","NA","h","h","NA","NA","502.0","NA","1553","502","NA","NA","2","legacy","1024","2","48000","-16","experiment","HHHHH","0","even","2907","NA","NA","NA","112619","113649","112119","1346","NA","113650","1353","113750","114253","NA","NA","113750","Flanker task","57","32942.0","65","1024"
"87","87","504","504","#3d3846","legacy","legacy","legacy","congruent","1","undefined","1","h","0","0","0","0","65","65","65","0","65","65","0","65","65","0","0","65","Tue Sep  5 16:37:24 2023","1500","The main experiment item","True","Flankertask.osexp","C:/Users/juzal/OneDrive/Documents/Masters of Equine Science/Advanced Quantitative Methods and Experiment Design","False","mono","False","18","no","white","no","yes","768","legacy","65","65","C:/Users/juzal/OneDrive/Documents/Masters of Equine Science/Advanced Quantitative Methods and Experiment Design/subject-0.csv","legacy","Melodramatic Milgram","4.0.5","0","h","NA","h","h","NA","NA","383.0","NA","1553","383","NA","NA","2","legacy","1024","2","48000","-16","experiment","HHHHH","0","even","2907","NA","NA","NA","114284","115310","112119","1346","NA","115311","1353","115412","115796","NA","NA","115411","Flanker task","58","33325.0","66","1024"
"88","88","505","505","#3d3846","legacy","legacy","legacy","incongruent","1","undefined","1","s","0","0","0","0","66","66","66","0","66","66","0","66","66","0","0","66","Tue Sep  5 16:37:24 2023","1500","The main experiment item","True","Flankertask.osexp","C:/Users/juzal/OneDrive/Documents/Masters of Equine Science/Advanced Quantitative Methods and Experiment Design","False","mono","False","18","no","white","no","yes","768","legacy","66","66","C:/Users/juzal/OneDrive/Documents/Masters of Equine Science/Advanced Quantitative Methods and Experiment Design/subject-0.csv","legacy","Melodramatic Milgram","4.0.5","0","s","NA","h","s","NA","NA","547.0","NA","1553","547","NA","NA","2","legacy","1024","2","48000","-16","experiment","HHSHH","0","even","2907","NA","NA","NA","115845","116870","112119","1346","NA","116871","1353","116972","117520","NA","NA","116972","Flanker task","59","33872.0","67","1024"
"88","88","505","505","#3d3846","legacy","legacy","legacy","incongruent","1","undefined","1","h","0","0","0","0","67","67","67","0","67","67","0","67","67","0","0","67","Tue Sep  5 16:37:24 2023","1500","The main experiment item","True","Flankertask.osexp","C:/Users/juzal/OneDrive/Documents/Masters of Equine Science/Advanced Quantitative Methods and Experiment Design","False","mono","False","18","no","white","no","yes","768","legacy","67","67","C:/Users/juzal/OneDrive/Documents/Masters of Equine Science/Advanced Quantitative Methods and Experiment Design/subject-0.csv","legacy","Melodramatic Milgram","4.0.5","0","h","NA","h","h","NA","NA","474.0","NA","1553","474","NA","NA","2","legacy","1024","2","48000","-16","experiment","SSHSS","0","even","2907","NA","NA","NA","117554","118578","112119","1346","NA","118579","1353","118679","119154","NA","NA","118679","Flanker task","60","34346.0","68","1024"
"88","88","506","506","#3d3846","legacy","legacy","legacy","incongruent","1","undefined","1","s","0","0","0","0","68","68","68","0","68","68","0","68","68","0","0","68","Tue Sep  5 16:37:24 2023","1500","The main experiment item","True","Flankertask.osexp","C:/Users/juzal/OneDrive/Documents/Masters of Equine Science/Advanced Quantitative Methods and Experiment Design","False","mono","False","18","no","white","no","yes","768","legacy","68","68","C:/Users/juzal/OneDrive/Documents/Masters of Equine Science/Advanced Quantitative Methods and Experiment Design/subject-0.csv","legacy","Melodramatic Milgram","4.0.5","0","s","NA","h","s","NA","NA","619.0","NA","1553","619","NA","NA","2","legacy","1024","2","48000","-16","experiment","HHSHH","0","even","2907","NA","NA","NA","119193","120223","112119","1346","NA","120224","1353","120324","120943","NA","NA","120324","Flanker task","61","34965.0","69","1024"
"88","88","505","505","#3d3846","legacy","legacy","legacy","congruent","1","undefined","1","h","0","0","0","0","69","69","69","0","69","69","0","69","69","0","0","69","Tue Sep  5 16:37:24 2023","1500","The main experiment item","True","Flankertask.osexp","C:/Users/juzal/OneDrive/Documents/Masters of Equine Science/Advanced Quantitative Methods and Experiment Design","False","mono","False","18","no","white","no","yes","768","legacy","69","69","C:/Users/juzal/OneDrive/Documents/Masters of Equine Science/Advanced Quantitative Methods and Experiment Design/subject-0.csv","legacy","Melodramatic Milgram","4.0.5","0","h","NA","h","h","NA","NA","423.0","NA","1553","423","NA","NA","2","legacy","1024","2","48000","-16","experiment","HHHHH","0","even","2907","NA","NA","NA","120972","121997","112119","1346","NA","121998","1353","122098","122522","NA","NA","122098","Flanker task","62","35388.0","70","1024"
"88","88","504","504","#3d3846","legacy","legacy","legacy","incongruent","1","undefined","1","h","0","0","0","0","70","70","70","0","70","70","0","70","70","0","0","70","Tue Sep  5 16:37:24 2023","1500","The main experiment item","True","Flankertask.osexp","C:/Users/juzal/OneDrive/Documents/Masters of Equine Science/Advanced Quantitative Methods and Experiment Design","False","mono","False","18","no","white","no","yes","768","legacy","70","70","C:/Users/juzal/OneDrive/Documents/Masters of Equine Science/Advanced Quantitative Methods and Experiment Design/subject-0.csv","legacy","Melodramatic Milgram","4.0.5","0","h","NA","h","h","NA","NA","446.0","NA","1553","446","NA","NA","2","legacy","1024","2","48000","-16","experiment","SSHSS","0","even","2907","NA","NA","NA","122572","123595","112119","1346","NA","123597","1353","123698","124144","NA","NA","123698","Flanker task","63","35834.0","71","1024"
"88","88","504","504","#3d3846","legacy","legacy","legacy","incongruent","1","undefined","1","h","0","0","0","0","71","71","71","0","71","71","0","71","71","0","0","71","Tue Sep  5 16:37:24 2023","1500","The main experiment item","True","Flankertask.osexp","C:/Users/juzal/OneDrive/Documents/Masters of Equine Science/Advanced Quantitative Methods and Experiment Design","False","mono","False","18","no","white","no","yes","768","legacy","71","71","C:/Users/juzal/OneDrive/Documents/Masters of Equine Science/Advanced Quantitative Methods and Experiment Design/subject-0.csv","legacy","Melodramatic Milgram","4.0.5","0","h","NA","h","h","NA","NA","476.0","NA","1553","476","NA","NA","2","legacy","1024","2","48000","-16","experiment","SSHSS","0","even","2907","NA","NA","NA","124180","125206","112119","1346","NA","125207","1353","125307","125785","NA","NA","125307","Flanker task","64","36310.0","72","1024"
"89","89","505","505","#3d3846","legacy","legacy","legacy","incongruent","1","undefined","1","h","0","0","0","0","72","72","72","0","72","72","0","72","72","0","0","72","Tue Sep  5 16:37:24 2023","1500","The main experiment item","True","Flankertask.osexp","C:/Users/juzal/OneDrive/Documents/Masters of Equine Science/Advanced Quantitative Methods and Experiment Design","False","mono","False","18","no","white","no","yes","768","legacy","72","72","C:/Users/juzal/OneDrive/Documents/Masters of Equine Science/Advanced Quantitative Methods and Experiment Design/subject-0.csv","legacy","Melodramatic Milgram","4.0.5","0","h","NA","h","h","NA","NA","625.0","NA","1553","625","NA","NA","2","legacy","1024","2","48000","-16","experiment","SSHSS","0","even","2907","NA","NA","NA","125834","126860","112119","1346","NA","126862","1353","126962","127588","NA","NA","126962","Flanker task","65","36935.0","73","1024"
"89","89","505","505","#3d3846","legacy","legacy","legacy","congruent","1","undefined","1","s","0","0","0","0","73","73","73","0","73","73","0","73","73","0","0","73","Tue Sep  5 16:37:24 2023","1500","The main experiment item","True","Flankertask.osexp","C:/Users/juzal/OneDrive/Documents/Masters of Equine Science/Advanced Quantitative Methods and Experiment Design","False","mono","False","18","no","white","no","yes","768","legacy","73","73","C:/Users/juzal/OneDrive/Documents/Masters of Equine Science/Advanced Quantitative Methods and Experiment Design/subject-0.csv","legacy","Melodramatic Milgram","4.0.5","0","s","NA","h","s","NA","NA","503.0","NA","1553","503","NA","NA","2","legacy","1024","2","48000","-16","experiment","SSSSS","0","even","2907","NA","NA","NA","127625","128661","112119","1346","NA","128663","1353","128763","129267","NA","NA","128763","Flanker task","66","37438.0","74","1024"
"89","89","505","505","#3d3846","legacy","legacy","legacy","congruent","1","undefined","1","s","0","0","0","0","74","74","74","0","74","74","0","74","74","0","0","74","Tue Sep  5 16:37:24 2023","1500","The main experiment item","True","Flankertask.osexp","C:/Users/juzal/OneDrive/Documents/Masters of Equine Science/Advanced Quantitative Methods and Experiment Design","False","mono","False","18","no","white","no","yes","768","legacy","74","74","C:/Users/juzal/OneDrive/Documents/Masters of Equine Science/Advanced Quantitative Methods and Experiment Design/subject-0.csv","legacy","Melodramatic Milgram","4.0.5","0","s","NA","h","s","NA","NA","467.0","NA","1553","467","NA","NA","2","legacy","1024","2","48000","-16","experiment","SSSSS","0","even","2907","NA","NA","NA","129312","130337","112119","1346","NA","130338","1353","130438","130905","NA","NA","130438","Flanker task","67","37905.0","75","1024"
"89","89","505","505","#3d3846","legacy","legacy","legacy","congruent","1","undefined","1","s","0","0","0","0","75","75","75","0","75","75","0","75","75","0","0","75","Tue Sep  5 16:37:24 2023","1500","The main experiment item","True","Flankertask.osexp","C:/Users/juzal/OneDrive/Documents/Masters of Equine Science/Advanced Quantitative Methods and Experiment Design","False","mono","False","18","no","white","no","yes","768","legacy","75","75","C:/Users/juzal/OneDrive/Documents/Masters of Equine Science/Advanced Quantitative Methods and Experiment Design/subject-0.csv","legacy","Melodramatic Milgram","4.0.5","0","s","NA","h","s","NA","NA","516.0","NA","1553","516","NA","NA","2","legacy","1024","2","48000","-16","experiment","SSSSS","0","even","2907","NA","NA","NA","130953","131986","112119","1346","NA","131987","1353","132088","132604","NA","NA","132087","Flanker task","68","38421.0","76","1024"
"89","89","507","507","#3d3846","legacy","legacy","legacy","incongruent","1","undefined","1","h","0","0","0","0","76","76","76","0","76","76","0","76","76","0","0","76","Tue Sep  5 16:37:24 2023","1500","The main experiment item","True","Flankertask.osexp","C:/Users/juzal/OneDrive/Documents/Masters of Equine Science/Advanced Quantitative Methods and Experiment Design","False","mono","False","18","no","white","no","yes","768","legacy","76","76","C:/Users/juzal/OneDrive/Documents/Masters of Equine Science/Advanced Quantitative Methods and Experiment Design/subject-0.csv","legacy","Melodramatic Milgram","4.0.5","0","h","NA","h","h","NA","NA","624.0","NA","1553","624","NA","NA","2","legacy","1024","2","48000","-16","experiment","SSHSS","0","even","2907","NA","NA","NA","132608","133643","112119","1346","NA","133644","1353","133744","134369","NA","NA","133744","Flanker task","69","39045.0","77","1024"
"89","89","506","506","#3d3846","legacy","legacy","legacy","incongruent","1","undefined","1","h","0","0","0","0","77","77","77","0","77","77","0","77","77","0","0","77","Tue Sep  5 16:37:24 2023","1500","The main experiment item","True","Flankertask.osexp","C:/Users/juzal/OneDrive/Documents/Masters of Equine Science/Advanced Quantitative Methods and Experiment Design","False","mono","False","18","no","white","no","yes","768","legacy","77","77","C:/Users/juzal/OneDrive/Documents/Masters of Equine Science/Advanced Quantitative Methods and Experiment Design/subject-0.csv","legacy","Melodramatic Milgram","4.0.5","0","h","NA","h","h","NA","NA","488.0","NA","1553","488","NA","NA","2","legacy","1024","2","48000","-16","experiment","SSHSS","0","even","2907","NA","NA","NA","134402","135427","112119","1346","NA","135428","1353","135529","136017","NA","NA","135529","Flanker task","70","39533.0","78","1024"
"89","89","507","507","#3d3846","legacy","legacy","legacy","incongruent","1","undefined","1","h","0","0","0","0","78","78","78","0","78","78","0","78","78","0","0","78","Tue Sep  5 16:37:24 2023","1500","The main experiment item","True","Flankertask.osexp","C:/Users/juzal/OneDrive/Documents/Masters of Equine Science/Advanced Quantitative Methods and Experiment Design","False","mono","False","18","no","white","no","yes","768","legacy","78","78","C:/Users/juzal/OneDrive/Documents/Masters of Equine Science/Advanced Quantitative Methods and Experiment Design/subject-0.csv","legacy","Melodramatic Milgram","4.0.5","0","h","NA","h","h","NA","NA","539.0","NA","1553","539","NA","NA","2","legacy","1024","2","48000","-16","experiment","SSHSS","0","even","2907","NA","NA","NA","136063","137090","112119","1346","NA","137091","1353","137192","137732","NA","NA","137191","Flanker task","71","40072.0","79","1024"
"90","90","513","513","#3d3846","legacy","legacy","legacy","incongruent","1","undefined","1","s","0","0","0","0","79","79","79","0","79","79","0","79","79","0","0","79","Tue Sep  5 16:37:24 2023","1500","The main experiment item","True","Flankertask.osexp","C:/Users/juzal/OneDrive/Documents/Masters of Equine Science/Advanced Quantitative Methods and Experiment Design","False","mono","False","18","no","white","no","yes","768","legacy","79","79","C:/Users/juzal/OneDrive/Documents/Masters of Equine Science/Advanced Quantitative Methods and Experiment Design/subject-0.csv","legacy","Melodramatic Milgram","4.0.5","0","s","NA","h","s","NA","NA","989.0","NA","1553","989","NA","NA","2","legacy","1024","2","48000","-16","experiment","HHSHH","0","even","2907","NA","NA","NA","137779","138804","112119","1346","NA","138805","1353","138905","139894","NA","NA","138905","Flanker task","72","41061.0","80","1024"
"90","90","514","514","#3d3846","legacy","legacy","legacy","incongruent","1","undefined","1","h","0","0","0","0","80","80","80","0","80","80","0","80","80","0","0","80","Tue Sep  5 16:37:24 2023","600","The main experiment item","True","Flankertask.osexp","C:/Users/juzal/OneDrive/Documents/Masters of Equine Science/Advanced Quantitative Methods and Experiment Design","False","mono","False","18","no","white","no","yes","768","legacy","0","79","C:/Users/juzal/OneDrive/Documents/Masters of Equine Science/Advanced Quantitative Methods and Experiment Design/subject-0.csv","legacy","Melodramatic Milgram","4.0.5","0","h","NA","h","h","NA","h","617.0","NA","1553","617","NA","3881","2","legacy","1024","2","48000","-16","experiment","SSHSS","0","even","2907","144815","NA","NA","139933","144848","112119","1346","NA","144849","1353","144949","145566","NA","140933","144949","Flanker task","73","41678.0","81","1024"
"90","90","513","513","#3d3846","legacy","legacy","legacy","congruent","1","undefined","1","h","0","0","0","0","81","81","81","0","81","81","0","81","81","0","0","81","Tue Sep  5 16:37:24 2023","600","The main experiment item","True","Flankertask.osexp","C:/Users/juzal/OneDrive/Documents/Masters of Equine Science/Advanced Quantitative Methods and Experiment Design","False","mono","False","18","no","white","no","yes","768","legacy","1","79","C:/Users/juzal/OneDrive/Documents/Masters of Equine Science/Advanced Quantitative Methods and Experiment Design/subject-0.csv","legacy","Melodramatic Milgram","4.0.5","0","h","NA","h","h","NA","h","450.0","NA","1553","450","NA","3881","2","legacy","1024","2","48000","-16","experiment","HHHHH","0","even","2907","144815","NA","NA","146111","147137","112119","1346","145611","147138","1353","147238","147689","NA","140933","147238","Flanker task","74","42128.0","82","1024"
"90","90","512","512","#3d3846","legacy","legacy","legacy","congruent","1","undefined","1","s","0","0","0","0","82","82","82","0","82","82","0","82","82","0","0","82","Tue Sep  5 16:37:24 2023","600","The main experiment item","True","Flankertask.osexp","C:/Users/juzal/OneDrive/Documents/Masters of Equine Science/Advanced Quantitative Methods and Experiment Design","False","mono","False","18","no","white","no","yes","768","legacy","2","79","C:/Users/juzal/OneDrive/Documents/Masters of Equine Science/Advanced Quantitative Methods and Experiment Design/subject-0.csv","legacy","Melodramatic Milgram","4.0.5","0","s","NA","h","s","NA","h","394.0","NA","1553","394","NA","3881","2","legacy","1024","2","48000","-16","experiment","SSSSS","0","even","2907","144815","NA","NA","147723","148751","112119","1346","145611","148752","1353","148852","149247","NA","140933","148852","Flanker task","75","42522.0","83","1024"
"90","90","511","511","#3d3846","legacy","legacy","legacy","congruent","1","undefined","1","h","0","0","0","0","83","83","83","0","83","83","0","83","83","0","0","83","Tue Sep  5 16:37:24 2023","600","The main experiment item","True","Flankertask.osexp","C:/Users/juzal/OneDrive/Documents/Masters of Equine Science/Advanced Quantitative Methods and Experiment Design","False","mono","False","18","no","white","no","yes","768","legacy","3","79","C:/Users/juzal/OneDrive/Documents/Masters of Equine Science/Advanced Quantitative Methods and Experiment Design/subject-0.csv","legacy","Melodramatic Milgram","4.0.5","0","h","NA","h","h","NA","h","433.0","NA","1553","433","NA","3881","2","legacy","1024","2","48000","-16","experiment","HHHHH","0","even","2907","144815","NA","NA","149277","150301","112119","1346","145611","150302","1353","150402","150836","NA","140933","150402","Flanker task","76","42955.0","84","1024"
"89","89","510","510","#3d3846","legacy","legacy","legacy","incongruent","0","undefined","0","s","0","0","0","0","84","84","84","0","84","84","0","84","84","0","0","84","Tue Sep  5 16:37:24 2023","600","The main experiment item","True","Flankertask.osexp","C:/Users/juzal/OneDrive/Documents/Masters of Equine Science/Advanced Quantitative Methods and Experiment Design","False","mono","False","18","no","white","no","yes","768","legacy","4","79","C:/Users/juzal/OneDrive/Documents/Masters of Equine Science/Advanced Quantitative Methods and Experiment Design/subject-0.csv","legacy","Melodramatic Milgram","4.0.5","0","h","NA","h","h","NA","h","452.0","NA","1553","452","NA","3881","2","legacy","1024","2","48000","-16","experiment","HHSHH","0","even","2907","144815","NA","NA","150840","151865","112119","1346","145611","151866","1353","151966","152418","NA","140933","151966","Flanker task","76","43407.0","85","1024"
"89","89","512","512","#3d3846","legacy","legacy","legacy","incongruent","1","undefined","1","s","0","0","0","0","85","85","85","0","85","85","0","85","85","0","0","85","Tue Sep  5 16:37:24 2023","600","The main experiment item","True","Flankertask.osexp","C:/Users/juzal/OneDrive/Documents/Masters of Equine Science/Advanced Quantitative Methods and Experiment Design","False","mono","False","18","no","white","no","yes","768","legacy","5","79","C:/Users/juzal/OneDrive/Documents/Masters of Equine Science/Advanced Quantitative Methods and Experiment Design/subject-0.csv","legacy","Melodramatic Milgram","4.0.5","0","s","NA","h","s","NA","h","625.0","NA","1553","625","NA","3881","2","legacy","1024","2","48000","-16","experiment","HHSHH","0","even","2907","144815","NA","NA","152952","153976","152452","1346","145611","153977","1353","154077","154702","NA","140933","154077","Flanker task","77","44032.0","86","1024"
"89","89","511","511","#3d3846","legacy","legacy","legacy","incongruent","1","undefined","1","h","0","0","0","0","86","86","86","0","86","86","0","86","86","0","0","86","Tue Sep  5 16:37:24 2023","600","The main experiment item","True","Flankertask.osexp","C:/Users/juzal/OneDrive/Documents/Masters of Equine Science/Advanced Quantitative Methods and Experiment Design","False","mono","False","18","no","white","no","yes","768","legacy","6","79","C:/Users/juzal/OneDrive/Documents/Masters of Equine Science/Advanced Quantitative Methods and Experiment Design/subject-0.csv","legacy","Melodramatic Milgram","4.0.5","0","h","NA","h","h","NA","h","491.0","NA","1553","491","NA","3881","2","legacy","1024","2","48000","-16","experiment","SSHSS","0","even","2907","144815","NA","NA","155248","156273","152452","1346","154748","156274","1353","156374","156866","NA","140933","156374","Flanker task","78","44523.0","87","1024"
"89","89","511","511","#3d3846","legacy","legacy","legacy","incongruent","1","undefined","1","s","0","0","0","0","87","87","87","0","87","87","0","87","87","0","0","87","Tue Sep  5 16:37:24 2023","600","The main experiment item","True","Flankertask.osexp","C:/Users/juzal/OneDrive/Documents/Masters of Equine Science/Advanced Quantitative Methods and Experiment Design","False","mono","False","18","no","white","no","yes","768","legacy","7","79","C:/Users/juzal/OneDrive/Documents/Masters of Equine Science/Advanced Quantitative Methods and Experiment Design/subject-0.csv","legacy","Melodramatic Milgram","4.0.5","0","s","NA","h","s","NA","h","531.0","NA","1553","531","NA","3881","2","legacy","1024","2","48000","-16","experiment","HHSHH","0","even","2907","144815","NA","NA","156869","157892","152452","1346","154748","157893","1353","157993","158524","NA","140933","157993","Flanker task","79","45054.0","88","1024"
"88","88","511","511","#3d3846","legacy","legacy","legacy","incongruent","0","undefined","0","h","0","0","0","0","88","88","88","0","88","88","0","88","88","0","0","88","Tue Sep  5 16:37:24 2023","600","The main experiment item","True","Flankertask.osexp","C:/Users/juzal/OneDrive/Documents/Masters of Equine Science/Advanced Quantitative Methods and Experiment Design","False","mono","False","18","no","white","no","yes","768","legacy","8","79","C:/Users/juzal/OneDrive/Documents/Masters of Equine Science/Advanced Quantitative Methods and Experiment Design/subject-0.csv","legacy","Melodramatic Milgram","4.0.5","0","s","NA","h","s","NA","h","464.0","NA","1553","464","NA","3881","2","legacy","1024","2","48000","-16","experiment","SSHSS","0","even","2907","144815","NA","NA","158558","159587","152452","1346","154748","159588","1353","159688","160153","NA","140933","159688","Flanker task","79","45518.0","89","1024"
"88","88","511","511","#3d3846","legacy","legacy","legacy","congruent","1","undefined","1","s","0","0","0","0","89","89","89","0","89","89","0","89","89","0","0","89","Tue Sep  5 16:37:24 2023","600","The main experiment item","True","Flankertask.osexp","C:/Users/juzal/OneDrive/Documents/Masters of Equine Science/Advanced Quantitative Methods and Experiment Design","False","mono","False","18","no","white","no","yes","768","legacy","9","79","C:/Users/juzal/OneDrive/Documents/Masters of Equine Science/Advanced Quantitative Methods and Experiment Design/subject-0.csv","legacy","Melodramatic Milgram","4.0.5","0","s","NA","h","s","NA","h","481.0","NA","1553","481","NA","3881","2","legacy","1024","2","48000","-16","experiment","SSSSS","0","even","2907","144815","NA","NA","160679","161702","160179","1346","154748","161704","1353","161804","162286","NA","140933","161804","Flanker task","80","45999.0","90","1024"
"89","89","509","509","#3d3846","legacy","legacy","legacy","congruent","1","undefined","1","s","0","0","0","0","90","90","90","0","90","90","0","90","90","0","0","90","Tue Sep  5 16:37:24 2023","600","The main experiment item","True","Flankertask.osexp","C:/Users/juzal/OneDrive/Documents/Masters of Equine Science/Advanced Quantitative Methods and Experiment Design","False","mono","False","18","no","white","no","yes","768","legacy","10","79","C:/Users/juzal/OneDrive/Documents/Masters of Equine Science/Advanced Quantitative Methods and Experiment Design/subject-0.csv","legacy","Melodramatic Milgram","4.0.5","0","s","NA","h","s","NA","h","381.0","NA","1553","381","NA","3881","2","legacy","1024","2","48000","-16","experiment","SSSSS","0","even","2907","144815","NA","NA","162327","163351","160179","1346","154748","163352","1353","163452","163834","NA","140933","163452","Flanker task","81","46380.0","91","1024"
"88","88","508","508","#3d3846","legacy","legacy","legacy","incongruent","0","undefined","0","h","0","0","0","0","91","91","91","0","91","91","0","91","91","0","0","91","Tue Sep  5 16:37:24 2023","600","The main experiment item","True","Flankertask.osexp","C:/Users/juzal/OneDrive/Documents/Masters of Equine Science/Advanced Quantitative Methods and Experiment Design","False","mono","False","18","no","white","no","yes","768","legacy","11","79","C:/Users/juzal/OneDrive/Documents/Masters of Equine Science/Advanced Quantitative Methods and Experiment Design/subject-0.csv","legacy","Melodramatic Milgram","4.0.5","0","s","NA","h","s","NA","h","402.0","NA","1553","402","NA","3881","2","legacy","1024","2","48000","-16","experiment","SSHSS","0","even","2907","144815","NA","NA","163858","164883","160179","1346","154748","164884","1353","164984","165387","NA","140933","164984","Flanker task","81","46782.0","92","1024"
"88","88","508","508","#3d3846","legacy","legacy","legacy","incongruent","1","undefined","1","h","0","0","0","0","92","92","92","0","92","92","0","92","92","0","0","92","Tue Sep  5 16:37:24 2023","600","The main experiment item","True","Flankertask.osexp","C:/Users/juzal/OneDrive/Documents/Masters of Equine Science/Advanced Quantitative Methods and Experiment Design","False","mono","False","18","no","white","no","yes","768","legacy","12","79","C:/Users/juzal/OneDrive/Documents/Masters of Equine Science/Advanced Quantitative Methods and Experiment Design/subject-0.csv","legacy","Melodramatic Milgram","4.0.5","0","h","NA","h","h","NA","h","491.0","NA","1553","491","NA","3881","2","legacy","1024","2","48000","-16","experiment","SSHSS","0","even","2907","144815","NA","NA","165922","166947","165422","1346","154748","166948","1353","167048","167539","NA","140933","167048","Flanker task","82","47273.0","93","1024"
"88","88","507","507","#3d3846","legacy","legacy","legacy","congruent","1","undefined","1","s","0","0","0","0","93","93","93","0","93","93","0","93","93","0","0","93","Tue Sep  5 16:37:24 2023","600","The main experiment item","True","Flankertask.osexp","C:/Users/juzal/OneDrive/Documents/Masters of Equine Science/Advanced Quantitative Methods and Experiment Design","False","mono","False","18","no","white","no","yes","768","legacy","13","79","C:/Users/juzal/OneDrive/Documents/Masters of Equine Science/Advanced Quantitative Methods and Experiment Design/subject-0.csv","legacy","Melodramatic Milgram","4.0.5","0","s","NA","h","s","NA","h","441.0","NA","1553","441","NA","3881","2","legacy","1024","2","48000","-16","experiment","SSSSS","0","even","2907","144815","NA","NA","167564","168589","165422","1346","154748","168591","1353","168691","169133","NA","140933","168691","Flanker task","83","47714.0","94","1024"
"88","88","507","507","#3d3846","legacy","legacy","legacy","incongruent","1","undefined","1","s","0","0","0","0","94","94","94","0","94","94","0","94","94","0","0","94","Tue Sep  5 16:37:24 2023","600","The main experiment item","True","Flankertask.osexp","C:/Users/juzal/OneDrive/Documents/Masters of Equine Science/Advanced Quantitative Methods and Experiment Design","False","mono","False","18","no","white","no","yes","768","legacy","14","79","C:/Users/juzal/OneDrive/Documents/Masters of Equine Science/Advanced Quantitative Methods and Experiment Design/subject-0.csv","legacy","Melodramatic Milgram","4.0.5","0","s","NA","h","s","NA","h","492.0","NA","1553","492","NA","3881","2","legacy","1024","2","48000","-16","experiment","HHSHH","0","even","2907","144815","NA","NA","169154","170178","165422","1346","154748","170179","1353","170279","170771","NA","140933","170279","Flanker task","84","48206.0","95","1024"
"88","88","506","506","#3d3846","legacy","legacy","legacy","congruent","1","undefined","1","h","0","0","0","0","95","95","95","0","95","95","0","95","95","0","0","95","Tue Sep  5 16:37:24 2023","600","The main experiment item","True","Flankertask.osexp","C:/Users/juzal/OneDrive/Documents/Masters of Equine Science/Advanced Quantitative Methods and Experiment Design","False","mono","False","18","no","white","no","yes","768","legacy","15","79","C:/Users/juzal/OneDrive/Documents/Masters of Equine Science/Advanced Quantitative Methods and Experiment Design/subject-0.csv","legacy","Melodramatic Milgram","4.0.5","0","h","NA","h","h","NA","h","411.0","NA","1553","411","NA","3881","2","legacy","1024","2","48000","-16","experiment","HHHHH","0","even","2907","144815","NA","NA","170813","171837","165422","1346","154748","171838","1353","171938","172350","NA","140933","171938","Flanker task","85","48617.0","96","1024"
"88","88","505","505","#3d3846","legacy","legacy","legacy","congruent","1","undefined","1","h","0","0","0","0","96","96","96","0","96","96","0","96","96","0","0","96","Tue Sep  5 16:37:24 2023","600","The main experiment item","True","Flankertask.osexp","C:/Users/juzal/OneDrive/Documents/Masters of Equine Science/Advanced Quantitative Methods and Experiment Design","False","mono","False","18","no","white","no","yes","768","legacy","16","79","C:/Users/juzal/OneDrive/Documents/Masters of Equine Science/Advanced Quantitative Methods and Experiment Design/subject-0.csv","legacy","Melodramatic Milgram","4.0.5","0","h","NA","h","h","NA","h","435.0","NA","1553","435","NA","3881","2","legacy","1024","2","48000","-16","experiment","HHHHH","0","even","2907","144815","NA","NA","172378","173405","165422","1346","154748","173406","1353","173507","173943","NA","140933","173506","Flanker task","86","49052.0","97","1024"
"88","88","505","505","#3d3846","legacy","legacy","legacy","incongruent","1","undefined","1","s","0","0","0","0","97","97","97","0","97","97","0","97","97","0","0","97","Tue Sep  5 16:37:24 2023","600","The main experiment item","True","Flankertask.osexp","C:/Users/juzal/OneDrive/Documents/Masters of Equine Science/Advanced Quantitative Methods and Experiment Design","False","mono","False","18","no","white","no","yes","768","legacy","17","79","C:/Users/juzal/OneDrive/Documents/Masters of Equine Science/Advanced Quantitative Methods and Experiment Design/subject-0.csv","legacy","Melodramatic Milgram","4.0.5","0","s","NA","h","s","NA","h","443.0","NA","1553","443","NA","3881","2","legacy","1024","2","48000","-16","experiment","HHSHH","0","even","2907","144815","NA","NA","173967","174997","165422","1346","154748","174998","1353","175098","175541","NA","140933","175098","Flanker task","87","49495.0","98","1024"
"88","88","505","505","#3d3846","legacy","legacy","legacy","incongruent","1","undefined","1","s","0","0","0","0","98","98","98","0","98","98","0","98","98","0","0","98","Tue Sep  5 16:37:24 2023","600","The main experiment item","True","Flankertask.osexp","C:/Users/juzal/OneDrive/Documents/Masters of Equine Science/Advanced Quantitative Methods and Experiment Design","False","mono","False","18","no","white","no","yes","768","legacy","18","79","C:/Users/juzal/OneDrive/Documents/Masters of Equine Science/Advanced Quantitative Methods and Experiment Design/subject-0.csv","legacy","Melodramatic Milgram","4.0.5","0","s","NA","h","s","NA","h","544.0","NA","1553","544","NA","3881","2","legacy","1024","2","48000","-16","experiment","HHSHH","0","even","2907","144815","NA","NA","175576","176600","165422","1346","154748","176601","1353","176701","177246","NA","140933","176701","Flanker task","88","50039.0","99","1024"
"89","89","506","506","#3d3846","legacy","legacy","legacy","congruent","1","undefined","1","s","0","0","0","0","99","99","99","0","99","99","0","99","99","0","0","99","Tue Sep  5 16:37:24 2023","600","The main experiment item","True","Flankertask.osexp","C:/Users/juzal/OneDrive/Documents/Masters of Equine Science/Advanced Quantitative Methods and Experiment Design","False","mono","False","18","no","white","no","yes","768","legacy","19","79","C:/Users/juzal/OneDrive/Documents/Masters of Equine Science/Advanced Quantitative Methods and Experiment Design/subject-0.csv","legacy","Melodramatic Milgram","4.0.5","0","s","NA","h","s","NA","h","597.0","NA","1553","597","NA","3881","2","legacy","1024","2","48000","-16","experiment","SSSSS","0","even","2907","144815","NA","NA","177282","178305","165422","1346","154748","178306","1353","178407","179005","NA","140933","178406","Flanker task","89","50636.0","100","1024"
"89","89","505","505","#3d3846","legacy","legacy","legacy","congruent","1","undefined","1","s","0","0","0","0","100","100","100","0","100","100","0","100","100","0","0","100","Tue Sep  5 16:37:24 2023","600","The main experiment item","True","Flankertask.osexp","C:/Users/juzal/OneDrive/Documents/Masters of Equine Science/Advanced Quantitative Methods and Experiment Design","False","mono","False","18","no","white","no","yes","768","legacy","20","79","C:/Users/juzal/OneDrive/Documents/Masters of Equine Science/Advanced Quantitative Methods and Experiment Design/subject-0.csv","legacy","Melodramatic Milgram","4.0.5","0","s","NA","h","s","NA","h","394.0","NA","1553","394","NA","3881","2","legacy","1024","2","48000","-16","experiment","SSSSS","0","even","2907","144815","NA","NA","179046","180077","165422","1346","154748","180078","1353","180179","180574","NA","140933","180179","Flanker task","90","51030.0","101","1024"
"89","89","504","504","#3d3846","legacy","legacy","legacy","congruent","1","undefined","1","s","0","0","0","0","101","101","101","0","101","101","0","101","101","0","0","101","Tue Sep  5 16:37:24 2023","600","The main experiment item","True","Flankertask.osexp","C:/Users/juzal/OneDrive/Documents/Masters of Equine Science/Advanced Quantitative Methods and Experiment Design","False","mono","False","18","no","white","no","yes","768","legacy","21","79","C:/Users/juzal/OneDrive/Documents/Masters of Equine Science/Advanced Quantitative Methods and Experiment Design/subject-0.csv","legacy","Melodramatic Milgram","4.0.5","0","s","NA","h","s","NA","h","412.0","NA","1553","412","NA","3881","2","legacy","1024","2","48000","-16","experiment","SSSSS","0","even","2907","144815","NA","NA","180600","181624","165422","1346","154748","181625","1353","181725","182138","NA","140933","181725","Flanker task","91","51442.0","102","1024"
"89","89","506","506","#3d3846","legacy","legacy","legacy","incongruent","1","undefined","1","s","0","0","0","0","102","102","102","0","102","102","0","102","102","0","0","102","Tue Sep  5 16:37:24 2023","600","The main experiment item","True","Flankertask.osexp","C:/Users/juzal/OneDrive/Documents/Masters of Equine Science/Advanced Quantitative Methods and Experiment Design","False","mono","False","18","no","white","no","yes","768","legacy","22","79","C:/Users/juzal/OneDrive/Documents/Masters of Equine Science/Advanced Quantitative Methods and Experiment Design/subject-0.csv","legacy","Melodramatic Milgram","4.0.5","0","s","NA","h","s","NA","h","679.0","NA","1553","679","NA","3881","2","legacy","1024","2","48000","-16","experiment","HHSHH","0","even","2907","144815","NA","NA","182144","183167","165422","1346","154748","183168","1353","183268","183948","NA","140933","183268","Flanker task","92","52121.0","103","1024"
"89","89","505","505","#3d3846","legacy","legacy","legacy","congruent","1","undefined","1","h","0","0","0","0","103","103","103","0","103","103","0","103","103","0","0","103","Tue Sep  5 16:37:24 2023","600","The main experiment item","True","Flankertask.osexp","C:/Users/juzal/OneDrive/Documents/Masters of Equine Science/Advanced Quantitative Methods and Experiment Design","False","mono","False","18","no","white","no","yes","768","legacy","23","79","C:/Users/juzal/OneDrive/Documents/Masters of Equine Science/Advanced Quantitative Methods and Experiment Design/subject-0.csv","legacy","Melodramatic Milgram","4.0.5","0","h","NA","h","h","NA","h","483.0","NA","1553","483","NA","3881","2","legacy","1024","2","48000","-16","experiment","HHHHH","0","even","2907","144815","NA","NA","184481","185505","165422","1346","183981","185506","1353","185606","186090","NA","140933","185606","Flanker task","93","52604.0","104","1024"
"89","89","504","504","#3d3846","legacy","legacy","legacy","congruent","1","undefined","1","s","0","0","0","0","104","104","104","0","104","104","0","104","104","0","0","104","Tue Sep  5 16:37:24 2023","600","The main experiment item","True","Flankertask.osexp","C:/Users/juzal/OneDrive/Documents/Masters of Equine Science/Advanced Quantitative Methods and Experiment Design","False","mono","False","18","no","white","no","yes","768","legacy","24","79","C:/Users/juzal/OneDrive/Documents/Masters of Equine Science/Advanced Quantitative Methods and Experiment Design/subject-0.csv","legacy","Melodramatic Milgram","4.0.5","0","s","NA","h","s","NA","h","416.0","NA","1553","416","NA","3881","2","legacy","1024","2","48000","-16","experiment","SSSSS","0","even","2907","144815","NA","NA","186119","187142","165422","1346","183981","187142","1353","187242","187659","NA","140933","187242","Flanker task","94","53020.0","105","1024"
"89","89","503","503","#3d3846","legacy","legacy","legacy","congruent","1","undefined","1","s","0","0","0","0","105","105","105","0","105","105","0","105","105","0","0","105","Tue Sep  5 16:37:24 2023","600","The main experiment item","True","Flankertask.osexp","C:/Users/juzal/OneDrive/Documents/Masters of Equine Science/Advanced Quantitative Methods and Experiment Design","False","mono","False","18","no","white","no","yes","768","legacy","25","79","C:/Users/juzal/OneDrive/Documents/Masters of Equine Science/Advanced Quantitative Methods and Experiment Design/subject-0.csv","legacy","Melodramatic Milgram","4.0.5","0","s","NA","h","s","NA","h","360.0","NA","1553","360","NA","3881","2","legacy","1024","2","48000","-16","experiment","SSSSS","0","even","2907","144815","NA","NA","187698","188723","165422","1346","183981","188724","1353","188824","189185","NA","140933","188824","Flanker task","95","53380.0","106","1024"
"89","89","502","502","#3d3846","legacy","legacy","legacy","congruent","1","undefined","1","s","0","0","0","0","106","106","106","0","106","106","0","106","106","0","0","106","Tue Sep  5 16:37:24 2023","600","The main experiment item","True","Flankertask.osexp","C:/Users/juzal/OneDrive/Documents/Masters of Equine Science/Advanced Quantitative Methods and Experiment Design","False","mono","False","18","no","white","no","yes","768","legacy","26","79","C:/Users/juzal/OneDrive/Documents/Masters of Equine Science/Advanced Quantitative Methods and Experiment Design/subject-0.csv","legacy","Melodramatic Milgram","4.0.5","0","s","NA","h","s","NA","h","365.0","NA","1553","365","NA","3881","2","legacy","1024","2","48000","-16","experiment","SSSSS","0","even","2907","144815","NA","NA","189224","190256","165422","1346","183981","190257","1353","190357","190723","NA","140933","190357","Flanker task","96","53745.0","107","1024"
"89","89","500","500","#3d3846","legacy","legacy","legacy","congruent","1","undefined","1","s","0","0","0","0","107","107","107","0","107","107","0","107","107","0","0","107","Tue Sep  5 16:37:24 2023","600","The main experiment item","True","Flankertask.osexp","C:/Users/juzal/OneDrive/Documents/Masters of Equine Science/Advanced Quantitative Methods and Experiment Design","False","mono","False","18","no","white","no","yes","768","legacy","27","79","C:/Users/juzal/OneDrive/Documents/Masters of Equine Science/Advanced Quantitative Methods and Experiment Design/subject-0.csv","legacy","Melodramatic Milgram","4.0.5","0","s","NA","h","s","NA","h","361.0","NA","1553","361","NA","3881","2","legacy","1024","2","48000","-16","experiment","SSSSS","0","even","2907","144815","NA","NA","190763","191787","165422","1346","183981","191788","1353","191889","192250","NA","140933","191888","Flanker task","97","54106.0","108","1024"
