acc,accuracy,average_response_time,avg_rt,background,canvas_backend,clock_backend,color_backend,compensation,condition,coordinates,correct,correct_Instruction1,correct_Keyboard_Response,correct_response,count_Block1,count_Block2,count_Block3,count_ErrorFeedback,count_Faster,count_Finish,count_Fixation,count_ISI,count_Instruction1,count_Instruction2,count_Instruction3,count_Keyboard_Response,count_Logger,count_Sequence,count_Stimulus,count_experiment,datetime,deadline,description,disable_garbage_collection,experiment_file,experiment_path,font_bold,font_family,font_italic,font_size,font_underline,foreground,form_clicks,fullscreen,height,keyboard_backend,live_row,live_row_Block1,logfile,mouse_backend,opensesame_codename,opensesame_version,repeat_cycle,response,response_Finish,response_Instruction1,response_Instruction2,response_Instruction3,response_Keyboard_Response,response_time,response_time_Finish,response_time_Instruction1,response_time_Instruction2,response_time_Instruction3,response_time_Keyboard_Response,round_decimals,sampler_backend,sound_buf_size,sound_channels,sound_freq,sound_sample_size,start,stimulus,subject_nr,subject_parity,time_Block1,time_Block2,time_Block3,time_ErrorFeedback,time_Faster,time_Finish,time_Fixation,time_ISI,time_Instruction1,time_Instruction2,time_Instruction3,time_Keyboard_Response,time_Logger,time_Sequence,time_Stimulus,time_experiment,title,total_correct,total_response_time,total_responses,uniform_coordinates,width
0,0,1500,1500,black,legacy,legacy,legacy,0,congruent,uniform,0,undefined,0,h,0,0,0,0,0,0,0,0,0,0,0,0,0,0,0,0,Sun Sep 29 16:38:08 2019,1500,The main experiment item,yes,FlankerTest.osexp,/Users/Linzi/Desktop,no,mono,no,18,no,white,no,yes,768,legacy,0,0,/Users/Linzi/Desktop/LM-subject-4f20.csv,legacy,Kafkaesque Koffka,3.2.8,0,None,NA,s,NA,NA,None,1500,NA,91740,NA,NA,1500,2,legacy,1024,2,48000,-16,experiment,HHHHH,4,even,97625,NA,NA,NA,NA,NA,97903,NA,5866,NA,NA,98031,99531,97876,98030,5833,Flanker Test,0,1500,1,yes,1024
50,50,1212.5,1212.5,black,legacy,legacy,legacy,0,incongruent,uniform,1,undefined,1,h,0,0,0,1,1,0,1,1,0,0,0,1,1,1,1,0,Sun Sep 29 16:38:08 2019,1500,The main experiment item,yes,FlankerTest.osexp,/Users/Linzi/Desktop,no,mono,no,18,no,white,no,yes,768,legacy,1,1,/Users/Linzi/Desktop/LM-subject-4f20.csv,legacy,Kafkaesque Koffka,3.2.8,0,h,NA,s,NA,NA,h,925,NA,91740,NA,NA,925,2,legacy,1024,2,48000,-16,experiment,SSHSS,4,even,97625,NA,NA,99574,NA,NA,101383,100103,5866,NA,NA,101511,102439,101357,101510,5833,Flanker Test,1,2425,2,yes,1024
66.66666667,66.66666667,1019.666667,1019.666667,black,legacy,legacy,legacy,0,congruent,uniform,1,undefined,1,s,0,0,0,2,2,0,2,2,0,0,0,2,2,2,2,0,Sun Sep 29 16:38:08 2019,1500,The main experiment item,yes,FlankerTest.osexp,/Users/Linzi/Desktop,no,mono,no,18,no,white,no,yes,768,legacy,2,2,/Users/Linzi/Desktop/LM-subject-4f20.csv,legacy,Kafkaesque Koffka,3.2.8,0,s,NA,s,NA,NA,s,634,NA,91740,NA,NA,634,2,legacy,1024,2,48000,-16,experiment,SSSSS,4,even,97625,NA,NA,99574,NA,NA,103728,102471,5866,NA,NA,103855,104492,103701,103855,5833,Flanker Test,2,3059,3,yes,1024
75,75,912.75,912.75,black,legacy,legacy,legacy,0,congruent,uniform,1,undefined,1,h,0,0,0,3,3,0,3,3,0,0,0,3,3,3,3,0,Sun Sep 29 16:38:08 2019,1500,The main experiment item,yes,FlankerTest.osexp,/Users/Linzi/Desktop,no,mono,no,18,no,white,no,yes,768,legacy,3,3,/Users/Linzi/Desktop/LM-subject-4f20.csv,legacy,Kafkaesque Koffka,3.2.8,0,h,NA,s,NA,NA,h,592,NA,91740,NA,NA,592,2,legacy,1024,2,48000,-16,experiment,HHHHH,4,even,97625,NA,NA,99574,NA,NA,105783,104524,5866,NA,NA,105910,106505,105757,105909,5833,Flanker Test,3,3651,4,yes,1024
80,80,856.8,856.8,black,legacy,legacy,legacy,0,incongruent,uniform,1,undefined,1,s,0,0,0,4,4,0,4,4,0,0,0,4,4,4,4,0,Sun Sep 29 16:38:08 2019,1500,The main experiment item,yes,FlankerTest.osexp,/Users/Linzi/Desktop,no,mono,no,18,no,white,no,yes,768,legacy,4,4,/Users/Linzi/Desktop/LM-subject-4f20.csv,legacy,Kafkaesque Koffka,3.2.8,0,s,NA,s,NA,NA,s,633,NA,91740,NA,NA,633,2,legacy,1024,2,48000,-16,experiment,HHSHH,4,even,97625,NA,NA,99574,NA,NA,107797,106537,5866,NA,NA,107924,108560,107770,107923,5833,Flanker Test,4,4284,5,yes,1024
83.33333333,83.33333333,792.8333333,792.8333333,black,legacy,legacy,legacy,0,congruent,uniform,1,undefined,1,s,0,0,0,5,5,0,5,5,0,0,0,5,5,5,5,0,Sun Sep 29 16:38:08 2019,1500,The main experiment item,yes,FlankerTest.osexp,/Users/Linzi/Desktop,no,mono,no,18,no,white,no,yes,768,legacy,5,5,/Users/Linzi/Desktop/LM-subject-4f20.csv,legacy,Kafkaesque Koffka,3.2.8,0,s,NA,s,NA,NA,s,473,NA,91740,NA,NA,473,2,legacy,1024,2,48000,-16,experiment,SSSSS,4,even,97625,NA,NA,99574,NA,NA,109849,108592,5866,NA,NA,109975,110451,109822,109975,5833,Flanker Test,5,4757,6,yes,1024
85.71428571,85.71428571,758.8571429,758.8571429,black,legacy,legacy,legacy,0,congruent,uniform,1,undefined,1,h,0,0,0,6,6,0,6,6,0,0,0,6,6,6,6,0,Sun Sep 29 16:38:08 2019,1500,The main experiment item,yes,FlankerTest.osexp,/Users/Linzi/Desktop,no,mono,no,18,no,white,no,yes,768,legacy,6,6,/Users/Linzi/Desktop/LM-subject-4f20.csv,legacy,Kafkaesque Koffka,3.2.8,0,h,NA,s,NA,NA,h,555,NA,91740,NA,NA,555,2,legacy,1024,2,48000,-16,experiment,HHHHH,4,even,97625,NA,NA,99574,NA,NA,111743,110483,5866,NA,NA,111870,112428,111717,111869,5833,Flanker Test,6,5312,7,yes,1024
87.5,87.5,735.875,735.875,black,legacy,legacy,legacy,0,congruent,uniform,1,undefined,1,s,0,0,0,7,7,0,7,7,0,0,0,7,7,7,7,0,Sun Sep 29 16:38:08 2019,1500,The main experiment item,yes,FlankerTest.osexp,/Users/Linzi/Desktop,no,mono,no,18,no,white,no,yes,768,legacy,7,7,/Users/Linzi/Desktop/LM-subject-4f20.csv,legacy,Kafkaesque Koffka,3.2.8,0,s,NA,s,NA,NA,s,575,NA,91740,NA,NA,575,2,legacy,1024,2,48000,-16,experiment,SSSSS,4,even,97625,NA,NA,99574,NA,NA,113715,112459,5866,NA,NA,113842,114420,113689,113841,5833,Flanker Test,7,5887,8,yes,1024
88.88888889,88.88888889,706.8888889,706.8888889,black,legacy,legacy,legacy,0,congruent,uniform,1,undefined,1,s,0,0,0,8,8,0,8,8,0,0,0,8,8,8,8,0,Sun Sep 29 16:38:08 2019,1500,The main experiment item,yes,FlankerTest.osexp,/Users/Linzi/Desktop,no,mono,no,18,no,white,no,yes,768,legacy,8,8,/Users/Linzi/Desktop/LM-subject-4f20.csv,legacy,Kafkaesque Koffka,3.2.8,0,s,NA,s,NA,NA,s,475,NA,91740,NA,NA,475,2,legacy,1024,2,48000,-16,experiment,SSSSS,4,even,97625,NA,NA,99574,NA,NA,115709,114452,5866,NA,NA,115836,116314,115682,115835,5833,Flanker Test,8,6362,9,yes,1024
90,90,703,703,black,legacy,legacy,legacy,0,congruent,uniform,1,undefined,1,h,0,0,0,9,9,0,9,9,0,0,0,9,9,9,9,0,Sun Sep 29 16:38:08 2019,1500,The main experiment item,yes,FlankerTest.osexp,/Users/Linzi/Desktop,no,mono,no,18,no,white,no,yes,768,legacy,9,9,/Users/Linzi/Desktop/LM-subject-4f20.csv,legacy,Kafkaesque Koffka,3.2.8,0,h,NA,s,NA,NA,h,668,NA,91740,NA,NA,668,2,legacy,1024,2,48000,-16,experiment,HHHHH,4,even,97625,NA,NA,99574,NA,NA,117606,116346,5866,NA,NA,117733,118405,117579,117733,5833,Flanker Test,9,7030,10,yes,1024
90.90909091,90.90909091,680.4545455,680.4545455,black,legacy,legacy,legacy,0,congruent,uniform,1,undefined,1,h,0,0,0,10,10,0,10,10,0,0,0,10,10,10,10,0,Sun Sep 29 16:38:08 2019,1500,The main experiment item,yes,FlankerTest.osexp,/Users/Linzi/Desktop,no,mono,no,18,no,white,no,yes,768,legacy,10,10,/Users/Linzi/Desktop/LM-subject-4f20.csv,legacy,Kafkaesque Koffka,3.2.8,0,h,NA,s,NA,NA,h,455,NA,91740,NA,NA,455,2,legacy,1024,2,48000,-16,experiment,HHHHH,4,even,97625,NA,NA,99574,NA,NA,119699,118437,5866,NA,NA,119826,120285,119672,119826,5833,Flanker Test,10,7485,11,yes,1024
83.33333333,83.33333333,667.5,667.5,black,legacy,legacy,legacy,0,incongruent,uniform,0,undefined,0,h,0,0,0,11,11,0,11,11,0,0,0,11,11,11,11,0,Sun Sep 29 16:38:08 2019,1500,The main experiment item,yes,FlankerTest.osexp,/Users/Linzi/Desktop,no,mono,no,18,no,white,no,yes,768,legacy,11,11,/Users/Linzi/Desktop/LM-subject-4f20.csv,legacy,Kafkaesque Koffka,3.2.8,0,s,NA,s,NA,NA,s,525,NA,91740,NA,NA,525,2,legacy,1024,2,48000,-16,experiment,SSHSS,4,even,97625,NA,NA,99574,NA,NA,121577,120317,5866,NA,NA,121703,122232,121550,121703,5833,Flanker Test,10,8010,12,yes,1024
84.61538462,84.61538462,674.0769231,674.0769231,black,legacy,legacy,legacy,0,incongruent,uniform,1,undefined,1,s,0,0,0,12,12,0,12,12,0,0,0,12,12,12,12,0,Sun Sep 29 16:38:08 2019,1500,The main experiment item,yes,FlankerTest.osexp,/Users/Linzi/Desktop,no,mono,no,18,no,white,no,yes,768,legacy,12,12,/Users/Linzi/Desktop/LM-subject-4f20.csv,legacy,Kafkaesque Koffka,3.2.8,0,s,NA,s,NA,NA,s,753,NA,91740,NA,NA,753,2,legacy,1024,2,48000,-16,experiment,HHSHH,4,even,97625,NA,NA,122264,NA,NA,124049,122791,5866,NA,NA,124177,124934,124023,124177,5833,Flanker Test,11,8763,13,yes,1024
85.71428571,85.71428571,665.1428571,665.1428571,black,legacy,legacy,legacy,0,incongruent,uniform,1,undefined,1,s,0,0,0,13,13,0,13,13,0,0,0,13,13,13,13,0,Sun Sep 29 16:38:08 2019,1500,The main experiment item,yes,FlankerTest.osexp,/Users/Linzi/Desktop,no,mono,no,18,no,white,no,yes,768,legacy,13,13,/Users/Linzi/Desktop/LM-subject-4f20.csv,legacy,Kafkaesque Koffka,3.2.8,0,s,NA,s,NA,NA,s,549,NA,91740,NA,NA,549,2,legacy,1024,2,48000,-16,experiment,HHSHH,4,even,97625,NA,NA,122264,NA,NA,126226,124967,5866,NA,NA,126353,126906,126199,126353,5833,Flanker Test,12,9312,14,yes,1024
86.66666667,86.66666667,656.3333333,656.3333333,black,legacy,legacy,legacy,0,incongruent,uniform,1,undefined,1,s,0,0,0,14,14,0,14,14,0,0,0,14,14,14,14,0,Sun Sep 29 16:38:08 2019,1500,The main experiment item,yes,FlankerTest.osexp,/Users/Linzi/Desktop,no,mono,no,18,no,white,no,yes,768,legacy,14,14,/Users/Linzi/Desktop/LM-subject-4f20.csv,legacy,Kafkaesque Koffka,3.2.8,0,s,NA,s,NA,NA,s,533,NA,91740,NA,NA,533,2,legacy,1024,2,48000,-16,experiment,HHSHH,4,even,97625,NA,NA,122264,NA,NA,128197,126938,5866,NA,NA,128324,128861,128169,128323,5833,Flanker Test,13,9845,15,yes,1024
87.5,87.5,649.625,649.625,black,legacy,legacy,legacy,0,congruent,uniform,1,undefined,1,s,0,0,0,15,15,0,15,15,0,0,0,15,15,15,15,0,Sun Sep 29 16:38:08 2019,1500,The main experiment item,yes,FlankerTest.osexp,/Users/Linzi/Desktop,no,mono,no,18,no,white,no,yes,768,legacy,15,15,/Users/Linzi/Desktop/LM-subject-4f20.csv,legacy,Kafkaesque Koffka,3.2.8,0,s,NA,s,NA,NA,s,549,NA,91740,NA,NA,549,2,legacy,1024,2,48000,-16,experiment,SSSSS,4,even,97625,NA,NA,122264,NA,NA,130148,128893,5866,NA,NA,130275,130828,130122,130274,5833,Flanker Test,14,10394,16,yes,1024
88.23529412,88.23529412,646.1764706,646.1764706,black,legacy,legacy,legacy,0,incongruent,uniform,1,undefined,1,h,0,0,0,16,16,0,16,16,0,0,0,16,16,16,16,0,Sun Sep 29 16:38:08 2019,1500,The main experiment item,yes,FlankerTest.osexp,/Users/Linzi/Desktop,no,mono,no,18,no,white,no,yes,768,legacy,16,16,/Users/Linzi/Desktop/LM-subject-4f20.csv,legacy,Kafkaesque Koffka,3.2.8,0,h,NA,s,NA,NA,h,591,NA,91740,NA,NA,591,2,legacy,1024,2,48000,-16,experiment,SSHSS,4,even,97625,NA,NA,122264,NA,NA,132117,130860,5866,NA,NA,132244,132839,132091,132244,5833,Flanker Test,15,10985,17,yes,1024
88.88888889,88.88888889,635.5555556,635.5555556,black,legacy,legacy,legacy,0,congruent,uniform,1,undefined,1,s,0,0,0,17,17,0,17,17,0,0,0,17,17,17,17,0,Sun Sep 29 16:38:08 2019,1500,The main experiment item,yes,FlankerTest.osexp,/Users/Linzi/Desktop,no,mono,no,18,no,white,no,yes,768,legacy,17,17,/Users/Linzi/Desktop/LM-subject-4f20.csv,legacy,Kafkaesque Koffka,3.2.8,0,s,NA,s,NA,NA,s,455,NA,91740,NA,NA,455,2,legacy,1024,2,48000,-16,experiment,SSSSS,4,even,97625,NA,NA,122264,NA,NA,134129,132870,5866,NA,NA,134255,134714,134101,134255,5833,Flanker Test,16,11440,18,yes,1024
89.47368421,89.47368421,623.2631579,623.2631579,black,legacy,legacy,legacy,0,congruent,uniform,1,undefined,1,s,0,0,0,18,18,0,18,18,0,0,0,18,18,18,18,0,Sun Sep 29 16:38:08 2019,1500,The main experiment item,yes,FlankerTest.osexp,/Users/Linzi/Desktop,no,mono,no,18,no,white,no,yes,768,legacy,18,18,/Users/Linzi/Desktop/LM-subject-4f20.csv,legacy,Kafkaesque Koffka,3.2.8,0,s,NA,s,NA,NA,s,402,NA,91740,NA,NA,402,2,legacy,1024,2,48000,-16,experiment,SSSSS,4,even,97625,NA,NA,122264,NA,NA,136000,134745,5866,NA,NA,136127,136533,135974,136126,5833,Flanker Test,17,11842,19,yes,1024
85,85,617.55,617.55,black,legacy,legacy,legacy,0,incongruent,uniform,0,undefined,0,s,0,0,0,19,19,0,19,19,0,0,0,19,19,19,19,0,Sun Sep 29 16:38:08 2019,1500,The main experiment item,yes,FlankerTest.osexp,/Users/Linzi/Desktop,no,mono,no,18,no,white,no,yes,768,legacy,19,19,/Users/Linzi/Desktop/LM-subject-4f20.csv,legacy,Kafkaesque Koffka,3.2.8,0,h,NA,s,NA,NA,h,509,NA,91740,NA,NA,509,2,legacy,1024,2,48000,-16,experiment,HHSHH,4,even,97625,NA,NA,122264,NA,NA,137825,136564,5866,NA,NA,137952,138465,137799,137952,5833,Flanker Test,17,12351,20,yes,1024
85.71428571,85.71428571,620.1428571,620.1428571,black,legacy,legacy,legacy,0,incongruent,uniform,1,undefined,1,h,0,0,0,20,20,0,20,20,0,0,0,20,20,20,20,0,Sun Sep 29 16:38:08 2019,1500,The main experiment item,yes,FlankerTest.osexp,/Users/Linzi/Desktop,no,mono,no,18,no,white,no,yes,768,legacy,20,20,/Users/Linzi/Desktop/LM-subject-4f20.csv,legacy,Kafkaesque Koffka,3.2.8,0,h,NA,s,NA,NA,h,672,NA,91740,NA,NA,672,2,legacy,1024,2,48000,-16,experiment,SSHSS,4,even,97625,NA,NA,138496,NA,NA,140282,139022,5866,NA,NA,140408,141084,140255,140408,5833,Flanker Test,18,13023,21,yes,1024
86.36363636,86.36363636,614.8636364,614.8636364,black,legacy,legacy,legacy,0,incongruent,uniform,1,undefined,1,h,0,0,0,21,21,0,21,21,0,0,0,21,21,21,21,0,Sun Sep 29 16:38:08 2019,1500,The main experiment item,yes,FlankerTest.osexp,/Users/Linzi/Desktop,no,mono,no,18,no,white,no,yes,768,legacy,21,21,/Users/Linzi/Desktop/LM-subject-4f20.csv,legacy,Kafkaesque Koffka,3.2.8,0,h,NA,s,NA,NA,h,504,NA,91740,NA,NA,504,2,legacy,1024,2,48000,-16,experiment,SSHSS,4,even,97625,NA,NA,138496,NA,NA,142373,141115,5866,NA,NA,142501,143009,142347,142500,5833,Flanker Test,19,13527,22,yes,1024
86.95652174,86.95652174,614.3043478,614.3043478,black,legacy,legacy,legacy,0,incongruent,uniform,1,undefined,1,s,0,0,0,22,22,0,22,22,0,0,0,22,22,22,22,0,Sun Sep 29 16:38:08 2019,1500,The main experiment item,yes,FlankerTest.osexp,/Users/Linzi/Desktop,no,mono,no,18,no,white,no,yes,768,legacy,22,22,/Users/Linzi/Desktop/LM-subject-4f20.csv,legacy,Kafkaesque Koffka,3.2.8,0,s,NA,s,NA,NA,s,602,NA,91740,NA,NA,602,2,legacy,1024,2,48000,-16,experiment,HHSHH,4,even,97625,NA,NA,138496,NA,NA,144302,143040,5866,NA,NA,144429,145035,144275,144428,5833,Flanker Test,20,14129,23,yes,1024
87.5,87.5,609.2083333,609.2083333,black,legacy,legacy,legacy,0,congruent,uniform,1,undefined,1,s,0,0,0,23,23,0,23,23,0,0,0,23,23,23,23,0,Sun Sep 29 16:38:08 2019,1500,The main experiment item,yes,FlankerTest.osexp,/Users/Linzi/Desktop,no,mono,no,18,no,white,no,yes,768,legacy,23,23,/Users/Linzi/Desktop/LM-subject-4f20.csv,legacy,Kafkaesque Koffka,3.2.8,0,s,NA,s,NA,NA,s,492,NA,91740,NA,NA,492,2,legacy,1024,2,48000,-16,experiment,SSSSS,4,even,97625,NA,NA,138496,NA,NA,146349,145067,5866,NA,NA,146475,146971,146323,146475,5833,Flanker Test,21,14621,24,yes,1024
84,84,601.84,601.84,black,legacy,legacy,legacy,0,incongruent,uniform,0,undefined,0,s,0,0,0,24,24,0,24,24,0,0,0,24,24,24,24,0,Sun Sep 29 16:38:08 2019,1500,The main experiment item,yes,FlankerTest.osexp,/Users/Linzi/Desktop,no,mono,no,18,no,white,no,yes,768,legacy,24,24,/Users/Linzi/Desktop/LM-subject-4f20.csv,legacy,Kafkaesque Koffka,3.2.8,0,h,NA,s,NA,NA,h,425,NA,91740,NA,NA,425,2,legacy,1024,2,48000,-16,experiment,HHSHH,4,even,97625,NA,NA,138496,NA,NA,148264,147002,5866,NA,NA,148391,148820,148237,148391,5833,Flanker Test,21,15046,25,yes,1024
84.61538462,84.61538462,598.6923077,598.6923077,black,legacy,legacy,legacy,0,congruent,uniform,1,undefined,1,h,0,0,0,25,25,0,25,25,0,0,0,25,25,25,25,0,Sun Sep 29 16:38:08 2019,1500,The main experiment item,yes,FlankerTest.osexp,/Users/Linzi/Desktop,no,mono,no,18,no,white,no,yes,768,legacy,25,25,/Users/Linzi/Desktop/LM-subject-4f20.csv,legacy,Kafkaesque Koffka,3.2.8,0,h,NA,s,NA,NA,h,520,NA,91740,NA,NA,520,2,legacy,1024,2,48000,-16,experiment,HHHHH,4,even,97625,NA,NA,148851,NA,NA,150636,149379,5866,NA,NA,150763,151287,150610,150762,5833,Flanker Test,22,15566,26,yes,1024
85.18518519,85.18518519,595.4444444,595.4444444,black,legacy,legacy,legacy,0,incongruent,uniform,1,undefined,1,s,0,0,0,26,26,0,26,26,0,0,0,26,26,26,26,0,Sun Sep 29 16:38:08 2019,1500,The main experiment item,yes,FlankerTest.osexp,/Users/Linzi/Desktop,no,mono,no,18,no,white,no,yes,768,legacy,26,26,/Users/Linzi/Desktop/LM-subject-4f20.csv,legacy,Kafkaesque Koffka,3.2.8,0,s,NA,s,NA,NA,s,511,NA,91740,NA,NA,511,2,legacy,1024,2,48000,-16,experiment,HHSHH,4,even,97625,NA,NA,148851,NA,NA,152579,151318,5866,NA,NA,152705,153220,152551,152705,5833,Flanker Test,23,16077,27,yes,1024
85.71428571,85.71428571,593.4642857,593.4642857,black,legacy,legacy,legacy,0,incongruent,uniform,1,undefined,1,s,0,0,0,27,27,0,27,27,0,0,0,27,27,27,27,0,Sun Sep 29 16:38:08 2019,1500,The main experiment item,yes,FlankerTest.osexp,/Users/Linzi/Desktop,no,mono,no,18,no,white,no,yes,768,legacy,27,27,/Users/Linzi/Desktop/LM-subject-4f20.csv,legacy,Kafkaesque Koffka,3.2.8,0,s,NA,s,NA,NA,s,540,NA,91740,NA,NA,540,2,legacy,1024,2,48000,-16,experiment,HHSHH,4,even,97625,NA,NA,148851,NA,NA,154512,153251,5866,NA,NA,154639,155183,154486,154638,5833,Flanker Test,24,16617,28,yes,1024
86.20689655,86.20689655,591.1034483,591.1034483,black,legacy,legacy,legacy,0,congruent,uniform,1,undefined,1,h,0,0,0,28,28,0,28,28,0,0,0,28,28,28,28,0,Sun Sep 29 16:38:08 2019,1500,The main experiment item,yes,FlankerTest.osexp,/Users/Linzi/Desktop,no,mono,no,18,no,white,no,yes,768,legacy,28,28,/Users/Linzi/Desktop/LM-subject-4f20.csv,legacy,Kafkaesque Koffka,3.2.8,0,h,NA,s,NA,NA,h,525,NA,91740,NA,NA,525,2,legacy,1024,2,48000,-16,experiment,HHHHH,4,even,97625,NA,NA,148851,NA,NA,156478,155216,5866,NA,NA,156604,157133,156451,156604,5833,Flanker Test,25,17142,29,yes,1024
86.66666667,86.66666667,586.8,586.8,black,legacy,legacy,legacy,0,congruent,uniform,1,undefined,1,s,0,0,0,29,29,0,29,29,0,0,0,29,29,29,29,0,Sun Sep 29 16:38:08 2019,1500,The main experiment item,yes,FlankerTest.osexp,/Users/Linzi/Desktop,no,mono,no,18,no,white,no,yes,768,legacy,29,29,/Users/Linzi/Desktop/LM-subject-4f20.csv,legacy,Kafkaesque Koffka,3.2.8,0,s,NA,s,NA,NA,s,462,NA,91740,NA,NA,462,2,legacy,1024,2,48000,-16,experiment,SSSSS,4,even,97625,NA,NA,148851,NA,NA,158422,157164,5866,NA,NA,158550,159017,158396,158550,5833,Flanker Test,26,17604,30,yes,1024
87.09677419,87.09677419,584.1290323,584.1290323,black,legacy,legacy,legacy,0,congruent,uniform,1,undefined,1,s,0,0,0,30,30,0,30,30,0,0,0,30,30,30,30,0,Sun Sep 29 16:38:08 2019,1500,The main experiment item,yes,FlankerTest.osexp,/Users/Linzi/Desktop,no,mono,no,18,no,white,no,yes,768,legacy,30,30,/Users/Linzi/Desktop/LM-subject-4f20.csv,legacy,Kafkaesque Koffka,3.2.8,0,s,NA,s,NA,NA,s,504,NA,91740,NA,NA,504,2,legacy,1024,2,48000,-16,experiment,SSSSS,4,even,97625,NA,NA,148851,NA,NA,160310,159048,5866,NA,NA,160436,160945,160284,160436,5833,Flanker Test,27,18108,31,yes,1024
87.5,87.5,585.5625,585.5625,black,legacy,legacy,legacy,0,incongruent,uniform,1,undefined,1,h,0,0,0,31,31,0,31,31,0,0,0,31,31,31,31,0,Sun Sep 29 16:38:08 2019,1500,The main experiment item,yes,FlankerTest.osexp,/Users/Linzi/Desktop,no,mono,no,18,no,white,no,yes,768,legacy,31,31,/Users/Linzi/Desktop/LM-subject-4f20.csv,legacy,Kafkaesque Koffka,3.2.8,0,h,NA,s,NA,NA,h,630,NA,91740,NA,NA,630,2,legacy,1024,2,48000,-16,experiment,SSHSS,4,even,97625,NA,NA,148851,NA,NA,162234,160976,5866,NA,NA,162361,162996,162207,162360,5833,Flanker Test,28,18738,32,yes,1024
84.84848485,84.84848485,583.8787879,583.8787879,black,legacy,legacy,legacy,0,congruent,uniform,0,undefined,0,h,0,0,0,32,32,0,32,32,0,0,0,32,32,32,32,0,Sun Sep 29 16:38:08 2019,1500,The main experiment item,yes,FlankerTest.osexp,/Users/Linzi/Desktop,no,mono,no,18,no,white,no,yes,768,legacy,32,32,/Users/Linzi/Desktop/LM-subject-4f20.csv,legacy,Kafkaesque Koffka,3.2.8,0,s,NA,s,NA,NA,s,530,NA,91740,NA,NA,530,2,legacy,1024,2,48000,-16,experiment,HHHHH,4,even,97625,NA,NA,148851,NA,NA,164295,163027,5866,NA,NA,164422,164957,164267,164421,5833,Flanker Test,28,19268,33,yes,1024
85.29411765,85.29411765,583.5,583.5,black,legacy,legacy,legacy,0,congruent,uniform,1,undefined,1,h,0,0,0,33,33,0,33,33,0,0,0,33,33,33,33,0,Sun Sep 29 16:38:08 2019,1500,The main experiment item,yes,FlankerTest.osexp,/Users/Linzi/Desktop,no,mono,no,18,no,white,no,yes,768,legacy,33,33,/Users/Linzi/Desktop/LM-subject-4f20.csv,legacy,Kafkaesque Koffka,3.2.8,0,h,NA,s,NA,NA,h,571,NA,91740,NA,NA,571,2,legacy,1024,2,48000,-16,experiment,HHHHH,4,even,97625,NA,NA,164989,NA,NA,166779,165519,5866,NA,NA,166906,167481,166753,166905,5833,Flanker Test,29,19839,34,yes,1024
85.71428571,85.71428571,585.5714286,585.5714286,black,legacy,legacy,legacy,0,incongruent,uniform,1,undefined,1,h,0,0,0,34,34,0,34,34,0,0,0,34,34,34,34,0,Sun Sep 29 16:38:08 2019,1500,The main experiment item,yes,FlankerTest.osexp,/Users/Linzi/Desktop,no,mono,no,18,no,white,no,yes,768,legacy,34,34,/Users/Linzi/Desktop/LM-subject-4f20.csv,legacy,Kafkaesque Koffka,3.2.8,0,h,NA,s,NA,NA,h,656,NA,91740,NA,NA,656,2,legacy,1024,2,48000,-16,experiment,SSHSS,4,even,97625,NA,NA,164989,NA,NA,168772,167513,5866,NA,NA,168898,169559,168745,168898,5833,Flanker Test,30,20495,35,yes,1024
86.11111111,86.11111111,592.1944444,592.1944444,black,legacy,legacy,legacy,0,incongruent,uniform,1,undefined,1,s,0,0,0,35,35,0,35,35,0,0,0,35,35,35,35,0,Sun Sep 29 16:38:08 2019,1500,The main experiment item,yes,FlankerTest.osexp,/Users/Linzi/Desktop,no,mono,no,18,no,white,no,yes,768,legacy,35,35,/Users/Linzi/Desktop/LM-subject-4f20.csv,legacy,Kafkaesque Koffka,3.2.8,0,s,NA,s,NA,NA,s,824,NA,91740,NA,NA,824,2,legacy,1024,2,48000,-16,experiment,HHSHH,4,even,97625,NA,NA,164989,NA,NA,170851,169590,5866,NA,NA,170977,171806,170824,170977,5833,Flanker Test,31,21319,36,yes,1024
86.48648649,86.48648649,593.2702703,593.2702703,black,legacy,legacy,legacy,0,incongruent,uniform,1,undefined,1,s,0,0,0,36,36,0,36,36,0,0,0,36,36,36,36,0,Sun Sep 29 16:38:08 2019,1500,The main experiment item,yes,FlankerTest.osexp,/Users/Linzi/Desktop,no,mono,no,18,no,white,no,yes,768,legacy,36,36,/Users/Linzi/Desktop/LM-subject-4f20.csv,legacy,Kafkaesque Koffka,3.2.8,0,s,NA,s,NA,NA,s,632,NA,91740,NA,NA,632,2,legacy,1024,2,48000,-16,experiment,HHSHH,4,even,97625,NA,NA,164989,NA,NA,173096,171838,5866,NA,NA,173225,173862,173070,173225,5833,Flanker Test,32,21951,37,yes,1024
86.84210526,86.84210526,600.7105263,600.7105263,black,legacy,legacy,legacy,0,congruent,uniform,1,undefined,1,s,0,0,0,37,37,0,37,37,0,0,0,37,37,37,37,0,Sun Sep 29 16:38:08 2019,1500,The main experiment item,yes,FlankerTest.osexp,/Users/Linzi/Desktop,no,mono,no,18,no,white,no,yes,768,legacy,37,37,/Users/Linzi/Desktop/LM-subject-4f20.csv,legacy,Kafkaesque Koffka,3.2.8,0,s,NA,s,NA,NA,s,876,NA,91740,NA,NA,876,2,legacy,1024,2,48000,-16,experiment,SSSSS,4,even,97625,NA,NA,164989,NA,NA,175150,173894,5866,NA,NA,175278,176158,175123,175277,5833,Flanker Test,33,22827,38,yes,1024
87.17948718,87.17948718,604.5641026,604.5641026,black,legacy,legacy,legacy,0,incongruent,uniform,1,undefined,1,s,0,0,0,38,38,0,38,38,0,0,0,38,38,38,38,0,Sun Sep 29 16:38:08 2019,1500,The main experiment item,yes,FlankerTest.osexp,/Users/Linzi/Desktop,no,mono,no,18,no,white,no,yes,768,legacy,38,38,/Users/Linzi/Desktop/LM-subject-4f20.csv,legacy,Kafkaesque Koffka,3.2.8,0,s,NA,s,NA,NA,s,751,NA,91740,NA,NA,751,2,legacy,1024,2,48000,-16,experiment,HHSHH,4,even,97625,NA,NA,164989,NA,NA,177450,176190,5866,NA,NA,177576,178331,177423,177576,5833,Flanker Test,34,23578,39,yes,1024
87.5,87.5,604.35,604.35,black,legacy,legacy,legacy,0,incongruent,uniform,1,undefined,1,s,0,0,0,39,39,0,39,39,0,0,0,39,39,39,39,0,Sun Sep 29 16:38:08 2019,1500,The main experiment item,yes,FlankerTest.osexp,/Users/Linzi/Desktop,no,mono,no,18,no,white,no,yes,768,legacy,39,39,/Users/Linzi/Desktop/LM-subject-4f20.csv,legacy,Kafkaesque Koffka,3.2.8,0,s,NA,s,NA,NA,s,596,NA,91740,NA,NA,596,2,legacy,1024,2,48000,-16,experiment,HHSHH,4,even,97625,NA,NA,164989,NA,NA,179623,178363,5866,NA,NA,179749,180349,179596,179749,5833,Flanker Test,35,24174,40,yes,1024
87.80487805,87.80487805,604.7073171,604.7073171,black,legacy,legacy,legacy,0,congruent,uniform,1,undefined,1,h,0,0,0,40,40,0,40,40,0,0,0,40,40,40,40,0,Sun Sep 29 16:38:08 2019,1500,The main experiment item,yes,FlankerTest.osexp,/Users/Linzi/Desktop,no,mono,no,18,no,white,no,yes,768,legacy,40,40,/Users/Linzi/Desktop/LM-subject-4f20.csv,legacy,Kafkaesque Koffka,3.2.8,0,h,NA,s,NA,NA,h,619,NA,91740,NA,NA,619,2,legacy,1024,2,48000,-16,experiment,HHHHH,4,even,97625,NA,NA,164989,NA,NA,181639,180381,5866,NA,NA,181765,182388,181613,181765,5833,Flanker Test,36,24793,41,yes,1024
88.0952381,88.0952381,603.7857143,603.7857143,black,legacy,legacy,legacy,0,incongruent,uniform,1,undefined,1,s,0,0,0,41,41,0,41,41,0,0,0,41,41,41,41,0,Sun Sep 29 16:38:08 2019,1500,The main experiment item,yes,FlankerTest.osexp,/Users/Linzi/Desktop,no,mono,no,18,no,white,no,yes,768,legacy,41,41,/Users/Linzi/Desktop/LM-subject-4f20.csv,legacy,Kafkaesque Koffka,3.2.8,0,s,NA,s,NA,NA,s,566,NA,91740,NA,NA,566,2,legacy,1024,2,48000,-16,experiment,HHSHH,4,even,97625,NA,NA,164989,NA,NA,183679,182421,5866,NA,NA,183806,184376,183652,183805,5833,Flanker Test,37,25359,42,yes,1024
88.37209302,88.37209302,601.9069767,601.9069767,black,legacy,legacy,legacy,0,incongruent,uniform,1,undefined,1,h,0,0,0,42,42,0,42,42,0,0,0,42,42,42,42,0,Sun Sep 29 16:38:08 2019,1500,The main experiment item,yes,FlankerTest.osexp,/Users/Linzi/Desktop,no,mono,no,18,no,white,no,yes,768,legacy,42,42,/Users/Linzi/Desktop/LM-subject-4f20.csv,legacy,Kafkaesque Koffka,3.2.8,0,h,NA,s,NA,NA,h,523,NA,91740,NA,NA,523,2,legacy,1024,2,48000,-16,experiment,SSHSS,4,even,97625,NA,NA,164989,NA,NA,185666,184408,5866,NA,NA,185792,186319,185639,185792,5833,Flanker Test,38,25882,43,yes,1024
88.63636364,88.63636364,599.9318182,599.9318182,black,legacy,legacy,legacy,0,incongruent,uniform,1,undefined,1,h,0,0,0,43,43,0,43,43,0,0,0,43,43,43,43,0,Sun Sep 29 16:38:08 2019,1500,The main experiment item,yes,FlankerTest.osexp,/Users/Linzi/Desktop,no,mono,no,18,no,white,no,yes,768,legacy,43,43,/Users/Linzi/Desktop/LM-subject-4f20.csv,legacy,Kafkaesque Koffka,3.2.8,0,h,NA,s,NA,NA,h,515,NA,91740,NA,NA,515,2,legacy,1024,2,48000,-16,experiment,SSHSS,4,even,97625,NA,NA,164989,NA,NA,187610,186351,5866,NA,NA,187738,188257,187584,187738,5833,Flanker Test,39,26397,44,yes,1024
88.88888889,88.88888889,596.9777778,596.9777778,black,legacy,legacy,legacy,0,congruent,uniform,1,undefined,1,h,0,0,0,44,44,0,44,44,0,0,0,44,44,44,44,0,Sun Sep 29 16:38:08 2019,1500,The main experiment item,yes,FlankerTest.osexp,/Users/Linzi/Desktop,no,mono,no,18,no,white,no,yes,768,legacy,44,44,/Users/Linzi/Desktop/LM-subject-4f20.csv,legacy,Kafkaesque Koffka,3.2.8,0,h,NA,s,NA,NA,h,467,NA,91740,NA,NA,467,2,legacy,1024,2,48000,-16,experiment,HHHHH,4,even,97625,NA,NA,164989,NA,NA,189551,188289,5866,NA,NA,189678,190149,189525,189677,5833,Flanker Test,40,26864,45,yes,1024
89.13043478,89.13043478,596.2173913,596.2173913,black,legacy,legacy,legacy,0,incongruent,uniform,1,undefined,1,s,0,0,0,45,45,0,45,45,0,0,0,45,45,45,45,0,Sun Sep 29 16:38:08 2019,1500,The main experiment item,yes,FlankerTest.osexp,/Users/Linzi/Desktop,no,mono,no,18,no,white,no,yes,768,legacy,45,45,/Users/Linzi/Desktop/LM-subject-4f20.csv,legacy,Kafkaesque Koffka,3.2.8,0,s,NA,s,NA,NA,s,562,NA,91740,NA,NA,562,2,legacy,1024,2,48000,-16,experiment,HHSHH,4,even,97625,NA,NA,164989,NA,NA,191444,190182,5866,NA,NA,191572,192138,191418,191571,5833,Flanker Test,41,27426,46,yes,1024
89.36170213,89.36170213,594.5744681,594.5744681,black,legacy,legacy,legacy,0,congruent,uniform,1,undefined,1,s,0,0,0,46,46,0,46,46,0,0,0,46,46,46,46,0,Sun Sep 29 16:38:08 2019,1500,The main experiment item,yes,FlankerTest.osexp,/Users/Linzi/Desktop,no,mono,no,18,no,white,no,yes,768,legacy,46,46,/Users/Linzi/Desktop/LM-subject-4f20.csv,legacy,Kafkaesque Koffka,3.2.8,0,s,NA,s,NA,NA,s,519,NA,91740,NA,NA,519,2,legacy,1024,2,48000,-16,experiment,SSSSS,4,even,97625,NA,NA,164989,NA,NA,193429,192170,5866,NA,NA,193556,194079,193403,193555,5833,Flanker Test,42,27945,47,yes,1024
89.58333333,89.58333333,592.6875,592.6875,black,legacy,legacy,legacy,0,congruent,uniform,1,undefined,1,s,0,0,0,47,47,0,47,47,0,0,0,47,47,47,47,0,Sun Sep 29 16:38:08 2019,1500,The main experiment item,yes,FlankerTest.osexp,/Users/Linzi/Desktop,no,mono,no,18,no,white,no,yes,768,legacy,47,47,/Users/Linzi/Desktop/LM-subject-4f20.csv,legacy,Kafkaesque Koffka,3.2.8,0,s,NA,s,NA,NA,s,504,NA,91740,NA,NA,504,2,legacy,1024,2,48000,-16,experiment,SSSSS,4,even,97625,NA,NA,164989,NA,NA,195372,194111,5866,NA,NA,195499,196008,195344,195498,5833,Flanker Test,43,28449,48,yes,1024
89.79591837,89.79591837,590.8571429,590.8571429,black,legacy,legacy,legacy,0,congruent,uniform,1,undefined,1,s,0,0,0,48,48,0,48,48,0,0,0,48,48,48,48,0,Sun Sep 29 16:38:08 2019,1500,The main experiment item,yes,FlankerTest.osexp,/Users/Linzi/Desktop,no,mono,no,18,no,white,no,yes,768,legacy,48,48,/Users/Linzi/Desktop/LM-subject-4f20.csv,legacy,Kafkaesque Koffka,3.2.8,0,s,NA,s,NA,NA,s,503,NA,91740,NA,NA,503,2,legacy,1024,2,48000,-16,experiment,SSSSS,4,even,97625,NA,NA,164989,NA,NA,197304,196039,5866,NA,NA,197430,197938,197276,197430,5833,Flanker Test,44,28952,49,yes,1024
90,90,587.08,587.08,black,legacy,legacy,legacy,0,congruent,uniform,1,undefined,1,s,0,0,0,49,49,0,49,49,0,0,0,49,49,49,49,0,Sun Sep 29 16:38:08 2019,1500,The main experiment item,yes,FlankerTest.osexp,/Users/Linzi/Desktop,no,mono,no,18,no,white,no,yes,768,legacy,49,49,/Users/Linzi/Desktop/LM-subject-4f20.csv,legacy,Kafkaesque Koffka,3.2.8,0,s,NA,s,NA,NA,s,402,NA,91740,NA,NA,402,2,legacy,1024,2,48000,-16,experiment,SSSSS,4,even,97625,NA,NA,164989,NA,NA,199230,197970,5866,NA,NA,199357,199764,199203,199356,5833,Flanker Test,45,29354,50,yes,1024
90.19607843,90.19607843,584.4901961,584.4901961,black,legacy,legacy,legacy,0,congruent,uniform,1,undefined,1,h,0,0,0,50,50,0,50,50,0,0,0,50,50,50,50,0,Sun Sep 29 16:38:08 2019,1500,The main experiment item,yes,FlankerTest.osexp,/Users/Linzi/Desktop,no,mono,no,18,no,white,no,yes,768,legacy,50,50,/Users/Linzi/Desktop/LM-subject-4f20.csv,legacy,Kafkaesque Koffka,3.2.8,0,h,NA,s,NA,NA,h,455,NA,91740,NA,NA,455,2,legacy,1024,2,48000,-16,experiment,HHHHH,4,even,97625,NA,NA,164989,NA,NA,201052,199796,5866,NA,NA,201179,201639,201025,201178,5833,Flanker Test,46,29809,51,yes,1024
90.38461538,90.38461538,582.4615385,582.4615385,black,legacy,legacy,legacy,0,congruent,uniform,1,undefined,1,s,0,0,0,51,51,0,51,51,0,0,0,51,51,51,51,0,Sun Sep 29 16:38:08 2019,1500,The main experiment item,yes,FlankerTest.osexp,/Users/Linzi/Desktop,no,mono,no,18,no,white,no,yes,768,legacy,51,51,/Users/Linzi/Desktop/LM-subject-4f20.csv,legacy,Kafkaesque Koffka,3.2.8,0,s,NA,s,NA,NA,s,479,NA,91740,NA,NA,479,2,legacy,1024,2,48000,-16,experiment,SSSSS,4,even,97625,NA,NA,164989,NA,NA,202927,201671,5866,NA,NA,203055,203539,202901,203054,5833,Flanker Test,47,30288,52,yes,1024
88.67924528,88.67924528,579.6226415,579.6226415,black,legacy,legacy,legacy,0,incongruent,uniform,0,undefined,0,h,0,0,0,52,52,0,52,52,0,0,0,52,52,52,52,0,Sun Sep 29 16:38:08 2019,1500,The main experiment item,yes,FlankerTest.osexp,/Users/Linzi/Desktop,no,mono,no,18,no,white,no,yes,768,legacy,52,52,/Users/Linzi/Desktop/LM-subject-4f20.csv,legacy,Kafkaesque Koffka,3.2.8,0,s,NA,s,NA,NA,s,432,NA,91740,NA,NA,432,2,legacy,1024,2,48000,-16,experiment,SSHSS,4,even,97625,NA,NA,164989,NA,NA,204828,203571,5866,NA,NA,204955,205392,204801,204954,5833,Flanker Test,47,30720,53,yes,1024
88.88888889,88.88888889,585.5,585.5,black,legacy,legacy,legacy,0,incongruent,uniform,1,undefined,1,s,0,0,0,53,53,0,53,53,0,0,0,53,53,53,53,0,Sun Sep 29 16:38:08 2019,1500,The main experiment item,yes,FlankerTest.osexp,/Users/Linzi/Desktop,no,mono,no,18,no,white,no,yes,768,legacy,53,53,/Users/Linzi/Desktop/LM-subject-4f20.csv,legacy,Kafkaesque Koffka,3.2.8,0,s,NA,s,NA,NA,s,897,NA,91740,NA,NA,897,2,legacy,1024,2,48000,-16,experiment,HHSHH,4,even,97625,NA,NA,205424,NA,NA,207212,205951,5866,NA,NA,207339,208241,207185,207338,5833,Flanker Test,48,31617,54,yes,1024
89.09090909,89.09090909,594.4181818,594.4181818,black,legacy,legacy,legacy,0,incongruent,uniform,1,undefined,1,h,0,0,0,54,54,0,54,54,0,0,0,54,54,54,54,0,Sun Sep 29 16:38:08 2019,1500,The main experiment item,yes,FlankerTest.osexp,/Users/Linzi/Desktop,no,mono,no,18,no,white,no,yes,768,legacy,54,54,/Users/Linzi/Desktop/LM-subject-4f20.csv,legacy,Kafkaesque Koffka,3.2.8,0,h,NA,s,NA,NA,h,1076,NA,91740,NA,NA,1076,2,legacy,1024,2,48000,-16,experiment,SSHSS,4,even,97625,NA,NA,205424,NA,NA,209534,208273,5866,NA,NA,209661,210742,209507,209661,5833,Flanker Test,49,32693,55,yes,1024
89.28571429,89.28571429,595.2857143,595.2857143,black,legacy,legacy,legacy,0,congruent,uniform,1,undefined,1,h,0,0,0,55,55,0,55,55,0,0,0,55,55,55,55,0,Sun Sep 29 16:38:08 2019,1500,The main experiment item,yes,FlankerTest.osexp,/Users/Linzi/Desktop,no,mono,no,18,no,white,no,yes,768,legacy,55,55,/Users/Linzi/Desktop/LM-subject-4f20.csv,legacy,Kafkaesque Koffka,3.2.8,0,h,NA,s,NA,NA,h,643,NA,91740,NA,NA,643,2,legacy,1024,2,48000,-16,experiment,HHHHH,4,even,97625,NA,NA,205424,NA,NA,212031,210773,5866,NA,NA,212158,212806,212004,212157,5833,Flanker Test,50,33336,56,yes,1024
89.47368421,89.47368421,595.5263158,595.5263158,black,legacy,legacy,legacy,0,incongruent,uniform,1,undefined,1,h,0,0,0,56,56,0,56,56,0,0,0,56,56,56,56,0,Sun Sep 29 16:38:08 2019,1500,The main experiment item,yes,FlankerTest.osexp,/Users/Linzi/Desktop,no,mono,no,18,no,white,no,yes,768,legacy,56,56,/Users/Linzi/Desktop/LM-subject-4f20.csv,legacy,Kafkaesque Koffka,3.2.8,0,h,NA,s,NA,NA,h,609,NA,91740,NA,NA,609,2,legacy,1024,2,48000,-16,experiment,SSHSS,4,even,97625,NA,NA,205424,NA,NA,214095,212838,5866,NA,NA,214223,214837,214069,214223,5833,Flanker Test,51,33945,57,yes,1024
89.65517241,89.65517241,593.7586207,593.7586207,black,legacy,legacy,legacy,0,incongruent,uniform,1,undefined,1,h,0,0,0,57,57,0,57,57,0,0,0,57,57,57,57,0,Sun Sep 29 16:38:08 2019,1500,The main experiment item,yes,FlankerTest.osexp,/Users/Linzi/Desktop,no,mono,no,18,no,white,no,yes,768,legacy,57,57,/Users/Linzi/Desktop/LM-subject-4f20.csv,legacy,Kafkaesque Koffka,3.2.8,0,h,NA,s,NA,NA,h,493,NA,91740,NA,NA,493,2,legacy,1024,2,48000,-16,experiment,SSHSS,4,even,97625,NA,NA,205424,NA,NA,216127,214870,5866,NA,NA,216254,216752,216100,216254,5833,Flanker Test,52,34438,58,yes,1024
89.83050847,89.83050847,594.4237288,594.4237288,black,legacy,legacy,legacy,0,congruent,uniform,1,undefined,1,s,0,0,0,58,58,0,58,58,0,0,0,58,58,58,58,0,Sun Sep 29 16:38:08 2019,1500,The main experiment item,yes,FlankerTest.osexp,/Users/Linzi/Desktop,no,mono,no,18,no,white,no,yes,768,legacy,58,58,/Users/Linzi/Desktop/LM-subject-4f20.csv,legacy,Kafkaesque Koffka,3.2.8,0,s,NA,s,NA,NA,s,633,NA,91740,NA,NA,633,2,legacy,1024,2,48000,-16,experiment,SSSSS,4,even,97625,NA,NA,205424,NA,NA,218041,216784,5866,NA,NA,218168,218806,218014,218167,5833,Flanker Test,53,35071,59,yes,1024
90,90,594.0833333,594.0833333,black,legacy,legacy,legacy,0,incongruent,uniform,1,undefined,1,h,0,0,0,59,59,0,59,59,0,0,0,59,59,59,59,0,Sun Sep 29 16:38:08 2019,1500,The main experiment item,yes,FlankerTest.osexp,/Users/Linzi/Desktop,no,mono,no,18,no,white,no,yes,768,legacy,59,59,/Users/Linzi/Desktop/LM-subject-4f20.csv,legacy,Kafkaesque Koffka,3.2.8,0,h,NA,s,NA,NA,h,574,NA,91740,NA,NA,574,2,legacy,1024,2,48000,-16,experiment,SSHSS,4,even,97625,NA,NA,205424,NA,NA,220095,218838,5866,NA,NA,220223,220803,220068,220222,5833,Flanker Test,54,35645,60,yes,1024
90.16393443,90.16393443,595.0491803,595.0491803,black,legacy,legacy,legacy,0,congruent,uniform,1,undefined,1,h,0,0,0,60,60,0,60,60,0,0,0,60,60,60,60,0,Sun Sep 29 16:38:08 2019,1500,The main experiment item,yes,FlankerTest.osexp,/Users/Linzi/Desktop,no,mono,no,18,no,white,no,yes,768,legacy,60,60,/Users/Linzi/Desktop/LM-subject-4f20.csv,legacy,Kafkaesque Koffka,3.2.8,0,h,NA,s,NA,NA,h,653,NA,91740,NA,NA,653,2,legacy,1024,2,48000,-16,experiment,HHHHH,4,even,97625,NA,NA,205424,NA,NA,222096,220834,5866,NA,NA,222224,222882,222069,222223,5833,Flanker Test,55,36298,61,yes,1024
90.32258065,90.32258065,593.9677419,593.9677419,black,legacy,legacy,legacy,0,congruent,uniform,1,undefined,1,h,0,0,0,61,61,0,61,61,0,0,0,61,61,61,61,0,Sun Sep 29 16:38:08 2019,1500,The main experiment item,yes,FlankerTest.osexp,/Users/Linzi/Desktop,no,mono,no,18,no,white,no,yes,768,legacy,61,61,/Users/Linzi/Desktop/LM-subject-4f20.csv,legacy,Kafkaesque Koffka,3.2.8,0,h,NA,s,NA,NA,h,528,NA,91740,NA,NA,528,2,legacy,1024,2,48000,-16,experiment,HHHHH,4,even,97625,NA,NA,205424,NA,NA,224173,222913,5866,NA,NA,224299,224832,224146,224299,5833,Flanker Test,56,36826,62,yes,1024
90.47619048,90.47619048,591.952381,591.952381,black,legacy,legacy,legacy,0,congruent,uniform,1,undefined,1,s,0,0,0,62,62,0,62,62,0,0,0,62,62,62,62,0,Sun Sep 29 16:38:08 2019,1500,The main experiment item,yes,FlankerTest.osexp,/Users/Linzi/Desktop,no,mono,no,18,no,white,no,yes,768,legacy,62,62,/Users/Linzi/Desktop/LM-subject-4f20.csv,legacy,Kafkaesque Koffka,3.2.8,0,s,NA,s,NA,NA,s,467,NA,91740,NA,NA,467,2,legacy,1024,2,48000,-16,experiment,SSSSS,4,even,97625,NA,NA,205424,NA,NA,226121,224863,5866,NA,NA,226247,226719,226094,226247,5833,Flanker Test,57,37293,63,yes,1024
90.625,90.625,591.078125,591.078125,black,legacy,legacy,legacy,0,incongruent,uniform,1,undefined,1,h,0,0,0,63,63,0,63,63,0,0,0,63,63,63,63,0,Sun Sep 29 16:38:08 2019,1500,The main experiment item,yes,FlankerTest.osexp,/Users/Linzi/Desktop,no,mono,no,18,no,white,no,yes,768,legacy,63,63,/Users/Linzi/Desktop/LM-subject-4f20.csv,legacy,Kafkaesque Koffka,3.2.8,0,h,NA,s,NA,NA,h,536,NA,91740,NA,NA,536,2,legacy,1024,2,48000,-16,experiment,SSHSS,4,even,97625,NA,NA,205424,NA,NA,228009,226750,5866,NA,NA,228137,228678,227983,228136,5833,Flanker Test,58,37829,64,yes,1024
90.76923077,90.76923077,589.3076923,589.3076923,black,legacy,legacy,legacy,0,congruent,uniform,1,undefined,1,h,0,0,0,64,64,0,64,64,0,0,0,64,64,64,64,0,Sun Sep 29 16:38:08 2019,1500,The main experiment item,yes,FlankerTest.osexp,/Users/Linzi/Desktop,no,mono,no,18,no,white,no,yes,768,legacy,64,64,/Users/Linzi/Desktop/LM-subject-4f20.csv,legacy,Kafkaesque Koffka,3.2.8,0,h,NA,s,NA,NA,h,476,NA,91740,NA,NA,476,2,legacy,1024,2,48000,-16,experiment,HHHHH,4,even,97625,NA,NA,205424,NA,NA,229972,228710,5866,NA,NA,230098,230579,229946,230098,5833,Flanker Test,59,38305,65,yes,1024
90.90909091,90.90909091,589.3484848,589.3484848,black,legacy,legacy,legacy,0,incongruent,uniform,1,undefined,1,s,0,0,0,65,65,0,65,65,0,0,0,65,65,65,65,0,Sun Sep 29 16:38:08 2019,1500,The main experiment item,yes,FlankerTest.osexp,/Users/Linzi/Desktop,no,mono,no,18,no,white,no,yes,768,legacy,65,65,/Users/Linzi/Desktop/LM-subject-4f20.csv,legacy,Kafkaesque Koffka,3.2.8,0,s,NA,s,NA,NA,s,592,NA,91740,NA,NA,592,2,legacy,1024,2,48000,-16,experiment,HHSHH,4,even,97625,NA,NA,205424,NA,NA,231872,230610,5866,NA,NA,231999,232596,231845,231998,5833,Flanker Test,60,38897,66,yes,1024
89.55223881,89.55223881,587.7910448,587.7910448,black,legacy,legacy,legacy,0,congruent,uniform,0,undefined,0,s,0,0,0,66,66,0,66,66,0,0,0,66,66,66,66,0,Sun Sep 29 16:38:08 2019,1500,The main experiment item,yes,FlankerTest.osexp,/Users/Linzi/Desktop,no,mono,no,18,no,white,no,yes,768,legacy,66,66,/Users/Linzi/Desktop/LM-subject-4f20.csv,legacy,Kafkaesque Koffka,3.2.8,0,h,NA,s,NA,NA,h,485,NA,91740,NA,NA,485,2,legacy,1024,2,48000,-16,experiment,SSSSS,4,even,97625,NA,NA,205424,NA,NA,233887,232628,5866,NA,NA,234012,234503,233860,234012,5833,Flanker Test,60,39382,67,yes,1024
89.70588235,89.70588235,587.6470588,587.6470588,black,legacy,legacy,legacy,0,incongruent,uniform,1,undefined,1,s,0,0,0,67,67,0,67,67,0,0,0,67,67,67,67,0,Sun Sep 29 16:38:08 2019,1500,The main experiment item,yes,FlankerTest.osexp,/Users/Linzi/Desktop,no,mono,no,18,no,white,no,yes,768,legacy,67,67,/Users/Linzi/Desktop/LM-subject-4f20.csv,legacy,Kafkaesque Koffka,3.2.8,0,s,NA,s,NA,NA,s,578,NA,91740,NA,NA,578,2,legacy,1024,2,48000,-16,experiment,HHSHH,4,even,97625,NA,NA,234535,NA,NA,236324,235062,5866,NA,NA,236450,237033,236298,236450,5833,Flanker Test,61,39960,68,yes,1024
89.85507246,89.85507246,587.4927536,587.4927536,black,legacy,legacy,legacy,0,congruent,uniform,1,undefined,1,h,0,0,0,68,68,0,68,68,0,0,0,68,68,68,68,0,Sun Sep 29 16:38:08 2019,1500,The main experiment item,yes,FlankerTest.osexp,/Users/Linzi/Desktop,no,mono,no,18,no,white,no,yes,768,legacy,68,68,/Users/Linzi/Desktop/LM-subject-4f20.csv,legacy,Kafkaesque Koffka,3.2.8,0,h,NA,s,NA,NA,h,577,NA,91740,NA,NA,577,2,legacy,1024,2,48000,-16,experiment,HHHHH,4,even,97625,NA,NA,234535,NA,NA,238325,237064,5866,NA,NA,238453,239036,238298,238453,5833,Flanker Test,62,40537,69,yes,1024
90,90,586.2,586.2,black,legacy,legacy,legacy,0,congruent,uniform,1,undefined,1,h,0,0,0,69,69,0,69,69,0,0,0,69,69,69,69,0,Sun Sep 29 16:38:08 2019,1500,The main experiment item,yes,FlankerTest.osexp,/Users/Linzi/Desktop,no,mono,no,18,no,white,no,yes,768,legacy,69,69,/Users/Linzi/Desktop/LM-subject-4f20.csv,legacy,Kafkaesque Koffka,3.2.8,0,h,NA,s,NA,NA,h,497,NA,91740,NA,NA,497,2,legacy,1024,2,48000,-16,experiment,HHHHH,4,even,97625,NA,NA,234535,NA,NA,240327,239067,5866,NA,NA,240454,240957,240301,240453,5833,Flanker Test,63,41034,70,yes,1024
90.14084507,90.14084507,592.6760563,592.6760563,black,legacy,legacy,legacy,0,congruent,uniform,1,undefined,1,s,0,0,0,70,70,0,70,70,0,0,0,70,70,70,70,0,Sun Sep 29 16:38:08 2019,1500,The main experiment item,yes,FlankerTest.osexp,/Users/Linzi/Desktop,no,mono,no,18,no,white,no,yes,768,legacy,70,70,/Users/Linzi/Desktop/LM-subject-4f20.csv,legacy,Kafkaesque Koffka,3.2.8,0,s,NA,s,NA,NA,s,1046,NA,91740,NA,NA,1046,2,legacy,1024,2,48000,-16,experiment,SSSSS,4,even,97625,NA,NA,234535,NA,NA,242247,240988,5866,NA,NA,242373,243425,242219,242373,5833,Flanker Test,64,42080,71,yes,1024
90.27777778,90.27777778,600.1111111,600.1111111,black,legacy,legacy,legacy,0,incongruent,uniform,1,undefined,1,s,0,0,0,71,71,0,71,71,0,0,0,71,71,71,71,0,Sun Sep 29 16:38:08 2019,1500,The main experiment item,yes,FlankerTest.osexp,/Users/Linzi/Desktop,no,mono,no,18,no,white,no,yes,768,legacy,71,71,/Users/Linzi/Desktop/LM-subject-4f20.csv,legacy,Kafkaesque Koffka,3.2.8,0,s,NA,s,NA,NA,s,1128,NA,91740,NA,NA,1128,2,legacy,1024,2,48000,-16,experiment,HHSHH,4,even,97625,NA,NA,234535,NA,NA,244716,243457,5866,NA,NA,244842,245976,244690,244842,5833,Flanker Test,65,43208,72,yes,1024
90.4109589,90.4109589,607.1643836,607.1643836,black,legacy,legacy,legacy,0,incongruent,uniform,1,undefined,1,h,0,0,0,72,72,0,72,72,0,0,0,72,72,72,72,0,Sun Sep 29 16:38:08 2019,1500,The main experiment item,yes,FlankerTest.osexp,/Users/Linzi/Desktop,no,mono,no,18,no,white,no,yes,768,legacy,72,72,/Users/Linzi/Desktop/LM-subject-4f20.csv,legacy,Kafkaesque Koffka,3.2.8,0,h,NA,s,NA,NA,h,1115,NA,91740,NA,NA,1115,2,legacy,1024,2,48000,-16,experiment,SSHSS,4,even,97625,NA,NA,234535,NA,NA,247266,246007,5866,NA,NA,247393,248514,247240,247393,5833,Flanker Test,66,44323,73,yes,1024
90.54054054,90.54054054,611.7162162,611.7162162,black,legacy,legacy,legacy,0,incongruent,uniform,1,undefined,1,s,0,0,0,73,73,0,73,73,0,0,0,73,73,73,73,0,Sun Sep 29 16:38:08 2019,1500,The main experiment item,yes,FlankerTest.osexp,/Users/Linzi/Desktop,no,mono,no,18,no,white,no,yes,768,legacy,73,73,/Users/Linzi/Desktop/LM-subject-4f20.csv,legacy,Kafkaesque Koffka,3.2.8,0,s,NA,s,NA,NA,s,944,NA,91740,NA,NA,944,2,legacy,1024,2,48000,-16,experiment,HHSHH,4,even,97625,NA,NA,234535,NA,NA,249806,248545,5866,NA,NA,249933,250883,249780,249933,5833,Flanker Test,67,45267,74,yes,1024
90.66666667,90.66666667,618.36,618.36,black,legacy,legacy,legacy,0,incongruent,uniform,1,undefined,1,h,0,0,0,74,74,0,74,74,0,0,0,74,74,74,74,0,Sun Sep 29 16:38:08 2019,1500,The main experiment item,yes,FlankerTest.osexp,/Users/Linzi/Desktop,no,mono,no,18,no,white,no,yes,768,legacy,74,74,/Users/Linzi/Desktop/LM-subject-4f20.csv,legacy,Kafkaesque Koffka,3.2.8,0,h,NA,s,NA,NA,h,1110,NA,91740,NA,NA,1110,2,legacy,1024,2,48000,-16,experiment,SSHSS,4,even,97625,NA,NA,234535,NA,NA,252172,250915,5866,NA,NA,252299,253415,252145,252299,5833,Flanker Test,68,46377,75,yes,1024
90.78947368,90.78947368,617.6315789,617.6315789,black,legacy,legacy,legacy,0,incongruent,uniform,1,undefined,1,h,0,0,0,75,75,0,75,75,0,0,0,75,75,75,75,0,Sun Sep 29 16:38:08 2019,1500,The main experiment item,yes,FlankerTest.osexp,/Users/Linzi/Desktop,no,mono,no,18,no,white,no,yes,768,legacy,75,75,/Users/Linzi/Desktop/LM-subject-4f20.csv,legacy,Kafkaesque Koffka,3.2.8,0,h,NA,s,NA,NA,h,563,NA,91740,NA,NA,563,2,legacy,1024,2,48000,-16,experiment,SSHSS,4,even,97625,NA,NA,234535,NA,NA,254706,253447,5866,NA,NA,254833,255402,254679,254833,5833,Flanker Test,69,46940,76,yes,1024
90.90909091,90.90909091,616.3246753,616.3246753,black,legacy,legacy,legacy,0,incongruent,uniform,1,undefined,1,h,0,0,0,76,76,0,76,76,0,0,0,76,76,76,76,0,Sun Sep 29 16:38:08 2019,1500,The main experiment item,yes,FlankerTest.osexp,/Users/Linzi/Desktop,no,mono,no,18,no,white,no,yes,768,legacy,76,76,/Users/Linzi/Desktop/LM-subject-4f20.csv,legacy,Kafkaesque Koffka,3.2.8,0,h,NA,s,NA,NA,h,517,NA,91740,NA,NA,517,2,legacy,1024,2,48000,-16,experiment,SSHSS,4,even,97625,NA,NA,234535,NA,NA,256692,255433,5866,NA,NA,256819,257342,256665,256819,5833,Flanker Test,70,47457,77,yes,1024
91.02564103,91.02564103,615.4487179,615.4487179,black,legacy,legacy,legacy,0,congruent,uniform,1,undefined,1,h,0,0,0,77,77,0,77,77,0,0,0,77,77,77,77,0,Sun Sep 29 16:38:08 2019,1500,The main experiment item,yes,FlankerTest.osexp,/Users/Linzi/Desktop,no,mono,no,18,no,white,no,yes,768,legacy,77,77,/Users/Linzi/Desktop/LM-subject-4f20.csv,legacy,Kafkaesque Koffka,3.2.8,0,h,NA,s,NA,NA,h,548,NA,91740,NA,NA,548,2,legacy,1024,2,48000,-16,experiment,HHHHH,4,even,97625,NA,NA,234535,NA,NA,258634,257374,5866,NA,NA,258761,259315,258607,258760,5833,Flanker Test,71,48005,78,yes,1024
91.13924051,91.13924051,616.0126582,616.0126582,black,legacy,legacy,legacy,0,incongruent,uniform,1,undefined,1,h,0,0,0,78,78,0,78,78,0,0,0,78,78,78,78,0,Sun Sep 29 16:38:08 2019,1500,The main experiment item,yes,FlankerTest.osexp,/Users/Linzi/Desktop,no,mono,no,18,no,white,no,yes,768,legacy,78,78,/Users/Linzi/Desktop/LM-subject-4f20.csv,legacy,Kafkaesque Koffka,3.2.8,0,h,NA,s,NA,NA,h,660,NA,91740,NA,NA,660,2,legacy,1024,2,48000,-16,experiment,SSHSS,4,even,97625,NA,NA,234535,NA,NA,260605,259347,5866,NA,NA,260731,261397,260578,260731,5833,Flanker Test,72,48665,79,yes,1024
91.25,91.25,615.2125,615.2125,black,legacy,legacy,legacy,0,congruent,uniform,1,undefined,1,h,0,0,0,79,79,0,79,79,0,0,0,79,79,79,79,0,Sun Sep 29 16:38:08 2019,1500,The main experiment item,yes,FlankerTest.osexp,/Users/Linzi/Desktop,no,mono,no,18,no,white,no,yes,768,legacy,79,79,/Users/Linzi/Desktop/LM-subject-4f20.csv,legacy,Kafkaesque Koffka,3.2.8,0,h,NA,s,NA,NA,h,552,NA,91740,NA,NA,552,2,legacy,1024,2,48000,-16,experiment,HHHHH,4,even,97625,NA,NA,234535,NA,NA,262687,261428,5866,NA,NA,262813,263371,262660,262813,5833,Flanker Test,73,49217,80,yes,1024
91.35802469,91.35802469,618.1358025,618.1358025,black,legacy,legacy,legacy,0,incongruent,uniform,1,undefined,1,s,0,0,0,80,80,0,80,80,0,0,0,80,80,80,80,0,Sun Sep 29 16:38:08 2019,600,The main experiment item,yes,FlankerTest.osexp,/Users/Linzi/Desktop,no,mono,no,18,no,white,no,yes,768,legacy,0,79,/Users/Linzi/Desktop/LM-subject-4f20.csv,legacy,Kafkaesque Koffka,3.2.8,0,s,NA,s,h,NA,s,852,NA,91740,11392,NA,852,2,legacy,1024,2,48000,-16,experiment,HHSHH,4,even,97625,275876,NA,234535,NA,NA,276118,263402,5866,264478,NA,276245,277104,276091,276245,5833,Flanker Test,74,50069,81,yes,1024
91.46341463,91.46341463,616.6219512,616.6219512,black,legacy,legacy,legacy,0,congruent,uniform,1,undefined,1,h,0,0,0,81,81,0,81,81,0,0,0,81,81,81,81,0,Sun Sep 29 16:38:08 2019,600,The main experiment item,yes,FlankerTest.osexp,/Users/Linzi/Desktop,no,mono,no,18,no,white,no,yes,768,legacy,1,79,/Users/Linzi/Desktop/LM-subject-4f20.csv,legacy,Kafkaesque Koffka,3.2.8,0,h,NA,s,h,NA,h,494,NA,91740,11392,NA,494,2,legacy,1024,2,48000,-16,experiment,HHHHH,4,even,97625,275876,NA,234535,277135,NA,278921,277661,5866,264478,NA,279047,279547,278895,279047,5833,Flanker Test,75,50563,82,yes,1024
91.56626506,91.56626506,615.4457831,615.4457831,black,legacy,legacy,legacy,0,incongruent,uniform,1,undefined,1,s,0,0,0,82,82,0,82,82,0,0,0,82,82,82,82,0,Sun Sep 29 16:38:08 2019,600,The main experiment item,yes,FlankerTest.osexp,/Users/Linzi/Desktop,no,mono,no,18,no,white,no,yes,768,legacy,2,79,/Users/Linzi/Desktop/LM-subject-4f20.csv,legacy,Kafkaesque Koffka,3.2.8,0,s,NA,s,h,NA,s,519,NA,91740,11392,NA,519,2,legacy,1024,2,48000,-16,experiment,HHSHH,4,even,97625,275876,NA,234535,277135,NA,280840,279579,5866,264478,NA,280967,281492,280813,280966,5833,Flanker Test,76,51082,83,yes,1024
91.66666667,91.66666667,613.3928571,613.3928571,black,legacy,legacy,legacy,0,congruent,uniform,1,undefined,1,s,0,0,0,83,83,0,83,83,0,0,0,83,83,83,83,0,Sun Sep 29 16:38:08 2019,600,The main experiment item,yes,FlankerTest.osexp,/Users/Linzi/Desktop,no,mono,no,18,no,white,no,yes,768,legacy,3,79,/Users/Linzi/Desktop/LM-subject-4f20.csv,legacy,Kafkaesque Koffka,3.2.8,0,s,NA,s,h,NA,s,443,NA,91740,11392,NA,443,2,legacy,1024,2,48000,-16,experiment,SSSSS,4,even,97625,275876,NA,234535,277135,NA,282782,281525,5866,264478,NA,282909,283358,282755,282908,5833,Flanker Test,77,51525,84,yes,1024
91.76470588,91.76470588,612.1058824,612.1058824,black,legacy,legacy,legacy,0,incongruent,uniform,1,undefined,1,h,0,0,0,84,84,0,84,84,0,0,0,84,84,84,84,0,Sun Sep 29 16:38:08 2019,600,The main experiment item,yes,FlankerTest.osexp,/Users/Linzi/Desktop,no,mono,no,18,no,white,no,yes,768,legacy,4,79,/Users/Linzi/Desktop/LM-subject-4f20.csv,legacy,Kafkaesque Koffka,3.2.8,0,h,NA,s,h,NA,h,504,NA,91740,11392,NA,504,2,legacy,1024,2,48000,-16,experiment,SSHSS,4,even,97625,275876,NA,234535,277135,NA,284647,283390,5866,264478,NA,284774,285284,284620,284774,5833,Flanker Test,78,52029,85,yes,1024
91.86046512,91.86046512,611.5813953,611.5813953,black,legacy,legacy,legacy,0,incongruent,uniform,1,undefined,1,s,0,0,0,85,85,0,85,85,0,0,0,85,85,85,85,0,Sun Sep 29 16:38:08 2019,600,The main experiment item,yes,FlankerTest.osexp,/Users/Linzi/Desktop,no,mono,no,18,no,white,no,yes,768,legacy,5,79,/Users/Linzi/Desktop/LM-subject-4f20.csv,legacy,Kafkaesque Koffka,3.2.8,0,s,NA,s,h,NA,s,567,NA,91740,11392,NA,567,2,legacy,1024,2,48000,-16,experiment,HHSHH,4,even,97625,275876,NA,234535,277135,NA,286576,285315,5866,264478,NA,286703,287276,286550,286702,5833,Flanker Test,79,52596,86,yes,1024
91.95402299,91.95402299,611.0574713,611.0574713,black,legacy,legacy,legacy,0,congruent,uniform,1,undefined,1,s,0,0,0,86,86,0,86,86,0,0,0,86,86,86,86,0,Sun Sep 29 16:38:08 2019,600,The main experiment item,yes,FlankerTest.osexp,/Users/Linzi/Desktop,no,mono,no,18,no,white,no,yes,768,legacy,6,79,/Users/Linzi/Desktop/LM-subject-4f20.csv,legacy,Kafkaesque Koffka,3.2.8,0,s,NA,s,h,NA,s,566,NA,91740,11392,NA,566,2,legacy,1024,2,48000,-16,experiment,SSSSS,4,even,97625,275876,NA,234535,277135,NA,288563,287307,5866,264478,NA,288691,289263,288537,288691,5833,Flanker Test,80,53162,87,yes,1024
92.04545455,92.04545455,609.8068182,609.8068182,black,legacy,legacy,legacy,0,congruent,uniform,1,undefined,1,h,0,0,0,87,87,0,87,87,0,0,0,87,87,87,87,0,Sun Sep 29 16:38:08 2019,600,The main experiment item,yes,FlankerTest.osexp,/Users/Linzi/Desktop,no,mono,no,18,no,white,no,yes,768,legacy,7,79,/Users/Linzi/Desktop/LM-subject-4f20.csv,legacy,Kafkaesque Koffka,3.2.8,0,h,NA,s,h,NA,h,501,NA,91740,11392,NA,501,2,legacy,1024,2,48000,-16,experiment,HHHHH,4,even,97625,275876,NA,234535,277135,NA,290554,289294,5866,264478,NA,290680,291187,290528,290680,5833,Flanker Test,81,53663,88,yes,1024
92.13483146,92.13483146,608.1573034,608.1573034,black,legacy,legacy,legacy,0,congruent,uniform,1,undefined,1,h,0,0,0,88,88,0,88,88,0,0,0,88,88,88,88,0,Sun Sep 29 16:38:08 2019,600,The main experiment item,yes,FlankerTest.osexp,/Users/Linzi/Desktop,no,mono,no,18,no,white,no,yes,768,legacy,8,79,/Users/Linzi/Desktop/LM-subject-4f20.csv,legacy,Kafkaesque Koffka,3.2.8,0,h,NA,s,h,NA,h,463,NA,91740,11392,NA,463,2,legacy,1024,2,48000,-16,experiment,HHHHH,4,even,97625,275876,NA,234535,277135,NA,292481,291220,5866,264478,NA,292608,293077,292454,292608,5833,Flanker Test,82,54126,89,yes,1024
92.22222222,92.22222222,606.8222222,606.8222222,black,legacy,legacy,legacy,0,incongruent,uniform,1,undefined,1,s,0,0,0,89,89,0,89,89,0,0,0,89,89,89,89,0,Sun Sep 29 16:38:08 2019,600,The main experiment item,yes,FlankerTest.osexp,/Users/Linzi/Desktop,no,mono,no,18,no,white,no,yes,768,legacy,9,79,/Users/Linzi/Desktop/LM-subject-4f20.csv,legacy,Kafkaesque Koffka,3.2.8,0,s,NA,s,h,NA,s,488,NA,91740,11392,NA,488,2,legacy,1024,2,48000,-16,experiment,HHSHH,4,even,97625,275876,NA,234535,277135,NA,294369,293108,5866,264478,NA,294496,294990,294343,294496,5833,Flanker Test,83,54614,90,yes,1024
92.30769231,92.30769231,604.989011,604.989011,black,legacy,legacy,legacy,0,incongruent,uniform,1,undefined,1,h,0,0,0,90,90,0,90,90,0,0,0,90,90,90,90,0,Sun Sep 29 16:38:08 2019,600,The main experiment item,yes,FlankerTest.osexp,/Users/Linzi/Desktop,no,mono,no,18,no,white,no,yes,768,legacy,10,79,/Users/Linzi/Desktop/LM-subject-4f20.csv,legacy,Kafkaesque Koffka,3.2.8,0,h,NA,s,h,NA,h,440,NA,91740,11392,NA,440,2,legacy,1024,2,48000,-16,experiment,SSHSS,4,even,97625,275876,NA,234535,277135,NA,296282,295020,5866,264478,NA,296408,296854,296254,296408,5833,Flanker Test,84,55054,91,yes,1024
92.39130435,92.39130435,603.2065217,603.2065217,black,legacy,legacy,legacy,0,congruent,uniform,1,undefined,1,h,0,0,0,91,91,0,91,91,0,0,0,91,91,91,91,0,Sun Sep 29 16:38:08 2019,600,The main experiment item,yes,FlankerTest.osexp,/Users/Linzi/Desktop,no,mono,no,18,no,white,no,yes,768,legacy,11,79,/Users/Linzi/Desktop/LM-subject-4f20.csv,legacy,Kafkaesque Koffka,3.2.8,0,h,NA,s,h,NA,h,441,NA,91740,11392,NA,441,2,legacy,1024,2,48000,-16,experiment,HHHHH,4,even,97625,275876,NA,234535,277135,NA,298143,296886,5866,264478,NA,298271,298718,298117,298270,5833,Flanker Test,85,55495,92,yes,1024
92.47311828,92.47311828,602.8387097,602.8387097,black,legacy,legacy,legacy,0,incongruent,uniform,1,undefined,1,s,0,0,0,92,92,0,92,92,0,0,0,92,92,92,92,0,Sun Sep 29 16:38:08 2019,600,The main experiment item,yes,FlankerTest.osexp,/Users/Linzi/Desktop,no,mono,no,18,no,white,no,yes,768,legacy,12,79,/Users/Linzi/Desktop/LM-subject-4f20.csv,legacy,Kafkaesque Koffka,3.2.8,0,s,NA,s,h,NA,s,569,NA,91740,11392,NA,569,2,legacy,1024,2,48000,-16,experiment,HHSHH,4,even,97625,275876,NA,234535,277135,NA,300012,298750,5866,264478,NA,300139,300714,299986,300139,5833,Flanker Test,86,56064,93,yes,1024
92.55319149,92.55319149,600.6276596,600.6276596,black,legacy,legacy,legacy,0,congruent,uniform,1,undefined,1,s,0,0,0,93,93,0,93,93,0,0,0,93,93,93,93,0,Sun Sep 29 16:38:08 2019,600,The main experiment item,yes,FlankerTest.osexp,/Users/Linzi/Desktop,no,mono,no,18,no,white,no,yes,768,legacy,13,79,/Users/Linzi/Desktop/LM-subject-4f20.csv,legacy,Kafkaesque Koffka,3.2.8,0,s,NA,s,h,NA,s,395,NA,91740,11392,NA,395,2,legacy,1024,2,48000,-16,experiment,SSSSS,4,even,97625,275876,NA,234535,277135,NA,302008,300745,5866,264478,NA,302134,302535,301983,302134,5833,Flanker Test,87,56459,94,yes,1024
92.63157895,92.63157895,599.7684211,599.7684211,black,legacy,legacy,legacy,0,incongruent,uniform,1,undefined,1,s,0,0,0,94,94,0,94,94,0,0,0,94,94,94,94,0,Sun Sep 29 16:38:08 2019,600,The main experiment item,yes,FlankerTest.osexp,/Users/Linzi/Desktop,no,mono,no,18,no,white,no,yes,768,legacy,14,79,/Users/Linzi/Desktop/LM-subject-4f20.csv,legacy,Kafkaesque Koffka,3.2.8,0,s,NA,s,h,NA,s,519,NA,91740,11392,NA,519,2,legacy,1024,2,48000,-16,experiment,HHSHH,4,even,97625,275876,NA,234535,277135,NA,303825,302566,5866,264478,NA,303951,304476,303799,303951,5833,Flanker Test,88,56978,95,yes,1024
92.70833333,92.70833333,598.0208333,598.0208333,black,legacy,legacy,legacy,0,congruent,uniform,1,undefined,1,s,0,0,0,95,95,0,95,95,0,0,0,95,95,95,95,0,Sun Sep 29 16:38:08 2019,600,The main experiment item,yes,FlankerTest.osexp,/Users/Linzi/Desktop,no,mono,no,18,no,white,no,yes,768,legacy,15,79,/Users/Linzi/Desktop/LM-subject-4f20.csv,legacy,Kafkaesque Koffka,3.2.8,0,s,NA,s,h,NA,s,432,NA,91740,11392,NA,432,2,legacy,1024,2,48000,-16,experiment,SSSSS,4,even,97625,275876,NA,234535,277135,NA,305765,304508,5866,264478,NA,305892,306330,305738,305891,5833,Flanker Test,89,57410,96,yes,1024
91.75257732,91.75257732,595.3608247,595.3608247,black,legacy,legacy,legacy,0,incongruent,uniform,0,undefined,0,s,0,0,0,96,96,0,96,96,0,0,0,96,96,96,96,0,Sun Sep 29 16:38:08 2019,600,The main experiment item,yes,FlankerTest.osexp,/Users/Linzi/Desktop,no,mono,no,18,no,white,no,yes,768,legacy,16,79,/Users/Linzi/Desktop/LM-subject-4f20.csv,legacy,Kafkaesque Koffka,3.2.8,0,h,NA,s,h,NA,h,340,NA,91740,11392,NA,340,2,legacy,1024,2,48000,-16,experiment,HHSHH,4,even,97625,275876,NA,234535,277135,NA,307624,306362,5866,264478,NA,307750,308096,307597,307750,5833,Flanker Test,89,57750,97,yes,1024
91.83673469,91.83673469,594.9081633,594.9081633,black,legacy,legacy,legacy,0,incongruent,uniform,1,undefined,1,s,0,0,0,97,97,0,97,97,0,0,0,97,97,97,97,0,Sun Sep 29 16:38:08 2019,600,The main experiment item,yes,FlankerTest.osexp,/Users/Linzi/Desktop,no,mono,no,18,no,white,no,yes,768,legacy,17,79,/Users/Linzi/Desktop/LM-subject-4f20.csv,legacy,Kafkaesque Koffka,3.2.8,0,s,NA,s,h,NA,s,551,NA,91740,11392,NA,551,2,legacy,1024,2,48000,-16,experiment,HHSHH,4,even,97625,275876,NA,308127,277135,NA,309916,308655,5866,264478,NA,310042,310599,309890,310042,5833,Flanker Test,90,58301,98,yes,1024
91.91919192,91.91919192,593.9292929,593.9292929,black,legacy,legacy,legacy,0,congruent,uniform,1,undefined,1,h,0,0,0,98,98,0,98,98,0,0,0,98,98,98,98,0,Sun Sep 29 16:38:08 2019,600,The main experiment item,yes,FlankerTest.osexp,/Users/Linzi/Desktop,no,mono,no,18,no,white,no,yes,768,legacy,18,79,/Users/Linzi/Desktop/LM-subject-4f20.csv,legacy,Kafkaesque Koffka,3.2.8,0,h,NA,s,h,NA,h,498,NA,91740,11392,NA,498,2,legacy,1024,2,48000,-16,experiment,HHHHH,4,even,97625,275876,NA,308127,277135,NA,311888,310630,5866,264478,NA,312014,312518,311861,312014,5833,Flanker Test,91,58799,99,yes,1024
92,92,592.65,592.65,black,legacy,legacy,legacy,0,congruent,uniform,1,undefined,1,h,0,0,0,99,99,0,99,99,0,0,0,99,99,99,99,0,Sun Sep 29 16:38:08 2019,600,The main experiment item,yes,FlankerTest.osexp,/Users/Linzi/Desktop,no,mono,no,18,no,white,no,yes,768,legacy,19,79,/Users/Linzi/Desktop/LM-subject-4f20.csv,legacy,Kafkaesque Koffka,3.2.8,0,h,NA,s,h,NA,h,466,NA,91740,11392,NA,466,2,legacy,1024,2,48000,-16,experiment,HHHHH,4,even,97625,275876,NA,308127,277135,NA,313806,312549,5866,264478,NA,313933,314405,313779,313932,5833,Flanker Test,92,59265,100,yes,1024
92.07920792,92.07920792,591,591,black,legacy,legacy,legacy,0,congruent,uniform,1,undefined,1,h,0,0,0,100,100,0,100,100,0,0,0,100,100,100,100,0,Sun Sep 29 16:38:08 2019,600,The main experiment item,yes,FlankerTest.osexp,/Users/Linzi/Desktop,no,mono,no,18,no,white,no,yes,768,legacy,20,79,/Users/Linzi/Desktop/LM-subject-4f20.csv,legacy,Kafkaesque Koffka,3.2.8,0,h,NA,s,h,NA,h,426,NA,91740,11392,NA,426,2,legacy,1024,2,48000,-16,experiment,HHHHH,4,even,97625,275876,NA,308127,277135,NA,315699,314436,5866,264478,NA,315825,316257,315672,315825,5833,Flanker Test,93,59691,101,yes,1024
92.15686275,92.15686275,590.0490196,590.0490196,black,legacy,legacy,legacy,0,incongruent,uniform,1,undefined,1,s,0,0,0,101,101,0,101,101,0,0,0,101,101,101,101,0,Sun Sep 29 16:38:08 2019,600,The main experiment item,yes,FlankerTest.osexp,/Users/Linzi/Desktop,no,mono,no,18,no,white,no,yes,768,legacy,21,79,/Users/Linzi/Desktop/LM-subject-4f20.csv,legacy,Kafkaesque Koffka,3.2.8,0,s,NA,s,h,NA,s,494,NA,91740,11392,NA,494,2,legacy,1024,2,48000,-16,experiment,HHSHH,4,even,97625,275876,NA,308127,277135,NA,317547,316288,5866,264478,NA,317675,318175,317521,317674,5833,Flanker Test,94,60185,102,yes,1024
92.23300971,92.23300971,588.8543689,588.8543689,black,legacy,legacy,legacy,0,congruent,uniform,1,undefined,1,h,0,0,0,102,102,0,102,102,0,0,0,102,102,102,102,0,Sun Sep 29 16:38:08 2019,600,The main experiment item,yes,FlankerTest.osexp,/Users/Linzi/Desktop,no,mono,no,18,no,white,no,yes,768,legacy,22,79,/Users/Linzi/Desktop/LM-subject-4f20.csv,legacy,Kafkaesque Koffka,3.2.8,0,h,NA,s,h,NA,h,467,NA,91740,11392,NA,467,2,legacy,1024,2,48000,-16,experiment,HHHHH,4,even,97625,275876,NA,308127,277135,NA,319467,318207,5866,264478,NA,319594,320068,319440,319594,5833,Flanker Test,95,60652,103,yes,1024
91.34615385,91.34615385,587.9423077,587.9423077,black,legacy,legacy,legacy,0,incongruent,uniform,0,undefined,0,h,0,0,0,103,103,0,103,103,0,0,0,103,103,103,103,0,Sun Sep 29 16:38:08 2019,600,The main experiment item,yes,FlankerTest.osexp,/Users/Linzi/Desktop,no,mono,no,18,no,white,no,yes,768,legacy,23,79,/Users/Linzi/Desktop/LM-subject-4f20.csv,legacy,Kafkaesque Koffka,3.2.8,0,s,NA,s,h,NA,s,494,NA,91740,11392,NA,494,2,legacy,1024,2,48000,-16,experiment,SSHSS,4,even,97625,275876,NA,308127,277135,NA,321358,320100,5866,264478,NA,321484,321985,321331,321484,5833,Flanker Test,95,61146,104,yes,1024
91.42857143,91.42857143,587.4666667,587.4666667,black,legacy,legacy,legacy,0,incongruent,uniform,1,undefined,1,s,0,0,0,104,104,0,104,104,0,0,0,104,104,104,104,0,Sun Sep 29 16:38:08 2019,600,The main experiment item,yes,FlankerTest.osexp,/Users/Linzi/Desktop,no,mono,no,18,no,white,no,yes,768,legacy,24,79,/Users/Linzi/Desktop/LM-subject-4f20.csv,legacy,Kafkaesque Koffka,3.2.8,0,s,NA,s,h,NA,s,538,NA,91740,11392,NA,538,2,legacy,1024,2,48000,-16,experiment,HHSHH,4,even,97625,275876,NA,322015,277135,NA,323800,322541,5866,264478,NA,323927,324472,323773,323926,5833,Flanker Test,96,61684,105,yes,1024
91.50943396,91.50943396,586.9056604,586.9056604,black,legacy,legacy,legacy,0,congruent,uniform,1,undefined,1,s,0,0,0,105,105,0,105,105,0,0,0,105,105,105,105,0,Sun Sep 29 16:38:08 2019,600,The main experiment item,yes,FlankerTest.osexp,/Users/Linzi/Desktop,no,mono,no,18,no,white,no,yes,768,legacy,25,79,/Users/Linzi/Desktop/LM-subject-4f20.csv,legacy,Kafkaesque Koffka,3.2.8,0,s,NA,s,h,NA,s,528,NA,91740,11392,NA,528,2,legacy,1024,2,48000,-16,experiment,SSSSS,4,even,97625,275876,NA,322015,277135,NA,325762,324503,5866,264478,NA,325889,326424,325735,325889,5833,Flanker Test,97,62212,106,yes,1024
91.58878505,91.58878505,585.6635514,585.6635514,black,legacy,legacy,legacy,0,congruent,uniform,1,undefined,1,h,0,0,0,106,106,0,106,106,0,0,0,106,106,106,106,0,Sun Sep 29 16:38:08 2019,600,The main experiment item,yes,FlankerTest.osexp,/Users/Linzi/Desktop,no,mono,no,18,no,white,no,yes,768,legacy,26,79,/Users/Linzi/Desktop/LM-subject-4f20.csv,legacy,Kafkaesque Koffka,3.2.8,0,h,NA,s,h,NA,h,454,NA,91740,11392,NA,454,2,legacy,1024,2,48000,-16,experiment,HHHHH,4,even,97625,275876,NA,322015,277135,NA,327719,326456,5866,264478,NA,327846,328307,327692,327846,5833,Flanker Test,98,62666,107,yes,1024
91.66666667,91.66666667,584.4722222,584.4722222,black,legacy,legacy,legacy,0,congruent,uniform,1,undefined,1,s,0,0,0,107,107,0,107,107,0,0,0,107,107,107,107,0,Sun Sep 29 16:38:08 2019,600,The main experiment item,yes,FlankerTest.osexp,/Users/Linzi/Desktop,no,mono,no,18,no,white,no,yes,768,legacy,27,79,/Users/Linzi/Desktop/LM-subject-4f20.csv,legacy,Kafkaesque Koffka,3.2.8,0,s,NA,s,h,NA,s,457,NA,91740,11392,NA,457,2,legacy,1024,2,48000,-16,experiment,SSSSS,4,even,97625,275876,NA,322015,277135,NA,329603,328338,5866,264478,NA,329730,330194,329575,329729,5833,Flanker Test,99,63123,108,yes,1024
91.74311927,91.74311927,583.6330275,583.6330275,black,legacy,legacy,legacy,0,congruent,uniform,1,undefined,1,h,0,0,0,108,108,0,108,108,0,0,0,108,108,108,108,0,Sun Sep 29 16:38:08 2019,600,The main experiment item,yes,FlankerTest.osexp,/Users/Linzi/Desktop,no,mono,no,18,no,white,no,yes,768,legacy,28,79,/Users/Linzi/Desktop/LM-subject-4f20.csv,legacy,Kafkaesque Koffka,3.2.8,0,h,NA,s,h,NA,h,493,NA,91740,11392,NA,493,2,legacy,1024,2,48000,-16,experiment,HHHHH,4,even,97625,275876,NA,322015,277135,NA,331486,330226,5866,264478,NA,331613,332113,331460,331613,5833,Flanker Test,100,63616,109,yes,1024
91.81818182,91.81818182,584.5090909,584.5090909,black,legacy,legacy,legacy,0,incongruent,uniform,1,undefined,1,h,0,0,0,109,109,0,109,109,0,0,0,109,109,109,109,0,Sun Sep 29 16:38:08 2019,600,The main experiment item,yes,FlankerTest.osexp,/Users/Linzi/Desktop,no,mono,no,18,no,white,no,yes,768,legacy,29,79,/Users/Linzi/Desktop/LM-subject-4f20.csv,legacy,Kafkaesque Koffka,3.2.8,0,h,NA,s,h,NA,h,680,NA,91740,11392,NA,680,2,legacy,1024,2,48000,-16,experiment,SSHSS,4,even,97625,275876,NA,322015,277135,NA,333403,332144,5866,264478,NA,333530,334217,333376,333530,5833,Flanker Test,101,64296,110,yes,1024
91.89189189,91.89189189,582.7747748,582.7747748,black,legacy,legacy,legacy,0,congruent,uniform,1,undefined,1,h,0,0,0,110,110,0,110,110,0,0,0,110,110,110,110,0,Sun Sep 29 16:38:08 2019,600,The main experiment item,yes,FlankerTest.osexp,/Users/Linzi/Desktop,no,mono,no,18,no,white,no,yes,768,legacy,30,79,/Users/Linzi/Desktop/LM-subject-4f20.csv,legacy,Kafkaesque Koffka,3.2.8,0,h,NA,s,h,NA,h,392,NA,91740,11392,NA,392,2,legacy,1024,2,48000,-16,experiment,HHHHH,4,even,97625,275876,NA,322015,334248,NA,336034,334775,5866,264478,NA,336162,336561,336008,336161,5833,Flanker Test,102,64688,111,yes,1024
91.96428571,91.96428571,580.6696429,580.6696429,black,legacy,legacy,legacy,0,congruent,uniform,1,undefined,1,h,0,0,0,111,111,0,111,111,0,0,0,111,111,111,111,0,Sun Sep 29 16:38:08 2019,600,The main experiment item,yes,FlankerTest.osexp,/Users/Linzi/Desktop,no,mono,no,18,no,white,no,yes,768,legacy,31,79,/Users/Linzi/Desktop/LM-subject-4f20.csv,legacy,Kafkaesque Koffka,3.2.8,0,h,NA,s,h,NA,h,347,NA,91740,11392,NA,347,2,legacy,1024,2,48000,-16,experiment,HHHHH,4,even,97625,275876,NA,322015,334248,NA,337854,336593,5866,264478,NA,337980,338334,337827,337980,5833,Flanker Test,103,65035,112,yes,1024
92.03539823,92.03539823,579.0884956,579.0884956,black,legacy,legacy,legacy,0,incongruent,uniform,1,undefined,1,h,0,0,0,112,112,0,112,112,0,0,0,112,112,112,112,0,Sun Sep 29 16:38:08 2019,600,The main experiment item,yes,FlankerTest.osexp,/Users/Linzi/Desktop,no,mono,no,18,no,white,no,yes,768,legacy,32,79,/Users/Linzi/Desktop/LM-subject-4f20.csv,legacy,Kafkaesque Koffka,3.2.8,0,h,NA,s,h,NA,h,402,NA,91740,11392,NA,402,2,legacy,1024,2,48000,-16,experiment,SSHSS,4,even,97625,275876,NA,322015,334248,NA,339625,338365,5866,264478,NA,339752,340161,339597,339752,5833,Flanker Test,104,65437,113,yes,1024
92.10526316,92.10526316,577,577,black,legacy,legacy,legacy,0,congruent,uniform,1,undefined,1,s,0,0,0,113,113,0,113,113,0,0,0,113,113,113,113,0,Sun Sep 29 16:38:08 2019,600,The main experiment item,yes,FlankerTest.osexp,/Users/Linzi/Desktop,no,mono,no,18,no,white,no,yes,768,legacy,33,79,/Users/Linzi/Desktop/LM-subject-4f20.csv,legacy,Kafkaesque Koffka,3.2.8,0,s,NA,s,h,NA,s,341,NA,91740,11392,NA,341,2,legacy,1024,2,48000,-16,experiment,SSSSS,4,even,97625,275876,NA,322015,334248,NA,341450,340193,5866,264478,NA,341577,341925,341423,341576,5833,Flanker Test,105,65778,114,yes,1024
92.17391304,92.17391304,575.6347826,575.6347826,black,legacy,legacy,legacy,0,congruent,uniform,1,undefined,1,s,0,0,0,114,114,0,114,114,0,0,0,114,114,114,114,0,Sun Sep 29 16:38:08 2019,600,The main experiment item,yes,FlankerTest.osexp,/Users/Linzi/Desktop,no,mono,no,18,no,white,no,yes,768,legacy,34,79,/Users/Linzi/Desktop/LM-subject-4f20.csv,legacy,Kafkaesque Koffka,3.2.8,0,s,NA,s,h,NA,s,420,NA,91740,11392,NA,420,2,legacy,1024,2,48000,-16,experiment,SSSSS,4,even,97625,275876,NA,322015,334248,NA,343219,341956,5866,264478,NA,343346,343773,343191,343345,5833,Flanker Test,106,66198,115,yes,1024
92.24137931,92.24137931,574.5,574.5,black,legacy,legacy,legacy,0,congruent,uniform,1,undefined,1,s,0,0,0,115,115,0,115,115,0,0,0,115,115,115,115,0,Sun Sep 29 16:38:08 2019,600,The main experiment item,yes,FlankerTest.osexp,/Users/Linzi/Desktop,no,mono,no,18,no,white,no,yes,768,legacy,35,79,/Users/Linzi/Desktop/LM-subject-4f20.csv,legacy,Kafkaesque Koffka,3.2.8,0,s,NA,s,h,NA,s,444,NA,91740,11392,NA,444,2,legacy,1024,2,48000,-16,experiment,SSSSS,4,even,97625,275876,NA,322015,334248,NA,345066,343804,5866,264478,NA,345194,345645,345039,345193,5833,Flanker Test,107,66642,116,yes,1024
91.45299145,91.45299145,582.4102564,582.4102564,black,legacy,legacy,legacy,0,congruent,uniform,0,undefined,0,s,0,0,0,116,116,0,116,116,0,0,0,116,116,116,116,0,Sun Sep 29 16:38:08 2019,600,The main experiment item,yes,FlankerTest.osexp,/Users/Linzi/Desktop,no,mono,no,18,no,white,no,yes,768,legacy,36,79,/Users/Linzi/Desktop/LM-subject-4f20.csv,legacy,Kafkaesque Koffka,3.2.8,0,None,NA,s,h,NA,None,1500,NA,91740,11392,NA,1500,2,legacy,1024,2,48000,-16,experiment,SSSSS,4,even,97625,275876,NA,322015,334248,NA,346941,345676,5866,264478,NA,347068,348572,346914,347068,5833,Flanker Test,107,68142,117,yes,1024
91.52542373,91.52542373,582.2372881,582.2372881,black,legacy,legacy,legacy,0,incongruent,uniform,1,undefined,1,h,0,0,0,117,117,0,117,117,0,0,0,117,117,117,117,0,Sun Sep 29 16:38:08 2019,600,The main experiment item,yes,FlankerTest.osexp,/Users/Linzi/Desktop,no,mono,no,18,no,white,no,yes,768,legacy,37,79,/Users/Linzi/Desktop/LM-subject-4f20.csv,legacy,Kafkaesque Koffka,3.2.8,0,h,NA,s,h,NA,h,562,NA,91740,11392,NA,562,2,legacy,1024,2,48000,-16,experiment,SSHSS,4,even,97625,275876,NA,348604,349130,NA,350917,349658,5866,264478,NA,351043,351612,350890,351043,5833,Flanker Test,108,68704,118,yes,1024
91.59663866,91.59663866,581.9915966,581.9915966,black,legacy,legacy,legacy,0,incongruent,uniform,1,undefined,1,h,0,0,0,118,118,0,118,118,0,0,0,118,118,118,118,0,Sun Sep 29 16:38:08 2019,600,The main experiment item,yes,FlankerTest.osexp,/Users/Linzi/Desktop,no,mono,no,18,no,white,no,yes,768,legacy,38,79,/Users/Linzi/Desktop/LM-subject-4f20.csv,legacy,Kafkaesque Koffka,3.2.8,0,h,NA,s,h,NA,h,553,NA,91740,11392,NA,553,2,legacy,1024,2,48000,-16,experiment,SSHSS,4,even,97625,275876,NA,348604,349130,NA,352901,351643,5866,264478,NA,353027,353587,352874,353027,5833,Flanker Test,109,69257,119,yes,1024
90.83333333,90.83333333,580.6666667,580.6666667,black,legacy,legacy,legacy,0,incongruent,uniform,0,undefined,0,s,0,0,0,119,119,0,119,119,0,0,0,119,119,119,119,0,Sun Sep 29 16:38:08 2019,600,The main experiment item,yes,FlankerTest.osexp,/Users/Linzi/Desktop,no,mono,no,18,no,white,no,yes,768,legacy,39,79,/Users/Linzi/Desktop/LM-subject-4f20.csv,legacy,Kafkaesque Koffka,3.2.8,0,h,NA,s,h,NA,h,423,NA,91740,11392,NA,423,2,legacy,1024,2,48000,-16,experiment,HHSHH,4,even,97625,275876,NA,348604,349130,NA,354879,353619,5866,264478,NA,355005,355435,354853,355005,5833,Flanker Test,109,69680,120,yes,1024
90.90909091,90.90909091,580.2892562,580.2892562,black,legacy,legacy,legacy,0,incongruent,uniform,1,undefined,1,h,0,0,0,120,120,0,120,120,0,0,0,120,120,120,120,0,Sun Sep 29 16:38:08 2019,600,The main experiment item,yes,FlankerTest.osexp,/Users/Linzi/Desktop,no,mono,no,18,no,white,no,yes,768,legacy,40,79,/Users/Linzi/Desktop/LM-subject-4f20.csv,legacy,Kafkaesque Koffka,3.2.8,0,h,NA,s,h,NA,h,535,NA,91740,11392,NA,535,2,legacy,1024,2,48000,-16,experiment,SSHSS,4,even,97625,275876,NA,355467,349130,NA,357251,355994,5866,264478,NA,357378,357920,357224,357377,5833,Flanker Test,110,70215,121,yes,1024
90.98360656,90.98360656,578.9180328,578.9180328,black,legacy,legacy,legacy,0,incongruent,uniform,1,undefined,1,h,0,0,0,121,121,0,121,121,0,0,0,121,121,121,121,0,Sun Sep 29 16:38:08 2019,600,The main experiment item,yes,FlankerTest.osexp,/Users/Linzi/Desktop,no,mono,no,18,no,white,no,yes,768,legacy,41,79,/Users/Linzi/Desktop/LM-subject-4f20.csv,legacy,Kafkaesque Koffka,3.2.8,0,h,NA,s,h,NA,h,413,NA,91740,11392,NA,413,2,legacy,1024,2,48000,-16,experiment,SSHSS,4,even,97625,275876,NA,355467,349130,NA,359210,357951,5866,264478,NA,359336,359756,359182,359336,5833,Flanker Test,111,70628,122,yes,1024
91.05691057,91.05691057,577.8943089,577.8943089,black,legacy,legacy,legacy,0,incongruent,uniform,1,undefined,1,h,0,0,0,122,122,0,122,122,0,0,0,122,122,122,122,0,Sun Sep 29 16:38:08 2019,600,The main experiment item,yes,FlankerTest.osexp,/Users/Linzi/Desktop,no,mono,no,18,no,white,no,yes,768,legacy,42,79,/Users/Linzi/Desktop/LM-subject-4f20.csv,legacy,Kafkaesque Koffka,3.2.8,0,h,NA,s,h,NA,h,453,NA,91740,11392,NA,453,2,legacy,1024,2,48000,-16,experiment,SSHSS,4,even,97625,275876,NA,355467,349130,NA,361046,359787,5866,264478,NA,361173,361633,361018,361172,5833,Flanker Test,112,71081,123,yes,1024
91.12903226,91.12903226,578.3145161,578.3145161,black,legacy,legacy,legacy,0,incongruent,uniform,1,undefined,1,s,0,0,0,123,123,0,123,123,0,0,0,123,123,123,123,0,Sun Sep 29 16:38:08 2019,600,The main experiment item,yes,FlankerTest.osexp,/Users/Linzi/Desktop,no,mono,no,18,no,white,no,yes,768,legacy,43,79,/Users/Linzi/Desktop/LM-subject-4f20.csv,legacy,Kafkaesque Koffka,3.2.8,0,s,NA,s,h,NA,s,630,NA,91740,11392,NA,630,2,legacy,1024,2,48000,-16,experiment,HHSHH,4,even,97625,275876,NA,355467,349130,NA,362925,361665,5866,264478,NA,363052,363689,362899,363051,5833,Flanker Test,113,71711,124,yes,1024
91.2,91.2,577.44,577.44,black,legacy,legacy,legacy,0,incongruent,uniform,1,undefined,1,s,0,0,0,124,124,0,124,124,0,0,0,124,124,124,124,0,Sun Sep 29 16:38:08 2019,600,The main experiment item,yes,FlankerTest.osexp,/Users/Linzi/Desktop,no,mono,no,18,no,white,no,yes,768,legacy,44,79,/Users/Linzi/Desktop/LM-subject-4f20.csv,legacy,Kafkaesque Koffka,3.2.8,0,s,NA,s,h,NA,s,469,NA,91740,11392,NA,469,2,legacy,1024,2,48000,-16,experiment,HHSHH,4,even,97625,275876,NA,355467,363721,NA,365507,364249,5866,264478,NA,365634,366110,365481,365634,5833,Flanker Test,114,72180,125,yes,1024
90.47619048,90.47619048,576.6587302,576.6587302,black,legacy,legacy,legacy,0,incongruent,uniform,0,undefined,0,h,0,0,0,125,125,0,125,125,0,0,0,125,125,125,125,0,Sun Sep 29 16:38:08 2019,600,The main experiment item,yes,FlankerTest.osexp,/Users/Linzi/Desktop,no,mono,no,18,no,white,no,yes,768,legacy,45,79,/Users/Linzi/Desktop/LM-subject-4f20.csv,legacy,Kafkaesque Koffka,3.2.8,0,s,NA,s,h,NA,s,479,NA,91740,11392,NA,479,2,legacy,1024,2,48000,-16,experiment,SSHSS,4,even,97625,275876,NA,355467,363721,NA,367401,366143,5866,264478,NA,367529,368015,367375,367528,5833,Flanker Test,114,72659,126,yes,1024
90.5511811,90.5511811,575.3464567,575.3464567,black,legacy,legacy,legacy,0,congruent,uniform,1,undefined,1,s,0,0,0,126,126,0,126,126,0,0,0,126,126,126,126,0,Sun Sep 29 16:38:08 2019,600,The main experiment item,yes,FlankerTest.osexp,/Users/Linzi/Desktop,no,mono,no,18,no,white,no,yes,768,legacy,46,79,/Users/Linzi/Desktop/LM-subject-4f20.csv,legacy,Kafkaesque Koffka,3.2.8,0,s,NA,s,h,NA,s,410,NA,91740,11392,NA,410,2,legacy,1024,2,48000,-16,experiment,SSSSS,4,even,97625,275876,NA,368046,363721,NA,369832,368574,5866,264478,NA,369959,370376,369805,369958,5833,Flanker Test,115,73069,127,yes,1024
90.625,90.625,574.3984375,574.3984375,black,legacy,legacy,legacy,0,congruent,uniform,1,undefined,1,h,0,0,0,127,127,0,127,127,0,0,0,127,127,127,127,0,Sun Sep 29 16:38:08 2019,600,The main experiment item,yes,FlankerTest.osexp,/Users/Linzi/Desktop,no,mono,no,18,no,white,no,yes,768,legacy,47,79,/Users/Linzi/Desktop/LM-subject-4f20.csv,legacy,Kafkaesque Koffka,3.2.8,0,h,NA,s,h,NA,h,454,NA,91740,11392,NA,454,2,legacy,1024,2,48000,-16,experiment,HHHHH,4,even,97625,275876,NA,368046,363721,NA,371667,370408,5866,264478,NA,371795,372256,371639,371794,5833,Flanker Test,116,73523,128,yes,1024
90.69767442,90.69767442,573.5968992,573.5968992,black,legacy,legacy,legacy,0,congruent,uniform,1,undefined,1,h,0,0,0,128,128,0,128,128,0,0,0,128,128,128,128,0,Sun Sep 29 16:38:08 2019,600,The main experiment item,yes,FlankerTest.osexp,/Users/Linzi/Desktop,no,mono,no,18,no,white,no,yes,768,legacy,48,79,/Users/Linzi/Desktop/LM-subject-4f20.csv,legacy,Kafkaesque Koffka,3.2.8,0,h,NA,s,h,NA,h,471,NA,91740,11392,NA,471,2,legacy,1024,2,48000,-16,experiment,HHHHH,4,even,97625,275876,NA,368046,363721,NA,373547,372288,5866,264478,NA,373673,374151,373521,373673,5833,Flanker Test,117,73994,129,yes,1024
90.76923077,90.76923077,573.3,573.3,black,legacy,legacy,legacy,0,incongruent,uniform,1,undefined,1,h,0,0,0,129,129,0,129,129,0,0,0,129,129,129,129,0,Sun Sep 29 16:38:08 2019,600,The main experiment item,yes,FlankerTest.osexp,/Users/Linzi/Desktop,no,mono,no,18,no,white,no,yes,768,legacy,49,79,/Users/Linzi/Desktop/LM-subject-4f20.csv,legacy,Kafkaesque Koffka,3.2.8,0,h,NA,s,h,NA,h,535,NA,91740,11392,NA,535,2,legacy,1024,2,48000,-16,experiment,SSHSS,4,even,97625,275876,NA,368046,363721,NA,375444,374183,5866,264478,NA,375571,376113,375417,375570,5833,Flanker Test,118,74529,130,yes,1024
90.83969466,90.83969466,572.6946565,572.6946565,black,legacy,legacy,legacy,0,incongruent,uniform,1,undefined,1,s,0,0,0,130,130,0,130,130,0,0,0,130,130,130,130,0,Sun Sep 29 16:38:08 2019,600,The main experiment item,yes,FlankerTest.osexp,/Users/Linzi/Desktop,no,mono,no,18,no,white,no,yes,768,legacy,50,79,/Users/Linzi/Desktop/LM-subject-4f20.csv,legacy,Kafkaesque Koffka,3.2.8,0,s,NA,s,h,NA,s,494,NA,91740,11392,NA,494,2,legacy,1024,2,48000,-16,experiment,HHSHH,4,even,97625,275876,NA,368046,363721,NA,377405,376145,5866,264478,NA,377532,378033,377378,377532,5833,Flanker Test,119,75023,131,yes,1024
90.90909091,90.90909091,571.2727273,571.2727273,black,legacy,legacy,legacy,0,congruent,uniform,1,undefined,1,h,0,0,0,131,131,0,131,131,0,0,0,131,131,131,131,0,Sun Sep 29 16:38:08 2019,600,The main experiment item,yes,FlankerTest.osexp,/Users/Linzi/Desktop,no,mono,no,18,no,white,no,yes,768,legacy,51,79,/Users/Linzi/Desktop/LM-subject-4f20.csv,legacy,Kafkaesque Koffka,3.2.8,0,h,NA,s,h,NA,h,385,NA,91740,11392,NA,385,2,legacy,1024,2,48000,-16,experiment,HHHHH,4,even,97625,275876,NA,368046,363721,NA,379328,378065,5866,264478,NA,379455,379847,379302,379454,5833,Flanker Test,120,75408,132,yes,1024
90.97744361,90.97744361,570.3308271,570.3308271,black,legacy,legacy,legacy,0,congruent,uniform,1,undefined,1,h,0,0,0,132,132,0,132,132,0,0,0,132,132,132,132,0,Sun Sep 29 16:38:08 2019,600,The main experiment item,yes,FlankerTest.osexp,/Users/Linzi/Desktop,no,mono,no,18,no,white,no,yes,768,legacy,52,79,/Users/Linzi/Desktop/LM-subject-4f20.csv,legacy,Kafkaesque Koffka,3.2.8,0,h,NA,s,h,NA,h,446,NA,91740,11392,NA,446,2,legacy,1024,2,48000,-16,experiment,HHHHH,4,even,97625,275876,NA,368046,363721,NA,381140,379879,5866,264478,NA,381266,381719,381113,381266,5833,Flanker Test,121,75854,133,yes,1024
90.29850746,90.29850746,568.8134328,568.8134328,black,legacy,legacy,legacy,0,congruent,uniform,0,undefined,0,s,0,0,0,133,133,0,133,133,0,0,0,133,133,133,133,0,Sun Sep 29 16:38:08 2019,600,The main experiment item,yes,FlankerTest.osexp,/Users/Linzi/Desktop,no,mono,no,18,no,white,no,yes,768,legacy,53,79,/Users/Linzi/Desktop/LM-subject-4f20.csv,legacy,Kafkaesque Koffka,3.2.8,0,h,NA,s,h,NA,h,367,NA,91740,11392,NA,367,2,legacy,1024,2,48000,-16,experiment,SSSSS,4,even,97625,275876,NA,368046,363721,NA,383007,381751,5866,264478,NA,383134,383508,382981,383133,5833,Flanker Test,121,76221,134,yes,1024
90.37037037,90.37037037,569.237037,569.237037,black,legacy,legacy,legacy,0,congruent,uniform,1,undefined,1,h,0,0,0,134,134,0,134,134,0,0,0,134,134,134,134,0,Sun Sep 29 16:38:08 2019,600,The main experiment item,yes,FlankerTest.osexp,/Users/Linzi/Desktop,no,mono,no,18,no,white,no,yes,768,legacy,54,79,/Users/Linzi/Desktop/LM-subject-4f20.csv,legacy,Kafkaesque Koffka,3.2.8,0,h,NA,s,h,NA,h,626,NA,91740,11392,NA,626,2,legacy,1024,2,48000,-16,experiment,HHHHH,4,even,97625,275876,NA,383540,363721,NA,385328,384066,5866,264478,NA,385454,386087,385302,385454,5833,Flanker Test,122,76847,135,yes,1024
90.44117647,90.44117647,570.3897059,570.3897059,black,legacy,legacy,legacy,0,incongruent,uniform,1,undefined,1,h,0,0,0,135,135,0,135,135,0,0,0,135,135,135,135,0,Sun Sep 29 16:38:08 2019,600,The main experiment item,yes,FlankerTest.osexp,/Users/Linzi/Desktop,no,mono,no,18,no,white,no,yes,768,legacy,55,79,/Users/Linzi/Desktop/LM-subject-4f20.csv,legacy,Kafkaesque Koffka,3.2.8,0,h,NA,s,h,NA,h,726,NA,91740,11392,NA,726,2,legacy,1024,2,48000,-16,experiment,SSHSS,4,even,97625,275876,NA,383540,386118,NA,387903,386645,5866,264478,NA,388030,388763,387876,388029,5833,Flanker Test,123,77573,136,yes,1024
90.51094891,90.51094891,569.8686131,569.8686131,black,legacy,legacy,legacy,0,congruent,uniform,1,undefined,1,s,0,0,0,136,136,0,136,136,0,0,0,136,136,136,136,0,Sun Sep 29 16:38:08 2019,600,The main experiment item,yes,FlankerTest.osexp,/Users/Linzi/Desktop,no,mono,no,18,no,white,no,yes,768,legacy,56,79,/Users/Linzi/Desktop/LM-subject-4f20.csv,legacy,Kafkaesque Koffka,3.2.8,0,s,NA,s,h,NA,s,499,NA,91740,11392,NA,499,2,legacy,1024,2,48000,-16,experiment,SSSSS,4,even,97625,275876,NA,383540,388795,NA,390581,389321,5866,264478,NA,390707,391214,390554,390707,5833,Flanker Test,124,78072,137,yes,1024
90.57971014,90.57971014,569.2898551,569.2898551,black,legacy,legacy,legacy,0,congruent,uniform,1,undefined,1,h,0,0,0,137,137,0,137,137,0,0,0,137,137,137,137,0,Sun Sep 29 16:38:08 2019,600,The main experiment item,yes,FlankerTest.osexp,/Users/Linzi/Desktop,no,mono,no,18,no,white,no,yes,768,legacy,57,79,/Users/Linzi/Desktop/LM-subject-4f20.csv,legacy,Kafkaesque Koffka,3.2.8,0,h,NA,s,h,NA,h,490,NA,91740,11392,NA,490,2,legacy,1024,2,48000,-16,experiment,HHHHH,4,even,97625,275876,NA,383540,388795,NA,392503,391246,5866,264478,NA,392630,393128,392477,392630,5833,Flanker Test,125,78562,138,yes,1024
90.64748201,90.64748201,568.705036,568.705036,black,legacy,legacy,legacy,0,congruent,uniform,1,undefined,1,s,0,0,0,138,138,0,138,138,0,0,0,138,138,138,138,0,Sun Sep 29 16:38:08 2019,600,The main experiment item,yes,FlankerTest.osexp,/Users/Linzi/Desktop,no,mono,no,18,no,white,no,yes,768,legacy,58,79,/Users/Linzi/Desktop/LM-subject-4f20.csv,legacy,Kafkaesque Koffka,3.2.8,0,s,NA,s,h,NA,s,488,NA,91740,11392,NA,488,2,legacy,1024,2,48000,-16,experiment,SSSSS,4,even,97625,275876,NA,383540,388795,NA,394421,393160,5866,264478,NA,394548,395044,394394,394547,5833,Flanker Test,126,79050,139,yes,1024
90.71428571,90.71428571,567.4,567.4,black,legacy,legacy,legacy,0,congruent,uniform,1,undefined,1,s,0,0,0,139,139,0,139,139,0,0,0,139,139,139,139,0,Sun Sep 29 16:38:08 2019,600,The main experiment item,yes,FlankerTest.osexp,/Users/Linzi/Desktop,no,mono,no,18,no,white,no,yes,768,legacy,59,79,/Users/Linzi/Desktop/LM-subject-4f20.csv,legacy,Kafkaesque Koffka,3.2.8,0,s,NA,s,h,NA,s,386,NA,91740,11392,NA,386,2,legacy,1024,2,48000,-16,experiment,SSSSS,4,even,97625,275876,NA,383540,388795,NA,396334,395077,5866,264478,NA,396461,396855,396308,396460,5833,Flanker Test,127,79436,140,yes,1024
90.07092199,90.07092199,566.3900709,566.3900709,black,legacy,legacy,legacy,0,incongruent,uniform,0,undefined,0,s,0,0,0,140,140,0,140,140,0,0,0,140,140,140,140,0,Sun Sep 29 16:38:08 2019,600,The main experiment item,yes,FlankerTest.osexp,/Users/Linzi/Desktop,no,mono,no,18,no,white,no,yes,768,legacy,60,79,/Users/Linzi/Desktop/LM-subject-4f20.csv,legacy,Kafkaesque Koffka,3.2.8,0,h,NA,s,h,NA,h,425,NA,91740,11392,NA,425,2,legacy,1024,2,48000,-16,experiment,HHSHH,4,even,97625,275876,NA,383540,388795,NA,398144,396886,5866,264478,NA,398270,398703,398117,398270,5833,Flanker Test,127,79861,141,yes,1024
90.14084507,90.14084507,566.0070423,566.0070423,black,legacy,legacy,legacy,0,incongruent,uniform,1,undefined,1,s,0,0,0,141,141,0,141,141,0,0,0,141,141,141,141,0,Sun Sep 29 16:38:08 2019,600,The main experiment item,yes,FlankerTest.osexp,/Users/Linzi/Desktop,no,mono,no,18,no,white,no,yes,768,legacy,61,79,/Users/Linzi/Desktop/LM-subject-4f20.csv,legacy,Kafkaesque Koffka,3.2.8,0,s,NA,s,h,NA,s,512,NA,91740,11392,NA,512,2,legacy,1024,2,48000,-16,experiment,HHSHH,4,even,97625,275876,NA,398734,388795,NA,400518,399260,5866,264478,NA,400644,401164,400492,400644,5833,Flanker Test,128,80373,142,yes,1024
90.20979021,90.20979021,564.9160839,564.9160839,black,legacy,legacy,legacy,0,congruent,uniform,1,undefined,1,s,0,0,0,142,142,0,142,142,0,0,0,142,142,142,142,0,Sun Sep 29 16:38:08 2019,600,The main experiment item,yes,FlankerTest.osexp,/Users/Linzi/Desktop,no,mono,no,18,no,white,no,yes,768,legacy,62,79,/Users/Linzi/Desktop/LM-subject-4f20.csv,legacy,Kafkaesque Koffka,3.2.8,0,s,NA,s,h,NA,s,410,NA,91740,11392,NA,410,2,legacy,1024,2,48000,-16,experiment,SSSSS,4,even,97625,275876,NA,398734,388795,NA,402456,401195,5866,264478,NA,402584,403001,402430,402583,5833,Flanker Test,129,80783,143,yes,1024
90.27777778,90.27777778,564.7569444,564.7569444,black,legacy,legacy,legacy,0,incongruent,uniform,1,undefined,1,h,0,0,0,143,143,0,143,143,0,0,0,143,143,143,143,0,Sun Sep 29 16:38:08 2019,600,The main experiment item,yes,FlankerTest.osexp,/Users/Linzi/Desktop,no,mono,no,18,no,white,no,yes,768,legacy,63,79,/Users/Linzi/Desktop/LM-subject-4f20.csv,legacy,Kafkaesque Koffka,3.2.8,0,h,NA,s,h,NA,h,542,NA,91740,11392,NA,542,2,legacy,1024,2,48000,-16,experiment,SSHSS,4,even,97625,275876,NA,398734,388795,NA,404294,403033,5866,264478,NA,404421,404971,404267,404421,5833,Flanker Test,130,81325,144,yes,1024
90.34482759,90.34482759,564.4,564.4,black,legacy,legacy,legacy,0,incongruent,uniform,1,undefined,1,h,0,0,0,144,144,0,144,144,0,0,0,144,144,144,144,0,Sun Sep 29 16:38:08 2019,600,The main experiment item,yes,FlankerTest.osexp,/Users/Linzi/Desktop,no,mono,no,18,no,white,no,yes,768,legacy,64,79,/Users/Linzi/Desktop/LM-subject-4f20.csv,legacy,Kafkaesque Koffka,3.2.8,0,h,NA,s,h,NA,h,513,NA,91740,11392,NA,513,2,legacy,1024,2,48000,-16,experiment,SSHSS,4,even,97625,275876,NA,398734,388795,NA,406260,405002,5866,264478,NA,406387,406908,406233,406386,5833,Flanker Test,131,81838,145,yes,1024
90.4109589,90.4109589,564.5547945,564.5547945,black,legacy,legacy,legacy,0,incongruent,uniform,1,undefined,1,s,0,0,0,145,145,0,145,145,0,0,0,145,145,145,145,0,Sun Sep 29 16:38:08 2019,600,The main experiment item,yes,FlankerTest.osexp,/Users/Linzi/Desktop,no,mono,no,18,no,white,no,yes,768,legacy,65,79,/Users/Linzi/Desktop/LM-subject-4f20.csv,legacy,Kafkaesque Koffka,3.2.8,0,s,NA,s,h,NA,s,587,NA,91740,11392,NA,587,2,legacy,1024,2,48000,-16,experiment,HHSHH,4,even,97625,275876,NA,398734,388795,NA,408198,406940,5866,264478,NA,408326,408921,408172,408325,5833,Flanker Test,132,82425,146,yes,1024
90.47619048,90.47619048,564.4353742,564.4353742,black,legacy,legacy,legacy,0,incongruent,uniform,1,undefined,1,h,0,0,0,146,146,0,146,146,0,0,0,146,146,146,146,0,Sun Sep 29 16:38:08 2019,600,The main experiment item,yes,FlankerTest.osexp,/Users/Linzi/Desktop,no,mono,no,18,no,white,no,yes,768,legacy,66,79,/Users/Linzi/Desktop/LM-subject-4f20.csv,legacy,Kafkaesque Koffka,3.2.8,0,h,NA,s,h,NA,h,547,NA,91740,11392,NA,547,2,legacy,1024,2,48000,-16,experiment,SSHSS,4,even,97625,275876,NA,398734,388795,NA,410210,408952,5866,264478,NA,410337,410892,410183,410336,5833,Flanker Test,133,82972,147,yes,1024
90.54054054,90.54054054,563.9594595,563.9594595,black,legacy,legacy,legacy,0,congruent,uniform,1,undefined,1,h,0,0,0,147,147,0,147,147,0,0,0,147,147,147,147,0,Sun Sep 29 16:38:08 2019,600,The main experiment item,yes,FlankerTest.osexp,/Users/Linzi/Desktop,no,mono,no,18,no,white,no,yes,768,legacy,67,79,/Users/Linzi/Desktop/LM-subject-4f20.csv,legacy,Kafkaesque Koffka,3.2.8,0,h,NA,s,h,NA,h,494,NA,91740,11392,NA,494,2,legacy,1024,2,48000,-16,experiment,HHHHH,4,even,97625,275876,NA,398734,388795,NA,412181,410923,5866,264478,NA,412308,412810,412154,412307,5833,Flanker Test,134,83466,148,yes,1024
90.60402685,90.60402685,563.6107383,563.6107383,black,legacy,legacy,legacy,0,incongruent,uniform,1,undefined,1,s,0,0,0,148,148,0,148,148,0,0,0,148,148,148,148,0,Sun Sep 29 16:38:08 2019,600,The main experiment item,yes,FlankerTest.osexp,/Users/Linzi/Desktop,no,mono,no,18,no,white,no,yes,768,legacy,68,79,/Users/Linzi/Desktop/LM-subject-4f20.csv,legacy,Kafkaesque Koffka,3.2.8,0,s,NA,s,h,NA,s,512,NA,91740,11392,NA,512,2,legacy,1024,2,48000,-16,experiment,HHSHH,4,even,97625,275876,NA,398734,388795,NA,414098,412840,5866,264478,NA,414226,414746,414072,414225,5833,Flanker Test,135,83978,149,yes,1024
90,90,563.18,563.18,black,legacy,legacy,legacy,0,incongruent,uniform,0,undefined,0,h,0,0,0,149,149,0,149,149,0,0,0,149,149,149,149,0,Sun Sep 29 16:38:08 2019,600,The main experiment item,yes,FlankerTest.osexp,/Users/Linzi/Desktop,no,mono,no,18,no,white,no,yes,768,legacy,69,79,/Users/Linzi/Desktop/LM-subject-4f20.csv,legacy,Kafkaesque Koffka,3.2.8,0,s,NA,s,h,NA,s,499,NA,91740,11392,NA,499,2,legacy,1024,2,48000,-16,experiment,SSHSS,4,even,97625,275876,NA,398734,388795,NA,416036,414778,5866,264478,NA,416163,416670,416008,416162,5833,Flanker Test,135,84477,150,yes,1024
90.06622517,90.06622517,563.8609272,563.8609272,black,legacy,legacy,legacy,0,congruent,uniform,1,undefined,1,s,0,0,0,150,150,0,150,150,0,0,0,150,150,150,150,0,Sun Sep 29 16:38:08 2019,600,The main experiment item,yes,FlankerTest.osexp,/Users/Linzi/Desktop,no,mono,no,18,no,white,no,yes,768,legacy,70,79,/Users/Linzi/Desktop/LM-subject-4f20.csv,legacy,Kafkaesque Koffka,3.2.8,0,s,NA,s,h,NA,s,666,NA,91740,11392,NA,666,2,legacy,1024,2,48000,-16,experiment,SSSSS,4,even,97625,275876,NA,416701,388795,NA,418490,417231,5866,264478,NA,418618,419292,418464,418617,5833,Flanker Test,136,85143,151,yes,1024
90.13157895,90.13157895,563.2960526,563.2960526,black,legacy,legacy,legacy,0,congruent,uniform,1,undefined,1,s,0,0,0,151,151,0,151,151,0,0,0,151,151,151,151,0,Sun Sep 29 16:38:08 2019,600,The main experiment item,yes,FlankerTest.osexp,/Users/Linzi/Desktop,no,mono,no,18,no,white,no,yes,768,legacy,71,79,/Users/Linzi/Desktop/LM-subject-4f20.csv,legacy,Kafkaesque Koffka,3.2.8,0,s,NA,s,h,NA,s,478,NA,91740,11392,NA,478,2,legacy,1024,2,48000,-16,experiment,SSSSS,4,even,97625,275876,NA,416701,419324,NA,421107,419850,5866,264478,NA,421233,421719,421081,421233,5833,Flanker Test,137,85621,152,yes,1024
90.19607843,90.19607843,563.8235294,563.8235294,black,legacy,legacy,legacy,0,congruent,uniform,1,undefined,1,h,0,0,0,152,152,0,152,152,0,0,0,152,152,152,152,0,Sun Sep 29 16:38:08 2019,600,The main experiment item,yes,FlankerTest.osexp,/Users/Linzi/Desktop,no,mono,no,18,no,white,no,yes,768,legacy,72,79,/Users/Linzi/Desktop/LM-subject-4f20.csv,legacy,Kafkaesque Koffka,3.2.8,0,h,NA,s,h,NA,h,644,NA,91740,11392,NA,644,2,legacy,1024,2,48000,-16,experiment,HHHHH,4,even,97625,275876,NA,416701,419324,NA,423007,421750,5866,264478,NA,423134,423786,422982,423134,5833,Flanker Test,138,86265,153,yes,1024
90.25974026,90.25974026,563.974026,563.974026,black,legacy,legacy,legacy,0,congruent,uniform,1,undefined,1,s,0,0,0,153,153,0,153,153,0,0,0,153,153,153,153,0,Sun Sep 29 16:38:08 2019,600,The main experiment item,yes,FlankerTest.osexp,/Users/Linzi/Desktop,no,mono,no,18,no,white,no,yes,768,legacy,73,79,/Users/Linzi/Desktop/LM-subject-4f20.csv,legacy,Kafkaesque Koffka,3.2.8,0,s,NA,s,h,NA,s,587,NA,91740,11392,NA,587,2,legacy,1024,2,48000,-16,experiment,SSSSS,4,even,97625,275876,NA,416701,423817,NA,425600,424344,5866,264478,NA,425728,426323,425574,425728,5833,Flanker Test,139,86852,154,yes,1024
89.67741935,89.67741935,563.5870968,563.5870968,black,legacy,legacy,legacy,0,incongruent,uniform,0,undefined,0,s,0,0,0,154,154,0,154,154,0,0,0,154,154,154,154,0,Sun Sep 29 16:38:08 2019,600,The main experiment item,yes,FlankerTest.osexp,/Users/Linzi/Desktop,no,mono,no,18,no,white,no,yes,768,legacy,74,79,/Users/Linzi/Desktop/LM-subject-4f20.csv,legacy,Kafkaesque Koffka,3.2.8,0,h,NA,s,h,NA,h,504,NA,91740,11392,NA,504,2,legacy,1024,2,48000,-16,experiment,HHSHH,4,even,97625,275876,NA,416701,423817,NA,427615,426355,5866,264478,NA,427741,428254,427589,427741,5833,Flanker Test,139,87356,155,yes,1024
89.74358974,89.74358974,562.7692308,562.7692308,black,legacy,legacy,legacy,0,incongruent,uniform,1,undefined,1,s,0,0,0,155,155,0,155,155,0,0,0,155,155,155,155,0,Sun Sep 29 16:38:08 2019,600,The main experiment item,yes,FlankerTest.osexp,/Users/Linzi/Desktop,no,mono,no,18,no,white,no,yes,768,legacy,75,79,/Users/Linzi/Desktop/LM-subject-4f20.csv,legacy,Kafkaesque Koffka,3.2.8,0,s,NA,s,h,NA,s,436,NA,91740,11392,NA,436,2,legacy,1024,2,48000,-16,experiment,HHSHH,4,even,97625,275876,NA,428292,423817,NA,430080,428820,5866,264478,NA,430208,430652,430053,430207,5833,Flanker Test,140,87792,156,yes,1024
89.8089172,89.8089172,562.7770701,562.7770701,black,legacy,legacy,legacy,0,incongruent,uniform,1,undefined,1,h,0,0,0,156,156,0,156,156,0,0,0,156,156,156,156,0,Sun Sep 29 16:38:08 2019,600,The main experiment item,yes,FlankerTest.osexp,/Users/Linzi/Desktop,no,mono,no,18,no,white,no,yes,768,legacy,76,79,/Users/Linzi/Desktop/LM-subject-4f20.csv,legacy,Kafkaesque Koffka,3.2.8,0,h,NA,s,h,NA,h,564,NA,91740,11392,NA,564,2,legacy,1024,2,48000,-16,experiment,SSHSS,4,even,97625,275876,NA,428292,423817,NA,431941,430683,5866,264478,NA,432069,432641,431915,432068,5833,Flanker Test,141,88356,157,yes,1024
89.87341772,89.87341772,561.8291139,561.8291139,black,legacy,legacy,legacy,0,incongruent,uniform,1,undefined,1,h,0,0,0,157,157,0,157,157,0,0,0,157,157,157,157,0,Sun Sep 29 16:38:08 2019,600,The main experiment item,yes,FlankerTest.osexp,/Users/Linzi/Desktop,no,mono,no,18,no,white,no,yes,768,legacy,77,79,/Users/Linzi/Desktop/LM-subject-4f20.csv,legacy,Kafkaesque Koffka,3.2.8,0,h,NA,s,h,NA,h,413,NA,91740,11392,NA,413,2,legacy,1024,2,48000,-16,experiment,SSHSS,4,even,97625,275876,NA,428292,423817,NA,433933,432672,5866,264478,NA,434060,434482,433906,434059,5833,Flanker Test,142,88769,158,yes,1024
89.93710692,89.93710692,560.7735849,560.7735849,black,legacy,legacy,legacy,0,incongruent,uniform,1,undefined,1,h,0,0,0,158,158,0,158,158,0,0,0,158,158,158,158,0,Sun Sep 29 16:38:08 2019,600,The main experiment item,yes,FlankerTest.osexp,/Users/Linzi/Desktop,no,mono,no,18,no,white,no,yes,768,legacy,78,79,/Users/Linzi/Desktop/LM-subject-4f20.csv,legacy,Kafkaesque Koffka,3.2.8,0,h,NA,s,h,NA,h,394,NA,91740,11392,NA,394,2,legacy,1024,2,48000,-16,experiment,SSHSS,4,even,97625,275876,NA,428292,423817,NA,435770,434513,5866,264478,NA,435897,436300,435744,435897,5833,Flanker Test,143,89163,159,yes,1024
90,90,560.78125,560.78125,black,legacy,legacy,legacy,0,congruent,uniform,1,undefined,1,s,0,0,0,159,159,0,159,159,0,0,0,159,159,159,159,0,Sun Sep 29 16:38:08 2019,600,The main experiment item,yes,FlankerTest.osexp,/Users/Linzi/Desktop,no,mono,no,18,no,white,no,yes,768,legacy,79,79,/Users/Linzi/Desktop/LM-subject-4f20.csv,legacy,Kafkaesque Koffka,3.2.8,0,s,NA,s,h,NA,s,562,NA,91740,11392,NA,562,2,legacy,1024,2,48000,-16,experiment,SSSSS,4,even,97625,275876,NA,428292,423817,NA,437587,436331,5866,264478,NA,437715,438285,437560,437714,5833,Flanker Test,144,89725,160,yes,1024
89.44099379,89.44099379,557.3664596,557.3664596,black,legacy,legacy,legacy,0,incongruent,uniform,0,undefined,0,s,0,0,0,160,160,0,160,160,0,0,0,160,160,160,160,0,Sun Sep 29 16:38:08 2019,300,The main experiment item,yes,FlankerTest.osexp,/Users/Linzi/Desktop,no,mono,no,18,no,white,no,yes,768,legacy,0,79,/Users/Linzi/Desktop/LM-subject-4f20.csv,legacy,Kafkaesque Koffka,3.2.8,0,h,NA,s,h,;,h,11,NA,91740,11392,104058,11,2,legacy,1024,2,48000,-16,experiment,HHSHH,4,even,97625,275876,543461,428292,423817,NA,543711,438317,5866,264478,439394,543839,543858,543685,543839,5833,Flanker Test,144,89736,161,yes,1024
89.50617284,89.50617284,557.3765432,557.3765432,black,legacy,legacy,legacy,0,incongruent,uniform,1,undefined,1,h,0,0,0,161,161,0,161,161,0,0,0,161,161,161,161,0,Sun Sep 29 16:38:08 2019,300,The main experiment item,yes,FlankerTest.osexp,/Users/Linzi/Desktop,no,mono,no,18,no,white,no,yes,768,legacy,1,79,/Users/Linzi/Desktop/LM-subject-4f20.csv,legacy,Kafkaesque Koffka,3.2.8,0,h,NA,s,h,;,h,559,NA,91740,11392,104058,559,2,legacy,1024,2,48000,-16,experiment,SSHSS,4,even,97625,275876,543461,543891,423817,NA,545677,544417,5866,264478,439394,545804,546371,545651,545804,5833,Flanker Test,145,90295,162,yes,1024
88.95705521,88.95705521,556.5276074,556.5276074,black,legacy,legacy,legacy,0,congruent,uniform,0,undefined,0,s,0,0,0,162,162,0,162,162,0,0,0,162,162,162,162,0,Sun Sep 29 16:38:08 2019,300,The main experiment item,yes,FlankerTest.osexp,/Users/Linzi/Desktop,no,mono,no,18,no,white,no,yes,768,legacy,2,79,/Users/Linzi/Desktop/LM-subject-4f20.csv,legacy,Kafkaesque Koffka,3.2.8,0,h,NA,s,h,;,h,419,NA,91740,11392,104058,419,2,legacy,1024,2,48000,-16,experiment,SSSSS,4,even,97625,275876,543461,543891,546403,NA,548189,546930,5866,264478,439394,548315,548743,548162,548315,5833,Flanker Test,145,90714,163,yes,1024
89.02439024,89.02439024,555.6707317,555.6707317,black,legacy,legacy,legacy,0,congruent,uniform,1,undefined,1,s,0,0,0,163,163,0,163,163,0,0,0,163,163,163,163,0,Sun Sep 29 16:38:08 2019,300,The main experiment item,yes,FlankerTest.osexp,/Users/Linzi/Desktop,no,mono,no,18,no,white,no,yes,768,legacy,3,79,/Users/Linzi/Desktop/LM-subject-4f20.csv,legacy,Kafkaesque Koffka,3.2.8,0,s,NA,s,h,;,s,416,NA,91740,11392,104058,416,2,legacy,1024,2,48000,-16,experiment,SSSSS,4,even,97625,275876,543461,548774,549303,NA,551086,549829,5866,264478,439394,551213,551637,551060,551213,5833,Flanker Test,146,91130,164,yes,1024
88.48484848,88.48484848,554.369697,554.369697,black,legacy,legacy,legacy,0,congruent,uniform,0,undefined,0,h,0,0,0,164,164,0,164,164,0,0,0,164,164,164,164,0,Sun Sep 29 16:38:08 2019,300,The main experiment item,yes,FlankerTest.osexp,/Users/Linzi/Desktop,no,mono,no,18,no,white,no,yes,768,legacy,4,79,/Users/Linzi/Desktop/LM-subject-4f20.csv,legacy,Kafkaesque Koffka,3.2.8,0,s,NA,s,h,;,s,341,NA,91740,11392,104058,341,2,legacy,1024,2,48000,-16,experiment,HHHHH,4,even,97625,275876,543461,548774,551669,NA,553455,552195,5866,264478,439394,553583,553932,553429,553582,5833,Flanker Test,146,91471,165,yes,1024
88.55421687,88.55421687,553.2048193,553.2048193,black,legacy,legacy,legacy,0,incongruent,uniform,1,undefined,1,s,0,0,0,165,165,0,165,165,0,0,0,165,165,165,165,0,Sun Sep 29 16:38:08 2019,300,The main experiment item,yes,FlankerTest.osexp,/Users/Linzi/Desktop,no,mono,no,18,no,white,no,yes,768,legacy,5,79,/Users/Linzi/Desktop/LM-subject-4f20.csv,legacy,Kafkaesque Koffka,3.2.8,0,s,NA,s,h,;,s,361,NA,91740,11392,104058,361,2,legacy,1024,2,48000,-16,experiment,HHSHH,4,even,97625,275876,543461,553964,554494,NA,556288,555020,5866,264478,439394,556415,556784,556261,556414,5833,Flanker Test,147,91832,166,yes,1024
88.0239521,88.0239521,552.2095808,552.2095808,black,legacy,legacy,legacy,0,incongruent,uniform,0,undefined,0,h,0,0,0,166,166,0,166,166,0,0,0,166,166,166,166,0,Sun Sep 29 16:38:08 2019,300,The main experiment item,yes,FlankerTest.osexp,/Users/Linzi/Desktop,no,mono,no,18,no,white,no,yes,768,legacy,6,79,/Users/Linzi/Desktop/LM-subject-4f20.csv,legacy,Kafkaesque Koffka,3.2.8,0,s,NA,s,h,;,s,387,NA,91740,11392,104058,387,2,legacy,1024,2,48000,-16,experiment,SSHSS,4,even,97625,275876,543461,553964,556815,NA,558604,557342,5866,264478,439394,558730,559125,558577,558730,5833,Flanker Test,147,92219,167,yes,1024
88.0952381,88.0952381,551.7797619,551.7797619,black,legacy,legacy,legacy,0,incongruent,uniform,1,undefined,1,s,0,0,0,167,167,0,167,167,0,0,0,167,167,167,167,0,Sun Sep 29 16:38:08 2019,300,The main experiment item,yes,FlankerTest.osexp,/Users/Linzi/Desktop,no,mono,no,18,no,white,no,yes,768,legacy,7,79,/Users/Linzi/Desktop/LM-subject-4f20.csv,legacy,Kafkaesque Koffka,3.2.8,0,s,NA,s,h,;,s,480,NA,91740,11392,104058,480,2,legacy,1024,2,48000,-16,experiment,HHSHH,4,even,97625,275876,543461,559156,559686,NA,561473,560214,5866,264478,439394,561600,562088,561447,561599,5833,Flanker Test,148,92699,168,yes,1024
