"acc","accuracy","average_response_time","avg_rt","background","canvas_backend","clock_backend","color_backend","compensation","condition","coordinates","correct","correct_instructions1","correct_keyboard_response","correct_response","count_ISI","count_block1","count_block2","count_block3","count_errorFeedback","count_experiment","count_faster","count_finish","count_fixation","count_instructions1","count_instructions2","count_instructions3","count_keyboard_response","count_logger","count_sequence","count_stimulus","datetime","deadline","description","disable_garbage_collection","experiment_file","experiment_path","font_bold","font_family","font_italic","font_size","font_underline","foreground","form_clicks","fullscreen","height","keyboard_backend","live_row","live_row_block1","logfile","mouse_backend","opensesame_codename","opensesame_version","repeat_cycle","response","response_finish","response_instructions1","response_instructions2","response_instructions3","response_keyboard_response","response_time","response_time_finish","response_time_instructions1","response_time_instructions2","response_time_instructions3","response_time_keyboard_response","round_decimals","sampler_backend","sound_buf_size","sound_channels","sound_freq","sound_sample_size","start","stimulus","subject_nr","subject_parity","time_ISI","time_block1","time_block2","time_block3","time_errorFeedback","time_experiment","time_faster","time_finish","time_fixation","time_instructions1","time_instructions2","time_instructions3","time_keyboard_response","time_logger","time_sequence","time_stimulus","title","total_correct","total_response_time","total_responses","uniform_coordinates","width"
"100","100","583","583","black","legacy","legacy","legacy","0","incongruent","uniform","1","undefined","1","h","0","0","0","0","0","0","0","0","0","0","0","0","0","0","0","0","Sun Sep 27 18:47:52 2020","1500","The main experiment item","yes","Flankertask.osexp","C:/Users/JHS6-EAGLE/Desktop/OpenSes Files","no","mono","no","18","no","white","no","no","1440","legacy","0","0","C:/Users/JHS6-EAGLE/Desktop/OpenSes Files/RL-subject-2.csv","legacy","Lentiform Loewenfeld","3.3.3","0","h","NA","h","NA","NA","h","583","NA","13872","NA","NA","583","2","legacy","1024","2","48000","-16","experiment","SSHSS","2","even","NA","15545","NA","NA","NA","1667","NA","NA","15693","1672","NA","NA","15807","16390","15688","15807","Flanker task","1","583","1","yes","2560"
"100","100","564","564","black","legacy","legacy","legacy","0","incongruent","uniform","1","undefined","1","h","1","0","0","0","1","0","1","0","1","0","0","0","1","1","1","1","Sun Sep 27 18:47:52 2020","1500","The main experiment item","yes","Flankertask.osexp","C:/Users/JHS6-EAGLE/Desktop/OpenSes Files","no","mono","no","18","no","white","no","no","1440","legacy","1","1","C:/Users/JHS6-EAGLE/Desktop/OpenSes Files/RL-subject-2.csv","legacy","Lentiform Loewenfeld","3.3.3","0","h","NA","h","NA","NA","h","545","NA","13872","NA","NA","545","2","legacy","1024","2","48000","-16","experiment","SSHSS","2","even","16400","15545","NA","NA","NA","1667","NA","NA","17525","1672","NA","NA","17629","18174","17520","17629","Flanker task","2","1128","2","yes","2560"
"100","100","527.3333333333334","527.3333333333334","black","legacy","legacy","legacy","0","conruent","uniform","1","undefined","1","s","2","0","0","0","2","0","2","0","2","0","0","0","2","2","2","2","Sun Sep 27 18:47:52 2020","1500","The main experiment item","yes","Flankertask.osexp","C:/Users/JHS6-EAGLE/Desktop/OpenSes Files","no","mono","no","18","no","white","no","no","1440","legacy","2","2","C:/Users/JHS6-EAGLE/Desktop/OpenSes Files/RL-subject-2.csv","legacy","Lentiform Loewenfeld","3.3.3","0","s","NA","h","NA","NA","s","454","NA","13872","NA","NA","454","2","legacy","1024","2","48000","-16","experiment","SSSSS","2","even","18181","15545","NA","NA","NA","1667","NA","NA","19313","1672","NA","NA","19418","19872","19307","19418","Flanker task","3","1582","3","yes","2560"
"100","100","544.5","544.5","black","legacy","legacy","legacy","0","incongruent","uniform","1","undefined","1","s","3","0","0","0","3","0","3","0","3","0","0","0","3","3","3","3","Sun Sep 27 18:47:52 2020","1500","The main experiment item","yes","Flankertask.osexp","C:/Users/JHS6-EAGLE/Desktop/OpenSes Files","no","mono","no","18","no","white","no","no","1440","legacy","3","3","C:/Users/JHS6-EAGLE/Desktop/OpenSes Files/RL-subject-2.csv","legacy","Lentiform Loewenfeld","3.3.3","0","s","NA","h","NA","NA","s","596","NA","13872","NA","NA","596","2","legacy","1024","2","48000","-16","experiment","HHSHH","2","even","19886","15545","NA","NA","NA","1667","NA","NA","21025","1672","NA","NA","21132","21728","21019","21132","Flanker task","4","2178","4","yes","2560"
"100","100","549.2","549.2","black","legacy","legacy","legacy","0","conruent","uniform","1","undefined","1","s","4","0","0","0","4","0","4","0","4","0","0","0","4","4","4","4","Sun Sep 27 18:47:52 2020","1500","The main experiment item","yes","Flankertask.osexp","C:/Users/JHS6-EAGLE/Desktop/OpenSes Files","no","mono","no","18","no","white","no","no","1440","legacy","4","4","C:/Users/JHS6-EAGLE/Desktop/OpenSes Files/RL-subject-2.csv","legacy","Lentiform Loewenfeld","3.3.3","0","s","NA","h","NA","NA","s","568","NA","13872","NA","NA","568","2","legacy","1024","2","48000","-16","experiment","SSSSS","2","even","21736","15545","NA","NA","NA","1667","NA","NA","22865","1672","NA","NA","22969","23537","22859","22969","Flanker task","5","2746","5","yes","2560"
"100","100","567.1666666666666","567.1666666666666","black","legacy","legacy","legacy","0","conruent","uniform","1","undefined","1","s","5","0","0","0","5","0","5","0","5","0","0","0","5","5","5","5","Sun Sep 27 18:47:52 2020","1500","The main experiment item","yes","Flankertask.osexp","C:/Users/JHS6-EAGLE/Desktop/OpenSes Files","no","mono","no","18","no","white","no","no","1440","legacy","5","5","C:/Users/JHS6-EAGLE/Desktop/OpenSes Files/RL-subject-2.csv","legacy","Lentiform Loewenfeld","3.3.3","0","s","NA","h","NA","NA","s","657","NA","13872","NA","NA","657","2","legacy","1024","2","48000","-16","experiment","SSSSS","2","even","23543","15545","NA","NA","NA","1667","NA","NA","24667","1672","NA","NA","24771","25428","24662","24770","Flanker task","6","3403","6","yes","2560"
"100","100","597.1428571428571","597.1428571428571","black","legacy","legacy","legacy","0","incongruent","uniform","1","undefined","1","s","6","0","0","0","6","0","6","0","6","0","0","0","6","6","6","6","Sun Sep 27 18:47:52 2020","1500","The main experiment item","yes","Flankertask.osexp","C:/Users/JHS6-EAGLE/Desktop/OpenSes Files","no","mono","no","18","no","white","no","no","1440","legacy","6","6","C:/Users/JHS6-EAGLE/Desktop/OpenSes Files/RL-subject-2.csv","legacy","Lentiform Loewenfeld","3.3.3","0","s","NA","h","NA","NA","s","777","NA","13872","NA","NA","777","2","legacy","1024","2","48000","-16","experiment","HHSHH","2","even","25434","15545","NA","NA","NA","1667","NA","NA","26564","1672","NA","NA","26668","27446","26559","26668","Flanker task","7","4180","7","yes","2560"
"100","100","603.625","603.625","black","legacy","legacy","legacy","0","conruent","uniform","1","undefined","1","s","7","0","0","0","7","0","7","0","7","0","0","0","7","7","7","7","Sun Sep 27 18:47:52 2020","1500","The main experiment item","yes","Flankertask.osexp","C:/Users/JHS6-EAGLE/Desktop/OpenSes Files","no","mono","no","18","no","white","no","no","1440","legacy","7","7","C:/Users/JHS6-EAGLE/Desktop/OpenSes Files/RL-subject-2.csv","legacy","Lentiform Loewenfeld","3.3.3","0","s","NA","h","NA","NA","s","649","NA","13872","NA","NA","649","2","legacy","1024","2","48000","-16","experiment","SSSSS","2","even","27452","15545","NA","NA","NA","1667","NA","NA","28587","1672","NA","NA","28691","29340","28581","28690","Flanker task","8","4829","8","yes","2560"
"100","100","608.6666666666666","608.6666666666666","black","legacy","legacy","legacy","0","incongruent","uniform","1","undefined","1","s","8","0","0","0","8","0","8","0","8","0","0","0","8","8","8","8","Sun Sep 27 18:47:52 2020","1500","The main experiment item","yes","Flankertask.osexp","C:/Users/JHS6-EAGLE/Desktop/OpenSes Files","no","mono","no","18","no","white","no","no","1440","legacy","8","8","C:/Users/JHS6-EAGLE/Desktop/OpenSes Files/RL-subject-2.csv","legacy","Lentiform Loewenfeld","3.3.3","0","s","NA","h","NA","NA","s","649","NA","13872","NA","NA","649","2","legacy","1024","2","48000","-16","experiment","HHSHH","2","even","29348","15545","NA","NA","NA","1667","NA","NA","30478","1672","NA","NA","30588","31238","30472","30588","Flanker task","9","5478","9","yes","2560"
"100","100","593.9","593.9","black","legacy","legacy","legacy","0","incongruent","uniform","1","undefined","1","h","9","0","0","0","9","0","9","0","9","0","0","0","9","9","9","9","Sun Sep 27 18:47:52 2020","1500","The main experiment item","yes","Flankertask.osexp","C:/Users/JHS6-EAGLE/Desktop/OpenSes Files","no","mono","no","18","no","white","no","no","1440","legacy","9","9","C:/Users/JHS6-EAGLE/Desktop/OpenSes Files/RL-subject-2.csv","legacy","Lentiform Loewenfeld","3.3.3","0","h","NA","h","NA","NA","h","461","NA","13872","NA","NA","461","2","legacy","1024","2","48000","-16","experiment","SSHSS","2","even","31245","15545","NA","NA","NA","1667","NA","NA","32372","1672","NA","NA","32477","32939","32367","32477","Flanker task","10","5939","10","yes","2560"
"100","100","580","580","black","legacy","legacy","legacy","0","congruent","uniform","1","undefined","1","h","10","0","0","0","10","0","10","0","10","0","0","0","10","10","10","10","Sun Sep 27 18:47:52 2020","1500","The main experiment item","yes","Flankertask.osexp","C:/Users/JHS6-EAGLE/Desktop/OpenSes Files","no","mono","no","18","no","white","no","no","1440","legacy","10","10","C:/Users/JHS6-EAGLE/Desktop/OpenSes Files/RL-subject-2.csv","legacy","Lentiform Loewenfeld","3.3.3","0","h","NA","h","NA","NA","h","441","NA","13872","NA","NA","441","2","legacy","1024","2","48000","-16","experiment","HHHHH","2","even","32946","15545","NA","NA","NA","1667","NA","NA","34073","1672","NA","NA","34179","34620","34068","34179","Flanker task","11","6380","11","yes","2560"
"100","100","582.4166666666666","582.4166666666666","black","legacy","legacy","legacy","0","conruent","uniform","1","undefined","1","s","11","0","0","0","11","0","11","0","11","0","0","0","11","11","11","11","Sun Sep 27 18:47:52 2020","1500","The main experiment item","yes","Flankertask.osexp","C:/Users/JHS6-EAGLE/Desktop/OpenSes Files","no","mono","no","18","no","white","no","no","1440","legacy","11","11","C:/Users/JHS6-EAGLE/Desktop/OpenSes Files/RL-subject-2.csv","legacy","Lentiform Loewenfeld","3.3.3","0","s","NA","h","NA","NA","s","609","NA","13872","NA","NA","609","2","legacy","1024","2","48000","-16","experiment","SSSSS","2","even","34628","15545","NA","NA","NA","1667","NA","NA","35754","1672","NA","NA","35858","36467","35748","35858","Flanker task","12","6989","12","yes","2560"
"100","100","570.8461538461538","570.8461538461538","black","legacy","legacy","legacy","0","incongruent","uniform","1","undefined","1","s","12","0","0","0","12","0","12","0","12","0","0","0","12","12","12","12","Sun Sep 27 18:47:52 2020","1500","The main experiment item","yes","Flankertask.osexp","C:/Users/JHS6-EAGLE/Desktop/OpenSes Files","no","mono","no","18","no","white","no","no","1440","legacy","12","12","C:/Users/JHS6-EAGLE/Desktop/OpenSes Files/RL-subject-2.csv","legacy","Lentiform Loewenfeld","3.3.3","0","s","NA","h","NA","NA","s","432","NA","13872","NA","NA","432","2","legacy","1024","2","48000","-16","experiment","HHSHH","2","even","36475","15545","NA","NA","NA","1667","NA","NA","37603","1672","NA","NA","37707","38139","37598","37707","Flanker task","13","7421","13","yes","2560"
"100","100","559.6428571428571","559.6428571428571","black","legacy","legacy","legacy","0","incongruent","uniform","1","undefined","1","h","13","0","0","0","13","0","13","0","13","0","0","0","13","13","13","13","Sun Sep 27 18:47:52 2020","1500","The main experiment item","yes","Flankertask.osexp","C:/Users/JHS6-EAGLE/Desktop/OpenSes Files","no","mono","no","18","no","white","no","no","1440","legacy","13","13","C:/Users/JHS6-EAGLE/Desktop/OpenSes Files/RL-subject-2.csv","legacy","Lentiform Loewenfeld","3.3.3","0","h","NA","h","NA","NA","h","414","NA","13872","NA","NA","414","2","legacy","1024","2","48000","-16","experiment","SSHSS","2","even","38147","15545","NA","NA","NA","1667","NA","NA","39280","1672","NA","NA","39385","39799","39275","39384","Flanker task","14","7835","14","yes","2560"
"100","100","544.8","544.8","black","legacy","legacy","legacy","0","congruent","uniform","1","undefined","1","h","14","0","0","0","14","0","14","0","14","0","0","0","14","14","14","14","Sun Sep 27 18:47:52 2020","1500","The main experiment item","yes","Flankertask.osexp","C:/Users/JHS6-EAGLE/Desktop/OpenSes Files","no","mono","no","18","no","white","no","no","1440","legacy","14","14","C:/Users/JHS6-EAGLE/Desktop/OpenSes Files/RL-subject-2.csv","legacy","Lentiform Loewenfeld","3.3.3","0","h","NA","h","NA","NA","h","337","NA","13872","NA","NA","337","2","legacy","1024","2","48000","-16","experiment","HHHHH","2","even","39807","15545","NA","NA","NA","1667","NA","NA","40935","1672","NA","NA","41053","41390","40929","41053","Flanker task","15","8172","15","yes","2560"
"93.75","93.75","538.75","538.75","black","legacy","legacy","legacy","0","incongruent","uniform","0","undefined","0","s","15","0","0","0","15","0","15","0","15","0","0","0","15","15","15","15","Sun Sep 27 18:47:52 2020","1500","The main experiment item","yes","Flankertask.osexp","C:/Users/JHS6-EAGLE/Desktop/OpenSes Files","no","mono","no","18","no","white","no","no","1440","legacy","15","15","C:/Users/JHS6-EAGLE/Desktop/OpenSes Files/RL-subject-2.csv","legacy","Lentiform Loewenfeld","3.3.3","0","h","NA","h","NA","NA","h","448","NA","13872","NA","NA","448","2","legacy","1024","2","48000","-16","experiment","HHSHH","2","even","41397","15545","NA","NA","NA","1667","NA","NA","42523","1672","NA","NA","42629","43078","42517","42629","Flanker task","15","8620","16","yes","2560"
"88.23529411764706","88.23529411764706","538.3529411764706","538.3529411764706","black","legacy","legacy","legacy","0","incongruent","uniform","0","undefined","0","h","16","0","0","0","16","0","16","0","16","0","0","0","16","16","16","16","Sun Sep 27 18:47:52 2020","1500","The main experiment item","yes","Flankertask.osexp","C:/Users/JHS6-EAGLE/Desktop/OpenSes Files","no","mono","no","18","no","white","no","no","1440","legacy","16","16","C:/Users/JHS6-EAGLE/Desktop/OpenSes Files/RL-subject-2.csv","legacy","Lentiform Loewenfeld","3.3.3","0","s","NA","h","NA","NA","s","532","NA","13872","NA","NA","532","2","legacy","1024","2","48000","-16","experiment","SSHSS","2","even","43589","15545","NA","NA","43085","1667","NA","NA","44713","1672","NA","NA","44825","45358","44708","44825","Flanker task","15","9152","17","yes","2560"
"88.88888888888889","88.88888888888889","536.1111111111111","536.1111111111111","black","legacy","legacy","legacy","0","incongruent","uniform","1","undefined","1","h","17","0","0","0","17","0","17","0","17","0","0","0","17","17","17","17","Sun Sep 27 18:47:52 2020","1500","The main experiment item","yes","Flankertask.osexp","C:/Users/JHS6-EAGLE/Desktop/OpenSes Files","no","mono","no","18","no","white","no","no","1440","legacy","17","17","C:/Users/JHS6-EAGLE/Desktop/OpenSes Files/RL-subject-2.csv","legacy","Lentiform Loewenfeld","3.3.3","0","h","NA","h","NA","NA","h","498","NA","13872","NA","NA","498","2","legacy","1024","2","48000","-16","experiment","SSHSS","2","even","45869","15545","NA","NA","45365","1667","NA","NA","46996","1672","NA","NA","47101","47599","46990","47101","Flanker task","16","9650","18","yes","2560"
"89.47368421052632","89.47368421052632","545.1578947368421","545.1578947368421","black","legacy","legacy","legacy","0","incongruent","uniform","1","undefined","1","h","18","0","0","0","18","0","18","0","18","0","0","0","18","18","18","18","Sun Sep 27 18:47:52 2020","1500","The main experiment item","yes","Flankertask.osexp","C:/Users/JHS6-EAGLE/Desktop/OpenSes Files","no","mono","no","18","no","white","no","no","1440","legacy","18","18","C:/Users/JHS6-EAGLE/Desktop/OpenSes Files/RL-subject-2.csv","legacy","Lentiform Loewenfeld","3.3.3","0","h","NA","h","NA","NA","h","708","NA","13872","NA","NA","708","2","legacy","1024","2","48000","-16","experiment","SSHSS","2","even","47607","15545","NA","NA","45365","1667","NA","NA","48735","1672","NA","NA","48839","49548","48729","48839","Flanker task","17","10358","19","yes","2560"
"90","90","545.55","545.55","black","legacy","legacy","legacy","0","conruent","uniform","1","undefined","1","s","19","0","0","0","19","0","19","0","19","0","0","0","19","19","19","19","Sun Sep 27 18:47:52 2020","1500","The main experiment item","yes","Flankertask.osexp","C:/Users/JHS6-EAGLE/Desktop/OpenSes Files","no","mono","no","18","no","white","no","no","1440","legacy","19","19","C:/Users/JHS6-EAGLE/Desktop/OpenSes Files/RL-subject-2.csv","legacy","Lentiform Loewenfeld","3.3.3","0","s","NA","h","NA","NA","s","553","NA","13872","NA","NA","553","2","legacy","1024","2","48000","-16","experiment","SSSSS","2","even","49558","15545","NA","NA","45365","1667","NA","NA","50686","1672","NA","NA","50799","51352","50681","50799","Flanker task","18","10911","20","yes","2560"
"90.47619047619048","90.47619047619048","544.6190476190476","544.6190476190476","black","legacy","legacy","legacy","0","incongruent","uniform","1","undefined","1","h","20","0","0","0","20","0","20","0","20","0","0","0","20","20","20","20","Sun Sep 27 18:47:52 2020","1500","The main experiment item","yes","Flankertask.osexp","C:/Users/JHS6-EAGLE/Desktop/OpenSes Files","no","mono","no","18","no","white","no","no","1440","legacy","20","20","C:/Users/JHS6-EAGLE/Desktop/OpenSes Files/RL-subject-2.csv","legacy","Lentiform Loewenfeld","3.3.3","0","h","NA","h","NA","NA","h","526","NA","13872","NA","NA","526","2","legacy","1024","2","48000","-16","experiment","SSHSS","2","even","51361","15545","NA","NA","45365","1667","NA","NA","52491","1672","NA","NA","52597","53124","52485","52597","Flanker task","19","11437","21","yes","2560"
"86.36363636363636","86.36363636363636","545.0909090909091","545.0909090909091","black","legacy","legacy","legacy","0","incongruent","uniform","0","undefined","0","s","21","0","0","0","21","0","21","0","21","0","0","0","21","21","21","21","Sun Sep 27 18:47:52 2020","1500","The main experiment item","yes","Flankertask.osexp","C:/Users/JHS6-EAGLE/Desktop/OpenSes Files","no","mono","no","18","no","white","no","no","1440","legacy","21","21","C:/Users/JHS6-EAGLE/Desktop/OpenSes Files/RL-subject-2.csv","legacy","Lentiform Loewenfeld","3.3.3","0","h","NA","h","NA","NA","h","555","NA","13872","NA","NA","555","2","legacy","1024","2","48000","-16","experiment","HHSHH","2","even","53132","15545","NA","NA","45365","1667","NA","NA","54272","1672","NA","NA","54377","54933","54267","54377","Flanker task","19","11992","22","yes","2560"
"82.6086956521739","82.6086956521739","539.4782608695652","539.4782608695652","black","legacy","legacy","legacy","0","incongruent","uniform","0","undefined","0","s","22","0","0","0","22","0","22","0","22","0","0","0","22","22","22","22","Sun Sep 27 18:47:52 2020","1500","The main experiment item","yes","Flankertask.osexp","C:/Users/JHS6-EAGLE/Desktop/OpenSes Files","no","mono","no","18","no","white","no","no","1440","legacy","22","22","C:/Users/JHS6-EAGLE/Desktop/OpenSes Files/RL-subject-2.csv","legacy","Lentiform Loewenfeld","3.3.3","0","h","NA","h","NA","NA","h","416","NA","13872","NA","NA","416","2","legacy","1024","2","48000","-16","experiment","HHSHH","2","even","55445","15545","NA","NA","54941","1667","NA","NA","56571","1672","NA","NA","56685","57101","56564","56685","Flanker task","19","12408","23","yes","2560"
"83.33333333333333","83.33333333333333","537.5","537.5","black","legacy","legacy","legacy","0","conruent","uniform","1","undefined","1","s","23","0","0","0","23","0","23","0","23","0","0","0","23","23","23","23","Sun Sep 27 18:47:52 2020","1500","The main experiment item","yes","Flankertask.osexp","C:/Users/JHS6-EAGLE/Desktop/OpenSes Files","no","mono","no","18","no","white","no","no","1440","legacy","23","23","C:/Users/JHS6-EAGLE/Desktop/OpenSes Files/RL-subject-2.csv","legacy","Lentiform Loewenfeld","3.3.3","0","s","NA","h","NA","NA","s","492","NA","13872","NA","NA","492","2","legacy","1024","2","48000","-16","experiment","SSSSS","2","even","57625","15545","NA","NA","57109","1667","NA","NA","58750","1672","NA","NA","58854","59346","58745","58854","Flanker task","20","12900","24","yes","2560"
"84","84","534.28","534.28","black","legacy","legacy","legacy","0","incongruent","uniform","1","undefined","1","s","24","0","0","0","24","0","24","0","24","0","0","0","24","24","24","24","Sun Sep 27 18:47:52 2020","1500","The main experiment item","yes","Flankertask.osexp","C:/Users/JHS6-EAGLE/Desktop/OpenSes Files","no","mono","no","18","no","white","no","no","1440","legacy","24","24","C:/Users/JHS6-EAGLE/Desktop/OpenSes Files/RL-subject-2.csv","legacy","Lentiform Loewenfeld","3.3.3","0","s","NA","h","NA","NA","s","457","NA","13872","NA","NA","457","2","legacy","1024","2","48000","-16","experiment","HHSHH","2","even","59354","15545","NA","NA","57109","1667","NA","NA","60489","1672","NA","NA","60593","61050","60479","60593","Flanker task","21","13357","25","yes","2560"
"84.61538461538461","84.61538461538461","533.1923076923077","533.1923076923077","black","legacy","legacy","legacy","0","conruent","uniform","1","undefined","1","s","25","0","0","0","25","0","25","0","25","0","0","0","25","25","25","25","Sun Sep 27 18:47:52 2020","1500","The main experiment item","yes","Flankertask.osexp","C:/Users/JHS6-EAGLE/Desktop/OpenSes Files","no","mono","no","18","no","white","no","no","1440","legacy","25","25","C:/Users/JHS6-EAGLE/Desktop/OpenSes Files/RL-subject-2.csv","legacy","Lentiform Loewenfeld","3.3.3","0","s","NA","h","NA","NA","s","506","NA","13872","NA","NA","506","2","legacy","1024","2","48000","-16","experiment","SSSSS","2","even","61057","15545","NA","NA","57109","1667","NA","NA","62194","1672","NA","NA","62299","62805","62188","62299","Flanker task","22","13863","26","yes","2560"
"85.18518518518519","85.18518518518519","533.2222222222222","533.2222222222222","black","legacy","legacy","legacy","0","incongruent","uniform","1","undefined","1","h","26","0","0","0","26","0","26","0","26","0","0","0","26","26","26","26","Sun Sep 27 18:47:52 2020","1500","The main experiment item","yes","Flankertask.osexp","C:/Users/JHS6-EAGLE/Desktop/OpenSes Files","no","mono","no","18","no","white","no","no","1440","legacy","26","26","C:/Users/JHS6-EAGLE/Desktop/OpenSes Files/RL-subject-2.csv","legacy","Lentiform Loewenfeld","3.3.3","0","h","NA","h","NA","NA","h","534","NA","13872","NA","NA","534","2","legacy","1024","2","48000","-16","experiment","SSHSS","2","even","62813","15545","NA","NA","57109","1667","NA","NA","63944","1672","NA","NA","64055","64589","63938","64054","Flanker task","23","14397","27","yes","2560"
"85.71428571428571","85.71428571428571","527.1428571428571","527.1428571428571","black","legacy","legacy","legacy","0","conruent","uniform","1","undefined","1","s","27","0","0","0","27","0","27","0","27","0","0","0","27","27","27","27","Sun Sep 27 18:47:52 2020","1500","The main experiment item","yes","Flankertask.osexp","C:/Users/JHS6-EAGLE/Desktop/OpenSes Files","no","mono","no","18","no","white","no","no","1440","legacy","27","27","C:/Users/JHS6-EAGLE/Desktop/OpenSes Files/RL-subject-2.csv","legacy","Lentiform Loewenfeld","3.3.3","0","s","NA","h","NA","NA","s","363","NA","13872","NA","NA","363","2","legacy","1024","2","48000","-16","experiment","SSSSS","2","even","64597","15545","NA","NA","57109","1667","NA","NA","65723","1672","NA","NA","65828","66191","65717","65828","Flanker task","24","14760","28","yes","2560"
"86.20689655172414","86.20689655172414","541.551724137931","541.551724137931","black","legacy","legacy","legacy","0","congruent","uniform","1","undefined","1","h","28","0","0","0","28","0","28","0","28","0","0","0","28","28","28","28","Sun Sep 27 18:47:52 2020","1500","The main experiment item","yes","Flankertask.osexp","C:/Users/JHS6-EAGLE/Desktop/OpenSes Files","no","mono","no","18","no","white","no","no","1440","legacy","28","28","C:/Users/JHS6-EAGLE/Desktop/OpenSes Files/RL-subject-2.csv","legacy","Lentiform Loewenfeld","3.3.3","0","h","NA","h","NA","NA","h","945","NA","13872","NA","NA","945","2","legacy","1024","2","48000","-16","experiment","HHHHH","2","even","66199","15545","NA","NA","57109","1667","NA","NA","67323","1672","NA","NA","67427","68372","67317","67427","Flanker task","25","15705","29","yes","2560"
"83.33333333333333","83.33333333333333","573.5","573.5","black","legacy","legacy","legacy","0","incongruent","uniform","0","undefined","0","h","29","0","0","0","29","0","29","0","29","0","0","0","29","29","29","29","Sun Sep 27 18:47:52 2020","1500","The main experiment item","yes","Flankertask.osexp","C:/Users/JHS6-EAGLE/Desktop/OpenSes Files","no","mono","no","18","no","white","no","no","1440","legacy","29","29","C:/Users/JHS6-EAGLE/Desktop/OpenSes Files/RL-subject-2.csv","legacy","Lentiform Loewenfeld","3.3.3","0","None","NA","h","NA","NA","None","1500","NA","13872","NA","NA","1500","2","legacy","1024","2","48000","-16","experiment","SSHSS","2","even","68380","15545","NA","NA","57109","1667","NA","NA","69506","1672","NA","NA","69610","71110","69500","69610","Flanker task","25","17205","30","yes","2560"
"83.87096774193549","83.87096774193549","576.9032258064516","576.9032258064516","black","legacy","legacy","legacy","0","congruent","uniform","1","undefined","1","h","30","0","0","0","30","0","30","0","30","0","0","0","30","30","30","30","Sun Sep 27 18:47:52 2020","1500","The main experiment item","yes","Flankertask.osexp","C:/Users/JHS6-EAGLE/Desktop/OpenSes Files","no","mono","no","18","no","white","no","no","1440","legacy","30","30","C:/Users/JHS6-EAGLE/Desktop/OpenSes Files/RL-subject-2.csv","legacy","Lentiform Loewenfeld","3.3.3","0","h","NA","h","NA","NA","h","679","NA","13872","NA","NA","679","2","legacy","1024","2","48000","-16","experiment","HHHHH","2","even","71621","15545","NA","NA","71117","1667","NA","NA","72759","1672","NA","NA","72863","73542","72753","72863","Flanker task","26","17884","31","yes","2560"
"84.375","84.375","580.8125","580.8125","black","legacy","legacy","legacy","0","incongruent","uniform","1","undefined","1","s","31","0","0","0","31","0","31","0","31","0","0","0","31","31","31","31","Sun Sep 27 18:47:52 2020","1500","The main experiment item","yes","Flankertask.osexp","C:/Users/JHS6-EAGLE/Desktop/OpenSes Files","no","mono","no","18","no","white","no","no","1440","legacy","31","31","C:/Users/JHS6-EAGLE/Desktop/OpenSes Files/RL-subject-2.csv","legacy","Lentiform Loewenfeld","3.3.3","0","s","NA","h","NA","NA","s","702","NA","13872","NA","NA","702","2","legacy","1024","2","48000","-16","experiment","HHSHH","2","even","73550","15545","NA","NA","71117","1667","NA","NA","74682","1672","NA","NA","74786","75488","74675","74786","Flanker task","27","18586","32","yes","2560"
"84.84848484848484","84.84848484848484","585","585","black","legacy","legacy","legacy","0","congruent","uniform","1","undefined","1","h","32","0","0","0","32","0","32","0","32","0","0","0","32","32","32","32","Sun Sep 27 18:47:52 2020","1500","The main experiment item","yes","Flankertask.osexp","C:/Users/JHS6-EAGLE/Desktop/OpenSes Files","no","mono","no","18","no","white","no","no","1440","legacy","32","32","C:/Users/JHS6-EAGLE/Desktop/OpenSes Files/RL-subject-2.csv","legacy","Lentiform Loewenfeld","3.3.3","0","h","NA","h","NA","NA","h","719","NA","13872","NA","NA","719","2","legacy","1024","2","48000","-16","experiment","HHHHH","2","even","75496","15545","NA","NA","71117","1667","NA","NA","76621","1672","NA","NA","76740","77459","76616","76740","Flanker task","28","19305","33","yes","2560"
"85.29411764705883","85.29411764705883","588.3823529411765","588.3823529411765","black","legacy","legacy","legacy","0","incongruent","uniform","1","undefined","1","h","33","0","0","0","33","0","33","0","33","0","0","0","33","33","33","33","Sun Sep 27 18:47:52 2020","1500","The main experiment item","yes","Flankertask.osexp","C:/Users/JHS6-EAGLE/Desktop/OpenSes Files","no","mono","no","18","no","white","no","no","1440","legacy","33","33","C:/Users/JHS6-EAGLE/Desktop/OpenSes Files/RL-subject-2.csv","legacy","Lentiform Loewenfeld","3.3.3","0","h","NA","h","NA","NA","h","700","NA","13872","NA","NA","700","2","legacy","1024","2","48000","-16","experiment","SSHSS","2","even","77466","15545","NA","NA","71117","1667","NA","NA","78591","1672","NA","NA","78696","79396","78585","78696","Flanker task","29","20005","34","yes","2560"
"85.71428571428571","85.71428571428571","590.8571428571429","590.8571428571429","black","legacy","legacy","legacy","0","incongruent","uniform","1","undefined","1","h","34","0","0","0","34","0","34","0","34","0","0","0","34","34","34","34","Sun Sep 27 18:47:52 2020","1500","The main experiment item","yes","Flankertask.osexp","C:/Users/JHS6-EAGLE/Desktop/OpenSes Files","no","mono","no","18","no","white","no","no","1440","legacy","34","34","C:/Users/JHS6-EAGLE/Desktop/OpenSes Files/RL-subject-2.csv","legacy","Lentiform Loewenfeld","3.3.3","0","h","NA","h","NA","NA","h","675","NA","13872","NA","NA","675","2","legacy","1024","2","48000","-16","experiment","SSHSS","2","even","79404","15545","NA","NA","71117","1667","NA","NA","80529","1672","NA","NA","80633","81308","80524","80633","Flanker task","30","20680","35","yes","2560"
"86.11111111111111","86.11111111111111","589.2777777777778","589.2777777777778","black","legacy","legacy","legacy","0","congruent","uniform","1","undefined","1","h","35","0","0","0","35","0","35","0","35","0","0","0","35","35","35","35","Sun Sep 27 18:47:52 2020","1500","The main experiment item","yes","Flankertask.osexp","C:/Users/JHS6-EAGLE/Desktop/OpenSes Files","no","mono","no","18","no","white","no","no","1440","legacy","35","35","C:/Users/JHS6-EAGLE/Desktop/OpenSes Files/RL-subject-2.csv","legacy","Lentiform Loewenfeld","3.3.3","0","h","NA","h","NA","NA","h","534","NA","13872","NA","NA","534","2","legacy","1024","2","48000","-16","experiment","HHHHH","2","even","81316","15545","NA","NA","71117","1667","NA","NA","82443","1672","NA","NA","82559","83093","82437","82559","Flanker task","31","21214","36","yes","2560"
"86.48648648648648","86.48648648648648","585.5135135135135","585.5135135135135","black","legacy","legacy","legacy","0","incongruent","uniform","1","undefined","1","h","36","0","0","0","36","0","36","0","36","0","0","0","36","36","36","36","Sun Sep 27 18:47:52 2020","1500","The main experiment item","yes","Flankertask.osexp","C:/Users/JHS6-EAGLE/Desktop/OpenSes Files","no","mono","no","18","no","white","no","no","1440","legacy","36","36","C:/Users/JHS6-EAGLE/Desktop/OpenSes Files/RL-subject-2.csv","legacy","Lentiform Loewenfeld","3.3.3","0","h","NA","h","NA","NA","h","450","NA","13872","NA","NA","450","2","legacy","1024","2","48000","-16","experiment","SSHSS","2","even","83100","15545","NA","NA","71117","1667","NA","NA","84244","1672","NA","NA","84349","84800","84238","84348","Flanker task","32","21664","37","yes","2560"
"86.84210526315789","86.84210526315789","581.5526315789474","581.5526315789474","black","legacy","legacy","legacy","0","congruent","uniform","1","undefined","1","h","37","0","0","0","37","0","37","0","37","0","0","0","37","37","37","37","Sun Sep 27 18:47:52 2020","1500","The main experiment item","yes","Flankertask.osexp","C:/Users/JHS6-EAGLE/Desktop/OpenSes Files","no","mono","no","18","no","white","no","no","1440","legacy","37","37","C:/Users/JHS6-EAGLE/Desktop/OpenSes Files/RL-subject-2.csv","legacy","Lentiform Loewenfeld","3.3.3","0","h","NA","h","NA","NA","h","435","NA","13872","NA","NA","435","2","legacy","1024","2","48000","-16","experiment","HHHHH","2","even","84807","15545","NA","NA","71117","1667","NA","NA","85934","1672","NA","NA","86039","86475","85928","86038","Flanker task","33","22099","38","yes","2560"
"87.17948717948718","87.17948717948718","576.5897435897435","576.5897435897435","black","legacy","legacy","legacy","0","congruent","uniform","1","undefined","1","h","38","0","0","0","38","0","38","0","38","0","0","0","38","38","38","38","Sun Sep 27 18:47:52 2020","1500","The main experiment item","yes","Flankertask.osexp","C:/Users/JHS6-EAGLE/Desktop/OpenSes Files","no","mono","no","18","no","white","no","no","1440","legacy","38","38","C:/Users/JHS6-EAGLE/Desktop/OpenSes Files/RL-subject-2.csv","legacy","Lentiform Loewenfeld","3.3.3","0","h","NA","h","NA","NA","h","388","NA","13872","NA","NA","388","2","legacy","1024","2","48000","-16","experiment","HHHHH","2","even","86483","15545","NA","NA","71117","1667","NA","NA","87617","1672","NA","NA","87726","88114","87611","87726","Flanker task","34","22487","39","yes","2560"
"87.5","87.5","570.525","570.525","black","legacy","legacy","legacy","0","congruent","uniform","1","undefined","1","h","39","0","0","0","39","0","39","0","39","0","0","0","39","39","39","39","Sun Sep 27 18:47:52 2020","1500","The main experiment item","yes","Flankertask.osexp","C:/Users/JHS6-EAGLE/Desktop/OpenSes Files","no","mono","no","18","no","white","no","no","1440","legacy","39","39","C:/Users/JHS6-EAGLE/Desktop/OpenSes Files/RL-subject-2.csv","legacy","Lentiform Loewenfeld","3.3.3","0","h","NA","h","NA","NA","h","334","NA","13872","NA","NA","334","2","legacy","1024","2","48000","-16","experiment","HHHHH","2","even","88122","15545","NA","NA","71117","1667","NA","NA","89248","1672","NA","NA","89363","89698","89242","89363","Flanker task","35","22821","40","yes","2560"
"87.8048780487805","87.8048780487805","564.7073170731708","564.7073170731708","black","legacy","legacy","legacy","0","incongruent","uniform","1","undefined","1","h","40","0","0","0","40","0","40","0","40","0","0","0","40","40","40","40","Sun Sep 27 18:47:52 2020","1500","The main experiment item","yes","Flankertask.osexp","C:/Users/JHS6-EAGLE/Desktop/OpenSes Files","no","mono","no","18","no","white","no","no","1440","legacy","40","40","C:/Users/JHS6-EAGLE/Desktop/OpenSes Files/RL-subject-2.csv","legacy","Lentiform Loewenfeld","3.3.3","0","h","NA","h","NA","NA","h","332","NA","13872","NA","NA","332","2","legacy","1024","2","48000","-16","experiment","SSHSS","2","even","89704","15545","NA","NA","71117","1667","NA","NA","90837","1672","NA","NA","90942","91275","90829","90941","Flanker task","36","23153","41","yes","2560"
"88.0952380952381","88.0952380952381","562.2619047619048","562.2619047619048","black","legacy","legacy","legacy","0","congruent","uniform","1","undefined","1","h","41","0","0","0","41","0","41","0","41","0","0","0","41","41","41","41","Sun Sep 27 18:47:52 2020","1500","The main experiment item","yes","Flankertask.osexp","C:/Users/JHS6-EAGLE/Desktop/OpenSes Files","no","mono","no","18","no","white","no","no","1440","legacy","41","41","C:/Users/JHS6-EAGLE/Desktop/OpenSes Files/RL-subject-2.csv","legacy","Lentiform Loewenfeld","3.3.3","0","h","NA","h","NA","NA","h","462","NA","13872","NA","NA","462","2","legacy","1024","2","48000","-16","experiment","HHHHH","2","even","91283","15545","NA","NA","71117","1667","NA","NA","92409","1672","NA","NA","92525","92988","92403","92525","Flanker task","37","23615","42","yes","2560"
"88.37209302325581","88.37209302325581","561.4186046511628","561.4186046511628","black","legacy","legacy","legacy","0","conruent","uniform","1","undefined","1","s","42","0","0","0","42","0","42","0","42","0","0","0","42","42","42","42","Sun Sep 27 18:47:52 2020","1500","The main experiment item","yes","Flankertask.osexp","C:/Users/JHS6-EAGLE/Desktop/OpenSes Files","no","mono","no","18","no","white","no","no","1440","legacy","42","42","C:/Users/JHS6-EAGLE/Desktop/OpenSes Files/RL-subject-2.csv","legacy","Lentiform Loewenfeld","3.3.3","0","s","NA","h","NA","NA","s","526","NA","13872","NA","NA","526","2","legacy","1024","2","48000","-16","experiment","SSSSS","2","even","92995","15545","NA","NA","71117","1667","NA","NA","94120","1672","NA","NA","94225","94752","94114","94224","Flanker task","38","24141","43","yes","2560"
"86.36363636363636","86.36363636363636","559.0909090909091","559.0909090909091","black","legacy","legacy","legacy","0","incongruent","uniform","0","undefined","0","s","43","0","0","0","43","0","43","0","43","0","0","0","43","43","43","43","Sun Sep 27 18:47:52 2020","1500","The main experiment item","yes","Flankertask.osexp","C:/Users/JHS6-EAGLE/Desktop/OpenSes Files","no","mono","no","18","no","white","no","no","1440","legacy","43","43","C:/Users/JHS6-EAGLE/Desktop/OpenSes Files/RL-subject-2.csv","legacy","Lentiform Loewenfeld","3.3.3","0","h","NA","h","NA","NA","h","459","NA","13872","NA","NA","459","2","legacy","1024","2","48000","-16","experiment","HHSHH","2","even","94759","15545","NA","NA","71117","1667","NA","NA","95890","1672","NA","NA","95994","96454","95878","95994","Flanker task","38","24600","44","yes","2560"
"86.66666666666667","86.66666666666667","556.0666666666667","556.0666666666667","black","legacy","legacy","legacy","0","congruent","uniform","1","undefined","1","h","44","0","0","0","44","0","44","0","44","0","0","0","44","44","44","44","Sun Sep 27 18:47:52 2020","1500","The main experiment item","yes","Flankertask.osexp","C:/Users/JHS6-EAGLE/Desktop/OpenSes Files","no","mono","no","18","no","white","no","no","1440","legacy","44","44","C:/Users/JHS6-EAGLE/Desktop/OpenSes Files/RL-subject-2.csv","legacy","Lentiform Loewenfeld","3.3.3","0","h","NA","h","NA","NA","h","423","NA","13872","NA","NA","423","2","legacy","1024","2","48000","-16","experiment","HHHHH","2","even","96966","15545","NA","NA","96462","1667","NA","NA","98097","1672","NA","NA","98204","98627","98092","98204","Flanker task","39","25023","45","yes","2560"
"86.95652173913044","86.95652173913044","552.2173913043479","552.2173913043479","black","legacy","legacy","legacy","0","congruent","uniform","1","undefined","1","h","45","0","0","0","45","0","45","0","45","0","0","0","45","45","45","45","Sun Sep 27 18:47:52 2020","1500","The main experiment item","yes","Flankertask.osexp","C:/Users/JHS6-EAGLE/Desktop/OpenSes Files","no","mono","no","18","no","white","no","no","1440","legacy","45","45","C:/Users/JHS6-EAGLE/Desktop/OpenSes Files/RL-subject-2.csv","legacy","Lentiform Loewenfeld","3.3.3","0","h","NA","h","NA","NA","h","379","NA","13872","NA","NA","379","2","legacy","1024","2","48000","-16","experiment","HHHHH","2","even","98635","15545","NA","NA","96462","1667","NA","NA","99761","1672","NA","NA","99866","100246","99755","99866","Flanker task","40","25402","46","yes","2560"
"87.23404255319149","87.23404255319149","550.8510638297872","550.8510638297872","black","legacy","legacy","legacy","0","incongruent","uniform","1","undefined","1","h","46","0","0","0","46","0","46","0","46","0","0","0","46","46","46","46","Sun Sep 27 18:47:52 2020","1500","The main experiment item","yes","Flankertask.osexp","C:/Users/JHS6-EAGLE/Desktop/OpenSes Files","no","mono","no","18","no","white","no","no","1440","legacy","46","46","C:/Users/JHS6-EAGLE/Desktop/OpenSes Files/RL-subject-2.csv","legacy","Lentiform Loewenfeld","3.3.3","0","h","NA","h","NA","NA","h","488","NA","13872","NA","NA","488","2","legacy","1024","2","48000","-16","experiment","SSHSS","2","even","100253","15545","NA","NA","96462","1667","NA","NA","101379","1672","NA","NA","101484","101973","101372","101484","Flanker task","41","25890","47","yes","2560"
"85.41666666666667","85.41666666666667","546.4583333333334","546.4583333333334","black","legacy","legacy","legacy","0","conruent","uniform","0","undefined","0","s","47","0","0","0","47","0","47","0","47","0","0","0","47","47","47","47","Sun Sep 27 18:47:52 2020","1500","The main experiment item","yes","Flankertask.osexp","C:/Users/JHS6-EAGLE/Desktop/OpenSes Files","no","mono","no","18","no","white","no","no","1440","legacy","47","47","C:/Users/JHS6-EAGLE/Desktop/OpenSes Files/RL-subject-2.csv","legacy","Lentiform Loewenfeld","3.3.3","0","h","NA","h","NA","NA","h","340","NA","13872","NA","NA","340","2","legacy","1024","2","48000","-16","experiment","SSSSS","2","even","101979","15545","NA","NA","96462","1667","NA","NA","103107","1672","NA","NA","103225","103565","103102","103225","Flanker task","41","26230","48","yes","2560"
"85.71428571428571","85.71428571428571","551.4285714285714","551.4285714285714","black","legacy","legacy","legacy","0","congruent","uniform","1","undefined","1","h","48","0","0","0","48","0","48","0","48","0","0","0","48","48","48","48","Sun Sep 27 18:47:52 2020","1500","The main experiment item","yes","Flankertask.osexp","C:/Users/JHS6-EAGLE/Desktop/OpenSes Files","no","mono","no","18","no","white","no","no","1440","legacy","48","48","C:/Users/JHS6-EAGLE/Desktop/OpenSes Files/RL-subject-2.csv","legacy","Lentiform Loewenfeld","3.3.3","0","h","NA","h","NA","NA","h","790","NA","13872","NA","NA","790","2","legacy","1024","2","48000","-16","experiment","HHHHH","2","even","104082","15545","NA","NA","103576","1667","NA","NA","105207","1672","NA","NA","105325","106115","105202","105325","Flanker task","42","27020","49","yes","2560"
"84","84","547.66","547.66","black","legacy","legacy","legacy","0","incongruent","uniform","0","undefined","0","s","49","0","0","0","49","0","49","0","49","0","0","0","49","49","49","49","Sun Sep 27 18:47:52 2020","1500","The main experiment item","yes","Flankertask.osexp","C:/Users/JHS6-EAGLE/Desktop/OpenSes Files","no","mono","no","18","no","white","no","no","1440","legacy","49","49","C:/Users/JHS6-EAGLE/Desktop/OpenSes Files/RL-subject-2.csv","legacy","Lentiform Loewenfeld","3.3.3","0","h","NA","h","NA","NA","h","363","NA","13872","NA","NA","363","2","legacy","1024","2","48000","-16","experiment","HHSHH","2","even","106123","15545","NA","NA","103576","1667","NA","NA","107249","1672","NA","NA","107353","107716","107243","107353","Flanker task","42","27383","50","yes","2560"
"84.31372549019608","84.31372549019608","556.9411764705883","556.9411764705883","black","legacy","legacy","legacy","0","conruent","uniform","1","undefined","1","s","50","0","0","0","50","0","50","0","50","0","0","0","50","50","50","50","Sun Sep 27 18:47:52 2020","1500","The main experiment item","yes","Flankertask.osexp","C:/Users/JHS6-EAGLE/Desktop/OpenSes Files","no","mono","no","18","no","white","no","no","1440","legacy","50","50","C:/Users/JHS6-EAGLE/Desktop/OpenSes Files/RL-subject-2.csv","legacy","Lentiform Loewenfeld","3.3.3","0","s","NA","h","NA","NA","s","1021","NA","13872","NA","NA","1021","2","legacy","1024","2","48000","-16","experiment","SSSSS","2","even","108228","15545","NA","NA","107724","1667","NA","NA","109353","1672","NA","NA","109457","110478","109348","109457","Flanker task","43","28404","51","yes","2560"
"84.61538461538461","84.61538461538461","555.1923076923077","555.1923076923077","black","legacy","legacy","legacy","0","conruent","uniform","1","undefined","1","s","51","0","0","0","51","0","51","0","51","0","0","0","51","51","51","51","Sun Sep 27 18:47:52 2020","1500","The main experiment item","yes","Flankertask.osexp","C:/Users/JHS6-EAGLE/Desktop/OpenSes Files","no","mono","no","18","no","white","no","no","1440","legacy","51","51","C:/Users/JHS6-EAGLE/Desktop/OpenSes Files/RL-subject-2.csv","legacy","Lentiform Loewenfeld","3.3.3","0","s","NA","h","NA","NA","s","466","NA","13872","NA","NA","466","2","legacy","1024","2","48000","-16","experiment","SSSSS","2","even","110486","15545","NA","NA","107724","1667","NA","NA","111609","1672","NA","NA","111714","112180","111603","111714","Flanker task","44","28870","52","yes","2560"
"84.90566037735849","84.90566037735849","552.0377358490566","552.0377358490566","black","legacy","legacy","legacy","0","incongruent","uniform","1","undefined","1","h","52","0","0","0","52","0","52","0","52","0","0","0","52","52","52","52","Sun Sep 27 18:47:52 2020","1500","The main experiment item","yes","Flankertask.osexp","C:/Users/JHS6-EAGLE/Desktop/OpenSes Files","no","mono","no","18","no","white","no","no","1440","legacy","52","52","C:/Users/JHS6-EAGLE/Desktop/OpenSes Files/RL-subject-2.csv","legacy","Lentiform Loewenfeld","3.3.3","0","h","NA","h","NA","NA","h","388","NA","13872","NA","NA","388","2","legacy","1024","2","48000","-16","experiment","SSHSS","2","even","112188","15545","NA","NA","107724","1667","NA","NA","113313","1672","NA","NA","113419","113808","113308","113419","Flanker task","45","29258","53","yes","2560"
"85.18518518518519","85.18518518518519","548.9074074074074","548.9074074074074","black","legacy","legacy","legacy","0","incongruent","uniform","1","undefined","1","h","53","0","0","0","53","0","53","0","53","0","0","0","53","53","53","53","Sun Sep 27 18:47:52 2020","1500","The main experiment item","yes","Flankertask.osexp","C:/Users/JHS6-EAGLE/Desktop/OpenSes Files","no","mono","no","18","no","white","no","no","1440","legacy","53","53","C:/Users/JHS6-EAGLE/Desktop/OpenSes Files/RL-subject-2.csv","legacy","Lentiform Loewenfeld","3.3.3","0","h","NA","h","NA","NA","h","383","NA","13872","NA","NA","383","2","legacy","1024","2","48000","-16","experiment","SSHSS","2","even","113816","15545","NA","NA","107724","1667","NA","NA","114942","1672","NA","NA","115058","115443","114936","115058","Flanker task","46","29641","54","yes","2560"
"85.45454545454545","85.45454545454545","545.6909090909091","545.6909090909091","black","legacy","legacy","legacy","0","congruent","uniform","1","undefined","1","h","54","0","0","0","54","0","54","0","54","0","0","0","54","54","54","54","Sun Sep 27 18:47:52 2020","1500","The main experiment item","yes","Flankertask.osexp","C:/Users/JHS6-EAGLE/Desktop/OpenSes Files","no","mono","no","18","no","white","no","no","1440","legacy","54","54","C:/Users/JHS6-EAGLE/Desktop/OpenSes Files/RL-subject-2.csv","legacy","Lentiform Loewenfeld","3.3.3","0","h","NA","h","NA","NA","h","372","NA","13872","NA","NA","372","2","legacy","1024","2","48000","-16","experiment","HHHHH","2","even","115450","15545","NA","NA","107724","1667","NA","NA","116576","1672","NA","NA","116682","117055","116571","116682","Flanker task","47","30013","55","yes","2560"
"85.71428571428571","85.71428571428571","543.9464285714286","543.9464285714286","black","legacy","legacy","legacy","0","incongruent","uniform","1","undefined","1","s","55","0","0","0","55","0","55","0","55","0","0","0","55","55","55","55","Sun Sep 27 18:47:52 2020","1500","The main experiment item","yes","Flankertask.osexp","C:/Users/JHS6-EAGLE/Desktop/OpenSes Files","no","mono","no","18","no","white","no","no","1440","legacy","55","55","C:/Users/JHS6-EAGLE/Desktop/OpenSes Files/RL-subject-2.csv","legacy","Lentiform Loewenfeld","3.3.3","0","s","NA","h","NA","NA","s","448","NA","13872","NA","NA","448","2","legacy","1024","2","48000","-16","experiment","HHSHH","2","even","117063","15545","NA","NA","107724","1667","NA","NA","118188","1672","NA","NA","118293","118741","118183","118293","Flanker task","48","30461","56","yes","2560"
"85.96491228070175","85.96491228070175","541.6315789473684","541.6315789473684","black","legacy","legacy","legacy","0","conruent","uniform","1","undefined","1","s","56","0","0","0","56","0","56","0","56","0","0","0","56","56","56","56","Sun Sep 27 18:47:52 2020","1500","The main experiment item","yes","Flankertask.osexp","C:/Users/JHS6-EAGLE/Desktop/OpenSes Files","no","mono","no","18","no","white","no","no","1440","legacy","56","56","C:/Users/JHS6-EAGLE/Desktop/OpenSes Files/RL-subject-2.csv","legacy","Lentiform Loewenfeld","3.3.3","0","s","NA","h","NA","NA","s","412","NA","13872","NA","NA","412","2","legacy","1024","2","48000","-16","experiment","SSSSS","2","even","118749","15545","NA","NA","107724","1667","NA","NA","119876","1672","NA","NA","119980","120392","119870","119980","Flanker task","49","30873","57","yes","2560"
"86.20689655172414","86.20689655172414","539.1206896551724","539.1206896551724","black","legacy","legacy","legacy","0","congruent","uniform","1","undefined","1","h","57","0","0","0","57","0","57","0","57","0","0","0","57","57","57","57","Sun Sep 27 18:47:52 2020","1500","The main experiment item","yes","Flankertask.osexp","C:/Users/JHS6-EAGLE/Desktop/OpenSes Files","no","mono","no","18","no","white","no","no","1440","legacy","57","57","C:/Users/JHS6-EAGLE/Desktop/OpenSes Files/RL-subject-2.csv","legacy","Lentiform Loewenfeld","3.3.3","0","h","NA","h","NA","NA","h","396","NA","13872","NA","NA","396","2","legacy","1024","2","48000","-16","experiment","HHHHH","2","even","120400","15545","NA","NA","107724","1667","NA","NA","121525","1672","NA","NA","121629","122026","121520","121629","Flanker task","50","31269","58","yes","2560"
"86.44067796610169","86.44067796610169","540.3220338983051","540.3220338983051","black","legacy","legacy","legacy","0","conruent","uniform","1","undefined","1","s","58","0","0","0","58","0","58","0","58","0","0","0","58","58","58","58","Sun Sep 27 18:47:52 2020","1500","The main experiment item","yes","Flankertask.osexp","C:/Users/JHS6-EAGLE/Desktop/OpenSes Files","no","mono","no","18","no","white","no","no","1440","legacy","58","58","C:/Users/JHS6-EAGLE/Desktop/OpenSes Files/RL-subject-2.csv","legacy","Lentiform Loewenfeld","3.3.3","0","s","NA","h","NA","NA","s","610","NA","13872","NA","NA","610","2","legacy","1024","2","48000","-16","experiment","SSSSS","2","even","122034","15545","NA","NA","107724","1667","NA","NA","123159","1672","NA","NA","123271","123882","123153","123271","Flanker task","51","31879","59","yes","2560"
"86.66666666666667","86.66666666666667","538.65","538.65","black","legacy","legacy","legacy","0","conruent","uniform","1","undefined","1","s","59","0","0","0","59","0","59","0","59","0","0","0","59","59","59","59","Sun Sep 27 18:47:52 2020","1500","The main experiment item","yes","Flankertask.osexp","C:/Users/JHS6-EAGLE/Desktop/OpenSes Files","no","mono","no","18","no","white","no","no","1440","legacy","59","59","C:/Users/JHS6-EAGLE/Desktop/OpenSes Files/RL-subject-2.csv","legacy","Lentiform Loewenfeld","3.3.3","0","s","NA","h","NA","NA","s","440","NA","13872","NA","NA","440","2","legacy","1024","2","48000","-16","experiment","SSSSS","2","even","123890","15545","NA","NA","107724","1667","NA","NA","125016","1672","NA","NA","125121","125561","125010","125121","Flanker task","52","32319","60","yes","2560"
"86.88524590163935","86.88524590163935","537.655737704918","537.655737704918","black","legacy","legacy","legacy","0","conruent","uniform","1","undefined","1","s","60","0","0","0","60","0","60","0","60","0","0","0","60","60","60","60","Sun Sep 27 18:47:52 2020","1500","The main experiment item","yes","Flankertask.osexp","C:/Users/JHS6-EAGLE/Desktop/OpenSes Files","no","mono","no","18","no","white","no","no","1440","legacy","60","60","C:/Users/JHS6-EAGLE/Desktop/OpenSes Files/RL-subject-2.csv","legacy","Lentiform Loewenfeld","3.3.3","0","s","NA","h","NA","NA","s","478","NA","13872","NA","NA","478","2","legacy","1024","2","48000","-16","experiment","SSSSS","2","even","125569","15545","NA","NA","107724","1667","NA","NA","126699","1672","NA","NA","126803","127282","126693","126803","Flanker task","53","32797","61","yes","2560"
"87.09677419354838","87.09677419354838","535.9516129032259","535.9516129032259","black","legacy","legacy","legacy","0","incongruent","uniform","1","undefined","1","s","61","0","0","0","61","0","61","0","61","0","0","0","61","61","61","61","Sun Sep 27 18:47:52 2020","1500","The main experiment item","yes","Flankertask.osexp","C:/Users/JHS6-EAGLE/Desktop/OpenSes Files","no","mono","no","18","no","white","no","no","1440","legacy","61","61","C:/Users/JHS6-EAGLE/Desktop/OpenSes Files/RL-subject-2.csv","legacy","Lentiform Loewenfeld","3.3.3","0","s","NA","h","NA","NA","s","432","NA","13872","NA","NA","432","2","legacy","1024","2","48000","-16","experiment","HHSHH","2","even","127289","15545","NA","NA","107724","1667","NA","NA","128428","1672","NA","NA","128532","128964","128422","128532","Flanker task","54","33229","62","yes","2560"
"87.3015873015873","87.3015873015873","536.984126984127","536.984126984127","black","legacy","legacy","legacy","0","conruent","uniform","1","undefined","1","s","62","0","0","0","62","0","62","0","62","0","0","0","62","62","62","62","Sun Sep 27 18:47:52 2020","1500","The main experiment item","yes","Flankertask.osexp","C:/Users/JHS6-EAGLE/Desktop/OpenSes Files","no","mono","no","18","no","white","no","no","1440","legacy","62","62","C:/Users/JHS6-EAGLE/Desktop/OpenSes Files/RL-subject-2.csv","legacy","Lentiform Loewenfeld","3.3.3","0","s","NA","h","NA","NA","s","601","NA","13872","NA","NA","601","2","legacy","1024","2","48000","-16","experiment","SSSSS","2","even","128972","15545","NA","NA","107724","1667","NA","NA","130099","1672","NA","NA","130203","130804","130093","130203","Flanker task","55","33830","63","yes","2560"
"87.5","87.5","536.78125","536.78125","black","legacy","legacy","legacy","0","congruent","uniform","1","undefined","1","h","63","0","0","0","63","0","63","0","63","0","0","0","63","63","63","63","Sun Sep 27 18:47:52 2020","1500","The main experiment item","yes","Flankertask.osexp","C:/Users/JHS6-EAGLE/Desktop/OpenSes Files","no","mono","no","18","no","white","no","no","1440","legacy","63","63","C:/Users/JHS6-EAGLE/Desktop/OpenSes Files/RL-subject-2.csv","legacy","Lentiform Loewenfeld","3.3.3","0","h","NA","h","NA","NA","h","524","NA","13872","NA","NA","524","2","legacy","1024","2","48000","-16","experiment","HHHHH","2","even","130812","15545","NA","NA","107724","1667","NA","NA","131952","1672","NA","NA","132056","132581","131946","132056","Flanker task","56","34354","64","yes","2560"
"87.6923076923077","87.6923076923077","539","539","black","legacy","legacy","legacy","0","incongruent","uniform","1","undefined","1","s","64","0","0","0","64","0","64","0","64","0","0","0","64","64","64","64","Sun Sep 27 18:47:52 2020","1500","The main experiment item","yes","Flankertask.osexp","C:/Users/JHS6-EAGLE/Desktop/OpenSes Files","no","mono","no","18","no","white","no","no","1440","legacy","64","64","C:/Users/JHS6-EAGLE/Desktop/OpenSes Files/RL-subject-2.csv","legacy","Lentiform Loewenfeld","3.3.3","0","s","NA","h","NA","NA","s","681","NA","13872","NA","NA","681","2","legacy","1024","2","48000","-16","experiment","HHSHH","2","even","132591","15545","NA","NA","107724","1667","NA","NA","133717","1672","NA","NA","133835","134517","133711","133835","Flanker task","57","35035","65","yes","2560"
"87.87878787878788","87.87878787878788","538.7878787878788","538.7878787878788","black","legacy","legacy","legacy","0","congruent","uniform","1","undefined","1","h","65","0","0","0","65","0","65","0","65","0","0","0","65","65","65","65","Sun Sep 27 18:47:52 2020","1500","The main experiment item","yes","Flankertask.osexp","C:/Users/JHS6-EAGLE/Desktop/OpenSes Files","no","mono","no","18","no","white","no","no","1440","legacy","65","65","C:/Users/JHS6-EAGLE/Desktop/OpenSes Files/RL-subject-2.csv","legacy","Lentiform Loewenfeld","3.3.3","0","h","NA","h","NA","NA","h","525","NA","13872","NA","NA","525","2","legacy","1024","2","48000","-16","experiment","HHHHH","2","even","134525","15545","NA","NA","107724","1667","NA","NA","135651","1672","NA","NA","135763","136289","135645","135762","Flanker task","58","35560","66","yes","2560"
"88.05970149253731","88.05970149253731","537.5074626865671","537.5074626865671","black","legacy","legacy","legacy","0","incongruent","uniform","1","undefined","1","s","66","0","0","0","66","0","66","0","66","0","0","0","66","66","66","66","Sun Sep 27 18:47:52 2020","1500","The main experiment item","yes","Flankertask.osexp","C:/Users/JHS6-EAGLE/Desktop/OpenSes Files","no","mono","no","18","no","white","no","no","1440","legacy","66","66","C:/Users/JHS6-EAGLE/Desktop/OpenSes Files/RL-subject-2.csv","legacy","Lentiform Loewenfeld","3.3.3","0","s","NA","h","NA","NA","s","453","NA","13872","NA","NA","453","2","legacy","1024","2","48000","-16","experiment","HHSHH","2","even","136296","15545","NA","NA","107724","1667","NA","NA","137420","1672","NA","NA","137524","137977","137414","137524","Flanker task","59","36013","67","yes","2560"
"88.23529411764706","88.23529411764706","535.1617647058823","535.1617647058823","black","legacy","legacy","legacy","0","incongruent","uniform","1","undefined","1","h","67","0","0","0","67","0","67","0","67","0","0","0","67","67","67","67","Sun Sep 27 18:47:52 2020","1500","The main experiment item","yes","Flankertask.osexp","C:/Users/JHS6-EAGLE/Desktop/OpenSes Files","no","mono","no","18","no","white","no","no","1440","legacy","67","67","C:/Users/JHS6-EAGLE/Desktop/OpenSes Files/RL-subject-2.csv","legacy","Lentiform Loewenfeld","3.3.3","0","h","NA","h","NA","NA","h","378","NA","13872","NA","NA","378","2","legacy","1024","2","48000","-16","experiment","SSHSS","2","even","137985","15545","NA","NA","107724","1667","NA","NA","139111","1672","NA","NA","139215","139594","139105","139215","Flanker task","60","36391","68","yes","2560"
"88.40579710144928","88.40579710144928","532.6666666666666","532.6666666666666","black","legacy","legacy","legacy","0","incongruent","uniform","1","undefined","1","h","68","0","0","0","68","0","68","0","68","0","0","0","68","68","68","68","Sun Sep 27 18:47:52 2020","1500","The main experiment item","yes","Flankertask.osexp","C:/Users/JHS6-EAGLE/Desktop/OpenSes Files","no","mono","no","18","no","white","no","no","1440","legacy","68","68","C:/Users/JHS6-EAGLE/Desktop/OpenSes Files/RL-subject-2.csv","legacy","Lentiform Loewenfeld","3.3.3","0","h","NA","h","NA","NA","h","363","NA","13872","NA","NA","363","2","legacy","1024","2","48000","-16","experiment","SSHSS","2","even","139601","15545","NA","NA","107724","1667","NA","NA","140736","1672","NA","NA","140841","141204","140730","140841","Flanker task","61","36754","69","yes","2560"
"88.57142857142857","88.57142857142857","531.0285714285715","531.0285714285715","black","legacy","legacy","legacy","0","congruent","uniform","1","undefined","1","h","69","0","0","0","69","0","69","0","69","0","0","0","69","69","69","69","Sun Sep 27 18:47:52 2020","1500","The main experiment item","yes","Flankertask.osexp","C:/Users/JHS6-EAGLE/Desktop/OpenSes Files","no","mono","no","18","no","white","no","no","1440","legacy","69","69","C:/Users/JHS6-EAGLE/Desktop/OpenSes Files/RL-subject-2.csv","legacy","Lentiform Loewenfeld","3.3.3","0","h","NA","h","NA","NA","h","418","NA","13872","NA","NA","418","2","legacy","1024","2","48000","-16","experiment","HHHHH","2","even","141212","15545","NA","NA","107724","1667","NA","NA","142353","1672","NA","NA","142472","142891","142347","142471","Flanker task","62","37172","70","yes","2560"
"88.73239436619718","88.73239436619718","532.0845070422536","532.0845070422536","black","legacy","legacy","legacy","0","incongruent","uniform","1","undefined","1","s","70","0","0","0","70","0","70","0","70","0","0","0","70","70","70","70","Sun Sep 27 18:47:52 2020","1500","The main experiment item","yes","Flankertask.osexp","C:/Users/JHS6-EAGLE/Desktop/OpenSes Files","no","mono","no","18","no","white","no","no","1440","legacy","70","70","C:/Users/JHS6-EAGLE/Desktop/OpenSes Files/RL-subject-2.csv","legacy","Lentiform Loewenfeld","3.3.3","0","s","NA","h","NA","NA","s","606","NA","13872","NA","NA","606","2","legacy","1024","2","48000","-16","experiment","HHSHH","2","even","142898","15545","NA","NA","107724","1667","NA","NA","144023","1672","NA","NA","144130","144737","144017","144130","Flanker task","63","37778","71","yes","2560"
"88.88888888888889","88.88888888888889","535.9861111111111","535.9861111111111","black","legacy","legacy","legacy","0","incongruent","uniform","1","undefined","1","s","71","0","0","0","71","0","71","0","71","0","0","0","71","71","71","71","Sun Sep 27 18:47:52 2020","1500","The main experiment item","yes","Flankertask.osexp","C:/Users/JHS6-EAGLE/Desktop/OpenSes Files","no","mono","no","18","no","white","no","no","1440","legacy","71","71","C:/Users/JHS6-EAGLE/Desktop/OpenSes Files/RL-subject-2.csv","legacy","Lentiform Loewenfeld","3.3.3","0","s","NA","h","NA","NA","s","813","NA","13872","NA","NA","813","2","legacy","1024","2","48000","-16","experiment","HHSHH","2","even","144745","15545","NA","NA","107724","1667","NA","NA","145879","1672","NA","NA","145983","146796","145873","145983","Flanker task","64","38591","72","yes","2560"
"89.04109589041096","89.04109589041096","537.1232876712329","537.1232876712329","black","legacy","legacy","legacy","0","congruent","uniform","1","undefined","1","h","72","0","0","0","72","0","72","0","72","0","0","0","72","72","72","72","Sun Sep 27 18:47:52 2020","1500","The main experiment item","yes","Flankertask.osexp","C:/Users/JHS6-EAGLE/Desktop/OpenSes Files","no","mono","no","18","no","white","no","no","1440","legacy","72","72","C:/Users/JHS6-EAGLE/Desktop/OpenSes Files/RL-subject-2.csv","legacy","Lentiform Loewenfeld","3.3.3","0","h","NA","h","NA","NA","h","619","NA","13872","NA","NA","619","2","legacy","1024","2","48000","-16","experiment","HHHHH","2","even","146804","15545","NA","NA","107724","1667","NA","NA","147936","1672","NA","NA","148040","148660","147930","148040","Flanker task","65","39210","73","yes","2560"
"89.1891891891892","89.1891891891892","539.5405405405405","539.5405405405405","black","legacy","legacy","legacy","0","incongruent","uniform","1","undefined","1","s","73","0","0","0","73","0","73","0","73","0","0","0","73","73","73","73","Sun Sep 27 18:47:52 2020","1500","The main experiment item","yes","Flankertask.osexp","C:/Users/JHS6-EAGLE/Desktop/OpenSes Files","no","mono","no","18","no","white","no","no","1440","legacy","73","73","C:/Users/JHS6-EAGLE/Desktop/OpenSes Files/RL-subject-2.csv","legacy","Lentiform Loewenfeld","3.3.3","0","s","NA","h","NA","NA","s","716","NA","13872","NA","NA","716","2","legacy","1024","2","48000","-16","experiment","HHSHH","2","even","148668","15545","NA","NA","107724","1667","NA","NA","149794","1672","NA","NA","149899","150616","149789","149898","Flanker task","66","39926","74","yes","2560"
"89.33333333333333","89.33333333333333","538.9466666666667","538.9466666666667","black","legacy","legacy","legacy","0","incongruent","uniform","1","undefined","1","s","74","0","0","0","74","0","74","0","74","0","0","0","74","74","74","74","Sun Sep 27 18:47:52 2020","1500","The main experiment item","yes","Flankertask.osexp","C:/Users/JHS6-EAGLE/Desktop/OpenSes Files","no","mono","no","18","no","white","no","no","1440","legacy","74","74","C:/Users/JHS6-EAGLE/Desktop/OpenSes Files/RL-subject-2.csv","legacy","Lentiform Loewenfeld","3.3.3","0","s","NA","h","NA","NA","s","495","NA","13872","NA","NA","495","2","legacy","1024","2","48000","-16","experiment","HHSHH","2","even","150624","15545","NA","NA","107724","1667","NA","NA","151769","1672","NA","NA","151881","152376","151764","151881","Flanker task","67","40421","75","yes","2560"
"89.47368421052632","89.47368421052632","541.8815789473684","541.8815789473684","black","legacy","legacy","legacy","0","conruent","uniform","1","undefined","1","s","75","0","0","0","75","0","75","0","75","0","0","0","75","75","75","75","Sun Sep 27 18:47:52 2020","1500","The main experiment item","yes","Flankertask.osexp","C:/Users/JHS6-EAGLE/Desktop/OpenSes Files","no","mono","no","18","no","white","no","no","1440","legacy","75","75","C:/Users/JHS6-EAGLE/Desktop/OpenSes Files/RL-subject-2.csv","legacy","Lentiform Loewenfeld","3.3.3","0","s","NA","h","NA","NA","s","762","NA","13872","NA","NA","762","2","legacy","1024","2","48000","-16","experiment","SSSSS","2","even","152383","15545","NA","NA","107724","1667","NA","NA","153507","1672","NA","NA","153613","154375","153502","153613","Flanker task","68","41183","76","yes","2560"
"89.6103896103896","89.6103896103896","547.5974025974026","547.5974025974026","black","legacy","legacy","legacy","0","incongruent","uniform","1","undefined","1","s","76","0","0","0","76","0","76","0","76","0","0","0","76","76","76","76","Sun Sep 27 18:47:52 2020","1500","The main experiment item","yes","Flankertask.osexp","C:/Users/JHS6-EAGLE/Desktop/OpenSes Files","no","mono","no","18","no","white","no","no","1440","legacy","76","76","C:/Users/JHS6-EAGLE/Desktop/OpenSes Files/RL-subject-2.csv","legacy","Lentiform Loewenfeld","3.3.3","0","s","NA","h","NA","NA","s","982","NA","13872","NA","NA","982","2","legacy","1024","2","48000","-16","experiment","HHSHH","2","even","154383","15545","NA","NA","107724","1667","NA","NA","155508","1672","NA","NA","155622","156605","155503","155622","Flanker task","69","42165","77","yes","2560"
"89.74358974358974","89.74358974358974","550.1538461538462","550.1538461538462","black","legacy","legacy","legacy","0","conruent","uniform","1","undefined","1","s","77","0","0","0","77","0","77","0","77","0","0","0","77","77","77","77","Sun Sep 27 18:47:52 2020","1500","The main experiment item","yes","Flankertask.osexp","C:/Users/JHS6-EAGLE/Desktop/OpenSes Files","no","mono","no","18","no","white","no","no","1440","legacy","77","77","C:/Users/JHS6-EAGLE/Desktop/OpenSes Files/RL-subject-2.csv","legacy","Lentiform Loewenfeld","3.3.3","0","s","NA","h","NA","NA","s","747","NA","13872","NA","NA","747","2","legacy","1024","2","48000","-16","experiment","SSSSS","2","even","156612","15545","NA","NA","107724","1667","NA","NA","157739","1672","NA","NA","157843","158591","157733","157843","Flanker task","70","42912","78","yes","2560"
"89.87341772151899","89.87341772151899","552.1898734177215","552.1898734177215","black","legacy","legacy","legacy","0","incongruent","uniform","1","undefined","1","h","78","0","0","0","78","0","78","0","78","0","0","0","78","78","78","78","Sun Sep 27 18:47:52 2020","1500","The main experiment item","yes","Flankertask.osexp","C:/Users/JHS6-EAGLE/Desktop/OpenSes Files","no","mono","no","18","no","white","no","no","1440","legacy","78","78","C:/Users/JHS6-EAGLE/Desktop/OpenSes Files/RL-subject-2.csv","legacy","Lentiform Loewenfeld","3.3.3","0","h","NA","h","NA","NA","h","711","NA","13872","NA","NA","711","2","legacy","1024","2","48000","-16","experiment","SSHSS","2","even","158598","15545","NA","NA","107724","1667","NA","NA","159737","1672","NA","NA","159841","160552","159731","159841","Flanker task","71","43623","79","yes","2560"
"90","90","553.9","553.9","black","legacy","legacy","legacy","0","congruent","uniform","1","undefined","1","h","79","0","0","0","79","0","79","0","79","0","0","0","79","79","79","79","Sun Sep 27 18:47:52 2020","1500","The main experiment item","yes","Flankertask.osexp","C:/Users/JHS6-EAGLE/Desktop/OpenSes Files","no","mono","no","18","no","white","no","no","1440","legacy","79","79","C:/Users/JHS6-EAGLE/Desktop/OpenSes Files/RL-subject-2.csv","legacy","Lentiform Loewenfeld","3.3.3","0","h","NA","h","NA","NA","h","689","NA","13872","NA","NA","689","2","legacy","1024","2","48000","-16","experiment","HHHHH","2","even","160559","15545","NA","NA","107724","1667","NA","NA","161687","1672","NA","NA","161814","162505","161681","161814","Flanker task","72","44312","80","yes","2560"
"90.12345679012346","90.12345679012346","553.4567901234568","553.4567901234568","black","legacy","legacy","legacy","0","congruent","uniform","1","undefined","1","h","80","0","0","0","80","0","80","0","80","0","0","0","80","80","80","80","Sun Sep 27 18:47:52 2020","600","The main experiment item","yes","Flankertask.osexp","C:/Users/JHS6-EAGLE/Desktop/OpenSes Files","no","mono","no","18","no","white","no","no","1440","legacy","0","79","C:/Users/JHS6-EAGLE/Desktop/OpenSes Files/RL-subject-2.csv","legacy","Lentiform Loewenfeld","3.3.3","0","h","NA","h","h","NA","h","518","NA","13872","7634","NA","518","2","legacy","1024","2","48000","-16","experiment","HHHHH","2","even","162512","15545","171169","NA","107724","1667","NA","NA","171280","1672","163534","NA","171384","171903","171275","171384","Flanker task","73","44830","81","yes","2560"
"90.2439024390244","90.2439024390244","554.0365853658536","554.0365853658536","black","legacy","legacy","legacy","0","incongruent","uniform","1","undefined","1","h","81","0","0","0","81","0","81","0","81","0","0","0","81","81","81","81","Sun Sep 27 18:47:52 2020","600","The main experiment item","yes","Flankertask.osexp","C:/Users/JHS6-EAGLE/Desktop/OpenSes Files","no","mono","no","18","no","white","no","no","1440","legacy","1","79","C:/Users/JHS6-EAGLE/Desktop/OpenSes Files/RL-subject-2.csv","legacy","Lentiform Loewenfeld","3.3.3","0","h","NA","h","h","NA","h","601","NA","13872","7634","NA","601","2","legacy","1024","2","48000","-16","experiment","SSHSS","2","even","171910","15545","171169","NA","107724","1667","NA","NA","173048","1672","163534","NA","173152","173754","173043","173152","Flanker task","74","45431","82","yes","2560"
"90.36144578313252","90.36144578313252","552.0240963855422","552.0240963855422","black","legacy","legacy","legacy","0","incongruent","uniform","1","undefined","1","h","82","0","0","0","82","0","82","0","82","0","0","0","82","82","82","82","Sun Sep 27 18:47:52 2020","600","The main experiment item","yes","Flankertask.osexp","C:/Users/JHS6-EAGLE/Desktop/OpenSes Files","no","mono","no","18","no","white","no","no","1440","legacy","2","79","C:/Users/JHS6-EAGLE/Desktop/OpenSes Files/RL-subject-2.csv","legacy","Lentiform Loewenfeld","3.3.3","0","h","NA","h","h","NA","h","387","NA","13872","7634","NA","387","2","legacy","1024","2","48000","-16","experiment","SSHSS","2","even","174267","15545","171169","NA","107724","1667","173761","NA","175393","1672","163534","NA","175497","175885","175387","175497","Flanker task","75","45818","83","yes","2560"
"90.47619047619048","90.47619047619048","550.3452380952381","550.3452380952381","black","legacy","legacy","legacy","0","conruent","uniform","1","undefined","1","s","83","0","0","0","83","0","83","0","83","0","0","0","83","83","83","83","Sun Sep 27 18:47:52 2020","600","The main experiment item","yes","Flankertask.osexp","C:/Users/JHS6-EAGLE/Desktop/OpenSes Files","no","mono","no","18","no","white","no","no","1440","legacy","3","79","C:/Users/JHS6-EAGLE/Desktop/OpenSes Files/RL-subject-2.csv","legacy","Lentiform Loewenfeld","3.3.3","0","s","NA","h","h","NA","s","411","NA","13872","7634","NA","411","2","legacy","1024","2","48000","-16","experiment","SSSSS","2","even","175891","15545","171169","NA","107724","1667","173761","NA","177015","1672","163534","NA","177120","177532","177010","177119","Flanker task","76","46229","84","yes","2560"
"90.58823529411765","90.58823529411765","550.3176470588236","550.3176470588236","black","legacy","legacy","legacy","0","congruent","uniform","1","undefined","1","h","84","0","0","0","84","0","84","0","84","0","0","0","84","84","84","84","Sun Sep 27 18:47:52 2020","600","The main experiment item","yes","Flankertask.osexp","C:/Users/JHS6-EAGLE/Desktop/OpenSes Files","no","mono","no","18","no","white","no","no","1440","legacy","4","79","C:/Users/JHS6-EAGLE/Desktop/OpenSes Files/RL-subject-2.csv","legacy","Lentiform Loewenfeld","3.3.3","0","h","NA","h","h","NA","h","548","NA","13872","7634","NA","548","2","legacy","1024","2","48000","-16","experiment","HHHHH","2","even","177540","15545","171169","NA","107724","1667","173761","NA","178665","1672","163534","NA","178769","179317","178659","178769","Flanker task","77","46777","85","yes","2560"
"90.69767441860465","90.69767441860465","550.2441860465116","550.2441860465116","black","legacy","legacy","legacy","0","congruent","uniform","1","undefined","1","h","85","0","0","0","85","0","85","0","85","0","0","0","85","85","85","85","Sun Sep 27 18:47:52 2020","600","The main experiment item","yes","Flankertask.osexp","C:/Users/JHS6-EAGLE/Desktop/OpenSes Files","no","mono","no","18","no","white","no","no","1440","legacy","5","79","C:/Users/JHS6-EAGLE/Desktop/OpenSes Files/RL-subject-2.csv","legacy","Lentiform Loewenfeld","3.3.3","0","h","NA","h","h","NA","h","544","NA","13872","7634","NA","544","2","legacy","1024","2","48000","-16","experiment","HHHHH","2","even","179325","15545","171169","NA","107724","1667","173761","NA","180449","1672","163534","NA","180553","181098","180443","180553","Flanker task","78","47321","86","yes","2560"
"90.80459770114942","90.80459770114942","550.3678160919541","550.3678160919541","black","legacy","legacy","legacy","0","congruent","uniform","1","undefined","1","h","86","0","0","0","86","0","86","0","86","0","0","0","86","86","86","86","Sun Sep 27 18:47:52 2020","600","The main experiment item","yes","Flankertask.osexp","C:/Users/JHS6-EAGLE/Desktop/OpenSes Files","no","mono","no","18","no","white","no","no","1440","legacy","6","79","C:/Users/JHS6-EAGLE/Desktop/OpenSes Files/RL-subject-2.csv","legacy","Lentiform Loewenfeld","3.3.3","0","h","NA","h","h","NA","h","561","NA","13872","7634","NA","561","2","legacy","1024","2","48000","-16","experiment","HHHHH","2","even","181107","15545","171169","NA","107724","1667","173761","NA","182238","1672","163534","NA","182342","182904","182232","182342","Flanker task","79","47882","87","yes","2560"
"90.9090909090909","90.9090909090909","549.9772727272727","549.9772727272727","black","legacy","legacy","legacy","0","incongruent","uniform","1","undefined","1","h","87","0","0","0","87","0","87","0","87","0","0","0","87","87","87","87","Sun Sep 27 18:47:52 2020","600","The main experiment item","yes","Flankertask.osexp","C:/Users/JHS6-EAGLE/Desktop/OpenSes Files","no","mono","no","18","no","white","no","no","1440","legacy","7","79","C:/Users/JHS6-EAGLE/Desktop/OpenSes Files/RL-subject-2.csv","legacy","Lentiform Loewenfeld","3.3.3","0","h","NA","h","h","NA","h","516","NA","13872","7634","NA","516","2","legacy","1024","2","48000","-16","experiment","SSHSS","2","even","182912","15545","171169","NA","107724","1667","173761","NA","184037","1672","163534","NA","184142","184659","184032","184142","Flanker task","80","48398","88","yes","2560"
"89.88764044943821","89.88764044943821","549.056179775281","549.056179775281","black","legacy","legacy","legacy","0","incongruent","uniform","0","undefined","0","h","88","0","0","0","88","0","88","0","88","0","0","0","88","88","88","88","Sun Sep 27 18:47:52 2020","600","The main experiment item","yes","Flankertask.osexp","C:/Users/JHS6-EAGLE/Desktop/OpenSes Files","no","mono","no","18","no","white","no","no","1440","legacy","8","79","C:/Users/JHS6-EAGLE/Desktop/OpenSes Files/RL-subject-2.csv","legacy","Lentiform Loewenfeld","3.3.3","0","s","NA","h","h","NA","s","468","NA","13872","7634","NA","468","2","legacy","1024","2","48000","-16","experiment","SSHSS","2","even","184666","15545","171169","NA","107724","1667","173761","NA","185791","1672","163534","NA","185896","186365","185786","185896","Flanker task","80","48866","89","yes","2560"
"90","90","547.3777777777777","547.3777777777777","black","legacy","legacy","legacy","0","incongruent","uniform","1","undefined","1","s","89","0","0","0","89","0","89","0","89","0","0","0","89","89","89","89","Sun Sep 27 18:47:52 2020","600","The main experiment item","yes","Flankertask.osexp","C:/Users/JHS6-EAGLE/Desktop/OpenSes Files","no","mono","no","18","no","white","no","no","1440","legacy","9","79","C:/Users/JHS6-EAGLE/Desktop/OpenSes Files/RL-subject-2.csv","legacy","Lentiform Loewenfeld","3.3.3","0","s","NA","h","h","NA","s","398","NA","13872","7634","NA","398","2","legacy","1024","2","48000","-16","experiment","HHSHH","2","even","186876","15545","171169","NA","186371","1667","173761","NA","188001","1672","163534","NA","188106","188505","187995","188106","Flanker task","81","49264","90","yes","2560"
"90.10989010989012","90.10989010989012","545.2747252747253","545.2747252747253","black","legacy","legacy","legacy","0","conruent","uniform","1","undefined","1","s","90","0","0","0","90","0","90","0","90","0","0","0","90","90","90","90","Sun Sep 27 18:47:52 2020","600","The main experiment item","yes","Flankertask.osexp","C:/Users/JHS6-EAGLE/Desktop/OpenSes Files","no","mono","no","18","no","white","no","no","1440","legacy","10","79","C:/Users/JHS6-EAGLE/Desktop/OpenSes Files/RL-subject-2.csv","legacy","Lentiform Loewenfeld","3.3.3","0","s","NA","h","h","NA","s","356","NA","13872","7634","NA","356","2","legacy","1024","2","48000","-16","experiment","SSSSS","2","even","188515","15545","171169","NA","186371","1667","173761","NA","189653","1672","163534","NA","189766","190123","189647","189766","Flanker task","82","49620","91","yes","2560"
"90.21739130434783","90.21739130434783","543.0434782608696","543.0434782608696","black","legacy","legacy","legacy","0","incongruent","uniform","1","undefined","1","h","91","0","0","0","91","0","91","0","91","0","0","0","91","91","91","91","Sun Sep 27 18:47:52 2020","600","The main experiment item","yes","Flankertask.osexp","C:/Users/JHS6-EAGLE/Desktop/OpenSes Files","no","mono","no","18","no","white","no","no","1440","legacy","11","79","C:/Users/JHS6-EAGLE/Desktop/OpenSes Files/RL-subject-2.csv","legacy","Lentiform Loewenfeld","3.3.3","0","h","NA","h","h","NA","h","340","NA","13872","7634","NA","340","2","legacy","1024","2","48000","-16","experiment","SSHSS","2","even","190131","15545","171169","NA","186371","1667","173761","NA","191256","1672","163534","NA","191362","191703","191250","191362","Flanker task","83","49960","92","yes","2560"
"90.3225806451613","90.3225806451613","542.1827956989247","542.1827956989247","black","legacy","legacy","legacy","0","conruent","uniform","1","undefined","1","s","92","0","0","0","92","0","92","0","92","0","0","0","92","92","92","92","Sun Sep 27 18:47:52 2020","600","The main experiment item","yes","Flankertask.osexp","C:/Users/JHS6-EAGLE/Desktop/OpenSes Files","no","mono","no","18","no","white","no","no","1440","legacy","12","79","C:/Users/JHS6-EAGLE/Desktop/OpenSes Files/RL-subject-2.csv","legacy","Lentiform Loewenfeld","3.3.3","0","s","NA","h","h","NA","s","463","NA","13872","7634","NA","463","2","legacy","1024","2","48000","-16","experiment","SSSSS","2","even","191710","15545","171169","NA","186371","1667","173761","NA","192834","1672","163534","NA","192941","193405","192828","192941","Flanker task","84","50423","93","yes","2560"
"90.42553191489361","90.42553191489361","541.5851063829788","541.5851063829788","black","legacy","legacy","legacy","0","incongruent","uniform","1","undefined","1","h","93","0","0","0","93","0","93","0","93","0","0","0","93","93","93","93","Sun Sep 27 18:47:52 2020","600","The main experiment item","yes","Flankertask.osexp","C:/Users/JHS6-EAGLE/Desktop/OpenSes Files","no","mono","no","18","no","white","no","no","1440","legacy","13","79","C:/Users/JHS6-EAGLE/Desktop/OpenSes Files/RL-subject-2.csv","legacy","Lentiform Loewenfeld","3.3.3","0","h","NA","h","h","NA","h","486","NA","13872","7634","NA","486","2","legacy","1024","2","48000","-16","experiment","SSHSS","2","even","193412","15545","171169","NA","186371","1667","173761","NA","194541","1672","163534","NA","194645","195132","194535","194645","Flanker task","85","50909","94","yes","2560"
"90.52631578947368","90.52631578947368","540.578947368421","540.578947368421","black","legacy","legacy","legacy","0","incongruent","uniform","1","undefined","1","s","94","0","0","0","94","0","94","0","94","0","0","0","94","94","94","94","Sun Sep 27 18:47:52 2020","600","The main experiment item","yes","Flankertask.osexp","C:/Users/JHS6-EAGLE/Desktop/OpenSes Files","no","mono","no","18","no","white","no","no","1440","legacy","14","79","C:/Users/JHS6-EAGLE/Desktop/OpenSes Files/RL-subject-2.csv","legacy","Lentiform Loewenfeld","3.3.3","0","s","NA","h","h","NA","s","446","NA","13872","7634","NA","446","2","legacy","1024","2","48000","-16","experiment","HHSHH","2","even","195139","15545","171169","NA","186371","1667","173761","NA","196264","1672","163534","NA","196368","196815","196258","196368","Flanker task","86","51355","95","yes","2560"
"90.625","90.625","539.9791666666666","539.9791666666666","black","legacy","legacy","legacy","0","conruent","uniform","1","undefined","1","s","95","0","0","0","95","0","95","0","95","0","0","0","95","95","95","95","Sun Sep 27 18:47:52 2020","600","The main experiment item","yes","Flankertask.osexp","C:/Users/JHS6-EAGLE/Desktop/OpenSes Files","no","mono","no","18","no","white","no","no","1440","legacy","15","79","C:/Users/JHS6-EAGLE/Desktop/OpenSes Files/RL-subject-2.csv","legacy","Lentiform Loewenfeld","3.3.3","0","s","NA","h","h","NA","s","483","NA","13872","7634","NA","483","2","legacy","1024","2","48000","-16","experiment","SSSSS","2","even","196822","15545","171169","NA","186371","1667","173761","NA","197947","1672","163534","NA","198056","198540","197941","198055","Flanker task","87","51838","96","yes","2560"
"90.72164948453609","90.72164948453609","539.2886597938144","539.2886597938144","black","legacy","legacy","legacy","0","conruent","uniform","1","undefined","1","s","96","0","0","0","96","0","96","0","96","0","0","0","96","96","96","96","Sun Sep 27 18:47:52 2020","600","The main experiment item","yes","Flankertask.osexp","C:/Users/JHS6-EAGLE/Desktop/OpenSes Files","no","mono","no","18","no","white","no","no","1440","legacy","16","79","C:/Users/JHS6-EAGLE/Desktop/OpenSes Files/RL-subject-2.csv","legacy","Lentiform Loewenfeld","3.3.3","0","s","NA","h","h","NA","s","473","NA","13872","7634","NA","473","2","legacy","1024","2","48000","-16","experiment","SSSSS","2","even","198550","15545","171169","NA","186371","1667","173761","NA","199675","1672","163534","NA","199784","200257","199669","199783","Flanker task","88","52311","97","yes","2560"
"90.81632653061224","90.81632653061224","538.7244897959183","538.7244897959183","black","legacy","legacy","legacy","0","congruent","uniform","1","undefined","1","h","97","0","0","0","97","0","97","0","97","0","0","0","97","97","97","97","Sun Sep 27 18:47:52 2020","600","The main experiment item","yes","Flankertask.osexp","C:/Users/JHS6-EAGLE/Desktop/OpenSes Files","no","mono","no","18","no","white","no","no","1440","legacy","17","79","C:/Users/JHS6-EAGLE/Desktop/OpenSes Files/RL-subject-2.csv","legacy","Lentiform Loewenfeld","3.3.3","0","h","NA","h","h","NA","h","484","NA","13872","7634","NA","484","2","legacy","1024","2","48000","-16","experiment","HHHHH","2","even","200265","15545","171169","NA","186371","1667","173761","NA","201396","1672","163534","NA","201503","201988","201391","201502","Flanker task","89","52795","98","yes","2560"
"90.9090909090909","90.9090909090909","538.1111111111111","538.1111111111111","black","legacy","legacy","legacy","0","conruent","uniform","1","undefined","1","s","98","0","0","0","98","0","98","0","98","0","0","0","98","98","98","98","Sun Sep 27 18:47:52 2020","600","The main experiment item","yes","Flankertask.osexp","C:/Users/JHS6-EAGLE/Desktop/OpenSes Files","no","mono","no","18","no","white","no","no","1440","legacy","18","79","C:/Users/JHS6-EAGLE/Desktop/OpenSes Files/RL-subject-2.csv","legacy","Lentiform Loewenfeld","3.3.3","0","s","NA","h","h","NA","s","478","NA","13872","7634","NA","478","2","legacy","1024","2","48000","-16","experiment","SSSSS","2","even","201995","15545","171169","NA","186371","1667","173761","NA","203121","1672","163534","NA","203228","203707","203115","203228","Flanker task","90","53273","99","yes","2560"
"91","91","537.11","537.11","black","legacy","legacy","legacy","0","congruent","uniform","1","undefined","1","h","99","0","0","0","99","0","99","0","99","0","0","0","99","99","99","99","Sun Sep 27 18:47:52 2020","600","The main experiment item","yes","Flankertask.osexp","C:/Users/JHS6-EAGLE/Desktop/OpenSes Files","no","mono","no","18","no","white","no","no","1440","legacy","19","79","C:/Users/JHS6-EAGLE/Desktop/OpenSes Files/RL-subject-2.csv","legacy","Lentiform Loewenfeld","3.3.3","0","h","NA","h","h","NA","h","438","NA","13872","7634","NA","438","2","legacy","1024","2","48000","-16","experiment","HHHHH","2","even","203715","15545","171169","NA","186371","1667","173761","NA","204842","1672","163534","NA","204946","205385","204837","204946","Flanker task","91","53711","100","yes","2560"
"91.08910891089108","91.08910891089108","538.3861386138614","538.3861386138614","black","legacy","legacy","legacy","0","incongruent","uniform","1","undefined","1","s","100","0","0","0","100","0","100","0","100","0","0","0","100","100","100","100","Sun Sep 27 18:47:52 2020","600","The main experiment item","yes","Flankertask.osexp","C:/Users/JHS6-EAGLE/Desktop/OpenSes Files","no","mono","no","18","no","white","no","no","1440","legacy","20","79","C:/Users/JHS6-EAGLE/Desktop/OpenSes Files/RL-subject-2.csv","legacy","Lentiform Loewenfeld","3.3.3","0","s","NA","h","h","NA","s","666","NA","13872","7634","NA","666","2","legacy","1024","2","48000","-16","experiment","HHSHH","2","even","205393","15545","171169","NA","186371","1667","173761","NA","206528","1672","163534","NA","206632","207298","206522","206632","Flanker task","92","54377","101","yes","2560"
"91.17647058823529","91.17647058823529","539.5","539.5","black","legacy","legacy","legacy","0","incongruent","uniform","1","undefined","1","h","101","0","0","0","101","0","101","0","101","0","0","0","101","101","101","101","Sun Sep 27 18:47:52 2020","600","The main experiment item","yes","Flankertask.osexp","C:/Users/JHS6-EAGLE/Desktop/OpenSes Files","no","mono","no","18","no","white","no","no","1440","legacy","21","79","C:/Users/JHS6-EAGLE/Desktop/OpenSes Files/RL-subject-2.csv","legacy","Lentiform Loewenfeld","3.3.3","0","h","NA","h","h","NA","h","652","NA","13872","7634","NA","652","2","legacy","1024","2","48000","-16","experiment","SSHSS","2","even","207810","15545","171169","NA","186371","1667","207306","NA","208935","1672","163534","NA","209039","209692","208929","209039","Flanker task","93","55029","102","yes","2560"
"91.2621359223301","91.2621359223301","537.4563106796116","537.4563106796116","black","legacy","legacy","legacy","0","incongruent","uniform","1","undefined","1","h","102","0","0","0","102","0","102","0","102","0","0","0","102","102","102","102","Sun Sep 27 18:47:52 2020","600","The main experiment item","yes","Flankertask.osexp","C:/Users/JHS6-EAGLE/Desktop/OpenSes Files","no","mono","no","18","no","white","no","no","1440","legacy","22","79","C:/Users/JHS6-EAGLE/Desktop/OpenSes Files/RL-subject-2.csv","legacy","Lentiform Loewenfeld","3.3.3","0","h","NA","h","h","NA","h","329","NA","13872","7634","NA","329","2","legacy","1024","2","48000","-16","experiment","SSHSS","2","even","210204","15545","171169","NA","186371","1667","209698","NA","211333","1672","163534","NA","211437","211768","211327","211437","Flanker task","94","55358","103","yes","2560"
"91.34615384615384","91.34615384615384","536.5865384615385","536.5865384615385","black","legacy","legacy","legacy","0","conruent","uniform","1","undefined","1","s","103","0","0","0","103","0","103","0","103","0","0","0","103","103","103","103","Sun Sep 27 18:47:52 2020","600","The main experiment item","yes","Flankertask.osexp","C:/Users/JHS6-EAGLE/Desktop/OpenSes Files","no","mono","no","18","no","white","no","no","1440","legacy","23","79","C:/Users/JHS6-EAGLE/Desktop/OpenSes Files/RL-subject-2.csv","legacy","Lentiform Loewenfeld","3.3.3","0","s","NA","h","h","NA","s","447","NA","13872","7634","NA","447","2","legacy","1024","2","48000","-16","experiment","SSSSS","2","even","211775","15545","171169","NA","186371","1667","209698","NA","212911","1672","163534","NA","213018","213466","212905","213018","Flanker task","95","55805","104","yes","2560"
"91.42857142857143","91.42857142857143","534.9428571428572","534.9428571428572","black","legacy","legacy","legacy","0","congruent","uniform","1","undefined","1","h","104","0","0","0","104","0","104","0","104","0","0","0","104","104","104","104","Sun Sep 27 18:47:52 2020","600","The main experiment item","yes","Flankertask.osexp","C:/Users/JHS6-EAGLE/Desktop/OpenSes Files","no","mono","no","18","no","white","no","no","1440","legacy","24","79","C:/Users/JHS6-EAGLE/Desktop/OpenSes Files/RL-subject-2.csv","legacy","Lentiform Loewenfeld","3.3.3","0","h","NA","h","h","NA","h","364","NA","13872","7634","NA","364","2","legacy","1024","2","48000","-16","experiment","HHHHH","2","even","213474","15545","171169","NA","186371","1667","209698","NA","214606","1672","163534","NA","214711","215077","214600","214711","Flanker task","96","56169","105","yes","2560"
"91.50943396226415","91.50943396226415","533.6132075471698","533.6132075471698","black","legacy","legacy","legacy","0","conruent","uniform","1","undefined","1","s","105","0","0","0","105","0","105","0","105","0","0","0","105","105","105","105","Sun Sep 27 18:47:52 2020","600","The main experiment item","yes","Flankertask.osexp","C:/Users/JHS6-EAGLE/Desktop/OpenSes Files","no","mono","no","18","no","white","no","no","1440","legacy","25","79","C:/Users/JHS6-EAGLE/Desktop/OpenSes Files/RL-subject-2.csv","legacy","Lentiform Loewenfeld","3.3.3","0","s","NA","h","h","NA","s","394","NA","13872","7634","NA","394","2","legacy","1024","2","48000","-16","experiment","SSSSS","2","even","215083","15545","171169","NA","186371","1667","209698","NA","216215","1672","163534","NA","216320","216715","216210","216319","Flanker task","97","56563","106","yes","2560"
"91.58878504672897","91.58878504672897","532.9626168224299","532.9626168224299","black","legacy","legacy","legacy","0","incongruent","uniform","1","undefined","1","h","106","0","0","0","106","0","106","0","106","0","0","0","106","106","106","106","Sun Sep 27 18:47:52 2020","600","The main experiment item","yes","Flankertask.osexp","C:/Users/JHS6-EAGLE/Desktop/OpenSes Files","no","mono","no","18","no","white","no","no","1440","legacy","26","79","C:/Users/JHS6-EAGLE/Desktop/OpenSes Files/RL-subject-2.csv","legacy","Lentiform Loewenfeld","3.3.3","0","h","NA","h","h","NA","h","464","NA","13872","7634","NA","464","2","legacy","1024","2","48000","-16","experiment","SSHSS","2","even","216723","15545","171169","NA","186371","1667","209698","NA","217849","1672","163534","NA","217953","218418","217843","217953","Flanker task","98","57027","107","yes","2560"
"91.66666666666667","91.66666666666667","533.6666666666666","533.6666666666666","black","legacy","legacy","legacy","0","incongruent","uniform","1","undefined","1","h","107","0","0","0","107","0","107","0","107","0","0","0","107","107","107","107","Sun Sep 27 18:47:52 2020","600","The main experiment item","yes","Flankertask.osexp","C:/Users/JHS6-EAGLE/Desktop/OpenSes Files","no","mono","no","18","no","white","no","no","1440","legacy","27","79","C:/Users/JHS6-EAGLE/Desktop/OpenSes Files/RL-subject-2.csv","legacy","Lentiform Loewenfeld","3.3.3","0","h","NA","h","h","NA","h","609","NA","13872","7634","NA","609","2","legacy","1024","2","48000","-16","experiment","SSHSS","2","even","218426","15545","171169","NA","186371","1667","209698","NA","219551","1672","163534","NA","219655","220265","219546","219654","Flanker task","99","57636","108","yes","2560"
"91.74311926605505","91.74311926605505","535.3119266055046","535.3119266055046","black","legacy","legacy","legacy","0","incongruent","uniform","1","undefined","1","s","108","0","0","0","108","0","108","0","108","0","0","0","108","108","108","108","Sun Sep 27 18:47:52 2020","600","The main experiment item","yes","Flankertask.osexp","C:/Users/JHS6-EAGLE/Desktop/OpenSes Files","no","mono","no","18","no","white","no","no","1440","legacy","28","79","C:/Users/JHS6-EAGLE/Desktop/OpenSes Files/RL-subject-2.csv","legacy","Lentiform Loewenfeld","3.3.3","0","s","NA","h","h","NA","s","713","NA","13872","7634","NA","713","2","legacy","1024","2","48000","-16","experiment","HHSHH","2","even","220776","15545","171169","NA","186371","1667","220272","NA","221902","1672","163534","NA","222006","222720","221896","222006","Flanker task","100","58349","109","yes","2560"
"91.81818181818181","91.81818181818181","534.9909090909091","534.9909090909091","black","legacy","legacy","legacy","0","incongruent","uniform","1","undefined","1","h","109","0","0","0","109","0","109","0","109","0","0","0","109","109","109","109","Sun Sep 27 18:47:52 2020","600","The main experiment item","yes","Flankertask.osexp","C:/Users/JHS6-EAGLE/Desktop/OpenSes Files","no","mono","no","18","no","white","no","no","1440","legacy","29","79","C:/Users/JHS6-EAGLE/Desktop/OpenSes Files/RL-subject-2.csv","legacy","Lentiform Loewenfeld","3.3.3","0","h","NA","h","h","NA","h","500","NA","13872","7634","NA","500","2","legacy","1024","2","48000","-16","experiment","SSHSS","2","even","223232","15545","171169","NA","186371","1667","222728","NA","224358","1672","163534","NA","224462","224964","224352","224462","Flanker task","101","58849","110","yes","2560"
"91.89189189189189","91.89189189189189","534.2702702702703","534.2702702702703","black","legacy","legacy","legacy","0","congruent","uniform","1","undefined","1","h","110","0","0","0","110","0","110","0","110","0","0","0","110","110","110","110","Sun Sep 27 18:47:52 2020","600","The main experiment item","yes","Flankertask.osexp","C:/Users/JHS6-EAGLE/Desktop/OpenSes Files","no","mono","no","18","no","white","no","no","1440","legacy","30","79","C:/Users/JHS6-EAGLE/Desktop/OpenSes Files/RL-subject-2.csv","legacy","Lentiform Loewenfeld","3.3.3","0","h","NA","h","h","NA","h","455","NA","13872","7634","NA","455","2","legacy","1024","2","48000","-16","experiment","HHHHH","2","even","224971","15545","171169","NA","186371","1667","222728","NA","226107","1672","163534","NA","226211","226668","226102","226211","Flanker task","102","59304","111","yes","2560"
"91.96428571428571","91.96428571428571","533.6517857142857","533.6517857142857","black","legacy","legacy","legacy","0","congruent","uniform","1","undefined","1","h","111","0","0","0","111","0","111","0","111","0","0","0","111","111","111","111","Sun Sep 27 18:47:52 2020","600","The main experiment item","yes","Flankertask.osexp","C:/Users/JHS6-EAGLE/Desktop/OpenSes Files","no","mono","no","18","no","white","no","no","1440","legacy","31","79","C:/Users/JHS6-EAGLE/Desktop/OpenSes Files/RL-subject-2.csv","legacy","Lentiform Loewenfeld","3.3.3","0","h","NA","h","h","NA","h","465","NA","13872","7634","NA","465","2","legacy","1024","2","48000","-16","experiment","HHHHH","2","even","226675","15545","171169","NA","186371","1667","222728","NA","227822","1672","163534","NA","227927","228394","227817","227927","Flanker task","103","59769","112","yes","2560"
"92.03539823008849","92.03539823008849","534.29203539823","534.29203539823","black","legacy","legacy","legacy","0","conruent","uniform","1","undefined","1","s","112","0","0","0","112","0","112","0","112","0","0","0","112","112","112","112","Sun Sep 27 18:47:52 2020","600","The main experiment item","yes","Flankertask.osexp","C:/Users/JHS6-EAGLE/Desktop/OpenSes Files","no","mono","no","18","no","white","no","no","1440","legacy","32","79","C:/Users/JHS6-EAGLE/Desktop/OpenSes Files/RL-subject-2.csv","legacy","Lentiform Loewenfeld","3.3.3","0","s","NA","h","h","NA","s","606","NA","13872","7634","NA","606","2","legacy","1024","2","48000","-16","experiment","SSSSS","2","even","228401","15545","171169","NA","186371","1667","222728","NA","229542","1672","163534","NA","229648","230255","229536","229648","Flanker task","104","60375","113","yes","2560"
"92.10526315789474","92.10526315789474","533.2719298245614","533.2719298245614","black","legacy","legacy","legacy","0","incongruent","uniform","1","undefined","1","s","113","0","0","0","113","0","113","0","113","0","0","0","113","113","113","113","Sun Sep 27 18:47:52 2020","600","The main experiment item","yes","Flankertask.osexp","C:/Users/JHS6-EAGLE/Desktop/OpenSes Files","no","mono","no","18","no","white","no","no","1440","legacy","33","79","C:/Users/JHS6-EAGLE/Desktop/OpenSes Files/RL-subject-2.csv","legacy","Lentiform Loewenfeld","3.3.3","0","s","NA","h","h","NA","s","418","NA","13872","7634","NA","418","2","legacy","1024","2","48000","-16","experiment","HHSHH","2","even","230789","15545","171169","NA","186371","1667","230263","NA","231924","1672","163534","NA","232028","232446","231918","232028","Flanker task","105","60793","114","yes","2560"
"92.17391304347827","92.17391304347827","532.5391304347826","532.5391304347826","black","legacy","legacy","legacy","0","congruent","uniform","1","undefined","1","h","114","0","0","0","114","0","114","0","114","0","0","0","114","114","114","114","Sun Sep 27 18:47:52 2020","600","The main experiment item","yes","Flankertask.osexp","C:/Users/JHS6-EAGLE/Desktop/OpenSes Files","no","mono","no","18","no","white","no","no","1440","legacy","34","79","C:/Users/JHS6-EAGLE/Desktop/OpenSes Files/RL-subject-2.csv","legacy","Lentiform Loewenfeld","3.3.3","0","h","NA","h","h","NA","h","449","NA","13872","7634","NA","449","2","legacy","1024","2","48000","-16","experiment","HHHHH","2","even","232454","15545","171169","NA","186371","1667","230263","NA","233579","1672","163534","NA","233683","234133","233573","233683","Flanker task","106","61242","115","yes","2560"
"92.24137931034483","92.24137931034483","531.8706896551724","531.8706896551724","black","legacy","legacy","legacy","0","incongruent","uniform","1","undefined","1","s","115","0","0","0","115","0","115","0","115","0","0","0","115","115","115","115","Sun Sep 27 18:47:52 2020","600","The main experiment item","yes","Flankertask.osexp","C:/Users/JHS6-EAGLE/Desktop/OpenSes Files","no","mono","no","18","no","white","no","no","1440","legacy","35","79","C:/Users/JHS6-EAGLE/Desktop/OpenSes Files/RL-subject-2.csv","legacy","Lentiform Loewenfeld","3.3.3","0","s","NA","h","h","NA","s","455","NA","13872","7634","NA","455","2","legacy","1024","2","48000","-16","experiment","HHSHH","2","even","234141","15545","171169","NA","186371","1667","230263","NA","235266","1672","163534","NA","235383","235839","235260","235382","Flanker task","107","61697","116","yes","2560"
"92.3076923076923","92.3076923076923","531.4188034188035","531.4188034188035","black","legacy","legacy","legacy","0","congruent","uniform","1","undefined","1","h","116","0","0","0","116","0","116","0","116","0","0","0","116","116","116","116","Sun Sep 27 18:47:52 2020","600","The main experiment item","yes","Flankertask.osexp","C:/Users/JHS6-EAGLE/Desktop/OpenSes Files","no","mono","no","18","no","white","no","no","1440","legacy","36","79","C:/Users/JHS6-EAGLE/Desktop/OpenSes Files/RL-subject-2.csv","legacy","Lentiform Loewenfeld","3.3.3","0","h","NA","h","h","NA","h","479","NA","13872","7634","NA","479","2","legacy","1024","2","48000","-16","experiment","HHHHH","2","even","235847","15545","171169","NA","186371","1667","230263","NA","236987","1672","163534","NA","237091","237571","236981","237091","Flanker task","108","62176","117","yes","2560"
"92.37288135593221","92.37288135593221","531.8135593220339","531.8135593220339","black","legacy","legacy","legacy","0","incongruent","uniform","1","undefined","1","s","117","0","0","0","117","0","117","0","117","0","0","0","117","117","117","117","Sun Sep 27 18:47:52 2020","600","The main experiment item","yes","Flankertask.osexp","C:/Users/JHS6-EAGLE/Desktop/OpenSes Files","no","mono","no","18","no","white","no","no","1440","legacy","37","79","C:/Users/JHS6-EAGLE/Desktop/OpenSes Files/RL-subject-2.csv","legacy","Lentiform Loewenfeld","3.3.3","0","s","NA","h","h","NA","s","578","NA","13872","7634","NA","578","2","legacy","1024","2","48000","-16","experiment","HHSHH","2","even","237579","15545","171169","NA","186371","1667","230263","NA","238704","1672","163534","NA","238808","239387","238698","238808","Flanker task","109","62754","118","yes","2560"
