"acc","accuracy","average_response_time","avg_rt","background","canvas_backend","clock_backend","color_backend","condition","correct","correct_instructions1","correct_keyboard_response","correct_response","count_Block1","count_Block3","count_ErrorFeedback","count_ISI","count_Instruction3","count_block2","count_experiment","count_faster","count_fixation","count_instructions1","count_instructions2","count_instructions3","count_keyboard_response","count_logger","count_new_sketchpad","count_sequence","count_stimulus","datetime","deadline","description","disable_garbage_collection","experiment_file","experiment_path","font_bold","font_family","font_italic","font_size","font_underline","foreground","form_clicks","fullscreen","height","keyboard_backend","live_row","live_row_Block1","logfile","mouse_backend","opensesame_codename","opensesame_version","repeat_cycle","response","response_Instruction3","response_faster","response_instructions1","response_instructions2","response_instructions3","response_keyboard_response","response_new_sketchpad","response_time","response_time_Instruction3","response_time_faster","response_time_instructions1","response_time_instructions2","response_time_instructions3","response_time_keyboard_response","response_time_new_sketchpad","round_decimals","sampler_backend","sound_buf_size","sound_channels","sound_freq","sound_sample_size","start","stimulus","subject_nr","subject_parity","time_Block1","time_Block3","time_ErrorFeedback","time_ISI","time_Instruction3","time_block2","time_experiment","time_faster","time_fixation","time_instructions1","time_instructions2","time_instructions3","time_keyboard_response","time_logger","time_new_sketchpad","time_sequence","time_stimulus","title","total_correct","total_response_time","total_responses","width"
"100","100","971","971","#3d3846","legacy","legacy","legacy","incongruent","1","undefined","1","h","0","0","0","0","0","0","0","0","0","0","0","0","0","0","NA","0","0","Wed Sep 13 02:02:50 2023","1500","The main experiment item","True","Flanker Task Lab 2.2.osexp","C:\Users\kikip\OneDrive\Desktop","False","mono","False","18","no","white","no","yes","768","legacy","0","0","C:/Users/kikip/OneDrive/Desktop/HB-subject-2.csv","legacy","Melodramatic Milgram","4.0.5","0","h","NA","NA","s","NA","NA","h","NA","971.0","NA","NA","45130","NA","NA","971","NA","2","legacy","1024","2","48000","-16","experiment","SSHSS","2","even","48566","NA","NA","NA","NA","NA","3431","NA","48652","3435","NA","NA","48753","49725","NA","48651","48753","Neues Experiment","1","971.0","1","1024"
"100","100","774","774","#3d3846","legacy","legacy","legacy","congruent","1","undefined","1","s","0","0","1","1","0","0","0","1","1","0","0","0","1","1","NA","1","1","Wed Sep 13 02:02:50 2023","1500","The main experiment item","True","Flanker Task Lab 2.2.osexp","C:\Users\kikip\OneDrive\Desktop","False","mono","False","18","no","white","no","yes","768","legacy","1","1","C:/Users/kikip/OneDrive/Desktop/HB-subject-2.csv","legacy","Melodramatic Milgram","4.0.5","0","s","NA","NA","s","NA","NA","s","NA","578.0","NA","NA","45130","NA","NA","578","NA","2","legacy","1024","2","48000","-16","experiment","SSSSS","2","even","48566","NA","NA","49736","NA","NA","3431","NA","50777","3435","NA","NA","50878","51457","NA","50775","50878","Neues Experiment","2","1549.0","2","1024"
"100","100","668","668","#3d3846","legacy","legacy","legacy","congruent","1","undefined","1","s","0","0","2","2","0","0","0","2","2","0","0","0","2","2","NA","2","2","Wed Sep 13 02:02:50 2023","1500","The main experiment item","True","Flanker Task Lab 2.2.osexp","C:\Users\kikip\OneDrive\Desktop","False","mono","False","18","no","white","no","yes","768","legacy","2","2","C:/Users/kikip/OneDrive/Desktop/HB-subject-2.csv","legacy","Melodramatic Milgram","4.0.5","0","s","NA","NA","s","NA","NA","s","NA","456.0","NA","NA","45130","NA","NA","456","NA","2","legacy","1024","2","48000","-16","experiment","SSSSS","2","even","48566","NA","NA","51460","NA","NA","3431","NA","52498","3435","NA","NA","52599","53056","NA","52496","52599","Neues Experiment","3","2005.0","3","1024"
"100","100","608","608","#3d3846","legacy","legacy","legacy","congruent","1","undefined","1","s","0","0","3","3","0","0","0","3","3","0","0","0","3","3","NA","3","3","Wed Sep 13 02:02:50 2023","1500","The main experiment item","True","Flanker Task Lab 2.2.osexp","C:\Users\kikip\OneDrive\Desktop","False","mono","False","18","no","white","no","yes","768","legacy","3","3","C:/Users/kikip/OneDrive/Desktop/HB-subject-2.csv","legacy","Melodramatic Milgram","4.0.5","0","s","NA","NA","s","NA","NA","s","NA","429.0","NA","NA","45130","NA","NA","429","NA","2","legacy","1024","2","48000","-16","experiment","SSSSS","2","even","48566","NA","NA","53060","NA","NA","3431","NA","54130","3435","NA","NA","54231","54665","NA","54128","54231","Neues Experiment","4","2434.0","4","1024"
"100","100","625","625","#3d3846","legacy","legacy","legacy","incongruent","1","undefined","1","s","0","0","4","4","0","0","0","4","4","0","0","0","4","4","NA","4","4","Wed Sep 13 02:02:50 2023","1500","The main experiment item","True","Flanker Task Lab 2.2.osexp","C:\Users\kikip\OneDrive\Desktop","False","mono","False","18","no","white","no","yes","768","legacy","4","4","C:/Users/kikip/OneDrive/Desktop/HB-subject-2.csv","legacy","Melodramatic Milgram","4.0.5","0","s","NA","NA","s","NA","NA","s","NA","692.0","NA","NA","45130","NA","NA","692","NA","2","legacy","1024","2","48000","-16","experiment","HHSHH","2","even","48566","NA","NA","54683","NA","NA","3431","NA","55721","3435","NA","NA","55822","56515","NA","55719","55822","Neues Experiment","5","3126.0","5","1024"
"100","100","591","591","#3d3846","legacy","legacy","legacy","congruent","1","undefined","1","s","0","0","5","5","0","0","0","5","5","0","0","0","5","5","NA","5","5","Wed Sep 13 02:02:50 2023","1500","The main experiment item","True","Flanker Task Lab 2.2.osexp","C:\Users\kikip\OneDrive\Desktop","False","mono","False","18","no","white","no","yes","768","legacy","5","5","C:/Users/kikip/OneDrive/Desktop/HB-subject-2.csv","legacy","Melodramatic Milgram","4.0.5","0","s","NA","NA","s","NA","NA","s","NA","421.0","NA","NA","45130","NA","NA","421","NA","2","legacy","1024","2","48000","-16","experiment","SSSSS","2","even","48566","NA","NA","56518","NA","NA","3431","NA","57564","3435","NA","NA","57665","58086","NA","57562","57665","Neues Experiment","6","3547.0","6","1024"
"85","85","574","574","#3d3846","legacy","legacy","legacy","incongruent","0","undefined","0","s","0","0","6","6","0","0","0","6","6","0","0","0","6","6","NA","6","6","Wed Sep 13 02:02:50 2023","1500","The main experiment item","True","Flanker Task Lab 2.2.osexp","C:\Users\kikip\OneDrive\Desktop","False","mono","False","18","no","white","no","yes","768","legacy","6","6","C:/Users/kikip/OneDrive/Desktop/HB-subject-2.csv","legacy","Melodramatic Milgram","4.0.5","0","h","NA","NA","s","NA","NA","h","NA","477.0","NA","NA","45130","NA","NA","477","NA","2","legacy","1024","2","48000","-16","experiment","HHSHH","2","even","48566","NA","NA","58090","NA","NA","3431","NA","59131","3435","NA","NA","59232","59710","NA","59129","59232","Neues Experiment","6","4024.0","7","1024"
"87","87","584","584","#3d3846","legacy","legacy","legacy","incongruent","1","undefined","1","h","0","0","7","7","0","0","0","7","7","0","0","0","7","7","NA","7","7","Wed Sep 13 02:02:50 2023","1500","The main experiment item","True","Flanker Task Lab 2.2.osexp","C:\Users\kikip\OneDrive\Desktop","False","mono","False","18","no","white","no","yes","768","legacy","7","7","C:/Users/kikip/OneDrive/Desktop/HB-subject-2.csv","legacy","Melodramatic Milgram","4.0.5","0","h","NA","NA","s","NA","NA","h","NA","652.0","NA","NA","45130","NA","NA","652","NA","2","legacy","1024","2","48000","-16","experiment","SSHSS","2","even","48566","NA","59715","60216","NA","NA","3431","NA","61256","3435","NA","NA","61357","62010","NA","61254","61357","Neues Experiment","7","4676.0","8","1024"
"88","88","587","587","#3d3846","legacy","legacy","legacy","incongruent","1","undefined","1","s","0","0","8","8","0","0","0","8","8","0","0","0","8","8","NA","8","8","Wed Sep 13 02:02:50 2023","1500","The main experiment item","True","Flanker Task Lab 2.2.osexp","C:\Users\kikip\OneDrive\Desktop","False","mono","False","18","no","white","no","yes","768","legacy","8","8","C:/Users/kikip/OneDrive/Desktop/HB-subject-2.csv","legacy","Melodramatic Milgram","4.0.5","0","s","NA","NA","s","NA","NA","s","NA","611.0","NA","NA","45130","NA","NA","611","NA","2","legacy","1024","2","48000","-16","experiment","HHSHH","2","even","48566","NA","59715","62013","NA","NA","3431","NA","63071","3435","NA","NA","63173","63785","NA","63069","63173","Neues Experiment","8","5287.0","9","1024"
"90","90","581","581","#3d3846","legacy","legacy","legacy","coongruent","1","undefined","1","h","0","0","9","9","0","0","0","9","9","0","0","0","9","9","NA","9","9","Wed Sep 13 02:02:50 2023","1500","The main experiment item","True","Flanker Task Lab 2.2.osexp","C:\Users\kikip\OneDrive\Desktop","False","mono","False","18","no","white","no","yes","768","legacy","9","9","C:/Users/kikip/OneDrive/Desktop/HB-subject-2.csv","legacy","Melodramatic Milgram","4.0.5","0","h","NA","NA","s","NA","NA","h","NA","530.0","NA","NA","45130","NA","NA","530","NA","2","legacy","1024","2","48000","-16","experiment","HHHHH","2","even","48566","NA","59715","63788","NA","NA","3431","NA","64829","3435","NA","NA","64930","65460","NA","64828","64930","Neues Experiment","9","5817.0","10","1024"
"90","90","570","570","#3d3846","legacy","legacy","legacy","congruent","1","undefined","1","s","0","0","10","10","0","0","0","10","10","0","0","0","10","10","NA","10","10","Wed Sep 13 02:02:50 2023","1500","The main experiment item","True","Flanker Task Lab 2.2.osexp","C:\Users\kikip\OneDrive\Desktop","False","mono","False","18","no","white","no","yes","768","legacy","10","10","C:/Users/kikip/OneDrive/Desktop/HB-subject-2.csv","legacy","Melodramatic Milgram","4.0.5","0","s","NA","NA","s","NA","NA","s","NA","458.0","NA","NA","45130","NA","NA","458","NA","2","legacy","1024","2","48000","-16","experiment","SSSSS","2","even","48566","NA","59715","65463","NA","NA","3431","NA","66515","3435","NA","NA","66616","67075","NA","66513","66616","Neues Experiment","10","6275.0","11","1024"
"91","91","565","565","#3d3846","legacy","legacy","legacy","coongruent","1","undefined","1","h","0","0","11","11","0","0","0","11","11","0","0","0","11","11","NA","11","11","Wed Sep 13 02:02:50 2023","1500","The main experiment item","True","Flanker Task Lab 2.2.osexp","C:\Users\kikip\OneDrive\Desktop","False","mono","False","18","no","white","no","yes","768","legacy","11","11","C:/Users/kikip/OneDrive/Desktop/HB-subject-2.csv","legacy","Melodramatic Milgram","4.0.5","0","h","NA","NA","s","NA","NA","h","NA","507.0","NA","NA","45130","NA","NA","507","NA","2","legacy","1024","2","48000","-16","experiment","HHHHH","2","even","48566","NA","59715","67078","NA","NA","3431","NA","68116","3435","NA","NA","68217","68725","NA","68114","68217","Neues Experiment","11","6782.0","12","1024"
"92","92","568","568","#3d3846","legacy","legacy","legacy","incongruent","1","undefined","1","h","0","0","12","12","0","0","0","12","12","0","0","0","12","12","NA","12","12","Wed Sep 13 02:02:50 2023","1500","The main experiment item","True","Flanker Task Lab 2.2.osexp","C:\Users\kikip\OneDrive\Desktop","False","mono","False","18","no","white","no","yes","768","legacy","12","12","C:/Users/kikip/OneDrive/Desktop/HB-subject-2.csv","legacy","Melodramatic Milgram","4.0.5","0","h","NA","NA","s","NA","NA","h","NA","611.0","NA","NA","45130","NA","NA","611","NA","2","legacy","1024","2","48000","-16","experiment","SSHSS","2","even","48566","NA","59715","68728","NA","NA","3431","NA","69773","3435","NA","NA","69874","70486","NA","69771","69874","Neues Experiment","12","7393.0","13","1024"
"92","92","568","568","#3d3846","legacy","legacy","legacy","incongruent","1","undefined","1","h","0","0","13","13","0","0","0","13","13","0","0","0","13","13","NA","13","13","Wed Sep 13 02:02:50 2023","1500","The main experiment item","True","Flanker Task Lab 2.2.osexp","C:\Users\kikip\OneDrive\Desktop","False","mono","False","18","no","white","no","yes","768","legacy","13","13","C:/Users/kikip/OneDrive/Desktop/HB-subject-2.csv","legacy","Melodramatic Milgram","4.0.5","0","h","NA","NA","s","NA","NA","h","NA","562.0","NA","NA","45130","NA","NA","562","NA","2","legacy","1024","2","48000","-16","experiment","SSHSS","2","even","48566","NA","59715","70488","NA","NA","3431","NA","71606","3435","NA","NA","71707","72270","NA","71603","71707","Neues Experiment","13","7955.0","14","1024"
"93","93","566","566","#3d3846","legacy","legacy","legacy","incongruent","1","undefined","1","s","0","0","14","14","0","0","0","14","14","0","0","0","14","14","NA","14","14","Wed Sep 13 02:02:50 2023","1500","The main experiment item","True","Flanker Task Lab 2.2.osexp","C:\Users\kikip\OneDrive\Desktop","False","mono","False","18","no","white","no","yes","768","legacy","14","14","C:/Users/kikip/OneDrive/Desktop/HB-subject-2.csv","legacy","Melodramatic Milgram","4.0.5","0","s","NA","NA","s","NA","NA","s","NA","543.0","NA","NA","45130","NA","NA","543","NA","2","legacy","1024","2","48000","-16","experiment","HHSHH","2","even","48566","NA","59715","72274","NA","NA","3431","NA","73315","3435","NA","NA","73416","73960","NA","73313","73416","Neues Experiment","14","8498.0","15","1024"
"93","93","556","556","#3d3846","legacy","legacy","legacy","incongruent","1","undefined","1","s","0","0","15","15","0","0","0","15","15","0","0","0","15","15","NA","15","15","Wed Sep 13 02:02:50 2023","1500","The main experiment item","True","Flanker Task Lab 2.2.osexp","C:\Users\kikip\OneDrive\Desktop","False","mono","False","18","no","white","no","yes","768","legacy","15","15","C:/Users/kikip/OneDrive/Desktop/HB-subject-2.csv","legacy","Melodramatic Milgram","4.0.5","0","s","NA","NA","s","NA","NA","s","NA","409.0","NA","NA","45130","NA","NA","409","NA","2","legacy","1024","2","48000","-16","experiment","HHSHH","2","even","48566","NA","59715","73963","NA","NA","3431","NA","75014","3435","NA","NA","75115","75524","NA","75012","75115","Neues Experiment","15","8907.0","16","1024"
"94","94","555","555","#3d3846","legacy","legacy","legacy","coongruent","1","undefined","1","h","0","0","16","16","0","0","0","16","16","0","0","0","16","16","NA","16","16","Wed Sep 13 02:02:50 2023","1500","The main experiment item","True","Flanker Task Lab 2.2.osexp","C:\Users\kikip\OneDrive\Desktop","False","mono","False","18","no","white","no","yes","768","legacy","16","16","C:/Users/kikip/OneDrive/Desktop/HB-subject-2.csv","legacy","Melodramatic Milgram","4.0.5","0","h","NA","NA","s","NA","NA","h","NA","530.0","NA","NA","45130","NA","NA","530","NA","2","legacy","1024","2","48000","-16","experiment","HHHHH","2","even","48566","NA","59715","75527","NA","NA","3431","NA","76568","3435","NA","NA","76669","77200","NA","76566","76669","Neues Experiment","16","9437.0","17","1024"
"94","94","548","548","#3d3846","legacy","legacy","legacy","congruent","1","undefined","1","s","0","0","17","17","0","0","0","17","17","0","0","0","17","17","NA","17","17","Wed Sep 13 02:02:50 2023","1500","The main experiment item","True","Flanker Task Lab 2.2.osexp","C:\Users\kikip\OneDrive\Desktop","False","mono","False","18","no","white","no","yes","768","legacy","17","17","C:/Users/kikip/OneDrive/Desktop/HB-subject-2.csv","legacy","Melodramatic Milgram","4.0.5","0","s","NA","NA","s","NA","NA","s","NA","444.0","NA","NA","45130","NA","NA","444","NA","2","legacy","1024","2","48000","-16","experiment","SSSSS","2","even","48566","NA","59715","77204","NA","NA","3431","NA","78248","3435","NA","NA","78350","78794","NA","78247","78350","Neues Experiment","17","9881.0","18","1024"
"94","94","541","541","#3d3846","legacy","legacy","legacy","congruent","1","undefined","1","s","0","0","18","18","0","0","0","18","18","0","0","0","18","18","NA","18","18","Wed Sep 13 02:02:50 2023","1500","The main experiment item","True","Flanker Task Lab 2.2.osexp","C:\Users\kikip\OneDrive\Desktop","False","mono","False","18","no","white","no","yes","768","legacy","18","18","C:/Users/kikip/OneDrive/Desktop/HB-subject-2.csv","legacy","Melodramatic Milgram","4.0.5","0","s","NA","NA","s","NA","NA","s","NA","405.0","NA","NA","45130","NA","NA","405","NA","2","legacy","1024","2","48000","-16","experiment","SSSSS","2","even","48566","NA","59715","78800","NA","NA","3431","NA","79858","3435","NA","NA","79959","80372","NA","79856","79959","Neues Experiment","18","10286.0","19","1024"
"95","95","533","533","#3d3846","legacy","legacy","legacy","congruent","1","undefined","1","s","0","0","19","19","0","0","0","19","19","0","0","0","19","19","NA","19","19","Wed Sep 13 02:02:50 2023","1500","The main experiment item","True","Flanker Task Lab 2.2.osexp","C:\Users\kikip\OneDrive\Desktop","False","mono","False","18","no","white","no","yes","768","legacy","19","19","C:/Users/kikip/OneDrive/Desktop/HB-subject-2.csv","legacy","Melodramatic Milgram","4.0.5","0","s","NA","NA","s","NA","NA","s","NA","384.0","NA","NA","45130","NA","NA","384","NA","2","legacy","1024","2","48000","-16","experiment","SSSSS","2","even","48566","NA","59715","80387","NA","NA","3431","NA","81439","3435","NA","NA","81540","81924","NA","81437","81540","Neues Experiment","19","10670.0","20","1024"
"95","95","528","528","#3d3846","legacy","legacy","legacy","coongruent","1","undefined","1","h","0","0","20","20","0","0","0","20","20","0","0","0","20","20","NA","20","20","Wed Sep 13 02:02:50 2023","1500","The main experiment item","True","Flanker Task Lab 2.2.osexp","C:\Users\kikip\OneDrive\Desktop","False","mono","False","18","no","white","no","yes","768","legacy","20","20","C:/Users/kikip/OneDrive/Desktop/HB-subject-2.csv","legacy","Melodramatic Milgram","4.0.5","0","h","NA","NA","s","NA","NA","h","NA","434.0","NA","NA","45130","NA","NA","434","NA","2","legacy","1024","2","48000","-16","experiment","HHHHH","2","even","48566","NA","59715","81928","NA","NA","3431","NA","82964","3435","NA","NA","83065","83499","NA","82963","83065","Neues Experiment","20","11104.0","21","1024"
"95","95","523","523","#3d3846","legacy","legacy","legacy","coongruent","1","undefined","1","h","0","0","21","21","0","0","0","21","21","0","0","0","21","21","NA","21","21","Wed Sep 13 02:02:50 2023","1500","The main experiment item","True","Flanker Task Lab 2.2.osexp","C:\Users\kikip\OneDrive\Desktop","False","mono","False","18","no","white","no","yes","768","legacy","21","21","C:/Users/kikip/OneDrive/Desktop/HB-subject-2.csv","legacy","Melodramatic Milgram","4.0.5","0","h","NA","NA","s","NA","NA","h","NA","409.0","NA","NA","45130","NA","NA","409","NA","2","legacy","1024","2","48000","-16","experiment","HHHHH","2","even","48566","NA","59715","83503","NA","NA","3431","NA","84549","3435","NA","NA","84650","85060","NA","84548","84650","Neues Experiment","21","11513.0","22","1024"
"95","95","522","522","#3d3846","legacy","legacy","legacy","congruent","1","undefined","1","s","0","0","22","22","0","0","0","22","22","0","0","0","22","22","NA","22","22","Wed Sep 13 02:02:50 2023","1500","The main experiment item","True","Flanker Task Lab 2.2.osexp","C:\Users\kikip\OneDrive\Desktop","False","mono","False","18","no","white","no","yes","768","legacy","22","22","C:/Users/kikip/OneDrive/Desktop/HB-subject-2.csv","legacy","Melodramatic Milgram","4.0.5","0","s","NA","NA","s","NA","NA","s","NA","497.0","NA","NA","45130","NA","NA","497","NA","2","legacy","1024","2","48000","-16","experiment","SSSSS","2","even","48566","NA","59715","85063","NA","NA","3431","NA","86107","3435","NA","NA","86208","86706","NA","86105","86208","Neues Experiment","22","12010.0","23","1024"
"95","95","528","528","#3d3846","legacy","legacy","legacy","incongruent","1","undefined","1","s","0","0","23","23","0","0","0","23","23","0","0","0","23","23","NA","23","23","Wed Sep 13 02:02:50 2023","1500","The main experiment item","True","Flanker Task Lab 2.2.osexp","C:\Users\kikip\OneDrive\Desktop","False","mono","False","18","no","white","no","yes","768","legacy","23","23","C:/Users/kikip/OneDrive/Desktop/HB-subject-2.csv","legacy","Melodramatic Milgram","4.0.5","0","s","NA","NA","s","NA","NA","s","NA","674.0","NA","NA","45130","NA","NA","674","NA","2","legacy","1024","2","48000","-16","experiment","HHSHH","2","even","48566","NA","59715","86709","NA","NA","3431","NA","87748","3435","NA","NA","87849","88524","NA","87746","87849","Neues Experiment","23","12684.0","24","1024"
"96","96","527","527","#3d3846","legacy","legacy","legacy","incongruent","1","undefined","1","h","0","0","24","24","0","0","0","24","24","0","0","0","24","24","NA","24","24","Wed Sep 13 02:02:50 2023","1500","The main experiment item","True","Flanker Task Lab 2.2.osexp","C:\Users\kikip\OneDrive\Desktop","False","mono","False","18","no","white","no","yes","768","legacy","24","24","C:/Users/kikip/OneDrive/Desktop/HB-subject-2.csv","legacy","Melodramatic Milgram","4.0.5","0","h","NA","NA","s","NA","NA","h","NA","491.0","NA","NA","45130","NA","NA","491","NA","2","legacy","1024","2","48000","-16","experiment","SSHSS","2","even","48566","NA","59715","88531","NA","NA","3431","NA","89577","3435","NA","NA","89678","90169","NA","89575","89678","Neues Experiment","24","13175.0","25","1024"
"96","96","526","526","#3d3846","legacy","legacy","legacy","congruent","1","undefined","1","s","0","0","25","25","0","0","0","25","25","0","0","0","25","25","NA","25","25","Wed Sep 13 02:02:50 2023","1500","The main experiment item","True","Flanker Task Lab 2.2.osexp","C:\Users\kikip\OneDrive\Desktop","False","mono","False","18","no","white","no","yes","768","legacy","25","25","C:/Users/kikip/OneDrive/Desktop/HB-subject-2.csv","legacy","Melodramatic Milgram","4.0.5","0","s","NA","NA","s","NA","NA","s","NA","507.0","NA","NA","45130","NA","NA","507","NA","2","legacy","1024","2","48000","-16","experiment","SSSSS","2","even","48566","NA","59715","90175","NA","NA","3431","NA","91221","3435","NA","NA","91322","91830","NA","91219","91322","Neues Experiment","25","13682.0","26","1024"
"96","96","527","527","#3d3846","legacy","legacy","legacy","incongruent","1","undefined","1","h","0","0","26","26","0","0","0","26","26","0","0","0","26","26","NA","26","26","Wed Sep 13 02:02:50 2023","1500","The main experiment item","True","Flanker Task Lab 2.2.osexp","C:\Users\kikip\OneDrive\Desktop","False","mono","False","18","no","white","no","yes","768","legacy","26","26","C:/Users/kikip/OneDrive/Desktop/HB-subject-2.csv","legacy","Melodramatic Milgram","4.0.5","0","h","NA","NA","s","NA","NA","h","NA","553.0","NA","NA","45130","NA","NA","553","NA","2","legacy","1024","2","48000","-16","experiment","SSHSS","2","even","48566","NA","59715","91833","NA","NA","3431","NA","92869","3435","NA","NA","92970","93524","NA","92867","92970","Neues Experiment","26","14235.0","27","1024"
"96","96","526","526","#3d3846","legacy","legacy","legacy","incongruent","1","undefined","1","s","0","0","27","27","0","0","0","27","27","0","0","0","27","27","NA","27","27","Wed Sep 13 02:02:50 2023","1500","The main experiment item","True","Flanker Task Lab 2.2.osexp","C:\Users\kikip\OneDrive\Desktop","False","mono","False","18","no","white","no","yes","768","legacy","27","27","C:/Users/kikip/OneDrive/Desktop/HB-subject-2.csv","legacy","Melodramatic Milgram","4.0.5","0","s","NA","NA","s","NA","NA","s","NA","516.0","NA","NA","45130","NA","NA","516","NA","2","legacy","1024","2","48000","-16","experiment","HHSHH","2","even","48566","NA","59715","93527","NA","NA","3431","NA","94597","3435","NA","NA","94698","95215","NA","94595","94698","Neues Experiment","27","14751.0","28","1024"
"96","96","530","530","#3d3846","legacy","legacy","legacy","incongruent","1","undefined","1","h","0","0","28","28","0","0","0","28","28","0","0","0","28","28","NA","28","28","Wed Sep 13 02:02:50 2023","1500","The main experiment item","True","Flanker Task Lab 2.2.osexp","C:\Users\kikip\OneDrive\Desktop","False","mono","False","18","no","white","no","yes","768","legacy","28","28","C:/Users/kikip/OneDrive/Desktop/HB-subject-2.csv","legacy","Melodramatic Milgram","4.0.5","0","h","NA","NA","s","NA","NA","h","NA","639.0","NA","NA","45130","NA","NA","639","NA","2","legacy","1024","2","48000","-16","experiment","SSHSS","2","even","48566","NA","59715","95222","NA","NA","3431","NA","96263","3435","NA","NA","96364","97004","NA","96262","96364","Neues Experiment","28","15390.0","29","1024"
"93","93","526","526","#3d3846","legacy","legacy","legacy","coongruent","0","undefined","0","h","0","0","29","29","0","0","0","29","29","0","0","0","29","29","NA","29","29","Wed Sep 13 02:02:50 2023","1500","The main experiment item","True","Flanker Task Lab 2.2.osexp","C:\Users\kikip\OneDrive\Desktop","False","mono","False","18","no","white","no","yes","768","legacy","29","29","C:/Users/kikip/OneDrive/Desktop/HB-subject-2.csv","legacy","Melodramatic Milgram","4.0.5","0","s","NA","NA","s","NA","NA","s","NA","401.0","NA","NA","45130","NA","NA","401","NA","2","legacy","1024","2","48000","-16","experiment","HHHHH","2","even","48566","NA","59715","97008","NA","NA","3431","NA","98052","3435","NA","NA","98153","98555","NA","98051","98153","Neues Experiment","28","15791.0","30","1024"
"93","93","527","527","#3d3846","legacy","legacy","legacy","coongruent","1","undefined","1","h","0","0","30","30","0","0","0","30","30","0","0","0","30","30","NA","30","30","Wed Sep 13 02:02:50 2023","1500","The main experiment item","True","Flanker Task Lab 2.2.osexp","C:\Users\kikip\OneDrive\Desktop","False","mono","False","18","no","white","no","yes","768","legacy","30","30","C:/Users/kikip/OneDrive/Desktop/HB-subject-2.csv","legacy","Melodramatic Milgram","4.0.5","0","h","NA","NA","s","NA","NA","h","NA","574.0","NA","NA","45130","NA","NA","574","NA","2","legacy","1024","2","48000","-16","experiment","HHHHH","2","even","48566","NA","98559","99060","NA","NA","3431","NA","100102","3435","NA","NA","100204","100779","NA","100101","100204","Neues Experiment","29","16365.0","31","1024"
"93","93","530","530","#3d3846","legacy","legacy","legacy","incongruent","1","undefined","1","s","0","0","31","31","0","0","0","31","31","0","0","0","31","31","NA","31","31","Wed Sep 13 02:02:50 2023","1500","The main experiment item","True","Flanker Task Lab 2.2.osexp","C:\Users\kikip\OneDrive\Desktop","False","mono","False","18","no","white","no","yes","768","legacy","31","31","C:/Users/kikip/OneDrive/Desktop/HB-subject-2.csv","legacy","Melodramatic Milgram","4.0.5","0","s","NA","NA","s","NA","NA","s","NA","596.0","NA","NA","45130","NA","NA","596","NA","2","legacy","1024","2","48000","-16","experiment","HHSHH","2","even","48566","NA","98559","100783","NA","NA","3431","NA","101825","3435","NA","NA","101927","102524","NA","101823","101927","Neues Experiment","30","16961.0","32","1024"
"93","93","528","528","#3d3846","legacy","legacy","legacy","congruent","1","undefined","1","s","0","0","32","32","0","0","0","32","32","0","0","0","32","32","NA","32","32","Wed Sep 13 02:02:50 2023","1500","The main experiment item","True","Flanker Task Lab 2.2.osexp","C:\Users\kikip\OneDrive\Desktop","False","mono","False","18","no","white","no","yes","768","legacy","32","32","C:/Users/kikip/OneDrive/Desktop/HB-subject-2.csv","legacy","Melodramatic Milgram","4.0.5","0","s","NA","NA","s","NA","NA","s","NA","466.0","NA","NA","45130","NA","NA","466","NA","2","legacy","1024","2","48000","-16","experiment","SSSSS","2","even","48566","NA","98559","102528","NA","NA","3431","NA","103572","3435","NA","NA","103673","104140","NA","103570","103673","Neues Experiment","31","17427.0","33","1024"
"94","94","528","528","#3d3846","legacy","legacy","legacy","incongruent","1","undefined","1","s","0","0","33","33","0","0","0","33","33","0","0","0","33","33","NA","33","33","Wed Sep 13 02:02:50 2023","1500","The main experiment item","True","Flanker Task Lab 2.2.osexp","C:\Users\kikip\OneDrive\Desktop","False","mono","False","18","no","white","no","yes","768","legacy","33","33","C:/Users/kikip/OneDrive/Desktop/HB-subject-2.csv","legacy","Melodramatic Milgram","4.0.5","0","s","NA","NA","s","NA","NA","s","NA","541.0","NA","NA","45130","NA","NA","541","NA","2","legacy","1024","2","48000","-16","experiment","HHSHH","2","even","48566","NA","98559","104143","NA","NA","3431","NA","105202","3435","NA","NA","105303","105844","NA","105201","105303","Neues Experiment","32","17968.0","34","1024"
"94","94","526","526","#3d3846","legacy","legacy","legacy","incongruent","1","undefined","1","s","0","0","34","34","0","0","0","34","34","0","0","0","34","34","NA","34","34","Wed Sep 13 02:02:50 2023","1500","The main experiment item","True","Flanker Task Lab 2.2.osexp","C:\Users\kikip\OneDrive\Desktop","False","mono","False","18","no","white","no","yes","768","legacy","34","34","C:/Users/kikip/OneDrive/Desktop/HB-subject-2.csv","legacy","Melodramatic Milgram","4.0.5","0","s","NA","NA","s","NA","NA","s","NA","442.0","NA","NA","45130","NA","NA","442","NA","2","legacy","1024","2","48000","-16","experiment","HHSHH","2","even","48566","NA","98559","105848","NA","NA","3431","NA","106885","3435","NA","NA","106986","107429","NA","106883","106986","Neues Experiment","33","18410.0","35","1024"
"94","94","521","521","#3d3846","legacy","legacy","legacy","congruent","1","undefined","1","s","0","0","35","35","0","0","0","35","35","0","0","0","35","35","NA","35","35","Wed Sep 13 02:02:50 2023","1500","The main experiment item","True","Flanker Task Lab 2.2.osexp","C:\Users\kikip\OneDrive\Desktop","False","mono","False","18","no","white","no","yes","768","legacy","35","35","C:/Users/kikip/OneDrive/Desktop/HB-subject-2.csv","legacy","Melodramatic Milgram","4.0.5","0","s","NA","NA","s","NA","NA","s","NA","355.0","NA","NA","45130","NA","NA","355","NA","2","legacy","1024","2","48000","-16","experiment","SSSSS","2","even","48566","NA","98559","107433","NA","NA","3431","NA","108483","3435","NA","NA","108584","108940","NA","108481","108584","Neues Experiment","34","18765.0","36","1024"
"94","94","519","519","#3d3846","legacy","legacy","legacy","coongruent","1","undefined","1","h","0","0","36","36","0","0","0","36","36","0","0","0","36","36","NA","36","36","Wed Sep 13 02:02:50 2023","1500","The main experiment item","True","Flanker Task Lab 2.2.osexp","C:\Users\kikip\OneDrive\Desktop","False","mono","False","18","no","white","no","yes","768","legacy","36","36","C:/Users/kikip/OneDrive/Desktop/HB-subject-2.csv","legacy","Melodramatic Milgram","4.0.5","0","h","NA","NA","s","NA","NA","h","NA","452.0","NA","NA","45130","NA","NA","452","NA","2","legacy","1024","2","48000","-16","experiment","HHHHH","2","even","48566","NA","98559","108944","NA","NA","3431","NA","109996","3435","NA","NA","110107","110560","NA","109995","110106","Neues Experiment","35","19217.0","37","1024"
"94","94","517","517","#3d3846","legacy","legacy","legacy","congruent","1","undefined","1","s","0","0","37","37","0","0","0","37","37","0","0","0","37","37","NA","37","37","Wed Sep 13 02:02:50 2023","1500","The main experiment item","True","Flanker Task Lab 2.2.osexp","C:\Users\kikip\OneDrive\Desktop","False","mono","False","18","no","white","no","yes","768","legacy","37","37","C:/Users/kikip/OneDrive/Desktop/HB-subject-2.csv","legacy","Melodramatic Milgram","4.0.5","0","s","NA","NA","s","NA","NA","s","NA","443.0","NA","NA","45130","NA","NA","443","NA","2","legacy","1024","2","48000","-16","experiment","SSSSS","2","even","48566","NA","98559","110563","NA","NA","3431","NA","111600","3435","NA","NA","111701","112145","NA","111598","111701","Neues Experiment","36","19660.0","38","1024"
"94","94","515","515","#3d3846","legacy","legacy","legacy","coongruent","1","undefined","1","h","0","0","38","38","0","0","0","38","38","0","0","0","38","38","NA","38","38","Wed Sep 13 02:02:50 2023","1500","The main experiment item","True","Flanker Task Lab 2.2.osexp","C:\Users\kikip\OneDrive\Desktop","False","mono","False","18","no","white","no","yes","768","legacy","38","38","C:/Users/kikip/OneDrive/Desktop/HB-subject-2.csv","legacy","Melodramatic Milgram","4.0.5","0","h","NA","NA","s","NA","NA","h","NA","440.0","NA","NA","45130","NA","NA","440","NA","2","legacy","1024","2","48000","-16","experiment","HHHHH","2","even","48566","NA","98559","112150","NA","NA","3431","NA","113193","3435","NA","NA","113294","113735","NA","113192","113294","Neues Experiment","37","20100.0","39","1024"
"95","95","514","514","#3d3846","legacy","legacy","legacy","incongruent","1","undefined","1","s","0","0","39","39","0","0","0","39","39","0","0","0","39","39","NA","39","39","Wed Sep 13 02:02:50 2023","1500","The main experiment item","True","Flanker Task Lab 2.2.osexp","C:\Users\kikip\OneDrive\Desktop","False","mono","False","18","no","white","no","yes","768","legacy","39","39","C:/Users/kikip/OneDrive/Desktop/HB-subject-2.csv","legacy","Melodramatic Milgram","4.0.5","0","s","NA","NA","s","NA","NA","s","NA","496.0","NA","NA","45130","NA","NA","496","NA","2","legacy","1024","2","48000","-16","experiment","HHSHH","2","even","48566","NA","98559","113739","NA","NA","3431","NA","114782","3435","NA","NA","114883","115380","NA","114781","114883","Neues Experiment","38","20596.0","40","1024"
"95","95","512","512","#3d3846","legacy","legacy","legacy","congruent","1","undefined","1","s","0","0","40","40","0","0","0","40","40","0","0","0","40","40","NA","40","40","Wed Sep 13 02:02:50 2023","1500","The main experiment item","True","Flanker Task Lab 2.2.osexp","C:\Users\kikip\OneDrive\Desktop","False","mono","False","18","no","white","no","yes","768","legacy","40","40","C:/Users/kikip/OneDrive/Desktop/HB-subject-2.csv","legacy","Melodramatic Milgram","4.0.5","0","s","NA","NA","s","NA","NA","s","NA","404.0","NA","NA","45130","NA","NA","404","NA","2","legacy","1024","2","48000","-16","experiment","SSSSS","2","even","48566","NA","98559","115386","NA","NA","3431","NA","116435","3435","NA","NA","116536","116940","NA","116433","116536","Neues Experiment","39","21000.0","41","1024"
"95","95","511","511","#3d3846","legacy","legacy","legacy","incongruent","1","undefined","1","s","0","0","41","41","0","0","0","41","41","0","0","0","41","41","NA","41","41","Wed Sep 13 02:02:50 2023","1500","The main experiment item","True","Flanker Task Lab 2.2.osexp","C:\Users\kikip\OneDrive\Desktop","False","mono","False","18","no","white","no","yes","768","legacy","41","41","C:/Users/kikip/OneDrive/Desktop/HB-subject-2.csv","legacy","Melodramatic Milgram","4.0.5","0","s","NA","NA","s","NA","NA","s","NA","465.0","NA","NA","45130","NA","NA","465","NA","2","legacy","1024","2","48000","-16","experiment","HHSHH","2","even","48566","NA","98559","116943","NA","NA","3431","NA","117983","3435","NA","NA","118084","118550","NA","117981","118084","Neues Experiment","40","21465.0","42","1024"
"95","95","510","510","#3d3846","legacy","legacy","legacy","coongruent","1","undefined","1","h","0","0","42","42","0","0","0","42","42","0","0","0","42","42","NA","42","42","Wed Sep 13 02:02:50 2023","1500","The main experiment item","True","Flanker Task Lab 2.2.osexp","C:\Users\kikip\OneDrive\Desktop","False","mono","False","18","no","white","no","yes","768","legacy","42","42","C:/Users/kikip/OneDrive/Desktop/HB-subject-2.csv","legacy","Melodramatic Milgram","4.0.5","0","h","NA","NA","s","NA","NA","h","NA","470.0","NA","NA","45130","NA","NA","470","NA","2","legacy","1024","2","48000","-16","experiment","HHHHH","2","even","48566","NA","98559","118556","NA","NA","3431","NA","119608","3435","NA","NA","119709","120180","NA","119606","119709","Neues Experiment","41","21935.0","43","1024"
"95","95","509","509","#3d3846","legacy","legacy","legacy","incongruent","1","undefined","1","h","0","0","43","43","0","0","0","43","43","0","0","0","43","43","NA","43","43","Wed Sep 13 02:02:50 2023","1500","The main experiment item","True","Flanker Task Lab 2.2.osexp","C:\Users\kikip\OneDrive\Desktop","False","mono","False","18","no","white","no","yes","768","legacy","43","43","C:/Users/kikip/OneDrive/Desktop/HB-subject-2.csv","legacy","Melodramatic Milgram","4.0.5","0","h","NA","NA","s","NA","NA","h","NA","462.0","NA","NA","45130","NA","NA","462","NA","2","legacy","1024","2","48000","-16","experiment","SSHSS","2","even","48566","NA","98559","120183","NA","NA","3431","NA","121221","3435","NA","NA","121322","121785","NA","121219","121322","Neues Experiment","42","22397.0","44","1024"
"95","95","506","506","#3d3846","legacy","legacy","legacy","incongruent","1","undefined","1","h","0","0","44","44","0","0","0","44","44","0","0","0","44","44","NA","44","44","Wed Sep 13 02:02:50 2023","1500","The main experiment item","True","Flanker Task Lab 2.2.osexp","C:\Users\kikip\OneDrive\Desktop","False","mono","False","18","no","white","no","yes","768","legacy","44","44","C:/Users/kikip/OneDrive/Desktop/HB-subject-2.csv","legacy","Melodramatic Milgram","4.0.5","0","h","NA","NA","s","NA","NA","h","NA","379.0","NA","NA","45130","NA","NA","379","NA","2","legacy","1024","2","48000","-16","experiment","SSHSS","2","even","48566","NA","98559","121788","NA","NA","3431","NA","122829","3435","NA","NA","122930","123310","NA","122827","122930","Neues Experiment","43","22776.0","45","1024"
"95","95","502","502","#3d3846","legacy","legacy","legacy","coongruent","1","undefined","1","h","0","0","45","45","0","0","0","45","45","0","0","0","45","45","NA","45","45","Wed Sep 13 02:02:50 2023","1500","The main experiment item","True","Flanker Task Lab 2.2.osexp","C:\Users\kikip\OneDrive\Desktop","False","mono","False","18","no","white","no","yes","768","legacy","45","45","C:/Users/kikip/OneDrive/Desktop/HB-subject-2.csv","legacy","Melodramatic Milgram","4.0.5","0","h","NA","NA","s","NA","NA","h","NA","359.0","NA","NA","45130","NA","NA","359","NA","2","legacy","1024","2","48000","-16","experiment","HHHHH","2","even","48566","NA","98559","123314","NA","NA","3431","NA","124359","3435","NA","NA","124460","124820","NA","124357","124460","Neues Experiment","44","23135.0","46","1024"
"95","95","499","499","#3d3846","legacy","legacy","legacy","coongruent","1","undefined","1","h","0","0","46","46","0","0","0","46","46","0","0","0","46","46","NA","46","46","Wed Sep 13 02:02:50 2023","1500","The main experiment item","True","Flanker Task Lab 2.2.osexp","C:\Users\kikip\OneDrive\Desktop","False","mono","False","18","no","white","no","yes","768","legacy","46","46","C:/Users/kikip/OneDrive/Desktop/HB-subject-2.csv","legacy","Melodramatic Milgram","4.0.5","0","h","NA","NA","s","NA","NA","h","NA","344.0","NA","NA","45130","NA","NA","344","NA","2","legacy","1024","2","48000","-16","experiment","HHHHH","2","even","48566","NA","98559","124823","NA","NA","3431","NA","125864","3435","NA","NA","125965","126310","NA","125862","125965","Neues Experiment","45","23479.0","47","1024"
"95","95","496","496","#3d3846","legacy","legacy","legacy","coongruent","1","undefined","1","h","0","0","47","47","0","0","0","47","47","0","0","0","47","47","NA","47","47","Wed Sep 13 02:02:50 2023","1500","The main experiment item","True","Flanker Task Lab 2.2.osexp","C:\Users\kikip\OneDrive\Desktop","False","mono","False","18","no","white","no","yes","768","legacy","47","47","C:/Users/kikip/OneDrive/Desktop/HB-subject-2.csv","legacy","Melodramatic Milgram","4.0.5","0","h","NA","NA","s","NA","NA","h","NA","367.0","NA","NA","45130","NA","NA","367","NA","2","legacy","1024","2","48000","-16","experiment","HHHHH","2","even","48566","NA","98559","126313","NA","NA","3431","NA","127362","3435","NA","NA","127463","127831","NA","127360","127463","Neues Experiment","46","23846.0","48","1024"
"95","95","495","495","#3d3846","legacy","legacy","legacy","incongruent","1","undefined","1","s","0","0","48","48","0","0","0","48","48","0","0","0","48","48","NA","48","48","Wed Sep 13 02:02:50 2023","1500","The main experiment item","True","Flanker Task Lab 2.2.osexp","C:\Users\kikip\OneDrive\Desktop","False","mono","False","18","no","white","no","yes","768","legacy","48","48","C:/Users/kikip/OneDrive/Desktop/HB-subject-2.csv","legacy","Melodramatic Milgram","4.0.5","0","s","NA","NA","s","NA","NA","s","NA","456.0","NA","NA","45130","NA","NA","456","NA","2","legacy","1024","2","48000","-16","experiment","HHSHH","2","even","48566","NA","98559","127834","NA","NA","3431","NA","128882","3435","NA","NA","128983","129441","NA","128879","128983","Neues Experiment","47","24302.0","49","1024"
"96","96","496","496","#3d3846","legacy","legacy","legacy","incongruent","1","undefined","1","s","0","0","49","49","0","0","0","49","49","0","0","0","49","49","NA","49","49","Wed Sep 13 02:02:50 2023","1500","The main experiment item","True","Flanker Task Lab 2.2.osexp","C:\Users\kikip\OneDrive\Desktop","False","mono","False","18","no","white","no","yes","768","legacy","49","49","C:/Users/kikip/OneDrive/Desktop/HB-subject-2.csv","legacy","Melodramatic Milgram","4.0.5","0","s","NA","NA","s","NA","NA","s","NA","518.0","NA","NA","45130","NA","NA","518","NA","2","legacy","1024","2","48000","-16","experiment","HHSHH","2","even","48566","NA","98559","129444","NA","NA","3431","NA","130501","3435","NA","NA","130602","131121","NA","130499","130602","Neues Experiment","48","24820.0","50","1024"
"96","96","494","494","#3d3846","legacy","legacy","legacy","coongruent","1","undefined","1","h","0","0","50","50","0","0","0","50","50","0","0","0","50","50","NA","50","50","Wed Sep 13 02:02:50 2023","1500","The main experiment item","True","Flanker Task Lab 2.2.osexp","C:\Users\kikip\OneDrive\Desktop","False","mono","False","18","no","white","no","yes","768","legacy","50","50","C:/Users/kikip/OneDrive/Desktop/HB-subject-2.csv","legacy","Melodramatic Milgram","4.0.5","0","h","NA","NA","s","NA","NA","h","NA","409.0","NA","NA","45130","NA","NA","409","NA","2","legacy","1024","2","48000","-16","experiment","HHHHH","2","even","48566","NA","98559","131123","NA","NA","3431","NA","132170","3435","NA","NA","132271","132681","NA","132168","132271","Neues Experiment","49","25229.0","51","1024"
"96","96","494","494","#3d3846","legacy","legacy","legacy","congruent","1","undefined","1","s","0","0","51","51","0","0","0","51","51","0","0","0","51","51","NA","51","51","Wed Sep 13 02:02:50 2023","1500","The main experiment item","True","Flanker Task Lab 2.2.osexp","C:\Users\kikip\OneDrive\Desktop","False","mono","False","18","no","white","no","yes","768","legacy","51","51","C:/Users/kikip/OneDrive/Desktop/HB-subject-2.csv","legacy","Melodramatic Milgram","4.0.5","0","s","NA","NA","s","NA","NA","s","NA","476.0","NA","NA","45130","NA","NA","476","NA","2","legacy","1024","2","48000","-16","experiment","SSSSS","2","even","48566","NA","98559","132684","NA","NA","3431","NA","133748","3435","NA","NA","133849","134326","NA","133746","133849","Neues Experiment","50","25705.0","52","1024"
"96","96","494","494","#3d3846","legacy","legacy","legacy","coongruent","1","undefined","1","h","0","0","52","52","0","0","0","52","52","0","0","0","52","52","NA","52","52","Wed Sep 13 02:02:50 2023","1500","The main experiment item","True","Flanker Task Lab 2.2.osexp","C:\Users\kikip\OneDrive\Desktop","False","mono","False","18","no","white","no","yes","768","legacy","52","52","C:/Users/kikip/OneDrive/Desktop/HB-subject-2.csv","legacy","Melodramatic Milgram","4.0.5","0","h","NA","NA","s","NA","NA","h","NA","515.0","NA","NA","45130","NA","NA","515","NA","2","legacy","1024","2","48000","-16","experiment","HHHHH","2","even","48566","NA","98559","134329","NA","NA","3431","NA","135380","3435","NA","NA","135481","135997","NA","135378","135481","Neues Experiment","51","26220.0","53","1024"
"96","96","494","494","#3d3846","legacy","legacy","legacy","incongruent","1","undefined","1","h","0","0","53","53","0","0","0","53","53","0","0","0","53","53","NA","53","53","Wed Sep 13 02:02:50 2023","1500","The main experiment item","True","Flanker Task Lab 2.2.osexp","C:\Users\kikip\OneDrive\Desktop","False","mono","False","18","no","white","no","yes","768","legacy","53","53","C:/Users/kikip/OneDrive/Desktop/HB-subject-2.csv","legacy","Melodramatic Milgram","4.0.5","0","h","NA","NA","s","NA","NA","h","NA","476.0","NA","NA","45130","NA","NA","476","NA","2","legacy","1024","2","48000","-16","experiment","SSHSS","2","even","48566","NA","98559","136000","NA","NA","3431","NA","137038","3435","NA","NA","137139","137617","NA","137037","137139","Neues Experiment","52","26696.0","54","1024"
"96","96","493","493","#3d3846","legacy","legacy","legacy","incongruent","1","undefined","1","h","0","0","54","54","0","0","0","54","54","0","0","0","54","54","NA","54","54","Wed Sep 13 02:02:50 2023","1500","The main experiment item","True","Flanker Task Lab 2.2.osexp","C:\Users\kikip\OneDrive\Desktop","False","mono","False","18","no","white","no","yes","768","legacy","54","54","C:/Users/kikip/OneDrive/Desktop/HB-subject-2.csv","legacy","Melodramatic Milgram","4.0.5","0","h","NA","NA","s","NA","NA","h","NA","472.0","NA","NA","45130","NA","NA","472","NA","2","legacy","1024","2","48000","-16","experiment","SSHSS","2","even","48566","NA","98559","137623","NA","NA","3431","NA","138662","3435","NA","NA","138763","139236","NA","138660","138763","Neues Experiment","53","27168.0","55","1024"
"96","96","495","495","#3d3846","legacy","legacy","legacy","incongruent","1","undefined","1","s","0","0","55","55","0","0","0","55","55","0","0","0","55","55","NA","55","55","Wed Sep 13 02:02:50 2023","1500","The main experiment item","True","Flanker Task Lab 2.2.osexp","C:\Users\kikip\OneDrive\Desktop","False","mono","False","18","no","white","no","yes","768","legacy","55","55","C:/Users/kikip/OneDrive/Desktop/HB-subject-2.csv","legacy","Melodramatic Milgram","4.0.5","0","s","NA","NA","s","NA","NA","s","NA","559.0","NA","NA","45130","NA","NA","559","NA","2","legacy","1024","2","48000","-16","experiment","HHSHH","2","even","48566","NA","98559","139243","NA","NA","3431","NA","140296","3435","NA","NA","140397","140957","NA","140294","140397","Neues Experiment","54","27727.0","56","1024"
"96","96","494","494","#3d3846","legacy","legacy","legacy","coongruent","1","undefined","1","h","0","0","56","56","0","0","0","56","56","0","0","0","56","56","NA","56","56","Wed Sep 13 02:02:50 2023","1500","The main experiment item","True","Flanker Task Lab 2.2.osexp","C:\Users\kikip\OneDrive\Desktop","False","mono","False","18","no","white","no","yes","768","legacy","56","56","C:/Users/kikip/OneDrive/Desktop/HB-subject-2.csv","legacy","Melodramatic Milgram","4.0.5","0","h","NA","NA","s","NA","NA","h","NA","447.0","NA","NA","45130","NA","NA","447","NA","2","legacy","1024","2","48000","-16","experiment","HHHHH","2","even","48566","NA","98559","140960","NA","NA","3431","NA","142068","3435","NA","NA","142169","142617","NA","142066","142169","Neues Experiment","55","28174.0","57","1024"
"96","96","493","493","#3d3846","legacy","legacy","legacy","congruent","1","undefined","1","s","0","0","57","57","0","0","0","57","57","0","0","0","57","57","NA","57","57","Wed Sep 13 02:02:50 2023","1500","The main experiment item","True","Flanker Task Lab 2.2.osexp","C:\Users\kikip\OneDrive\Desktop","False","mono","False","18","no","white","no","yes","768","legacy","57","57","C:/Users/kikip/OneDrive/Desktop/HB-subject-2.csv","legacy","Melodramatic Milgram","4.0.5","0","s","NA","NA","s","NA","NA","s","NA","446.0","NA","NA","45130","NA","NA","446","NA","2","legacy","1024","2","48000","-16","experiment","SSSSS","2","even","48566","NA","98559","142623","NA","NA","3431","NA","143689","3435","NA","NA","143790","144237","NA","143687","143790","Neues Experiment","56","28620.0","58","1024"
"96","96","490","490","#3d3846","legacy","legacy","legacy","coongruent","1","undefined","1","h","0","0","58","58","0","0","0","58","58","0","0","0","58","58","NA","58","58","Wed Sep 13 02:02:50 2023","1500","The main experiment item","True","Flanker Task Lab 2.2.osexp","C:\Users\kikip\OneDrive\Desktop","False","mono","False","18","no","white","no","yes","768","legacy","58","58","C:/Users/kikip/OneDrive/Desktop/HB-subject-2.csv","legacy","Melodramatic Milgram","4.0.5","0","h","NA","NA","s","NA","NA","h","NA","340.0","NA","NA","45130","NA","NA","340","NA","2","legacy","1024","2","48000","-16","experiment","HHHHH","2","even","48566","NA","98559","144240","NA","NA","3431","NA","145280","3435","NA","NA","145381","145722","NA","145278","145381","Neues Experiment","57","28960.0","59","1024"
"96","96","490","490","#3d3846","legacy","legacy","legacy","incongruent","1","undefined","1","h","0","0","59","59","0","0","0","59","59","0","0","0","59","59","NA","59","59","Wed Sep 13 02:02:50 2023","1500","The main experiment item","True","Flanker Task Lab 2.2.osexp","C:\Users\kikip\OneDrive\Desktop","False","mono","False","18","no","white","no","yes","768","legacy","59","59","C:/Users/kikip/OneDrive/Desktop/HB-subject-2.csv","legacy","Melodramatic Milgram","4.0.5","0","h","NA","NA","s","NA","NA","h","NA","471.0","NA","NA","45130","NA","NA","471","NA","2","legacy","1024","2","48000","-16","experiment","SSHSS","2","even","48566","NA","98559","145728","NA","NA","3431","NA","146770","3435","NA","NA","146871","147344","NA","146768","146871","Neues Experiment","58","29431.0","60","1024"
"96","96","492","492","#3d3846","legacy","legacy","legacy","congruent","1","undefined","1","s","0","0","60","60","0","0","0","60","60","0","0","0","60","60","NA","60","60","Wed Sep 13 02:02:50 2023","1500","The main experiment item","True","Flanker Task Lab 2.2.osexp","C:\Users\kikip\OneDrive\Desktop","False","mono","False","18","no","white","no","yes","768","legacy","60","60","C:/Users/kikip/OneDrive/Desktop/HB-subject-2.csv","legacy","Melodramatic Milgram","4.0.5","0","s","NA","NA","s","NA","NA","s","NA","587.0","NA","NA","45130","NA","NA","587","NA","2","legacy","1024","2","48000","-16","experiment","SSSSS","2","even","48566","NA","98559","147347","NA","NA","3431","NA","148433","3435","NA","NA","148534","149122","NA","148431","148534","Neues Experiment","59","30018.0","61","1024"
"96","96","492","492","#3d3846","legacy","legacy","legacy","incongruent","1","undefined","1","h","0","0","61","61","0","0","0","61","61","0","0","0","61","61","NA","61","61","Wed Sep 13 02:02:50 2023","1500","The main experiment item","True","Flanker Task Lab 2.2.osexp","C:\Users\kikip\OneDrive\Desktop","False","mono","False","18","no","white","no","yes","768","legacy","61","61","C:/Users/kikip/OneDrive/Desktop/HB-subject-2.csv","legacy","Melodramatic Milgram","4.0.5","0","h","NA","NA","s","NA","NA","h","NA","524.0","NA","NA","45130","NA","NA","524","NA","2","legacy","1024","2","48000","-16","experiment","SSHSS","2","even","48566","NA","98559","149125","NA","NA","3431","NA","150167","3435","NA","NA","150269","150794","NA","150164","150268","Neues Experiment","60","30542.0","62","1024"
"96","96","496","496","#3d3846","legacy","legacy","legacy","incongruent","1","undefined","1","h","0","0","62","62","0","0","0","62","62","0","0","0","62","62","NA","62","62","Wed Sep 13 02:02:50 2023","1500","The main experiment item","True","Flanker Task Lab 2.2.osexp","C:\Users\kikip\OneDrive\Desktop","False","mono","False","18","no","white","no","yes","768","legacy","62","62","C:/Users/kikip/OneDrive/Desktop/HB-subject-2.csv","legacy","Melodramatic Milgram","4.0.5","0","h","NA","NA","s","NA","NA","h","NA","768.0","NA","NA","45130","NA","NA","768","NA","2","legacy","1024","2","48000","-16","experiment","SSHSS","2","even","48566","NA","98559","150797","NA","NA","3431","NA","151844","3435","NA","NA","151945","152714","NA","151842","151945","Neues Experiment","61","31310.0","63","1024"
"96","96","498","498","#3d3846","legacy","legacy","legacy","incongruent","1","undefined","1","s","0","0","63","63","0","0","0","63","63","0","0","0","63","63","NA","63","63","Wed Sep 13 02:02:50 2023","1500","The main experiment item","True","Flanker Task Lab 2.2.osexp","C:\Users\kikip\OneDrive\Desktop","False","mono","False","18","no","white","no","yes","768","legacy","63","63","C:/Users/kikip/OneDrive/Desktop/HB-subject-2.csv","legacy","Melodramatic Milgram","4.0.5","0","s","NA","NA","s","NA","NA","s","NA","571.0","NA","NA","45130","NA","NA","571","NA","2","legacy","1024","2","48000","-16","experiment","HHSHH","2","even","48566","NA","98559","152717","NA","NA","3431","NA","153759","3435","NA","NA","153861","154433","NA","153758","153861","Neues Experiment","62","31881.0","64","1024"
"96","96","496","496","#3d3846","legacy","legacy","legacy","coongruent","1","undefined","1","h","0","0","64","64","0","0","0","64","64","0","0","0","64","64","NA","64","64","Wed Sep 13 02:02:50 2023","1500","The main experiment item","True","Flanker Task Lab 2.2.osexp","C:\Users\kikip\OneDrive\Desktop","False","mono","False","18","no","white","no","yes","768","legacy","64","64","C:/Users/kikip/OneDrive/Desktop/HB-subject-2.csv","legacy","Melodramatic Milgram","4.0.5","0","h","NA","NA","s","NA","NA","h","NA","396.0","NA","NA","45130","NA","NA","396","NA","2","legacy","1024","2","48000","-16","experiment","HHHHH","2","even","48566","NA","98559","154435","NA","NA","3431","NA","155475","3435","NA","NA","155577","155974","NA","155474","155577","Neues Experiment","63","32277.0","65","1024"
"96","96","498","498","#3d3846","legacy","legacy","legacy","congruent","1","undefined","1","s","0","0","65","65","0","0","0","65","65","0","0","0","65","65","NA","65","65","Wed Sep 13 02:02:50 2023","1500","The main experiment item","True","Flanker Task Lab 2.2.osexp","C:\Users\kikip\OneDrive\Desktop","False","mono","False","18","no","white","no","yes","768","legacy","65","65","C:/Users/kikip/OneDrive/Desktop/HB-subject-2.csv","legacy","Melodramatic Milgram","4.0.5","0","s","NA","NA","s","NA","NA","s","NA","627.0","NA","NA","45130","NA","NA","627","NA","2","legacy","1024","2","48000","-16","experiment","SSSSS","2","even","48566","NA","98559","155977","NA","NA","3431","NA","157024","3435","NA","NA","157125","157754","NA","157022","157125","Neues Experiment","64","32904.0","66","1024"
"97","97","496","496","#3d3846","legacy","legacy","legacy","coongruent","1","undefined","1","h","0","0","66","66","0","0","0","66","66","0","0","0","66","66","NA","66","66","Wed Sep 13 02:02:50 2023","1500","The main experiment item","True","Flanker Task Lab 2.2.osexp","C:\Users\kikip\OneDrive\Desktop","False","mono","False","18","no","white","no","yes","768","legacy","66","66","C:/Users/kikip/OneDrive/Desktop/HB-subject-2.csv","legacy","Melodramatic Milgram","4.0.5","0","h","NA","NA","s","NA","NA","h","NA","394.0","NA","NA","45130","NA","NA","394","NA","2","legacy","1024","2","48000","-16","experiment","HHHHH","2","even","48566","NA","98559","157760","NA","NA","3431","NA","158798","3435","NA","NA","158899","159294","NA","158797","158899","Neues Experiment","65","33298.0","67","1024"
"95","95","496","496","#3d3846","legacy","legacy","legacy","congruent","0","undefined","0","s","0","0","67","67","0","0","0","67","67","0","0","0","67","67","NA","67","67","Wed Sep 13 02:02:50 2023","1500","The main experiment item","True","Flanker Task Lab 2.2.osexp","C:\Users\kikip\OneDrive\Desktop","False","mono","False","18","no","white","no","yes","768","legacy","67","67","C:/Users/kikip/OneDrive/Desktop/HB-subject-2.csv","legacy","Melodramatic Milgram","4.0.5","0","h","NA","NA","s","NA","NA","h","NA","444.0","NA","NA","45130","NA","NA","444","NA","2","legacy","1024","2","48000","-16","experiment","SSSSS","2","even","48566","NA","98559","159297","NA","NA","3431","NA","160348","3435","NA","NA","160449","160894","NA","160345","160449","Neues Experiment","65","33742.0","68","1024"
"95","95","496","496","#3d3846","legacy","legacy","legacy","incongruent","1","undefined","1","s","0","0","68","68","0","0","0","68","68","0","0","0","68","68","NA","68","68","Wed Sep 13 02:02:50 2023","1500","The main experiment item","True","Flanker Task Lab 2.2.osexp","C:\Users\kikip\OneDrive\Desktop","False","mono","False","18","no","white","no","yes","768","legacy","68","68","C:/Users/kikip/OneDrive/Desktop/HB-subject-2.csv","legacy","Melodramatic Milgram","4.0.5","0","s","NA","NA","s","NA","NA","s","NA","531.0","NA","NA","45130","NA","NA","531","NA","2","legacy","1024","2","48000","-16","experiment","HHSHH","2","even","48566","NA","160898","161399","NA","NA","3431","NA","162470","3435","NA","NA","162572","163104","NA","162468","162572","Neues Experiment","66","34273.0","69","1024"
"95","95","498","498","#3d3846","legacy","legacy","legacy","incongruent","1","undefined","1","s","0","0","69","69","0","0","0","69","69","0","0","0","69","69","NA","69","69","Wed Sep 13 02:02:50 2023","1500","The main experiment item","True","Flanker Task Lab 2.2.osexp","C:\Users\kikip\OneDrive\Desktop","False","mono","False","18","no","white","no","yes","768","legacy","69","69","C:/Users/kikip/OneDrive/Desktop/HB-subject-2.csv","legacy","Melodramatic Milgram","4.0.5","0","s","NA","NA","s","NA","NA","s","NA","608.0","NA","NA","45130","NA","NA","608","NA","2","legacy","1024","2","48000","-16","experiment","HHSHH","2","even","48566","NA","160898","163108","NA","NA","3431","NA","164186","3435","NA","NA","164290","164899","NA","164184","164289","Neues Experiment","67","34881.0","70","1024"
"95","95","497","497","#3d3846","legacy","legacy","legacy","incongruent","1","undefined","1","h","0","0","70","70","0","0","0","70","70","0","0","0","70","70","NA","70","70","Wed Sep 13 02:02:50 2023","1500","The main experiment item","True","Flanker Task Lab 2.2.osexp","C:\Users\kikip\OneDrive\Desktop","False","mono","False","18","no","white","no","yes","768","legacy","70","70","C:/Users/kikip/OneDrive/Desktop/HB-subject-2.csv","legacy","Melodramatic Milgram","4.0.5","0","h","NA","NA","s","NA","NA","h","NA","421.0","NA","NA","45130","NA","NA","421","NA","2","legacy","1024","2","48000","-16","experiment","SSHSS","2","even","48566","NA","160898","164905","NA","NA","3431","NA","165960","3435","NA","NA","166062","166484","NA","165958","166062","Neues Experiment","68","35302.0","71","1024"
"95","95","497","497","#3d3846","legacy","legacy","legacy","incongruent","1","undefined","1","s","0","0","71","71","0","0","0","71","71","0","0","0","71","71","NA","71","71","Wed Sep 13 02:02:50 2023","1500","The main experiment item","True","Flanker Task Lab 2.2.osexp","C:\Users\kikip\OneDrive\Desktop","False","mono","False","18","no","white","no","yes","768","legacy","71","71","C:/Users/kikip/OneDrive/Desktop/HB-subject-2.csv","legacy","Melodramatic Milgram","4.0.5","0","s","NA","NA","s","NA","NA","s","NA","490.0","NA","NA","45130","NA","NA","490","NA","2","legacy","1024","2","48000","-16","experiment","HHSHH","2","even","48566","NA","160898","166488","NA","NA","3431","NA","167542","3435","NA","NA","167643","168135","NA","167540","167643","Neues Experiment","69","35792.0","72","1024"
"95","95","496","496","#3d3846","legacy","legacy","legacy","incongruent","1","undefined","1","h","0","0","72","72","0","0","0","72","72","0","0","0","72","72","NA","72","72","Wed Sep 13 02:02:50 2023","1500","The main experiment item","True","Flanker Task Lab 2.2.osexp","C:\Users\kikip\OneDrive\Desktop","False","mono","False","18","no","white","no","yes","768","legacy","72","72","C:/Users/kikip/OneDrive/Desktop/HB-subject-2.csv","legacy","Melodramatic Milgram","4.0.5","0","h","NA","NA","s","NA","NA","h","NA","466.0","NA","NA","45130","NA","NA","466","NA","2","legacy","1024","2","48000","-16","experiment","SSHSS","2","even","48566","NA","160898","168138","NA","NA","3431","NA","169177","3435","NA","NA","169278","169745","NA","169175","169278","Neues Experiment","70","36258.0","73","1024"
"94","94","495","495","#3d3846","legacy","legacy","legacy","incongruent","0","undefined","0","h","0","0","73","73","0","0","0","73","73","0","0","0","73","73","NA","73","73","Wed Sep 13 02:02:50 2023","1500","The main experiment item","True","Flanker Task Lab 2.2.osexp","C:\Users\kikip\OneDrive\Desktop","False","mono","False","18","no","white","no","yes","768","legacy","73","73","C:/Users/kikip/OneDrive/Desktop/HB-subject-2.csv","legacy","Melodramatic Milgram","4.0.5","0","s","NA","NA","s","NA","NA","s","NA","397.0","NA","NA","45130","NA","NA","397","NA","2","legacy","1024","2","48000","-16","experiment","SSHSS","2","even","48566","NA","160898","169747","NA","NA","3431","NA","170796","3435","NA","NA","170897","171295","NA","170794","170897","Neues Experiment","70","36655.0","74","1024"
"94","94","495","495","#3d3846","legacy","legacy","legacy","congruent","1","undefined","1","s","0","0","74","74","0","0","0","74","74","0","0","0","74","74","NA","74","74","Wed Sep 13 02:02:50 2023","1500","The main experiment item","True","Flanker Task Lab 2.2.osexp","C:\Users\kikip\OneDrive\Desktop","False","mono","False","18","no","white","no","yes","768","legacy","74","74","C:/Users/kikip/OneDrive/Desktop/HB-subject-2.csv","legacy","Melodramatic Milgram","4.0.5","0","s","NA","NA","s","NA","NA","s","NA","489.0","NA","NA","45130","NA","NA","489","NA","2","legacy","1024","2","48000","-16","experiment","SSSSS","2","even","48566","NA","171298","171799","NA","NA","3431","NA","172859","3435","NA","NA","172960","173451","NA","172857","172960","Neues Experiment","71","37144.0","75","1024"
"94","94","495","495","#3d3846","legacy","legacy","legacy","incongruent","1","undefined","1","h","0","0","75","75","0","0","0","75","75","0","0","0","75","75","NA","75","75","Wed Sep 13 02:02:50 2023","1500","The main experiment item","True","Flanker Task Lab 2.2.osexp","C:\Users\kikip\OneDrive\Desktop","False","mono","False","18","no","white","no","yes","768","legacy","75","75","C:/Users/kikip/OneDrive/Desktop/HB-subject-2.csv","legacy","Melodramatic Milgram","4.0.5","0","h","NA","NA","s","NA","NA","h","NA","480.0","NA","NA","45130","NA","NA","480","NA","2","legacy","1024","2","48000","-16","experiment","SSHSS","2","even","48566","NA","171298","173455","NA","NA","3431","NA","174510","3435","NA","NA","174654","175135","NA","174508","174654","Neues Experiment","72","37624.0","76","1024"
"94","94","494","494","#3d3846","legacy","legacy","legacy","incongruent","1","undefined","1","h","0","0","76","76","0","0","0","76","76","0","0","0","76","76","NA","76","76","Wed Sep 13 02:02:50 2023","1500","The main experiment item","True","Flanker Task Lab 2.2.osexp","C:\Users\kikip\OneDrive\Desktop","False","mono","False","18","no","white","no","yes","768","legacy","76","76","C:/Users/kikip/OneDrive/Desktop/HB-subject-2.csv","legacy","Melodramatic Milgram","4.0.5","0","h","NA","NA","s","NA","NA","h","NA","466.0","NA","NA","45130","NA","NA","466","NA","2","legacy","1024","2","48000","-16","experiment","SSHSS","2","even","48566","NA","171298","175138","NA","NA","3431","NA","176208","3435","NA","NA","176309","176776","NA","176205","176309","Neues Experiment","73","38090.0","77","1024"
"94","94","495","495","#3d3846","legacy","legacy","legacy","incongruent","1","undefined","1","h","0","0","77","77","0","0","0","77","77","0","0","0","77","77","NA","77","77","Wed Sep 13 02:02:50 2023","1500","The main experiment item","True","Flanker Task Lab 2.2.osexp","C:\Users\kikip\OneDrive\Desktop","False","mono","False","18","no","white","no","yes","768","legacy","77","77","C:/Users/kikip/OneDrive/Desktop/HB-subject-2.csv","legacy","Melodramatic Milgram","4.0.5","0","h","NA","NA","s","NA","NA","h","NA","561.0","NA","NA","45130","NA","NA","561","NA","2","legacy","1024","2","48000","-16","experiment","SSHSS","2","even","48566","NA","171298","176779","NA","NA","3431","NA","177817","3435","NA","NA","177918","178480","NA","177816","177918","Neues Experiment","74","38651.0","78","1024"
"94","94","495","495","#3d3846","legacy","legacy","legacy","coongruent","1","undefined","1","h","0","0","78","78","0","0","0","78","78","0","0","0","78","78","NA","78","78","Wed Sep 13 02:02:50 2023","1500","The main experiment item","True","Flanker Task Lab 2.2.osexp","C:\Users\kikip\OneDrive\Desktop","False","mono","False","18","no","white","no","yes","768","legacy","78","78","C:/Users/kikip/OneDrive/Desktop/HB-subject-2.csv","legacy","Melodramatic Milgram","4.0.5","0","h","NA","NA","s","NA","NA","h","NA","457.0","NA","NA","45130","NA","NA","457","NA","2","legacy","1024","2","48000","-16","experiment","HHHHH","2","even","48566","NA","171298","178487","NA","NA","3431","NA","179543","3435","NA","NA","179644","180102","NA","179541","179644","Neues Experiment","75","39108.0","79","1024"
"95","95","494","494","#3d3846","legacy","legacy","legacy","incongruent","1","undefined","1","s","0","0","79","79","0","0","0","79","79","0","0","0","79","79","NA","79","79","Wed Sep 13 02:02:50 2023","1500","The main experiment item","True","Flanker Task Lab 2.2.osexp","C:\Users\kikip\OneDrive\Desktop","False","mono","False","18","no","white","no","yes","768","legacy","79","79","C:/Users/kikip/OneDrive/Desktop/HB-subject-2.csv","legacy","Melodramatic Milgram","4.0.5","0","s","NA","NA","s","NA","NA","s","NA","440.0","NA","NA","45130","NA","NA","440","NA","2","legacy","1024","2","48000","-16","experiment","HHSHH","2","even","48566","NA","171298","180105","NA","NA","3431","NA","181144","3435","NA","NA","181245","181686","NA","181143","181245","Neues Experiment","76","39548.0","80","1024"
"95","95","496","496","#3d3846","legacy","legacy","legacy","incongruent","1","undefined","1","h","0","0","80","80","0","0","0","80","80","0","0","0","80","80","NA","80","80","Wed Sep 13 02:02:50 2023","600","The main experiment item","True","Flanker Task Lab 2.2.osexp","C:\Users\kikip\OneDrive\Desktop","False","mono","False","18","no","white","no","yes","768","legacy","0","79","C:/Users/kikip/OneDrive/Desktop/HB-subject-2.csv","legacy","Melodramatic Milgram","4.0.5","0","h","NA","NA","s","s","NA","h","NA","673.0","NA","NA","45130","313355","NA","673","NA","2","legacy","1024","2","48000","-16","experiment","SSHSS","2","even","48566","NA","171298","181689","NA","496047","3431","NA","496103","3435","182690","NA","496204","496878","NA","496102","496204","Neues Experiment","77","40221.0","81","1024"
"95","95","495","495","#3d3846","legacy","legacy","legacy","congruent","1","undefined","1","s","0","0","81","81","0","0","0","81","81","0","0","0","81","81","NA","81","81","Wed Sep 13 02:02:50 2023","600","The main experiment item","True","Flanker Task Lab 2.2.osexp","C:\Users\kikip\OneDrive\Desktop","False","mono","False","18","no","white","no","yes","768","legacy","1","79","C:/Users/kikip/OneDrive/Desktop/HB-subject-2.csv","legacy","Melodramatic Milgram","4.0.5","0","s","NA","h","s","s","NA","s","NA","428.0","NA","5724","45130","313355","NA","428","NA","2","legacy","1024","2","48000","-16","experiment","SSSSS","2","even","48566","NA","171298","502606","NA","496047","3431","496880","503646","3435","182690","NA","503747","504176","NA","503644","503747","Neues Experiment","78","40649.0","82","1024"
"93","93","494","494","#3d3846","legacy","legacy","legacy","incongruent","0","undefined","0","h","0","0","82","82","0","0","0","82","82","0","0","0","82","82","NA","82","82","Wed Sep 13 02:02:50 2023","600","The main experiment item","True","Flanker Task Lab 2.2.osexp","C:\Users\kikip\OneDrive\Desktop","False","mono","False","18","no","white","no","yes","768","legacy","2","79","C:/Users/kikip/OneDrive/Desktop/HB-subject-2.csv","legacy","Melodramatic Milgram","4.0.5","0","s","NA","h","s","s","NA","s","NA","364.0","NA","5724","45130","313355","NA","364","NA","2","legacy","1024","2","48000","-16","experiment","SSHSS","2","even","48566","NA","171298","504182","NA","496047","3431","496880","505225","3435","182690","NA","505326","505691","NA","505223","505326","Neues Experiment","78","41013.0","83","1024"
"94","94","494","494","#3d3846","legacy","legacy","legacy","incongruent","1","undefined","1","h","0","0","83","83","0","0","0","83","83","0","0","0","83","83","NA","83","83","Wed Sep 13 02:02:50 2023","600","The main experiment item","True","Flanker Task Lab 2.2.osexp","C:\Users\kikip\OneDrive\Desktop","False","mono","False","18","no","white","no","yes","768","legacy","3","79","C:/Users/kikip/OneDrive/Desktop/HB-subject-2.csv","legacy","Melodramatic Milgram","4.0.5","0","h","NA","h","s","s","NA","h","NA","525.0","NA","5724","45130","313355","NA","525","NA","2","legacy","1024","2","48000","-16","experiment","SSHSS","2","even","48566","NA","505698","506199","NA","496047","3431","496880","507240","3435","182690","NA","507341","507867","NA","507238","507341","Neues Experiment","79","41538.0","84","1024"
"94","94","494","494","#3d3846","legacy","legacy","legacy","incongruent","1","undefined","1","s","0","0","84","84","0","0","0","84","84","0","0","0","84","84","NA","84","84","Wed Sep 13 02:02:50 2023","600","The main experiment item","True","Flanker Task Lab 2.2.osexp","C:\Users\kikip\OneDrive\Desktop","False","mono","False","18","no","white","no","yes","768","legacy","4","79","C:/Users/kikip/OneDrive/Desktop/HB-subject-2.csv","legacy","Melodramatic Milgram","4.0.5","0","s","NA","h","s","s","NA","s","NA","484.0","NA","5724","45130","313355","NA","484","NA","2","legacy","1024","2","48000","-16","experiment","HHSHH","2","even","48566","NA","505698","507871","NA","496047","3431","496880","508917","3435","182690","NA","509018","509504","NA","508915","509018","Neues Experiment","80","42022.0","85","1024"
"94","94","493","493","#3d3846","legacy","legacy","legacy","congruent","1","undefined","1","s","0","0","85","85","0","0","0","85","85","0","0","0","85","85","NA","85","85","Wed Sep 13 02:02:50 2023","600","The main experiment item","True","Flanker Task Lab 2.2.osexp","C:\Users\kikip\OneDrive\Desktop","False","mono","False","18","no","white","no","yes","768","legacy","5","79","C:/Users/kikip/OneDrive/Desktop/HB-subject-2.csv","legacy","Melodramatic Milgram","4.0.5","0","s","NA","h","s","s","NA","s","NA","402.0","NA","5724","45130","313355","NA","402","NA","2","legacy","1024","2","48000","-16","experiment","SSSSS","2","even","48566","NA","505698","509507","NA","496047","3431","496880","510544","3435","182690","NA","510645","511049","NA","510542","510645","Neues Experiment","81","42424.0","86","1024"
"93","93","492","492","#3d3846","legacy","legacy","legacy","incongruent","0","undefined","0","s","0","0","86","86","0","0","0","86","86","0","0","0","86","86","NA","86","86","Wed Sep 13 02:02:50 2023","600","The main experiment item","True","Flanker Task Lab 2.2.osexp","C:\Users\kikip\OneDrive\Desktop","False","mono","False","18","no","white","no","yes","768","legacy","6","79","C:/Users/kikip/OneDrive/Desktop/HB-subject-2.csv","legacy","Melodramatic Milgram","4.0.5","0","h","NA","h","s","s","NA","h","NA","446.0","NA","5724","45130","313355","NA","446","NA","2","legacy","1024","2","48000","-16","experiment","HHSHH","2","even","48566","NA","505698","511053","NA","496047","3431","496880","512096","3435","182690","NA","512197","512645","NA","512094","512197","Neues Experiment","81","42870.0","87","1024"
"93","93","492","492","#3d3846","legacy","legacy","legacy","incongruent","1","undefined","1","s","0","0","87","87","0","0","0","87","87","0","0","0","87","87","NA","87","87","Wed Sep 13 02:02:50 2023","600","The main experiment item","True","Flanker Task Lab 2.2.osexp","C:\Users\kikip\OneDrive\Desktop","False","mono","False","18","no","white","no","yes","768","legacy","7","79","C:/Users/kikip/OneDrive/Desktop/HB-subject-2.csv","legacy","Melodramatic Milgram","4.0.5","0","s","NA","h","s","s","NA","s","NA","429.0","NA","5724","45130","313355","NA","429","NA","2","legacy","1024","2","48000","-16","experiment","HHSHH","2","even","48566","NA","512648","513149","NA","496047","3431","496880","514194","3435","182690","NA","514295","514726","NA","514192","514295","Neues Experiment","82","43299.0","88","1024"
"93","93","491","491","#3d3846","legacy","legacy","legacy","incongruent","1","undefined","1","h","0","0","88","88","0","0","0","88","88","0","0","0","88","88","NA","88","88","Wed Sep 13 02:02:50 2023","600","The main experiment item","True","Flanker Task Lab 2.2.osexp","C:\Users\kikip\OneDrive\Desktop","False","mono","False","18","no","white","no","yes","768","legacy","8","79","C:/Users/kikip/OneDrive/Desktop/HB-subject-2.csv","legacy","Melodramatic Milgram","4.0.5","0","h","NA","h","s","s","NA","h","NA","486.0","NA","5724","45130","313355","NA","486","NA","2","legacy","1024","2","48000","-16","experiment","SSHSS","2","even","48566","NA","512648","514729","NA","496047","3431","496880","515784","3435","182690","NA","515885","516373","NA","515782","515885","Neues Experiment","83","43785.0","89","1024"
"92","92","491","491","#3d3846","legacy","legacy","legacy","incongruent","0","undefined","0","h","0","0","89","89","0","0","0","89","89","0","0","0","89","89","NA","89","89","Wed Sep 13 02:02:50 2023","600","The main experiment item","True","Flanker Task Lab 2.2.osexp","C:\Users\kikip\OneDrive\Desktop","False","mono","False","18","no","white","no","yes","768","legacy","9","79","C:/Users/kikip/OneDrive/Desktop/HB-subject-2.csv","legacy","Melodramatic Milgram","4.0.5","0","s","NA","h","s","s","NA","s","NA","442.0","NA","5724","45130","313355","NA","442","NA","2","legacy","1024","2","48000","-16","experiment","SSHSS","2","even","48566","NA","512648","516377","NA","496047","3431","496880","517432","3435","182690","NA","517534","517978","NA","517430","517534","Neues Experiment","83","44227.0","90","1024"
"92","92","492","492","#3d3846","legacy","legacy","legacy","coongruent","1","undefined","1","h","0","0","90","90","0","0","0","90","90","0","0","0","90","90","NA","90","90","Wed Sep 13 02:02:50 2023","600","The main experiment item","True","Flanker Task Lab 2.2.osexp","C:\Users\kikip\OneDrive\Desktop","False","mono","False","18","no","white","no","yes","768","legacy","10","79","C:/Users/kikip/OneDrive/Desktop/HB-subject-2.csv","legacy","Melodramatic Milgram","4.0.5","0","h","NA","h","s","s","NA","h","NA","553.0","NA","5724","45130","313355","NA","553","NA","2","legacy","1024","2","48000","-16","experiment","HHHHH","2","even","48566","NA","517985","518486","NA","496047","3431","496880","519529","3435","182690","NA","519630","520186","NA","519527","519630","Neues Experiment","84","44780.0","91","1024"
"92","92","491","491","#3d3846","legacy","legacy","legacy","congruent","1","undefined","1","s","0","0","91","91","0","0","0","91","91","0","0","0","91","91","NA","91","91","Wed Sep 13 02:02:50 2023","600","The main experiment item","True","Flanker Task Lab 2.2.osexp","C:\Users\kikip\OneDrive\Desktop","False","mono","False","18","no","white","no","yes","768","legacy","11","79","C:/Users/kikip/OneDrive/Desktop/HB-subject-2.csv","legacy","Melodramatic Milgram","4.0.5","0","s","NA","h","s","s","NA","s","NA","463.0","NA","5724","45130","313355","NA","463","NA","2","legacy","1024","2","48000","-16","experiment","SSSSS","2","even","48566","NA","517985","520190","NA","496047","3431","496880","521243","3435","182690","NA","521346","521811","NA","521240","521345","Neues Experiment","85","45243.0","92","1024"
"92","92","490","490","#3d3846","legacy","legacy","legacy","congruent","1","undefined","1","s","0","0","92","92","0","0","0","92","92","0","0","0","92","92","NA","92","92","Wed Sep 13 02:02:50 2023","600","The main experiment item","True","Flanker Task Lab 2.2.osexp","C:\Users\kikip\OneDrive\Desktop","False","mono","False","18","no","white","no","yes","768","legacy","12","79","C:/Users/kikip/OneDrive/Desktop/HB-subject-2.csv","legacy","Melodramatic Milgram","4.0.5","0","s","NA","h","s","s","NA","s","NA","388.0","NA","5724","45130","313355","NA","388","NA","2","legacy","1024","2","48000","-16","experiment","SSSSS","2","even","48566","NA","517985","521816","NA","496047","3431","496880","522895","3435","182690","NA","522997","523387","NA","522893","522997","Neues Experiment","86","45631.0","93","1024"
"92","92","490","490","#3d3846","legacy","legacy","legacy","incongruent","1","undefined","1","h","0","0","93","93","0","0","0","93","93","0","0","0","93","93","NA","93","93","Wed Sep 13 02:02:50 2023","600","The main experiment item","True","Flanker Task Lab 2.2.osexp","C:\Users\kikip\OneDrive\Desktop","False","mono","False","18","no","white","no","yes","768","legacy","13","79","C:/Users/kikip/OneDrive/Desktop/HB-subject-2.csv","legacy","Melodramatic Milgram","4.0.5","0","h","NA","h","s","s","NA","h","NA","478.0","NA","5724","45130","313355","NA","478","NA","2","legacy","1024","2","48000","-16","experiment","SSHSS","2","even","48566","NA","517985","523390","NA","496047","3431","496880","524446","3435","182690","NA","524547","525027","NA","524444","524547","Neues Experiment","87","46109.0","94","1024"
"92","92","492","492","#3d3846","legacy","legacy","legacy","incongruent","1","undefined","1","s","0","0","94","94","0","0","0","94","94","0","0","0","94","94","NA","94","94","Wed Sep 13 02:02:50 2023","600","The main experiment item","True","Flanker Task Lab 2.2.osexp","C:\Users\kikip\OneDrive\Desktop","False","mono","False","18","no","white","no","yes","768","legacy","14","79","C:/Users/kikip/OneDrive/Desktop/HB-subject-2.csv","legacy","Melodramatic Milgram","4.0.5","0","s","NA","h","s","s","NA","s","NA","637.0","NA","5724","45130","313355","NA","637","NA","2","legacy","1024","2","48000","-16","experiment","HHSHH","2","even","48566","NA","517985","525030","NA","496047","3431","496880","526078","3435","182690","NA","526179","526817","NA","526076","526179","Neues Experiment","88","46746.0","95","1024"
"92","92","491","491","#3d3846","legacy","legacy","legacy","incongruent","1","undefined","1","s","0","0","95","95","0","0","0","95","95","0","0","0","95","95","NA","95","95","Wed Sep 13 02:02:50 2023","600","The main experiment item","True","Flanker Task Lab 2.2.osexp","C:\Users\kikip\OneDrive\Desktop","False","mono","False","18","no","white","no","yes","768","legacy","15","79","C:/Users/kikip/OneDrive/Desktop/HB-subject-2.csv","legacy","Melodramatic Milgram","4.0.5","0","s","NA","h","s","s","NA","s","NA","478.0","NA","3012","45130","313355","NA","478","NA","2","legacy","1024","2","48000","-16","experiment","HHSHH","2","even","48566","NA","517985","529835","NA","496047","3431","526820","530884","3435","182690","NA","530985","531464","NA","530882","530985","Neues Experiment","89","47224.0","96","1024"
"92","92","490","490","#3d3846","legacy","legacy","legacy","congruent","1","undefined","1","s","0","0","96","96","0","0","0","96","96","0","0","0","96","96","NA","96","96","Wed Sep 13 02:02:50 2023","600","The main experiment item","True","Flanker Task Lab 2.2.osexp","C:\Users\kikip\OneDrive\Desktop","False","mono","False","18","no","white","no","yes","768","legacy","16","79","C:/Users/kikip/OneDrive/Desktop/HB-subject-2.csv","legacy","Melodramatic Milgram","4.0.5","0","s","NA","h","s","s","NA","s","NA","381.0","NA","3012","45130","313355","NA","381","NA","2","legacy","1024","2","48000","-16","experiment","SSSSS","2","even","48566","NA","517985","531471","NA","496047","3431","526820","532512","3435","182690","NA","532613","532996","NA","532510","532613","Neues Experiment","90","47605.0","97","1024"
"92","92","489","489","#3d3846","legacy","legacy","legacy","congruent","1","undefined","1","s","0","0","97","97","0","0","0","97","97","0","0","0","97","97","NA","97","97","Wed Sep 13 02:02:50 2023","600","The main experiment item","True","Flanker Task Lab 2.2.osexp","C:\Users\kikip\OneDrive\Desktop","False","mono","False","18","no","white","no","yes","768","legacy","17","79","C:/Users/kikip/OneDrive/Desktop/HB-subject-2.csv","legacy","Melodramatic Milgram","4.0.5","0","s","NA","h","s","s","NA","s","NA","380.0","NA","3012","45130","313355","NA","380","NA","2","legacy","1024","2","48000","-16","experiment","SSSSS","2","even","48566","NA","517985","533000","NA","496047","3431","526820","534049","3435","182690","NA","534150","534532","NA","534047","534150","Neues Experiment","91","47985.0","98","1024"
"92","92","488","488","#3d3846","legacy","legacy","legacy","incongruent","1","undefined","1","s","0","0","98","98","0","0","0","98","98","0","0","0","98","98","NA","98","98","Wed Sep 13 02:02:50 2023","600","The main experiment item","True","Flanker Task Lab 2.2.osexp","C:\Users\kikip\OneDrive\Desktop","False","mono","False","18","no","white","no","yes","768","legacy","18","79","C:/Users/kikip/OneDrive/Desktop/HB-subject-2.csv","legacy","Melodramatic Milgram","4.0.5","0","s","NA","h","s","s","NA","s","NA","417.0","NA","3012","45130","313355","NA","417","NA","2","legacy","1024","2","48000","-16","experiment","HHSHH","2","even","48566","NA","517985","534538","NA","496047","3431","526820","535583","3435","182690","NA","535684","536103","NA","535580","535684","Neues Experiment","92","48402.0","99","1024"
"93","93","487","487","#3d3846","legacy","legacy","legacy","congruent","1","undefined","1","s","0","0","99","99","0","0","0","99","99","0","0","0","99","99","NA","99","99","Wed Sep 13 02:02:50 2023","600","The main experiment item","True","Flanker Task Lab 2.2.osexp","C:\Users\kikip\OneDrive\Desktop","False","mono","False","18","no","white","no","yes","768","legacy","19","79","C:/Users/kikip/OneDrive/Desktop/HB-subject-2.csv","legacy","Melodramatic Milgram","4.0.5","0","s","NA","h","s","s","NA","s","NA","360.0","NA","3012","45130","313355","NA","360","NA","2","legacy","1024","2","48000","-16","experiment","SSSSS","2","even","48566","NA","517985","536106","NA","496047","3431","526820","537150","3435","182690","NA","537251","537613","NA","537148","537251","Neues Experiment","93","48762.0","100","1024"
"93","93","486","486","#3d3846","legacy","legacy","legacy","coongruent","1","undefined","1","h","0","0","100","100","0","0","0","100","100","0","0","0","100","100","NA","100","100","Wed Sep 13 02:02:50 2023","600","The main experiment item","True","Flanker Task Lab 2.2.osexp","C:\Users\kikip\OneDrive\Desktop","False","mono","False","18","no","white","no","yes","768","legacy","20","79","C:/Users/kikip/OneDrive/Desktop/HB-subject-2.csv","legacy","Melodramatic Milgram","4.0.5","0","h","NA","h","s","s","NA","h","NA","406.0","NA","3012","45130","313355","NA","406","NA","2","legacy","1024","2","48000","-16","experiment","HHHHH","2","even","48566","NA","517985","537616","NA","496047","3431","526820","538665","3435","182690","NA","538766","539173","NA","538663","538766","Neues Experiment","94","49168.0","101","1024"
"93","93","485","485","#3d3846","legacy","legacy","legacy","coongruent","1","undefined","1","h","0","0","101","101","0","0","0","101","101","0","0","0","101","101","NA","101","101","Wed Sep 13 02:02:50 2023","600","The main experiment item","True","Flanker Task Lab 2.2.osexp","C:\Users\kikip\OneDrive\Desktop","False","mono","False","18","no","white","no","yes","768","legacy","21","79","C:/Users/kikip/OneDrive/Desktop/HB-subject-2.csv","legacy","Melodramatic Milgram","4.0.5","0","h","NA","h","s","s","NA","h","NA","340.0","NA","3012","45130","313355","NA","340","NA","2","legacy","1024","2","48000","-16","experiment","HHHHH","2","even","48566","NA","517985","539177","NA","496047","3431","526820","540243","3435","182690","NA","540344","540686","NA","540241","540344","Neues Experiment","95","49508.0","102","1024"
"93","93","484","484","#3d3846","legacy","legacy","legacy","congruent","1","undefined","1","s","0","0","102","102","0","0","0","102","102","0","0","0","102","102","NA","102","102","Wed Sep 13 02:02:50 2023","600","The main experiment item","True","Flanker Task Lab 2.2.osexp","C:\Users\kikip\OneDrive\Desktop","False","mono","False","18","no","white","no","yes","768","legacy","22","79","C:/Users/kikip/OneDrive/Desktop/HB-subject-2.csv","legacy","Melodramatic Milgram","4.0.5","0","s","NA","h","s","s","NA","s","NA","414.0","NA","3012","45130","313355","NA","414","NA","2","legacy","1024","2","48000","-16","experiment","SSSSS","2","even","48566","NA","517985","540689","NA","496047","3431","526820","541728","3435","182690","NA","541830","542246","NA","541727","541830","Neues Experiment","96","49922.0","103","1024"
"93","93","484","484","#3d3846","legacy","legacy","legacy","coongruent","1","undefined","1","h","0","0","103","103","0","0","0","103","103","0","0","0","103","103","NA","103","103","Wed Sep 13 02:02:50 2023","600","The main experiment item","True","Flanker Task Lab 2.2.osexp","C:\Users\kikip\OneDrive\Desktop","False","mono","False","18","no","white","no","yes","768","legacy","23","79","C:/Users/kikip/OneDrive/Desktop/HB-subject-2.csv","legacy","Melodramatic Milgram","4.0.5","0","h","NA","h","s","s","NA","h","NA","416.0","NA","3012","45130","313355","NA","416","NA","2","legacy","1024","2","48000","-16","experiment","HHHHH","2","even","48566","NA","517985","542250","NA","496047","3431","526820","543302","3435","182690","NA","543403","543821","NA","543300","543403","Neues Experiment","97","50338.0","104","1024"
"93","93","483","483","#3d3846","legacy","legacy","legacy","congruent","1","undefined","1","s","0","0","104","104","0","0","0","104","104","0","0","0","104","104","NA","104","104","Wed Sep 13 02:02:50 2023","600","The main experiment item","True","Flanker Task Lab 2.2.osexp","C:\Users\kikip\OneDrive\Desktop","False","mono","False","18","no","white","no","yes","768","legacy","24","79","C:/Users/kikip/OneDrive/Desktop/HB-subject-2.csv","legacy","Melodramatic Milgram","4.0.5","0","s","NA","h","s","s","NA","s","NA","411.0","NA","3012","45130","313355","NA","411","NA","2","legacy","1024","2","48000","-16","experiment","SSSSS","2","even","48566","NA","517985","543835","NA","496047","3431","526820","544888","3435","182690","NA","544990","545403","NA","544886","544990","Neues Experiment","98","50749.0","105","1024"
"93","93","482","482","#3d3846","legacy","legacy","legacy","incongruent","1","undefined","1","s","0","0","105","105","0","0","0","105","105","0","0","0","105","105","NA","105","105","Wed Sep 13 02:02:50 2023","600","The main experiment item","True","Flanker Task Lab 2.2.osexp","C:\Users\kikip\OneDrive\Desktop","False","mono","False","18","no","white","no","yes","768","legacy","25","79","C:/Users/kikip/OneDrive/Desktop/HB-subject-2.csv","legacy","Melodramatic Milgram","4.0.5","0","s","NA","h","s","s","NA","s","NA","409.0","NA","3012","45130","313355","NA","409","NA","2","legacy","1024","2","48000","-16","experiment","HHSHH","2","even","48566","NA","517985","545443","NA","496047","3431","526820","546481","3435","182690","NA","546582","546993","NA","546480","546582","Neues Experiment","99","51158.0","106","1024"
"93","93","481","481","#3d3846","legacy","legacy","legacy","incongruent","1","undefined","1","h","0","0","106","106","0","0","0","106","106","0","0","0","106","106","NA","106","106","Wed Sep 13 02:02:50 2023","600","The main experiment item","True","Flanker Task Lab 2.2.osexp","C:\Users\kikip\OneDrive\Desktop","False","mono","False","18","no","white","no","yes","768","legacy","26","79","C:/Users/kikip/OneDrive/Desktop/HB-subject-2.csv","legacy","Melodramatic Milgram","4.0.5","0","h","NA","h","s","s","NA","h","NA","374.0","NA","3012","45130","313355","NA","374","NA","2","legacy","1024","2","48000","-16","experiment","SSHSS","2","even","48566","NA","517985","547000","NA","496047","3431","526820","548047","3435","182690","NA","548148","548524","NA","548045","548148","Neues Experiment","100","51532.0","107","1024"
"93","93","482","482","#3d3846","legacy","legacy","legacy","congruent","1","undefined","1","s","0","0","107","107","0","0","0","107","107","0","0","0","107","107","NA","107","107","Wed Sep 13 02:02:50 2023","600","The main experiment item","True","Flanker Task Lab 2.2.osexp","C:\Users\kikip\OneDrive\Desktop","False","mono","False","18","no","white","no","yes","768","legacy","27","79","C:/Users/kikip/OneDrive/Desktop/HB-subject-2.csv","legacy","Melodramatic Milgram","4.0.5","0","s","NA","h","s","s","NA","s","NA","591.0","NA","3012","45130","313355","NA","591","NA","2","legacy","1024","2","48000","-16","experiment","SSSSS","2","even","48566","NA","517985","548531","NA","496047","3431","526820","549576","3435","182690","NA","549677","550270","NA","549574","549677","Neues Experiment","101","52123.0","108","1024"
"93","93","482","482","#3d3846","legacy","legacy","legacy","incongruent","1","undefined","1","s","0","0","108","108","0","0","0","108","108","0","0","0","108","108","NA","108","108","Wed Sep 13 02:02:50 2023","600","The main experiment item","True","Flanker Task Lab 2.2.osexp","C:\Users\kikip\OneDrive\Desktop","False","mono","False","18","no","white","no","yes","768","legacy","28","79","C:/Users/kikip/OneDrive/Desktop/HB-subject-2.csv","legacy","Melodramatic Milgram","4.0.5","0","s","NA","h","s","s","NA","s","NA","466.0","NA","3012","45130","313355","NA","466","NA","2","legacy","1024","2","48000","-16","experiment","HHSHH","2","even","48566","NA","517985","550291","NA","496047","3431","526820","551338","3435","182690","NA","551439","551906","NA","551336","551439","Neues Experiment","102","52589.0","109","1024"
"93","93","481","481","#3d3846","legacy","legacy","legacy","incongruent","1","undefined","1","h","0","0","109","109","0","0","0","109","109","0","0","0","109","109","NA","109","109","Wed Sep 13 02:02:50 2023","600","The main experiment item","True","Flanker Task Lab 2.2.osexp","C:\Users\kikip\OneDrive\Desktop","False","mono","False","18","no","white","no","yes","768","legacy","29","79","C:/Users/kikip/OneDrive/Desktop/HB-subject-2.csv","legacy","Melodramatic Milgram","4.0.5","0","h","NA","h","s","s","NA","h","NA","395.0","NA","3012","45130","313355","NA","395","NA","2","legacy","1024","2","48000","-16","experiment","SSHSS","2","even","48566","NA","517985","551909","NA","496047","3431","526820","552959","3435","182690","NA","553060","553457","NA","552957","553060","Neues Experiment","103","52984.0","110","1024"
"93","93","480","480","#3d3846","legacy","legacy","legacy","congruent","1","undefined","1","s","0","0","110","110","0","0","0","110","110","0","0","0","110","110","NA","110","110","Wed Sep 13 02:02:50 2023","600","The main experiment item","True","Flanker Task Lab 2.2.osexp","C:\Users\kikip\OneDrive\Desktop","False","mono","False","18","no","white","no","yes","768","legacy","30","79","C:/Users/kikip/OneDrive/Desktop/HB-subject-2.csv","legacy","Melodramatic Milgram","4.0.5","0","s","NA","h","s","s","NA","s","NA","400.0","NA","3012","45130","313355","NA","400","NA","2","legacy","1024","2","48000","-16","experiment","SSSSS","2","even","48566","NA","517985","553464","NA","496047","3431","526820","554530","3435","182690","NA","554631","555033","NA","554528","554631","Neues Experiment","104","53384.0","111","1024"
"93","93","480","480","#3d3846","legacy","legacy","legacy","incongruent","1","undefined","1","h","0","0","111","111","0","0","0","111","111","0","0","0","111","111","NA","111","111","Wed Sep 13 02:02:50 2023","600","The main experiment item","True","Flanker Task Lab 2.2.osexp","C:\Users\kikip\OneDrive\Desktop","False","mono","False","18","no","white","no","yes","768","legacy","31","79","C:/Users/kikip/OneDrive/Desktop/HB-subject-2.csv","legacy","Melodramatic Milgram","4.0.5","0","h","NA","h","s","s","NA","h","NA","466.0","NA","3012","45130","313355","NA","466","NA","2","legacy","1024","2","48000","-16","experiment","SSHSS","2","even","48566","NA","517985","555045","NA","496047","3431","526820","556090","3435","182690","NA","556191","556658","NA","556089","556191","Neues Experiment","105","53850.0","112","1024"
"93","93","480","480","#3d3846","legacy","legacy","legacy","incongruent","1","undefined","1","s","0","0","112","112","0","0","0","112","112","0","0","0","112","112","NA","112","112","Wed Sep 13 02:02:50 2023","600","The main experiment item","True","Flanker Task Lab 2.2.osexp","C:\Users\kikip\OneDrive\Desktop","False","mono","False","18","no","white","no","yes","768","legacy","32","79","C:/Users/kikip/OneDrive/Desktop/HB-subject-2.csv","legacy","Melodramatic Milgram","4.0.5","0","s","NA","h","s","s","NA","s","NA","467.0","NA","3012","45130","313355","NA","467","NA","2","legacy","1024","2","48000","-16","experiment","HHSHH","2","even","48566","NA","517985","556679","NA","496047","3431","526820","557725","3435","182690","NA","557826","558295","NA","557723","557826","Neues Experiment","106","54317.0","113","1024"
"93","93","479","479","#3d3846","legacy","legacy","legacy","congruent","1","undefined","1","s","0","0","113","113","0","0","0","113","113","0","0","0","113","113","NA","113","113","Wed Sep 13 02:02:50 2023","600","The main experiment item","True","Flanker Task Lab 2.2.osexp","C:\Users\kikip\OneDrive\Desktop","False","mono","False","18","no","white","no","yes","768","legacy","33","79","C:/Users/kikip/OneDrive/Desktop/HB-subject-2.csv","legacy","Melodramatic Milgram","4.0.5","0","s","NA","h","s","s","NA","s","NA","372.0","NA","3012","45130","313355","NA","372","NA","2","legacy","1024","2","48000","-16","experiment","SSSSS","2","even","48566","NA","517985","558304","NA","496047","3431","526820","559346","3435","182690","NA","559447","559820","NA","559344","559447","Neues Experiment","107","54689.0","114","1024"
"93","93","479","479","#3d3846","legacy","legacy","legacy","incongruent","1","undefined","1","h","0","0","114","114","0","0","0","114","114","0","0","0","114","114","NA","114","114","Wed Sep 13 02:02:50 2023","600","The main experiment item","True","Flanker Task Lab 2.2.osexp","C:\Users\kikip\OneDrive\Desktop","False","mono","False","18","no","white","no","yes","768","legacy","34","79","C:/Users/kikip/OneDrive/Desktop/HB-subject-2.csv","legacy","Melodramatic Milgram","4.0.5","0","h","NA","h","s","s","NA","h","NA","435.0","NA","3012","45130","313355","NA","435","NA","2","legacy","1024","2","48000","-16","experiment","SSHSS","2","even","48566","NA","517985","559826","NA","496047","3431","526820","560869","3435","182690","NA","560970","561407","NA","560867","560970","Neues Experiment","108","55124.0","115","1024"
"93","93","478","478","#3d3846","legacy","legacy","legacy","incongruent","1","undefined","1","h","0","0","115","115","0","0","0","115","115","0","0","0","115","115","NA","115","115","Wed Sep 13 02:02:50 2023","600","The main experiment item","True","Flanker Task Lab 2.2.osexp","C:\Users\kikip\OneDrive\Desktop","False","mono","False","18","no","white","no","yes","768","legacy","35","79","C:/Users/kikip/OneDrive/Desktop/HB-subject-2.csv","legacy","Melodramatic Milgram","4.0.5","0","h","NA","h","s","s","NA","h","NA","396.0","NA","3012","45130","313355","NA","396","NA","2","legacy","1024","2","48000","-16","experiment","SSHSS","2","even","48566","NA","517985","561415","NA","496047","3431","526820","562468","3435","182690","NA","562569","562967","NA","562466","562569","Neues Experiment","109","55520.0","116","1024"
"94","94","478","478","#3d3846","legacy","legacy","legacy","incongruent","1","undefined","1","h","0","0","116","116","0","0","0","116","116","0","0","0","116","116","NA","116","116","Wed Sep 13 02:02:50 2023","600","The main experiment item","True","Flanker Task Lab 2.2.osexp","C:\Users\kikip\OneDrive\Desktop","False","mono","False","18","no","white","no","yes","768","legacy","36","79","C:/Users/kikip/OneDrive/Desktop/HB-subject-2.csv","legacy","Melodramatic Milgram","4.0.5","0","h","NA","h","s","s","NA","h","NA","505.0","NA","3012","45130","313355","NA","505","NA","2","legacy","1024","2","48000","-16","experiment","SSHSS","2","even","48566","NA","517985","562973","NA","496047","3431","526820","564015","3435","182690","NA","564116","564623","NA","564014","564116","Neues Experiment","110","56025.0","117","1024"
"94","94","477","477","#3d3846","legacy","legacy","legacy","congruent","1","undefined","1","s","0","0","117","117","0","0","0","117","117","0","0","0","117","117","NA","117","117","Wed Sep 13 02:02:50 2023","600","The main experiment item","True","Flanker Task Lab 2.2.osexp","C:\Users\kikip\OneDrive\Desktop","False","mono","False","18","no","white","no","yes","768","legacy","37","79","C:/Users/kikip/OneDrive/Desktop/HB-subject-2.csv","legacy","Melodramatic Milgram","4.0.5","0","s","NA","h","s","s","NA","s","NA","368.0","NA","3012","45130","313355","NA","368","NA","2","legacy","1024","2","48000","-16","experiment","SSSSS","2","even","48566","NA","517985","564627","NA","496047","3431","526820","565678","3435","182690","NA","565779","566150","NA","565676","565779","Neues Experiment","111","56393.0","118","1024"
"94","94","477","477","#3d3846","legacy","legacy","legacy","coongruent","1","undefined","1","h","0","0","118","118","0","0","0","118","118","0","0","0","118","118","NA","118","118","Wed Sep 13 02:02:50 2023","600","The main experiment item","True","Flanker Task Lab 2.2.osexp","C:\Users\kikip\OneDrive\Desktop","False","mono","False","18","no","white","no","yes","768","legacy","38","79","C:/Users/kikip/OneDrive/Desktop/HB-subject-2.csv","legacy","Melodramatic Milgram","4.0.5","0","h","NA","h","s","s","NA","h","NA","446.0","NA","3012","45130","313355","NA","446","NA","2","legacy","1024","2","48000","-16","experiment","HHHHH","2","even","48566","NA","517985","566156","NA","496047","3431","526820","567217","3435","182690","NA","567318","567766","NA","567215","567318","Neues Experiment","112","56839.0","119","1024"
"94","94","477","477","#3d3846","legacy","legacy","legacy","incongruent","1","undefined","1","s","0","0","119","119","0","0","0","119","119","0","0","0","119","119","NA","119","119","Wed Sep 13 02:02:50 2023","600","The main experiment item","True","Flanker Task Lab 2.2.osexp","C:\Users\kikip\OneDrive\Desktop","False","mono","False","18","no","white","no","yes","768","legacy","39","79","C:/Users/kikip/OneDrive/Desktop/HB-subject-2.csv","legacy","Melodramatic Milgram","4.0.5","0","s","NA","h","s","s","NA","s","NA","450.0","NA","3012","45130","313355","NA","450","NA","2","legacy","1024","2","48000","-16","experiment","HHSHH","2","even","48566","NA","517985","567769","NA","496047","3431","526820","568823","3435","182690","NA","568924","569376","NA","568821","568924","Neues Experiment","113","57289.0","120","1024"
"94","94","477","477","#3d3846","legacy","legacy","legacy","coongruent","1","undefined","1","h","0","0","120","120","0","0","0","120","120","0","0","0","120","120","NA","120","120","Wed Sep 13 02:02:50 2023","600","The main experiment item","True","Flanker Task Lab 2.2.osexp","C:\Users\kikip\OneDrive\Desktop","False","mono","False","18","no","white","no","yes","768","legacy","40","79","C:/Users/kikip/OneDrive/Desktop/HB-subject-2.csv","legacy","Melodramatic Milgram","4.0.5","0","h","NA","h","s","s","NA","h","NA","440.0","NA","3012","45130","313355","NA","440","NA","2","legacy","1024","2","48000","-16","experiment","HHHHH","2","even","48566","NA","517985","569385","NA","496047","3431","526820","570449","3435","182690","NA","570550","570992","NA","570447","570550","Neues Experiment","114","57729.0","121","1024"
"93","93","476","476","#3d3846","legacy","legacy","legacy","incongruent","0","undefined","0","s","0","0","121","121","0","0","0","121","121","0","0","0","121","121","NA","121","121","Wed Sep 13 02:02:50 2023","600","The main experiment item","True","Flanker Task Lab 2.2.osexp","C:\Users\kikip\OneDrive\Desktop","False","mono","False","18","no","white","no","yes","768","legacy","41","79","C:/Users/kikip/OneDrive/Desktop/HB-subject-2.csv","legacy","Melodramatic Milgram","4.0.5","0","h","NA","h","s","s","NA","h","NA","399.0","NA","3012","45130","313355","NA","399","NA","2","legacy","1024","2","48000","-16","experiment","HHSHH","2","even","48566","NA","517985","570995","NA","496047","3431","526820","572031","3435","182690","NA","572132","572532","NA","572029","572132","Neues Experiment","114","58128.0","122","1024"
