"acc","accuracy","average_response_time","avg_rt","background","canvas_backend","clock_backend","color_backend","compensation","condition","coordinates","correct","correct_instructions1","correct_keyboardresponse","correct_response","count_block1","count_block2","count_block3","count_errorfeedback","count_experiment","count_faster","count_finish","count_fixation","count_instructions1","count_instructions2","count_instructions3","count_isi","count_keyboardresponse","count_logger","count_sequence","count_stimulus","datetime","deadline","description","disable_garbage_collection","experiment_file","experiment_path","font_bold","font_family","font_italic","font_size","font_underline","foreground","form_clicks","fullscreen","height","keyboard_backend","live_row","live_row_block1","logfile","mouse_backend","opensesame_codename","opensesame_version","repeat_cycle","response","response_finish","response_instructions1","response_instructions2","response_instructions3","response_keyboardresponse","response_time","response_time_finish","response_time_instructions1","response_time_instructions2","response_time_instructions3","response_time_keyboardresponse","round_decimals","sampler_backend","sound_buf_size","sound_channels","sound_freq","sound_sample_size","start","stimulus","subject_nr","subject_parity","time_block1","time_block2","time_block3","time_errorfeedback","time_experiment","time_faster","time_finish","time_fixation","time_instructions1","time_instructions2","time_instructions3","time_isi","time_keyboardresponse","time_logger","time_sequence","time_stimulus","title","total_correct","total_response_time","total_responses","uniform_coordinates","width"
"100","100","463","463","black","legacy","legacy","legacy","0","congruent","uniform","1","undefined","1","s","0","0","0","0","0","0","0","0","0","0","0","0","0","0","0","0","09/27/20 21:58:42","1500","Flanker Task","yes","flankertasksubmission.osexp","C:\Users\User\Desktop\Quant 2020 - Copy","no","mono","no","18","no","white","no","no","768","legacy","0","0","C:/Users/User/Desktop/Quant 2020 - Copy/GT-subject-4.csv","legacy","Lentiform Loewenfeld","3.3.3","0","s","NA","h","NA","NA","s","463","NA","5390","NA","NA","463","2","legacy","1024","2","48000","-16","experiment","SSSSS","4","even","6887","NA","NA","NA","1493","NA","NA","7002","1496","NA","NA","NA","7104","7568","6999","7104","New experiment","1","463","1","yes","1024"
"100","100","498.5","498.5","black","legacy","legacy","legacy","0","congruent","uniform","1","undefined","1","h","0","0","0","1","0","1","0","1","0","0","0","1","1","1","1","1","09/27/20 21:58:42","1500","Flanker Task","yes","flankertasksubmission.osexp","C:\Users\User\Desktop\Quant 2020 - Copy","no","mono","no","18","no","white","no","no","768","legacy","1","1","C:/Users/User/Desktop/Quant 2020 - Copy/GT-subject-4.csv","legacy","Lentiform Loewenfeld","3.3.3","0","h","NA","h","NA","NA","h","534","NA","5390","NA","NA","534","2","legacy","1024","2","48000","-16","experiment","HHHHH","4","even","6887","NA","NA","NA","1493","NA","NA","8770","1496","NA","NA","7598","8872","9407","8767","8872","New experiment","2","997","2","yes","1024"
"100","100","481.666666667","481.666666667","black","legacy","legacy","legacy","0","congruent","uniform","1","undefined","1","h","0","0","0","2","0","2","0","2","0","0","0","2","2","2","2","2","09/27/20 21:58:42","1500","Flanker Task","yes","flankertasksubmission.osexp","C:\Users\User\Desktop\Quant 2020 - Copy","no","mono","no","18","no","white","no","no","768","legacy","2","2","C:/Users/User/Desktop/Quant 2020 - Copy/GT-subject-4.csv","legacy","Lentiform Loewenfeld","3.3.3","0","h","NA","h","NA","NA","h","448","NA","5390","NA","NA","448","2","legacy","1024","2","48000","-16","experiment","HHHHH","4","even","6887","NA","NA","NA","1493","NA","NA","10512","1496","NA","NA","9412","10614","11063","10509","10614","New experiment","3","1445","3","yes","1024"
"100","100","495.25","495.25","black","legacy","legacy","legacy","0","incongruent","uniform","1","undefined","1","s","0","0","0","3","0","3","0","3","0","0","0","3","3","3","3","3","09/27/20 21:58:42","1500","Flanker Task","yes","flankertasksubmission.osexp","C:\Users\User\Desktop\Quant 2020 - Copy","no","mono","no","18","no","white","no","no","768","legacy","3","3","C:/Users/User/Desktop/Quant 2020 - Copy/GT-subject-4.csv","legacy","Lentiform Loewenfeld","3.3.3","0","s","NA","h","NA","NA","s","536","NA","5390","NA","NA","536","2","legacy","1024","2","48000","-16","experiment","HHSHH","4","even","6887","NA","NA","NA","1493","NA","NA","12169","1496","NA","NA","11068","12271","12808","12166","12271","New experiment","4","1981","4","yes","1024"
"80","80","490","490","black","legacy","legacy","legacy","0","incongruent","uniform","0","undefined","0","h","0","0","0","4","0","4","0","4","0","0","0","4","4","4","4","4","09/27/20 21:58:42","1500","Flanker Task","yes","flankertasksubmission.osexp","C:\Users\User\Desktop\Quant 2020 - Copy","no","mono","no","18","no","white","no","no","768","legacy","4","4","C:/Users/User/Desktop/Quant 2020 - Copy/GT-subject-4.csv","legacy","Lentiform Loewenfeld","3.3.3","0","s","NA","h","NA","NA","s","469","NA","5390","NA","NA","469","2","legacy","1024","2","48000","-16","experiment","SSHSS","4","even","6887","NA","NA","NA","1493","NA","NA","13944","1496","NA","NA","12813","14046","14516","13940","14046","New experiment","4","2450","5","yes","1024"
"83.3333333333","83.3333333333","486.333333333","486.333333333","black","legacy","legacy","legacy","0","congruent","uniform","1","undefined","1","s","0","0","0","5","0","5","0","5","0","0","0","5","5","5","5","5","09/27/20 21:58:42","1500","Flanker Task","yes","flankertasksubmission.osexp","C:\Users\User\Desktop\Quant 2020 - Copy","no","mono","no","18","no","white","no","no","768","legacy","5","5","C:/Users/User/Desktop/Quant 2020 - Copy/GT-subject-4.csv","legacy","Lentiform Loewenfeld","3.3.3","0","s","NA","h","NA","NA","s","468","NA","5390","NA","NA","468","2","legacy","1024","2","48000","-16","experiment","SSSSS","4","even","6887","NA","NA","14522","1493","NA","NA","16120","1496","NA","NA","15024","16222","16691","16117","16222","New experiment","5","2918","6","yes","1024"
"85.7142857143","85.7142857143","480.571428571","480.571428571","black","legacy","legacy","legacy","0","congruent","uniform","1","undefined","1","h","0","0","0","6","0","6","0","6","0","0","0","6","6","6","6","6","09/27/20 21:58:42","1500","Flanker Task","yes","flankertasksubmission.osexp","C:\Users\User\Desktop\Quant 2020 - Copy","no","mono","no","18","no","white","no","no","768","legacy","6","6","C:/Users/User/Desktop/Quant 2020 - Copy/GT-subject-4.csv","legacy","Lentiform Loewenfeld","3.3.3","0","h","NA","h","NA","NA","h","446","NA","5390","NA","NA","446","2","legacy","1024","2","48000","-16","experiment","HHHHH","4","even","6887","NA","NA","14522","1493","NA","NA","17796","1496","NA","NA","16696","17898","18344","17793","17898","New experiment","6","3364","7","yes","1024"
"87.5","87.5","471.375","471.375","black","legacy","legacy","legacy","0","congruent","uniform","1","undefined","1","s","0","0","0","7","0","7","0","7","0","0","0","7","7","7","7","7","09/27/20 21:58:42","1500","Flanker Task","yes","flankertasksubmission.osexp","C:\Users\User\Desktop\Quant 2020 - Copy","no","mono","no","18","no","white","no","no","768","legacy","7","7","C:/Users/User/Desktop/Quant 2020 - Copy/GT-subject-4.csv","legacy","Lentiform Loewenfeld","3.3.3","0","s","NA","h","NA","NA","s","407","NA","5390","NA","NA","407","2","legacy","1024","2","48000","-16","experiment","SSSSS","4","even","6887","NA","NA","14522","1493","NA","NA","19448","1496","NA","NA","18350","19550","19957","19445","19550","New experiment","7","3771","8","yes","1024"
"88.8888888889","88.8888888889","471.777777778","471.777777778","black","legacy","legacy","legacy","0","congruent","uniform","1","undefined","1","s","0","0","0","8","0","8","0","8","0","0","0","8","8","8","8","8","09/27/20 21:58:42","1500","Flanker Task","yes","flankertasksubmission.osexp","C:\Users\User\Desktop\Quant 2020 - Copy","no","mono","no","18","no","white","no","no","768","legacy","8","8","C:/Users/User/Desktop/Quant 2020 - Copy/GT-subject-4.csv","legacy","Lentiform Loewenfeld","3.3.3","0","s","NA","h","NA","NA","s","475","NA","5390","NA","NA","475","2","legacy","1024","2","48000","-16","experiment","SSSSS","4","even","6887","NA","NA","14522","1493","NA","NA","21065","1496","NA","NA","19963","21167","21643","21062","21167","New experiment","8","4246","9","yes","1024"
"90","90","467.9","467.9","black","legacy","legacy","legacy","0","congruent","uniform","1","undefined","1","s","0","0","0","9","0","9","0","9","0","0","0","9","9","9","9","9","09/27/20 21:58:42","1500","Flanker Task","yes","flankertasksubmission.osexp","C:\Users\User\Desktop\Quant 2020 - Copy","no","mono","no","18","no","white","no","no","768","legacy","9","9","C:/Users/User/Desktop/Quant 2020 - Copy/GT-subject-4.csv","legacy","Lentiform Loewenfeld","3.3.3","0","s","NA","h","NA","NA","s","433","NA","5390","NA","NA","433","2","legacy","1024","2","48000","-16","experiment","SSSSS","4","even","6887","NA","NA","14522","1493","NA","NA","22748","1496","NA","NA","21649","22851","23285","22746","22851","New experiment","9","4679","10","yes","1024"
"90.9090909091","90.9090909091","467.454545455","467.454545455","black","legacy","legacy","legacy","0","congruent","uniform","1","undefined","1","s","0","0","0","10","0","10","0","10","0","0","0","10","10","10","10","10","09/27/20 21:58:42","1500","Flanker Task","yes","flankertasksubmission.osexp","C:\Users\User\Desktop\Quant 2020 - Copy","no","mono","no","18","no","white","no","no","768","legacy","10","10","C:/Users/User/Desktop/Quant 2020 - Copy/GT-subject-4.csv","legacy","Lentiform Loewenfeld","3.3.3","0","s","NA","h","NA","NA","s","463","NA","5390","NA","NA","463","2","legacy","1024","2","48000","-16","experiment","SSSSS","4","even","6887","NA","NA","14522","1493","NA","NA","24392","1496","NA","NA","23290","24494","24957","24389","24494","New experiment","10","5142","11","yes","1024"
"83.3333333333","83.3333333333","466","466","black","legacy","legacy","legacy","0","incongruent","uniform","0","undefined","0","h","0","0","0","11","0","11","0","11","0","0","0","11","11","11","11","11","09/27/20 21:58:42","1500","Flanker Task","yes","flankertasksubmission.osexp","C:\Users\User\Desktop\Quant 2020 - Copy","no","mono","no","18","no","white","no","no","768","legacy","11","11","C:/Users/User/Desktop/Quant 2020 - Copy/GT-subject-4.csv","legacy","Lentiform Loewenfeld","3.3.3","0","s","NA","h","NA","NA","s","450","NA","5390","NA","NA","450","2","legacy","1024","2","48000","-16","experiment","SSHSS","4","even","6887","NA","NA","14522","1493","NA","NA","26064","1496","NA","NA","24963","26166","26617","26061","26166","New experiment","10","5592","12","yes","1024"
"84.6153846154","84.6153846154","467.384615385","467.384615385","black","legacy","legacy","legacy","0","congruent","uniform","1","undefined","1","h","0","0","0","12","0","12","0","12","0","0","0","12","12","12","12","12","09/27/20 21:58:42","1500","Flanker Task","yes","flankertasksubmission.osexp","C:\Users\User\Desktop\Quant 2020 - Copy","no","mono","no","18","no","white","no","no","768","legacy","12","12","C:/Users/User/Desktop/Quant 2020 - Copy/GT-subject-4.csv","legacy","Lentiform Loewenfeld","3.3.3","0","h","NA","h","NA","NA","h","484","NA","5390","NA","NA","484","2","legacy","1024","2","48000","-16","experiment","HHHHH","4","even","6887","NA","NA","26622","1493","NA","NA","28220","1496","NA","NA","27124","28322","28807","28217","28322","New experiment","11","6076","13","yes","1024"
"85.7142857143","85.7142857143","464.142857143","464.142857143","black","legacy","legacy","legacy","0","incongruent","uniform","1","undefined","1","h","0","0","0","13","0","13","0","13","0","0","0","13","13","13","13","13","09/27/20 21:58:42","1500","Flanker Task","yes","flankertasksubmission.osexp","C:\Users\User\Desktop\Quant 2020 - Copy","no","mono","no","18","no","white","no","no","768","legacy","13","13","C:/Users/User/Desktop/Quant 2020 - Copy/GT-subject-4.csv","legacy","Lentiform Loewenfeld","3.3.3","0","h","NA","h","NA","NA","h","422","NA","5390","NA","NA","422","2","legacy","1024","2","48000","-16","experiment","SSHSS","4","even","6887","NA","NA","26622","1493","NA","NA","29910","1496","NA","NA","28812","30012","30435","29907","30012","New experiment","12","6498","14","yes","1024"
"86.6666666667","86.6666666667","473.666666667","473.666666667","black","legacy","legacy","legacy","0","incongruent","uniform","1","undefined","1","s","0","0","0","14","0","14","0","14","0","0","0","14","14","14","14","14","09/27/20 21:58:42","1500","Flanker Task","yes","flankertasksubmission.osexp","C:\Users\User\Desktop\Quant 2020 - Copy","no","mono","no","18","no","white","no","no","768","legacy","14","14","C:/Users/User/Desktop/Quant 2020 - Copy/GT-subject-4.csv","legacy","Lentiform Loewenfeld","3.3.3","0","s","NA","h","NA","NA","s","607","NA","5390","NA","NA","607","2","legacy","1024","2","48000","-16","experiment","HHSHH","4","even","6887","NA","NA","26622","1493","NA","NA","31547","1496","NA","NA","30440","31650","32258","31544","31650","New experiment","13","7105","15","yes","1024"
"87.5","87.5","471.875","471.875","black","legacy","legacy","legacy","0","congruent","uniform","1","undefined","1","s","0","0","0","15","0","15","0","15","0","0","0","15","15","15","15","15","09/27/20 21:58:42","1500","Flanker Task","yes","flankertasksubmission.osexp","C:\Users\User\Desktop\Quant 2020 - Copy","no","mono","no","18","no","white","no","no","768","legacy","15","15","C:/Users/User/Desktop/Quant 2020 - Copy/GT-subject-4.csv","legacy","Lentiform Loewenfeld","3.3.3","0","s","NA","h","NA","NA","s","445","NA","5390","NA","NA","445","2","legacy","1024","2","48000","-16","experiment","SSSSS","4","even","6887","NA","NA","26622","1493","NA","NA","33360","1496","NA","NA","32263","33462","33907","33357","33462","New experiment","14","7550","16","yes","1024"
"88.2352941176","88.2352941176","468.176470588","468.176470588","black","legacy","legacy","legacy","0","congruent","uniform","1","undefined","1","h","0","0","0","16","0","16","0","16","0","0","0","16","16","16","16","16","09/27/20 21:58:42","1500","Flanker Task","yes","flankertasksubmission.osexp","C:\Users\User\Desktop\Quant 2020 - Copy","no","mono","no","18","no","white","no","no","768","legacy","16","16","C:/Users/User/Desktop/Quant 2020 - Copy/GT-subject-4.csv","legacy","Lentiform Loewenfeld","3.3.3","0","h","NA","h","NA","NA","h","409","NA","5390","NA","NA","409","2","legacy","1024","2","48000","-16","experiment","HHHHH","4","even","6887","NA","NA","26622","1493","NA","NA","35014","1496","NA","NA","33913","35116","35526","35011","35116","New experiment","15","7959","17","yes","1024"
"88.8888888889","88.8888888889","476.666666667","476.666666667","black","legacy","legacy","legacy","0","incongruent","uniform","1","undefined","1","s","0","0","0","17","0","17","0","17","0","0","0","17","17","17","17","17","09/27/20 21:58:42","1500","Flanker Task","yes","flankertasksubmission.osexp","C:\Users\User\Desktop\Quant 2020 - Copy","no","mono","no","18","no","white","no","no","768","legacy","17","17","C:/Users/User/Desktop/Quant 2020 - Copy/GT-subject-4.csv","legacy","Lentiform Loewenfeld","3.3.3","0","s","NA","h","NA","NA","s","621","NA","5390","NA","NA","621","2","legacy","1024","2","48000","-16","experiment","HHSHH","4","even","6887","NA","NA","26622","1493","NA","NA","36633","1496","NA","NA","35531","36735","37357","36629","36735","New experiment","16","8580","18","yes","1024"
"89.4736842105","89.4736842105","478.894736842","478.894736842","black","legacy","legacy","legacy","0","incongruent","uniform","1","undefined","1","h","0","0","0","18","0","18","0","18","0","0","0","18","18","18","18","18","09/27/20 21:58:42","1500","Flanker Task","yes","flankertasksubmission.osexp","C:\Users\User\Desktop\Quant 2020 - Copy","no","mono","no","18","no","white","no","no","768","legacy","18","18","C:/Users/User/Desktop/Quant 2020 - Copy/GT-subject-4.csv","legacy","Lentiform Loewenfeld","3.3.3","0","h","NA","h","NA","NA","h","519","NA","5390","NA","NA","519","2","legacy","1024","2","48000","-16","experiment","SSHSS","4","even","6887","NA","NA","26622","1493","NA","NA","38468","1496","NA","NA","37363","38570","39090","38465","38570","New experiment","17","9099","19","yes","1024"
"90","90","478.1","478.1","black","legacy","legacy","legacy","0","congruent","uniform","1","undefined","1","h","0","0","0","19","0","19","0","19","0","0","0","19","19","19","19","19","09/27/20 21:58:42","1500","Flanker Task","yes","flankertasksubmission.osexp","C:\Users\User\Desktop\Quant 2020 - Copy","no","mono","no","18","no","white","no","no","768","legacy","19","19","C:/Users/User/Desktop/Quant 2020 - Copy/GT-subject-4.csv","legacy","Lentiform Loewenfeld","3.3.3","0","h","NA","h","NA","NA","h","463","NA","5390","NA","NA","463","2","legacy","1024","2","48000","-16","experiment","HHHHH","4","even","6887","NA","NA","26622","1493","NA","NA","40194","1496","NA","NA","39096","40296","40760","40191","40296","New experiment","18","9562","20","yes","1024"
"85.7142857143","85.7142857143","478.476190476","478.476190476","black","legacy","legacy","legacy","0","incongruent","uniform","0","undefined","0","h","0","0","0","20","0","20","0","20","0","0","0","20","20","20","20","20","09/27/20 21:58:42","1500","Flanker Task","yes","flankertasksubmission.osexp","C:\Users\User\Desktop\Quant 2020 - Copy","no","mono","no","18","no","white","no","no","768","legacy","20","20","C:/Users/User/Desktop/Quant 2020 - Copy/GT-subject-4.csv","legacy","Lentiform Loewenfeld","3.3.3","0","s","NA","h","NA","NA","s","486","NA","5390","NA","NA","486","2","legacy","1024","2","48000","-16","experiment","SSHSS","4","even","6887","NA","NA","26622","1493","NA","NA","41864","1496","NA","NA","40766","41966","42453","41861","41966","New experiment","18","10048","21","yes","1024"
"86.3636363636","86.3636363636","483.590909091","483.590909091","black","legacy","legacy","legacy","0","incongruent","uniform","1","undefined","1","h","0","0","0","21","0","21","0","21","0","0","0","21","21","21","21","21","09/27/20 21:58:42","1500","Flanker Task","yes","flankertasksubmission.osexp","C:\Users\User\Desktop\Quant 2020 - Copy","no","mono","no","18","no","white","no","no","768","legacy","21","21","C:/Users/User/Desktop/Quant 2020 - Copy/GT-subject-4.csv","legacy","Lentiform Loewenfeld","3.3.3","0","h","NA","h","NA","NA","h","591","NA","5390","NA","NA","591","2","legacy","1024","2","48000","-16","experiment","SSHSS","4","even","6887","NA","NA","42458","1493","NA","NA","44056","1496","NA","NA","42960","44158","44751","44053","44158","New experiment","19","10639","22","yes","1024"
"86.9565217391","86.9565217391","484","484","black","legacy","legacy","legacy","0","incongruent","uniform","1","undefined","1","s","0","0","0","22","0","22","0","22","0","0","0","22","22","22","22","22","09/27/20 21:58:42","1500","Flanker Task","yes","flankertasksubmission.osexp","C:\Users\User\Desktop\Quant 2020 - Copy","no","mono","no","18","no","white","no","no","768","legacy","22","22","C:/Users/User/Desktop/Quant 2020 - Copy/GT-subject-4.csv","legacy","Lentiform Loewenfeld","3.3.3","0","s","NA","h","NA","NA","s","493","NA","5390","NA","NA","493","2","legacy","1024","2","48000","-16","experiment","HHSHH","4","even","6887","NA","NA","42458","1493","NA","NA","45855","1496","NA","NA","44756","45957","46451","45852","45957","New experiment","20","11132","23","yes","1024"
"87.5","87.5","485.75","485.75","black","legacy","legacy","legacy","0","incongruent","uniform","1","undefined","1","s","0","0","0","23","0","23","0","23","0","0","0","23","23","23","23","23","09/27/20 21:58:42","1500","Flanker Task","yes","flankertasksubmission.osexp","C:\Users\User\Desktop\Quant 2020 - Copy","no","mono","no","18","no","white","no","no","768","legacy","23","23","C:/Users/User/Desktop/Quant 2020 - Copy/GT-subject-4.csv","legacy","Lentiform Loewenfeld","3.3.3","0","s","NA","h","NA","NA","s","526","NA","5390","NA","NA","526","2","legacy","1024","2","48000","-16","experiment","HHSHH","4","even","6887","NA","NA","42458","1493","NA","NA","47556","1496","NA","NA","46456","47658","48184","47553","47658","New experiment","21","11658","24","yes","1024"
"88","88","493.8","493.8","black","legacy","legacy","legacy","0","incongruent","uniform","1","undefined","1","s","0","0","0","24","0","24","0","24","0","0","0","24","24","24","24","24","09/27/20 21:58:42","1500","Flanker Task","yes","flankertasksubmission.osexp","C:\Users\User\Desktop\Quant 2020 - Copy","no","mono","no","18","no","white","no","no","768","legacy","24","24","C:/Users/User/Desktop/Quant 2020 - Copy/GT-subject-4.csv","legacy","Lentiform Loewenfeld","3.3.3","0","s","NA","h","NA","NA","s","687","NA","5390","NA","NA","687","2","legacy","1024","2","48000","-16","experiment","HHSHH","4","even","6887","NA","NA","42458","1493","NA","NA","49288","1496","NA","NA","48190","49390","50077","49285","49390","New experiment","22","12345","25","yes","1024"
"84.6153846154","84.6153846154","487.923076923","487.923076923","black","legacy","legacy","legacy","0","congruent","uniform","0","undefined","0","h","0","0","0","25","0","25","0","25","0","0","0","25","25","25","25","25","09/27/20 21:58:42","1500","Flanker Task","yes","flankertasksubmission.osexp","C:\Users\User\Desktop\Quant 2020 - Copy","no","mono","no","18","no","white","no","no","768","legacy","25","25","C:/Users/User/Desktop/Quant 2020 - Copy/GT-subject-4.csv","legacy","Lentiform Loewenfeld","3.3.3","0","s","NA","h","NA","NA","s","341","NA","5390","NA","NA","341","2","legacy","1024","2","48000","-16","experiment","HHHHH","4","even","6887","NA","NA","42458","1493","NA","NA","51210","1496","NA","NA","50083","51312","51654","51206","51312","New experiment","22","12686","26","yes","1024"
"85.1851851852","85.1851851852","494.888888889","494.888888889","black","legacy","legacy","legacy","0","congruent","uniform","1","undefined","1","s","0","0","0","26","0","26","0","26","0","0","0","26","26","26","26","26","09/27/20 21:58:42","1500","Flanker Task","yes","flankertasksubmission.osexp","C:\Users\User\Desktop\Quant 2020 - Copy","no","mono","no","18","no","white","no","no","768","legacy","26","26","C:/Users/User/Desktop/Quant 2020 - Copy/GT-subject-4.csv","legacy","Lentiform Loewenfeld","3.3.3","0","s","NA","h","NA","NA","s","676","NA","5390","NA","NA","676","2","legacy","1024","2","48000","-16","experiment","SSSSS","4","even","6887","NA","NA","51659","1493","NA","NA","53269","1496","NA","NA","52161","53371","54048","53265","53371","New experiment","23","13362","27","yes","1024"
"85.7142857143","85.7142857143","492.321428571","492.321428571","black","legacy","legacy","legacy","0","congruent","uniform","1","undefined","1","h","0","0","0","27","0","27","0","27","0","0","0","27","27","27","27","27","09/27/20 21:58:42","1500","Flanker Task","yes","flankertasksubmission.osexp","C:\Users\User\Desktop\Quant 2020 - Copy","no","mono","no","18","no","white","no","no","768","legacy","27","27","C:/Users/User/Desktop/Quant 2020 - Copy/GT-subject-4.csv","legacy","Lentiform Loewenfeld","3.3.3","0","h","NA","h","NA","NA","h","423","NA","5390","NA","NA","423","2","legacy","1024","2","48000","-16","experiment","HHHHH","4","even","6887","NA","NA","51659","1493","NA","NA","55159","1496","NA","NA","54054","55261","55684","55156","55261","New experiment","24","13785","28","yes","1024"
"86.2068965517","86.2068965517","490.965517241","490.965517241","black","legacy","legacy","legacy","0","congruent","uniform","1","undefined","1","h","0","0","0","28","0","28","0","28","0","0","0","28","28","28","28","28","09/27/20 21:58:42","1500","Flanker Task","yes","flankertasksubmission.osexp","C:\Users\User\Desktop\Quant 2020 - Copy","no","mono","no","18","no","white","no","no","768","legacy","28","28","C:/Users/User/Desktop/Quant 2020 - Copy/GT-subject-4.csv","legacy","Lentiform Loewenfeld","3.3.3","0","h","NA","h","NA","NA","h","453","NA","5390","NA","NA","453","2","legacy","1024","2","48000","-16","experiment","HHHHH","4","even","6887","NA","NA","51659","1493","NA","NA","56790","1496","NA","NA","55690","56892","57345","56787","56892","New experiment","25","14238","29","yes","1024"
"86.6666666667","86.6666666667","494.566666667","494.566666667","black","legacy","legacy","legacy","0","congruent","uniform","1","undefined","1","s","0","0","0","29","0","29","0","29","0","0","0","29","29","29","29","29","09/27/20 21:58:42","1500","Flanker Task","yes","flankertasksubmission.osexp","C:\Users\User\Desktop\Quant 2020 - Copy","no","mono","no","18","no","white","no","no","768","legacy","29","29","C:/Users/User/Desktop/Quant 2020 - Copy/GT-subject-4.csv","legacy","Lentiform Loewenfeld","3.3.3","0","s","NA","h","NA","NA","s","599","NA","5390","NA","NA","599","2","legacy","1024","2","48000","-16","experiment","SSSSS","4","even","6887","NA","NA","51659","1493","NA","NA","58473","1496","NA","NA","57351","58576","59176","58470","58576","New experiment","26","14837","30","yes","1024"
"87.0967741935","87.0967741935","497.064516129","497.064516129","black","legacy","legacy","legacy","0","incongruent","uniform","1","undefined","1","h","0","0","0","30","0","30","0","30","0","0","0","30","30","30","30","30","09/27/20 21:58:42","1500","Flanker Task","yes","flankertasksubmission.osexp","C:\Users\User\Desktop\Quant 2020 - Copy","no","mono","no","18","no","white","no","no","768","legacy","30","30","C:/Users/User/Desktop/Quant 2020 - Copy/GT-subject-4.csv","legacy","Lentiform Loewenfeld","3.3.3","0","h","NA","h","NA","NA","h","572","NA","5390","NA","NA","572","2","legacy","1024","2","48000","-16","experiment","SSHSS","4","even","6887","NA","NA","51659","1493","NA","NA","60281","1496","NA","NA","59181","60383","60956","60278","60383","New experiment","27","15409","31","yes","1024"
"87.5","87.5","500.90625","500.90625","black","legacy","legacy","legacy","0","incongruent","uniform","1","undefined","1","s","0","0","0","31","0","31","0","31","0","0","0","31","31","31","31","31","09/27/20 21:58:42","1500","Flanker Task","yes","flankertasksubmission.osexp","C:\Users\User\Desktop\Quant 2020 - Copy","no","mono","no","18","no","white","no","no","768","legacy","31","31","C:/Users/User/Desktop/Quant 2020 - Copy/GT-subject-4.csv","legacy","Lentiform Loewenfeld","3.3.3","0","s","NA","h","NA","NA","s","620","NA","5390","NA","NA","620","2","legacy","1024","2","48000","-16","experiment","HHSHH","4","even","6887","NA","NA","51659","1493","NA","NA","62062","1496","NA","NA","60962","62164","62785","62058","62164","New experiment","28","16029","32","yes","1024"
"87.8787878788","87.8787878788","503.060606061","503.060606061","black","legacy","legacy","legacy","0","congruent","uniform","1","undefined","1","h","0","0","0","32","0","32","0","32","0","0","0","32","32","32","32","32","09/27/20 21:58:42","1500","Flanker Task","yes","flankertasksubmission.osexp","C:\Users\User\Desktop\Quant 2020 - Copy","no","mono","no","18","no","white","no","no","768","legacy","32","32","C:/Users/User/Desktop/Quant 2020 - Copy/GT-subject-4.csv","legacy","Lentiform Loewenfeld","3.3.3","0","h","NA","h","NA","NA","h","572","NA","5390","NA","NA","572","2","legacy","1024","2","48000","-16","experiment","HHHHH","4","even","6887","NA","NA","51659","1493","NA","NA","63939","1496","NA","NA","62790","64045","64617","63936","64044","New experiment","29","16601","33","yes","1024"
"88.2352941176","88.2352941176","505.382352941","505.382352941","black","legacy","legacy","legacy","0","incongruent","uniform","1","undefined","1","h","0","0","0","33","0","33","0","33","0","0","0","33","33","33","33","33","09/27/20 21:58:42","1500","Flanker Task","yes","flankertasksubmission.osexp","C:\Users\User\Desktop\Quant 2020 - Copy","no","mono","no","18","no","white","no","no","768","legacy","33","33","C:/Users/User/Desktop/Quant 2020 - Copy/GT-subject-4.csv","legacy","Lentiform Loewenfeld","3.3.3","0","h","NA","h","NA","NA","h","582","NA","5390","NA","NA","582","2","legacy","1024","2","48000","-16","experiment","SSHSS","4","even","6887","NA","NA","51659","1493","NA","NA","65782","1496","NA","NA","64623","65890","66473","65779","65890","New experiment","30","17183","34","yes","1024"
"88.5714285714","88.5714285714","505.971428571","505.971428571","black","legacy","legacy","legacy","0","incongruent","uniform","1","undefined","1","h","0","0","0","34","0","34","0","34","0","0","0","34","34","34","34","34","09/27/20 21:58:42","1500","Flanker Task","yes","flankertasksubmission.osexp","C:\Users\User\Desktop\Quant 2020 - Copy","no","mono","no","18","no","white","no","no","768","legacy","34","34","C:/Users/User/Desktop/Quant 2020 - Copy/GT-subject-4.csv","legacy","Lentiform Loewenfeld","3.3.3","0","h","NA","h","NA","NA","h","526","NA","5390","NA","NA","526","2","legacy","1024","2","48000","-16","experiment","SSHSS","4","even","6887","NA","NA","51659","1493","NA","NA","67604","1496","NA","NA","66480","67710","68236","67601","67710","New experiment","31","17709","35","yes","1024"
"88.8888888889","88.8888888889","512.666666667","512.666666667","black","legacy","legacy","legacy","0","congruent","uniform","1","undefined","1","s","0","0","0","35","0","35","0","35","0","0","0","35","35","35","35","35","09/27/20 21:58:42","1500","Flanker Task","yes","flankertasksubmission.osexp","C:\Users\User\Desktop\Quant 2020 - Copy","no","mono","no","18","no","white","no","no","768","legacy","35","35","C:/Users/User/Desktop/Quant 2020 - Copy/GT-subject-4.csv","legacy","Lentiform Loewenfeld","3.3.3","0","s","NA","h","NA","NA","s","747","NA","5390","NA","NA","747","2","legacy","1024","2","48000","-16","experiment","SSSSS","4","even","6887","NA","NA","51659","1493","NA","NA","69401","1496","NA","NA","68242","69507","70256","69398","69506","New experiment","32","18456","36","yes","1024"
"89.1891891892","89.1891891892","514.756756757","514.756756757","black","legacy","legacy","legacy","0","incongruent","uniform","1","undefined","1","h","0","0","0","36","0","36","0","36","0","0","0","36","36","36","36","36","09/27/20 21:58:42","1500","Flanker Task","yes","flankertasksubmission.osexp","C:\Users\User\Desktop\Quant 2020 - Copy","no","mono","no","18","no","white","no","no","768","legacy","36","36","C:/Users/User/Desktop/Quant 2020 - Copy/GT-subject-4.csv","legacy","Lentiform Loewenfeld","3.3.3","0","h","NA","h","NA","NA","h","590","NA","5390","NA","NA","590","2","legacy","1024","2","48000","-16","experiment","SSHSS","4","even","6887","NA","NA","51659","1493","NA","NA","71410","1496","NA","NA","70263","71516","72107","71407","71515","New experiment","33","19046","37","yes","1024"
"89.4736842105","89.4736842105","514.5","514.5","black","legacy","legacy","legacy","0","congruent","uniform","1","undefined","1","s","0","0","0","37","0","37","0","37","0","0","0","37","37","37","37","37","09/27/20 21:58:42","1500","Flanker Task","yes","flankertasksubmission.osexp","C:\Users\User\Desktop\Quant 2020 - Copy","no","mono","no","18","no","white","no","no","768","legacy","37","37","C:/Users/User/Desktop/Quant 2020 - Copy/GT-subject-4.csv","legacy","Lentiform Loewenfeld","3.3.3","0","s","NA","h","NA","NA","s","505","NA","5390","NA","NA","505","2","legacy","1024","2","48000","-16","experiment","SSSSS","4","even","6887","NA","NA","51659","1493","NA","NA","73246","1496","NA","NA","72113","73353","73859","73243","73352","New experiment","34","19551","38","yes","1024"
"89.7435897436","89.7435897436","516.871794872","516.871794872","black","legacy","legacy","legacy","0","incongruent","uniform","1","undefined","1","s","0","0","0","38","0","38","0","38","0","0","0","38","38","38","38","38","09/27/20 21:58:42","1500","Flanker Task","yes","flankertasksubmission.osexp","C:\Users\User\Desktop\Quant 2020 - Copy","no","mono","no","18","no","white","no","no","768","legacy","38","38","C:/Users/User/Desktop/Quant 2020 - Copy/GT-subject-4.csv","legacy","Lentiform Loewenfeld","3.3.3","0","s","NA","h","NA","NA","s","607","NA","5390","NA","NA","607","2","legacy","1024","2","48000","-16","experiment","HHSHH","4","even","6887","NA","NA","51659","1493","NA","NA","75005","1496","NA","NA","73865","75112","75735","75002","75111","New experiment","35","20158","39","yes","1024"
"90","90","530.3","530.3","black","legacy","legacy","legacy","0","incongruent","uniform","1","undefined","1","s","0","0","0","39","0","39","0","39","0","0","0","39","39","39","39","39","09/27/20 21:58:42","1500","Flanker Task","yes","flankertasksubmission.osexp","C:\Users\User\Desktop\Quant 2020 - Copy","no","mono","no","18","no","white","no","no","768","legacy","39","39","C:/Users/User/Desktop/Quant 2020 - Copy/GT-subject-4.csv","legacy","Lentiform Loewenfeld","3.3.3","0","s","NA","h","NA","NA","s","1054","NA","5390","NA","NA","1054","2","legacy","1024","2","48000","-16","experiment","HHSHH","4","even","6887","NA","NA","51659","1493","NA","NA","76924","1496","NA","NA","75773","77030","78085","76921","77029","New experiment","36","21212","40","yes","1024"
"90.243902439","90.243902439","538.170731707","538.170731707","black","legacy","legacy","legacy","0","incongruent","uniform","1","undefined","1","s","0","0","0","40","0","40","0","40","0","0","0","40","40","40","40","40","09/27/20 21:58:42","1500","Flanker Task","yes","flankertasksubmission.osexp","C:\Users\User\Desktop\Quant 2020 - Copy","no","mono","no","18","no","white","no","no","768","legacy","40","40","C:/Users/User/Desktop/Quant 2020 - Copy/GT-subject-4.csv","legacy","Lentiform Loewenfeld","3.3.3","0","s","NA","h","NA","NA","s","853","NA","5390","NA","NA","853","2","legacy","1024","2","48000","-16","experiment","HHSHH","4","even","6887","NA","NA","51659","1493","NA","NA","79233","1496","NA","NA","78091","79339","80196","79230","79338","New experiment","37","22065","41","yes","1024"
"90.4761904762","90.4761904762","539.380952381","539.380952381","black","legacy","legacy","legacy","0","incongruent","uniform","1","undefined","1","h","0","0","0","41","0","41","0","41","0","0","0","41","41","41","41","41","09/27/20 21:58:42","1500","Flanker Task","yes","flankertasksubmission.osexp","C:\Users\User\Desktop\Quant 2020 - Copy","no","mono","no","18","no","white","no","no","768","legacy","41","41","C:/Users/User/Desktop/Quant 2020 - Copy/GT-subject-4.csv","legacy","Lentiform Loewenfeld","3.3.3","0","h","NA","h","NA","NA","h","589","NA","5390","NA","NA","589","2","legacy","1024","2","48000","-16","experiment","SSHSS","4","even","6887","NA","NA","51659","1493","NA","NA","81366","1496","NA","NA","80211","81472","82062","81363","81471","New experiment","38","22654","42","yes","1024"
"90.6976744186","90.6976744186","536.790697674","536.790697674","black","legacy","legacy","legacy","0","congruent","uniform","1","undefined","1","s","0","0","0","42","0","42","0","42","0","0","0","42","42","42","42","42","09/27/20 21:58:42","1500","Flanker Task","yes","flankertasksubmission.osexp","C:\Users\User\Desktop\Quant 2020 - Copy","no","mono","no","18","no","white","no","no","768","legacy","42","42","C:/Users/User/Desktop/Quant 2020 - Copy/GT-subject-4.csv","legacy","Lentiform Loewenfeld","3.3.3","0","s","NA","h","NA","NA","s","428","NA","5390","NA","NA","428","2","legacy","1024","2","48000","-16","experiment","SSSSS","4","even","6887","NA","NA","51659","1493","NA","NA","83221","1496","NA","NA","82067","83326","83757","83217","83325","New experiment","39","23082","43","yes","1024"
"90.9090909091","90.9090909091","535.977272727","535.977272727","black","legacy","legacy","legacy","0","congruent","uniform","1","undefined","1","h","0","0","0","43","0","43","0","43","0","0","0","43","43","43","43","43","09/27/20 21:58:42","1500","Flanker Task","yes","flankertasksubmission.osexp","C:\Users\User\Desktop\Quant 2020 - Copy","no","mono","no","18","no","white","no","no","768","legacy","43","43","C:/Users/User/Desktop/Quant 2020 - Copy/GT-subject-4.csv","legacy","Lentiform Loewenfeld","3.3.3","0","h","NA","h","NA","NA","h","501","NA","5390","NA","NA","501","2","legacy","1024","2","48000","-16","experiment","HHHHH","4","even","6887","NA","NA","51659","1493","NA","NA","84924","1496","NA","NA","83767","85030","85534","84921","85029","New experiment","40","23583","44","yes","1024"
"91.1111111111","91.1111111111","538.6","538.6","black","legacy","legacy","legacy","0","congruent","uniform","1","undefined","1","s","0","0","0","44","0","44","0","44","0","0","0","44","44","44","44","44","09/27/20 21:58:42","1500","Flanker Task","yes","flankertasksubmission.osexp","C:\Users\User\Desktop\Quant 2020 - Copy","no","mono","no","18","no","white","no","no","768","legacy","44","44","C:/Users/User/Desktop/Quant 2020 - Copy/GT-subject-4.csv","legacy","Lentiform Loewenfeld","3.3.3","0","s","NA","h","NA","NA","s","654","NA","5390","NA","NA","654","2","legacy","1024","2","48000","-16","experiment","SSSSS","4","even","6887","NA","NA","51659","1493","NA","NA","86709","1496","NA","NA","85544","86815","87477","86706","86815","New experiment","41","24237","45","yes","1024"
"91.3043478261","91.3043478261","543.782608696","543.782608696","black","legacy","legacy","legacy","0","incongruent","uniform","1","undefined","1","s","0","0","0","45","0","45","0","45","0","0","0","45","45","45","45","45","09/27/20 21:58:42","1500","Flanker Task","yes","flankertasksubmission.osexp","C:\Users\User\Desktop\Quant 2020 - Copy","no","mono","no","18","no","white","no","no","768","legacy","45","45","C:/Users/User/Desktop/Quant 2020 - Copy/GT-subject-4.csv","legacy","Lentiform Loewenfeld","3.3.3","0","s","NA","h","NA","NA","s","777","NA","5390","NA","NA","777","2","legacy","1024","2","48000","-16","experiment","HHSHH","4","even","6887","NA","NA","51659","1493","NA","NA","88890","1496","NA","NA","87498","88996","89777","88884","88996","New experiment","42","25014","46","yes","1024"
"91.4893617021","91.4893617021","550.617021277","550.617021277","black","legacy","legacy","legacy","0","incongruent","uniform","1","undefined","1","h","0","0","0","46","0","46","0","46","0","0","0","46","46","46","46","46","09/27/20 21:58:42","1500","Flanker Task","yes","flankertasksubmission.osexp","C:\Users\User\Desktop\Quant 2020 - Copy","no","mono","no","18","no","white","no","no","768","legacy","46","46","C:/Users/User/Desktop/Quant 2020 - Copy/GT-subject-4.csv","legacy","Lentiform Loewenfeld","3.3.3","0","h","NA","h","NA","NA","h","865","NA","5390","NA","NA","865","2","legacy","1024","2","48000","-16","experiment","SSHSS","4","even","6887","NA","NA","51659","1493","NA","NA","91147","1496","NA","NA","89787","91253","92126","91142","91252","New experiment","43","25879","47","yes","1024"
"91.6666666667","91.6666666667","557","557","black","legacy","legacy","legacy","0","incongruent","uniform","1","undefined","1","s","0","0","0","47","0","47","0","47","0","0","0","47","47","47","47","47","09/27/20 21:58:42","1500","Flanker Task","yes","flankertasksubmission.osexp","C:\Users\User\Desktop\Quant 2020 - Copy","no","mono","no","18","no","white","no","no","768","legacy","47","47","C:/Users/User/Desktop/Quant 2020 - Copy/GT-subject-4.csv","legacy","Lentiform Loewenfeld","3.3.3","0","s","NA","h","NA","NA","s","857","NA","5390","NA","NA","857","2","legacy","1024","2","48000","-16","experiment","HHSHH","4","even","6887","NA","NA","51659","1493","NA","NA","93460","1496","NA","NA","92148","93566","94428","93455","93565","New experiment","44","26736","48","yes","1024"
"91.8367346939","91.8367346939","563.836734694","563.836734694","black","legacy","legacy","legacy","0","congruent","uniform","1","undefined","1","s","0","0","0","48","0","48","0","48","0","0","0","48","48","48","48","48","09/27/20 21:58:42","1500","Flanker Task","yes","flankertasksubmission.osexp","C:\Users\User\Desktop\Quant 2020 - Copy","no","mono","no","18","no","white","no","no","768","legacy","48","48","C:/Users/User/Desktop/Quant 2020 - Copy/GT-subject-4.csv","legacy","Lentiform Loewenfeld","3.3.3","0","s","NA","h","NA","NA","s","892","NA","5390","NA","NA","892","2","legacy","1024","2","48000","-16","experiment","SSSSS","4","even","6887","NA","NA","51659","1493","NA","NA","95833","1496","NA","NA","94438","95939","96840","95826","95938","New experiment","45","27628","49","yes","1024"
"92","92","565.56","565.56","black","legacy","legacy","legacy","0","incongruent","uniform","1","undefined","1","s","0","0","0","49","0","49","0","49","0","0","0","49","49","49","49","49","09/27/20 21:58:42","1500","Flanker Task","yes","flankertasksubmission.osexp","C:\Users\User\Desktop\Quant 2020 - Copy","no","mono","no","18","no","white","no","no","768","legacy","49","49","C:/Users/User/Desktop/Quant 2020 - Copy/GT-subject-4.csv","legacy","Lentiform Loewenfeld","3.3.3","0","s","NA","h","NA","NA","s","650","NA","5390","NA","NA","650","2","legacy","1024","2","48000","-16","experiment","HHSHH","4","even","6887","NA","NA","51659","1493","NA","NA","98258","1496","NA","NA","96863","98364","99017","98254","98364","New experiment","46","28278","50","yes","1024"
"90.1960784314","90.1960784314","574.588235294","574.588235294","black","legacy","legacy","legacy","0","incongruent","uniform","0","undefined","0","h","0","0","0","50","0","50","0","50","0","0","0","50","50","50","50","50","09/27/20 21:58:42","1500","Flanker Task","yes","flankertasksubmission.osexp","C:\Users\User\Desktop\Quant 2020 - Copy","no","mono","no","18","no","white","no","no","768","legacy","50","50","C:/Users/User/Desktop/Quant 2020 - Copy/GT-subject-4.csv","legacy","Lentiform Loewenfeld","3.3.3","0","s","NA","h","NA","NA","s","1026","NA","5390","NA","NA","1026","2","legacy","1024","2","48000","-16","experiment","SSHSS","4","even","6887","NA","NA","51659","1493","NA","NA","100222","1496","NA","NA","99031","100329","101366","100219","100328","New experiment","46","29304","51","yes","1024"
"90.3846153846","90.3846153846","577.865384615","577.865384615","black","legacy","legacy","legacy","0","congruent","uniform","1","undefined","1","h","0","0","0","51","0","51","0","51","0","0","0","51","51","51","51","51","09/27/20 21:58:42","1500","Flanker Task","yes","flankertasksubmission.osexp","C:\Users\User\Desktop\Quant 2020 - Copy","no","mono","no","18","no","white","no","no","768","legacy","51","51","C:/Users/User/Desktop/Quant 2020 - Copy/GT-subject-4.csv","legacy","Lentiform Loewenfeld","3.3.3","0","h","NA","h","NA","NA","h","745","NA","5390","NA","NA","745","2","legacy","1024","2","48000","-16","experiment","HHHHH","4","even","6887","NA","NA","101388","1493","NA","NA","103039","1496","NA","NA","101895","103145","103891","103035","103144","New experiment","47","30049","52","yes","1024"
"90.5660377358","90.5660377358","577.716981132","577.716981132","black","legacy","legacy","legacy","0","incongruent","uniform","1","undefined","1","s","0","0","0","52","0","52","0","52","0","0","0","52","52","52","52","52","09/27/20 21:58:42","1500","Flanker Task","yes","flankertasksubmission.osexp","C:\Users\User\Desktop\Quant 2020 - Copy","no","mono","no","18","no","white","no","no","768","legacy","52","52","C:/Users/User/Desktop/Quant 2020 - Copy/GT-subject-4.csv","legacy","Lentiform Loewenfeld","3.3.3","0","s","NA","h","NA","NA","s","570","NA","5390","NA","NA","570","2","legacy","1024","2","48000","-16","experiment","HHSHH","4","even","6887","NA","NA","101388","1493","NA","NA","105052","1496","NA","NA","103896","105158","105738","105045","105157","New experiment","48","30619","53","yes","1024"
"90.7407407407","90.7407407407","577.092592593","577.092592593","black","legacy","legacy","legacy","0","congruent","uniform","1","undefined","1","s","0","0","0","53","0","53","0","53","0","0","0","53","53","53","53","53","09/27/20 21:58:42","1500","Flanker Task","yes","flankertasksubmission.osexp","C:\Users\User\Desktop\Quant 2020 - Copy","no","mono","no","18","no","white","no","no","768","legacy","53","53","C:/Users/User/Desktop/Quant 2020 - Copy/GT-subject-4.csv","legacy","Lentiform Loewenfeld","3.3.3","0","s","NA","h","NA","NA","s","544","NA","5390","NA","NA","544","2","legacy","1024","2","48000","-16","experiment","SSSSS","4","even","6887","NA","NA","101388","1493","NA","NA","106958","1496","NA","NA","105752","107065","107611","106955","107064","New experiment","49","31163","54","yes","1024"
"90.9090909091","90.9090909091","575.781818182","575.781818182","black","legacy","legacy","legacy","0","congruent","uniform","1","undefined","1","s","0","0","0","54","0","54","0","54","0","0","0","54","54","54","54","54","09/27/20 21:58:42","1500","Flanker Task","yes","flankertasksubmission.osexp","C:\Users\User\Desktop\Quant 2020 - Copy","no","mono","no","18","no","white","no","no","768","legacy","54","54","C:/Users/User/Desktop/Quant 2020 - Copy/GT-subject-4.csv","legacy","Lentiform Loewenfeld","3.3.3","0","s","NA","h","NA","NA","s","505","NA","5390","NA","NA","505","2","legacy","1024","2","48000","-16","experiment","SSSSS","4","even","6887","NA","NA","101388","1493","NA","NA","108757","1496","NA","NA","107620","108863","109394","108754","108862","New experiment","50","31668","55","yes","1024"
"91.0714285714","91.0714285714","574.821428571","574.821428571","black","legacy","legacy","legacy","0","congruent","uniform","1","undefined","1","h","0","0","0","55","0","55","0","55","0","0","0","55","55","55","55","55","09/27/20 21:58:42","1500","Flanker Task","yes","flankertasksubmission.osexp","C:\Users\User\Desktop\Quant 2020 - Copy","no","mono","no","18","no","white","no","no","768","legacy","55","55","C:/Users/User/Desktop/Quant 2020 - Copy/GT-subject-4.csv","legacy","Lentiform Loewenfeld","3.3.3","0","h","NA","h","NA","NA","h","522","NA","5390","NA","NA","522","2","legacy","1024","2","48000","-16","experiment","HHHHH","4","even","6887","NA","NA","101388","1493","NA","NA","110544","1496","NA","NA","109417","110651","111174","110541","110651","New experiment","51","32190","56","yes","1024"
"89.4736842105","89.4736842105","591.070175439","591.070175439","black","legacy","legacy","legacy","0","incongruent","uniform","0","undefined","0","s","0","0","0","56","0","56","0","56","0","0","0","56","56","56","56","56","09/27/20 21:58:42","1500","Flanker Task","yes","flankertasksubmission.osexp","C:\Users\User\Desktop\Quant 2020 - Copy","no","mono","no","18","no","white","no","no","768","legacy","56","56","C:/Users/User/Desktop/Quant 2020 - Copy/GT-subject-4.csv","legacy","Lentiform Loewenfeld","3.3.3","0","None","NA","h","NA","NA","None","1501","NA","5390","NA","NA","1501","2","legacy","1024","2","48000","-16","experiment","HHSHH","4","even","6887","NA","NA","101388","1493","NA","NA","112324","1496","NA","NA","111180","112430","113932","112321","112430","New experiment","51","33691","57","yes","1024"
"89.6551724138","89.6551724138","591.913793103","591.913793103","black","legacy","legacy","legacy","0","incongruent","uniform","1","undefined","1","h","0","0","0","57","0","57","0","57","0","0","0","57","57","57","57","57","09/27/20 21:58:42","1500","Flanker Task","yes","flankertasksubmission.osexp","C:\Users\User\Desktop\Quant 2020 - Copy","no","mono","no","18","no","white","no","no","768","legacy","57","57","C:/Users/User/Desktop/Quant 2020 - Copy/GT-subject-4.csv","legacy","Lentiform Loewenfeld","3.3.3","0","h","NA","h","NA","NA","h","640","NA","5390","NA","NA","640","2","legacy","1024","2","48000","-16","experiment","SSHSS","4","even","6887","NA","NA","113938","1493","114444","NA","116085","1496","NA","NA","114951","116191","116833","116082","116190","New experiment","52","34331","58","yes","1024"
"89.8305084746","89.8305084746","590.881355932","590.881355932","black","legacy","legacy","legacy","0","congruent","uniform","1","undefined","1","h","0","0","0","58","0","58","0","58","0","0","0","58","58","58","58","58","09/27/20 21:58:42","1500","Flanker Task","yes","flankertasksubmission.osexp","C:\Users\User\Desktop\Quant 2020 - Copy","no","mono","no","18","no","white","no","no","768","legacy","58","58","C:/Users/User/Desktop/Quant 2020 - Copy/GT-subject-4.csv","legacy","Lentiform Loewenfeld","3.3.3","0","h","NA","h","NA","NA","h","531","NA","5390","NA","NA","531","2","legacy","1024","2","48000","-16","experiment","HHHHH","4","even","6887","NA","NA","113938","1493","114444","NA","117990","1496","NA","NA","116838","118097","118629","117987","118096","New experiment","53","34862","59","yes","1024"
"90","90","593.016666667","593.016666667","black","legacy","legacy","legacy","0","congruent","uniform","1","undefined","1","h","0","0","0","59","0","59","0","59","0","0","0","59","59","59","59","59","09/27/20 21:58:42","1500","Flanker Task","yes","flankertasksubmission.osexp","C:\Users\User\Desktop\Quant 2020 - Copy","no","mono","no","18","no","white","no","no","768","legacy","59","59","C:/Users/User/Desktop/Quant 2020 - Copy/GT-subject-4.csv","legacy","Lentiform Loewenfeld","3.3.3","0","h","NA","h","NA","NA","h","719","NA","5390","NA","NA","719","2","legacy","1024","2","48000","-16","experiment","HHHHH","4","even","6887","NA","NA","113938","1493","114444","NA","119772","1496","NA","NA","118635","119878","120598","119768","119877","New experiment","54","35581","60","yes","1024"
"90.1639344262","90.1639344262","590.62295082","590.62295082","black","legacy","legacy","legacy","0","congruent","uniform","1","undefined","1","s","0","0","0","60","0","60","0","60","0","0","0","60","60","60","60","60","09/27/20 21:58:42","1500","Flanker Task","yes","flankertasksubmission.osexp","C:\Users\User\Desktop\Quant 2020 - Copy","no","mono","no","18","no","white","no","no","768","legacy","60","60","C:/Users/User/Desktop/Quant 2020 - Copy/GT-subject-4.csv","legacy","Lentiform Loewenfeld","3.3.3","0","s","NA","h","NA","NA","s","447","NA","5390","NA","NA","447","2","legacy","1024","2","48000","-16","experiment","SSSSS","4","even","6887","NA","NA","113938","1493","114444","NA","121743","1496","NA","NA","120604","121849","122308","121740","121848","New experiment","55","36028","61","yes","1024"
"90.3225806452","90.3225806452","590.983870968","590.983870968","black","legacy","legacy","legacy","0","incongruent","uniform","1","undefined","1","h","0","0","0","61","0","61","0","61","0","0","0","61","61","61","61","61","09/27/20 21:58:42","1500","Flanker Task","yes","flankertasksubmission.osexp","C:\Users\User\Desktop\Quant 2020 - Copy","no","mono","no","18","no","white","no","no","768","legacy","61","61","C:/Users/User/Desktop/Quant 2020 - Copy/GT-subject-4.csv","legacy","Lentiform Loewenfeld","3.3.3","0","h","NA","h","NA","NA","h","613","NA","5390","NA","NA","613","2","legacy","1024","2","48000","-16","experiment","SSHSS","4","even","6887","NA","NA","113938","1493","114444","NA","123495","1496","NA","NA","122332","123601","124215","123492","123600","New experiment","56","36641","62","yes","1024"
"90.4761904762","90.4761904762","593.111111111","593.111111111","black","legacy","legacy","legacy","0","incongruent","uniform","1","undefined","1","s","0","0","0","62","0","62","0","62","0","0","0","62","62","62","62","62","09/27/20 21:58:42","1500","Flanker Task","yes","flankertasksubmission.osexp","C:\Users\User\Desktop\Quant 2020 - Copy","no","mono","no","18","no","white","no","no","768","legacy","62","62","C:/Users/User/Desktop/Quant 2020 - Copy/GT-subject-4.csv","legacy","Lentiform Loewenfeld","3.3.3","0","s","NA","h","NA","NA","s","725","NA","5390","NA","NA","725","2","legacy","1024","2","48000","-16","experiment","HHSHH","4","even","6887","NA","NA","113938","1493","114444","NA","125371","1496","NA","NA","124221","125477","126203","125368","125477","New experiment","57","37366","63","yes","1024"
"90.625","90.625","590.96875","590.96875","black","legacy","legacy","legacy","0","incongruent","uniform","1","undefined","1","s","0","0","0","63","0","63","0","63","0","0","0","63","63","63","63","63","09/27/20 21:58:42","1500","Flanker Task","yes","flankertasksubmission.osexp","C:\Users\User\Desktop\Quant 2020 - Copy","no","mono","no","18","no","white","no","no","768","legacy","63","63","C:/Users/User/Desktop/Quant 2020 - Copy/GT-subject-4.csv","legacy","Lentiform Loewenfeld","3.3.3","0","s","NA","h","NA","NA","s","456","NA","5390","NA","NA","456","2","legacy","1024","2","48000","-16","experiment","HHSHH","4","even","6887","NA","NA","113938","1493","114444","NA","127372","1496","NA","NA","126208","127479","127936","127369","127478","New experiment","58","37822","64","yes","1024"
"89.2307692308","89.2307692308","588.692307692","588.692307692","black","legacy","legacy","legacy","0","incongruent","uniform","0","undefined","0","h","0","0","0","64","0","64","0","64","0","0","0","64","64","64","64","64","09/27/20 21:58:42","1500","Flanker Task","yes","flankertasksubmission.osexp","C:\Users\User\Desktop\Quant 2020 - Copy","no","mono","no","18","no","white","no","no","768","legacy","64","64","C:/Users/User/Desktop/Quant 2020 - Copy/GT-subject-4.csv","legacy","Lentiform Loewenfeld","3.3.3","0","s","NA","h","NA","NA","s","443","NA","5390","NA","NA","443","2","legacy","1024","2","48000","-16","experiment","SSHSS","4","even","6887","NA","NA","113938","1493","114444","NA","129309","1496","NA","NA","127942","129415","129859","129303","129414","New experiment","58","38265","65","yes","1024"
"89.3939393939","89.3939393939","588.424242424","588.424242424","black","legacy","legacy","legacy","0","incongruent","uniform","1","undefined","1","s","0","0","0","65","0","65","0","65","0","0","0","65","65","65","65","65","09/27/20 21:58:42","1500","Flanker Task","yes","flankertasksubmission.osexp","C:\Users\User\Desktop\Quant 2020 - Copy","no","mono","no","18","no","white","no","no","768","legacy","65","65","C:/Users/User/Desktop/Quant 2020 - Copy/GT-subject-4.csv","legacy","Lentiform Loewenfeld","3.3.3","0","s","NA","h","NA","NA","s","571","NA","5390","NA","NA","571","2","legacy","1024","2","48000","-16","experiment","HHSHH","4","even","6887","NA","NA","129865","1493","114444","NA","131499","1496","NA","NA","130372","131605","132178","131496","131605","New experiment","59","38836","66","yes","1024"
"89.552238806","89.552238806","590.52238806","590.52238806","black","legacy","legacy","legacy","0","congruent","uniform","1","undefined","1","h","0","0","0","66","0","66","0","66","0","0","0","66","66","66","66","66","09/27/20 21:58:42","1500","Flanker Task","yes","flankertasksubmission.osexp","C:\Users\User\Desktop\Quant 2020 - Copy","no","mono","no","18","no","white","no","no","768","legacy","66","66","C:/Users/User/Desktop/Quant 2020 - Copy/GT-subject-4.csv","legacy","Lentiform Loewenfeld","3.3.3","0","h","NA","h","NA","NA","h","729","NA","5390","NA","NA","729","2","legacy","1024","2","48000","-16","experiment","HHHHH","4","even","6887","NA","NA","129865","1493","114444","NA","133329","1496","NA","NA","132183","133434","134165","133326","133434","New experiment","60","39565","67","yes","1024"
"89.7058823529","89.7058823529","593.985294118","593.985294118","black","legacy","legacy","legacy","0","congruent","uniform","1","undefined","1","s","0","0","0","67","0","67","0","67","0","0","0","67","67","67","67","67","09/27/20 21:58:42","1500","Flanker Task","yes","flankertasksubmission.osexp","C:\Users\User\Desktop\Quant 2020 - Copy","no","mono","no","18","no","white","no","no","768","legacy","67","67","C:/Users/User/Desktop/Quant 2020 - Copy/GT-subject-4.csv","legacy","Lentiform Loewenfeld","3.3.3","0","s","NA","h","NA","NA","s","826","NA","5390","NA","NA","826","2","legacy","1024","2","48000","-16","experiment","SSSSS","4","even","6887","NA","NA","129865","1493","114444","NA","135318","1496","NA","NA","134170","135425","136253","135311","135424","New experiment","61","40391","68","yes","1024"
"89.8550724638","89.8550724638","604.043478261","604.043478261","black","legacy","legacy","legacy","0","congruent","uniform","1","undefined","1","s","0","0","0","68","0","68","0","68","0","0","0","68","68","68","68","68","09/27/20 21:58:42","1500","Flanker Task","yes","flankertasksubmission.osexp","C:\Users\User\Desktop\Quant 2020 - Copy","no","mono","no","18","no","white","no","no","768","legacy","68","68","C:/Users/User/Desktop/Quant 2020 - Copy/GT-subject-4.csv","legacy","Lentiform Loewenfeld","3.3.3","0","s","NA","h","NA","NA","s","1288","NA","5390","NA","NA","1288","2","legacy","1024","2","48000","-16","experiment","SSSSS","4","even","6887","NA","NA","129865","1493","114444","NA","137401","1496","NA","NA","136258","137509","138798","137398","137509","New experiment","62","41679","69","yes","1024"
"90","90","605.457142857","605.457142857","black","legacy","legacy","legacy","0","incongruent","uniform","1","undefined","1","h","0","0","0","69","0","69","0","69","0","0","0","69","69","69","69","69","09/27/20 21:58:42","1500","Flanker Task","yes","flankertasksubmission.osexp","C:\Users\User\Desktop\Quant 2020 - Copy","no","mono","no","18","no","white","no","no","768","legacy","69","69","C:/Users/User/Desktop/Quant 2020 - Copy/GT-subject-4.csv","legacy","Lentiform Loewenfeld","3.3.3","0","h","NA","h","NA","NA","h","703","NA","5390","NA","NA","703","2","legacy","1024","2","48000","-16","experiment","SSHSS","4","even","6887","NA","NA","129865","1493","114444","NA","139932","1496","NA","NA","138803","140038","140742","139929","140038","New experiment","63","42382","70","yes","1024"
"90.1408450704","90.1408450704","606.422535211","606.422535211","black","legacy","legacy","legacy","0","congruent","uniform","1","undefined","1","h","0","0","0","70","0","70","0","70","0","0","0","70","70","70","70","70","09/27/20 21:58:42","1500","Flanker Task","yes","flankertasksubmission.osexp","C:\Users\User\Desktop\Quant 2020 - Copy","no","mono","no","18","no","white","no","no","768","legacy","70","70","C:/Users/User/Desktop/Quant 2020 - Copy/GT-subject-4.csv","legacy","Lentiform Loewenfeld","3.3.3","0","h","NA","h","NA","NA","h","674","NA","5390","NA","NA","674","2","legacy","1024","2","48000","-16","experiment","HHHHH","4","even","6887","NA","NA","129865","1493","114444","NA","141898","1496","NA","NA","140748","142004","142679","141895","142003","New experiment","64","43056","71","yes","1024"
"90.2777777778","90.2777777778","607.375","607.375","black","legacy","legacy","legacy","0","incongruent","uniform","1","undefined","1","h","0","0","0","71","0","71","0","71","0","0","0","71","71","71","71","71","09/27/20 21:58:42","1500","Flanker Task","yes","flankertasksubmission.osexp","C:\Users\User\Desktop\Quant 2020 - Copy","no","mono","no","18","no","white","no","no","768","legacy","71","71","C:/Users/User/Desktop/Quant 2020 - Copy/GT-subject-4.csv","legacy","Lentiform Loewenfeld","3.3.3","0","h","NA","h","NA","NA","h","675","NA","5390","NA","NA","675","2","legacy","1024","2","48000","-16","experiment","SSHSS","4","even","6887","NA","NA","129865","1493","114444","NA","143828","1496","NA","NA","142684","143935","144612","143825","143935","New experiment","65","43731","72","yes","1024"
"90.4109589041","90.4109589041","606.260273973","606.260273973","black","legacy","legacy","legacy","0","congruent","uniform","1","undefined","1","h","0","0","0","72","0","72","0","72","0","0","0","72","72","72","72","72","09/27/20 21:58:42","1500","Flanker Task","yes","flankertasksubmission.osexp","C:\Users\User\Desktop\Quant 2020 - Copy","no","mono","no","18","no","white","no","no","768","legacy","72","72","C:/Users/User/Desktop/Quant 2020 - Copy/GT-subject-4.csv","legacy","Lentiform Loewenfeld","3.3.3","0","h","NA","h","NA","NA","h","526","NA","5390","NA","NA","526","2","legacy","1024","2","48000","-16","experiment","HHHHH","4","even","6887","NA","NA","129865","1493","114444","NA","145732","1496","NA","NA","144617","145838","146366","145729","145837","New experiment","66","44257","73","yes","1024"
"90.5405405405","90.5405405405","605.283783784","605.283783784","black","legacy","legacy","legacy","0","congruent","uniform","1","undefined","1","s","0","0","0","73","0","73","0","73","0","0","0","73","73","73","73","73","09/27/20 21:58:42","1500","Flanker Task","yes","flankertasksubmission.osexp","C:\Users\User\Desktop\Quant 2020 - Copy","no","mono","no","18","no","white","no","no","768","legacy","73","73","C:/Users/User/Desktop/Quant 2020 - Copy/GT-subject-4.csv","legacy","Lentiform Loewenfeld","3.3.3","0","s","NA","h","NA","NA","s","534","NA","5390","NA","NA","534","2","legacy","1024","2","48000","-16","experiment","SSSSS","4","even","6887","NA","NA","129865","1493","114444","NA","147536","1496","NA","NA","146371","147641","148176","147533","147640","New experiment","67","44791","74","yes","1024"
"90.6666666667","90.6666666667","604.933333333","604.933333333","black","legacy","legacy","legacy","0","congruent","uniform","1","undefined","1","h","0","0","0","74","0","74","0","74","0","0","0","74","74","74","74","74","09/27/20 21:58:42","1500","Flanker Task","yes","flankertasksubmission.osexp","C:\Users\User\Desktop\Quant 2020 - Copy","no","mono","no","18","no","white","no","no","768","legacy","74","74","C:/Users/User/Desktop/Quant 2020 - Copy/GT-subject-4.csv","legacy","Lentiform Loewenfeld","3.3.3","0","h","NA","h","NA","NA","h","579","NA","5390","NA","NA","579","2","legacy","1024","2","48000","-16","experiment","HHHHH","4","even","6887","NA","NA","129865","1493","114444","NA","149316","1496","NA","NA","148182","149422","150002","149313","149422","New experiment","68","45370","75","yes","1024"
"90.7894736842","90.7894736842","604.078947368","604.078947368","black","legacy","legacy","legacy","0","incongruent","uniform","1","undefined","1","s","0","0","0","75","0","75","0","75","0","0","0","75","75","75","75","75","09/27/20 21:58:42","1500","Flanker Task","yes","flankertasksubmission.osexp","C:\Users\User\Desktop\Quant 2020 - Copy","no","mono","no","18","no","white","no","no","768","legacy","75","75","C:/Users/User/Desktop/Quant 2020 - Copy/GT-subject-4.csv","legacy","Lentiform Loewenfeld","3.3.3","0","s","NA","h","NA","NA","s","540","NA","5390","NA","NA","540","2","legacy","1024","2","48000","-16","experiment","HHSHH","4","even","6887","NA","NA","129865","1493","114444","NA","151146","1496","NA","NA","150008","151252","151793","151143","151251","New experiment","69","45910","76","yes","1024"
"90.9090909091","90.9090909091","605.077922078","605.077922078","black","legacy","legacy","legacy","0","congruent","uniform","1","undefined","1","h","0","0","0","76","0","76","0","76","0","0","0","76","76","76","76","76","09/27/20 21:58:42","1500","Flanker Task","yes","flankertasksubmission.osexp","C:\Users\User\Desktop\Quant 2020 - Copy","no","mono","no","18","no","white","no","no","768","legacy","76","76","C:/Users/User/Desktop/Quant 2020 - Copy/GT-subject-4.csv","legacy","Lentiform Loewenfeld","3.3.3","0","h","NA","h","NA","NA","h","681","NA","5390","NA","NA","681","2","legacy","1024","2","48000","-16","experiment","HHHHH","4","even","6887","NA","NA","129865","1493","114444","NA","152945","1496","NA","NA","151799","153050","153732","152942","153050","New experiment","70","46591","77","yes","1024"
"91.0256410256","91.0256410256","606.102564103","606.102564103","black","legacy","legacy","legacy","0","incongruent","uniform","1","undefined","1","h","0","0","0","77","0","77","0","77","0","0","0","77","77","77","77","77","09/27/20 21:58:42","1500","Flanker Task","yes","flankertasksubmission.osexp","C:\Users\User\Desktop\Quant 2020 - Copy","no","mono","no","18","no","white","no","no","768","legacy","77","77","C:/Users/User/Desktop/Quant 2020 - Copy/GT-subject-4.csv","legacy","Lentiform Loewenfeld","3.3.3","0","h","NA","h","NA","NA","h","685","NA","5390","NA","NA","685","2","legacy","1024","2","48000","-16","experiment","SSHSS","4","even","6887","NA","NA","129865","1493","114444","NA","154880","1496","NA","NA","153738","154987","155674","154877","154986","New experiment","71","47276","78","yes","1024"
"91.1392405063","91.1392405063","609.151898734","609.151898734","black","legacy","legacy","legacy","0","incongruent","uniform","1","undefined","1","h","0","0","0","78","0","78","0","78","0","0","0","78","78","78","78","78","09/27/20 21:58:42","1500","Flanker Task","yes","flankertasksubmission.osexp","C:\Users\User\Desktop\Quant 2020 - Copy","no","mono","no","18","no","white","no","no","768","legacy","78","78","C:/Users/User/Desktop/Quant 2020 - Copy/GT-subject-4.csv","legacy","Lentiform Loewenfeld","3.3.3","0","h","NA","h","NA","NA","h","847","NA","5390","NA","NA","847","2","legacy","1024","2","48000","-16","experiment","SSHSS","4","even","6887","NA","NA","129865","1493","114444","NA","156816","1496","NA","NA","155679","156923","157772","156813","156922","New experiment","72","48123","79","yes","1024"
"91.25","91.25","612.3875","612.3875","black","legacy","legacy","legacy","0","incongruent","uniform","1","undefined","1","s","0","0","0","79","0","79","0","79","0","0","0","79","79","79","79","79","09/27/20 21:58:42","1500","Flanker Task","yes","flankertasksubmission.osexp","C:\Users\User\Desktop\Quant 2020 - Copy","no","mono","no","18","no","white","no","no","768","legacy","79","79","C:/Users/User/Desktop/Quant 2020 - Copy/GT-subject-4.csv","legacy","Lentiform Loewenfeld","3.3.3","0","s","NA","h","NA","NA","s","868","NA","5390","NA","NA","868","2","legacy","1024","2","48000","-16","experiment","HHSHH","4","even","6887","NA","NA","129865","1493","114444","NA","158927","1496","NA","NA","157779","159034","159904","158924","159033","New experiment","73","48991","80","yes","1024"
"91.3580246914","91.3580246914","610.148148148","610.148148148","black","legacy","legacy","legacy","0","congruent","uniform","1","undefined","1","s","0","0","0","80","0","80","0","80","0","0","0","80","80","80","80","80","09/27/20 21:58:42","600","Flanker Task","yes","flankertasksubmission.osexp","C:\Users\User\Desktop\Quant 2020 - Copy","no","mono","no","18","no","white","no","no","768","legacy","0","79","C:/Users/User/Desktop/Quant 2020 - Copy/GT-subject-4.csv","legacy","Lentiform Loewenfeld","3.3.3","0","s","NA","h","s","NA","s","431","NA","5390","78401","NA","431","2","legacy","1024","2","48000","-16","experiment","SSSSS","4","even","6887","239357","NA","129865","1493","114444","NA","239478","1496","160954","NA","159909","239582","240014","239476","239581","New experiment","74","49422","81","yes","1024"
"91.4634146341","91.4634146341","607.597560976","607.597560976","black","legacy","legacy","legacy","0","incongruent","uniform","1","undefined","1","h","0","0","0","81","0","81","0","81","0","0","0","81","81","81","81","81","09/27/20 21:58:42","600","Flanker Task","yes","flankertasksubmission.osexp","C:\Users\User\Desktop\Quant 2020 - Copy","no","mono","no","18","no","white","no","no","768","legacy","1","79","C:/Users/User/Desktop/Quant 2020 - Copy/GT-subject-4.csv","legacy","Lentiform Loewenfeld","3.3.3","0","h","NA","h","s","NA","h","401","NA","5390","78401","NA","401","2","legacy","1024","2","48000","-16","experiment","SSHSS","4","even","6887","239357","NA","129865","1493","114444","NA","241152","1496","160954","NA","240020","241258","241673","241149","241257","New experiment","75","49823","82","yes","1024"
"91.5662650602","91.5662650602","604.903614458","604.903614458","black","legacy","legacy","legacy","0","incongruent","uniform","1","undefined","1","h","0","0","0","82","0","82","0","82","0","0","0","82","82","82","82","82","09/27/20 21:58:42","600","Flanker Task","yes","flankertasksubmission.osexp","C:\Users\User\Desktop\Quant 2020 - Copy","no","mono","no","18","no","white","no","no","768","legacy","2","79","C:/Users/User/Desktop/Quant 2020 - Copy/GT-subject-4.csv","legacy","Lentiform Loewenfeld","3.3.3","0","h","NA","h","s","NA","h","384","NA","5390","78401","NA","384","2","legacy","1024","2","48000","-16","experiment","SSHSS","4","even","6887","239357","NA","129865","1493","114444","NA","243011","1496","160954","NA","241693","243117","243503","243002","243116","New experiment","76","50207","83","yes","1024"
"90.4761904762","90.4761904762","602.023809524","602.023809524","black","legacy","legacy","legacy","0","incongruent","uniform","0","undefined","0","h","0","0","0","83","0","83","0","83","0","0","0","83","83","83","83","83","09/27/20 21:58:42","600","Flanker Task","yes","flankertasksubmission.osexp","C:\Users\User\Desktop\Quant 2020 - Copy","no","mono","no","18","no","white","no","no","768","legacy","3","79","C:/Users/User/Desktop/Quant 2020 - Copy/GT-subject-4.csv","legacy","Lentiform Loewenfeld","3.3.3","0","s","NA","h","s","NA","s","363","NA","5390","78401","NA","363","2","legacy","1024","2","48000","-16","experiment","SSHSS","4","even","6887","239357","NA","129865","1493","114444","NA","244651","1496","160954","NA","243508","244757","245123","244648","244756","New experiment","76","50570","84","yes","1024"
"90.5882352941","90.5882352941","600.470588235","600.470588235","black","legacy","legacy","legacy","0","congruent","uniform","1","undefined","1","h","0","0","0","84","0","84","0","84","0","0","0","84","84","84","84","84","09/27/20 21:58:42","600","Flanker Task","yes","flankertasksubmission.osexp","C:\Users\User\Desktop\Quant 2020 - Copy","no","mono","no","18","no","white","no","no","768","legacy","4","79","C:/Users/User/Desktop/Quant 2020 - Copy/GT-subject-4.csv","legacy","Lentiform Loewenfeld","3.3.3","0","h","NA","h","s","NA","h","470","NA","5390","78401","NA","470","2","legacy","1024","2","48000","-16","experiment","HHHHH","4","even","6887","239357","NA","245134","1493","114444","NA","246779","1496","160954","NA","245640","246885","247358","246776","246884","New experiment","77","51040","85","yes","1024"
"90.6976744186","90.6976744186","598.918604651","598.918604651","black","legacy","legacy","legacy","0","incongruent","uniform","1","undefined","1","s","0","0","0","85","0","85","0","85","0","0","0","85","85","85","85","85","09/27/20 21:58:42","600","Flanker Task","yes","flankertasksubmission.osexp","C:\Users\User\Desktop\Quant 2020 - Copy","no","mono","no","18","no","white","no","no","768","legacy","5","79","C:/Users/User/Desktop/Quant 2020 - Copy/GT-subject-4.csv","legacy","Lentiform Loewenfeld","3.3.3","0","s","NA","h","s","NA","s","467","NA","5390","78401","NA","467","2","legacy","1024","2","48000","-16","experiment","HHSHH","4","even","6887","239357","NA","245134","1493","114444","NA","248482","1496","160954","NA","247366","248588","249056","248479","248587","New experiment","78","51507","86","yes","1024"
"90.8045977011","90.8045977011","596.770114943","596.770114943","black","legacy","legacy","legacy","0","congruent","uniform","1","undefined","1","s","0","0","0","86","0","86","0","86","0","0","0","86","86","86","86","86","09/27/20 21:58:42","600","Flanker Task","yes","flankertasksubmission.osexp","C:\Users\User\Desktop\Quant 2020 - Copy","no","mono","no","18","no","white","no","no","768","legacy","6","79","C:/Users/User/Desktop/Quant 2020 - Copy/GT-subject-4.csv","legacy","Lentiform Loewenfeld","3.3.3","0","s","NA","h","s","NA","s","412","NA","5390","78401","NA","412","2","legacy","1024","2","48000","-16","experiment","SSSSS","4","even","6887","239357","NA","245134","1493","114444","NA","250204","1496","160954","NA","249061","250310","250757","250200","250309","New experiment","79","51919","87","yes","1024"
"90.9090909091","90.9090909091","594.375","594.375","black","legacy","legacy","legacy","0","congruent","uniform","1","undefined","1","s","0","0","0","87","0","87","0","87","0","0","0","87","87","87","87","87","09/27/20 21:58:42","600","Flanker Task","yes","flankertasksubmission.osexp","C:\Users\User\Desktop\Quant 2020 - Copy","no","mono","no","18","no","white","no","no","768","legacy","7","79","C:/Users/User/Desktop/Quant 2020 - Copy/GT-subject-4.csv","legacy","Lentiform Loewenfeld","3.3.3","0","s","NA","h","s","NA","s","386","NA","5390","78401","NA","386","2","legacy","1024","2","48000","-16","experiment","SSSSS","4","even","6887","239357","NA","245134","1493","114444","NA","252112","1496","160954","NA","250802","252219","252606","252106","252218","New experiment","80","52305","88","yes","1024"
"91.0112359551","91.0112359551","593.179775281","593.179775281","black","legacy","legacy","legacy","0","incongruent","uniform","1","undefined","1","s","0","0","0","88","0","88","0","88","0","0","0","88","88","88","88","88","09/27/20 21:58:42","600","Flanker Task","yes","flankertasksubmission.osexp","C:\Users\User\Desktop\Quant 2020 - Copy","no","mono","no","18","no","white","no","no","768","legacy","8","79","C:/Users/User/Desktop/Quant 2020 - Copy/GT-subject-4.csv","legacy","Lentiform Loewenfeld","3.3.3","0","s","NA","h","s","NA","s","488","NA","5390","78401","NA","488","2","legacy","1024","2","48000","-16","experiment","HHSHH","4","even","6887","239357","NA","245134","1493","114444","NA","253751","1496","160954","NA","252612","253858","254348","253749","253858","New experiment","81","52793","89","yes","1024"
"91.1111111111","91.1111111111","591.388888889","591.388888889","black","legacy","legacy","legacy","0","congruent","uniform","1","undefined","1","h","0","0","0","89","0","89","0","89","0","0","0","89","89","89","89","89","09/27/20 21:58:42","600","Flanker Task","yes","flankertasksubmission.osexp","C:\Users\User\Desktop\Quant 2020 - Copy","no","mono","no","18","no","white","no","no","768","legacy","9","79","C:/Users/User/Desktop/Quant 2020 - Copy/GT-subject-4.csv","legacy","Lentiform Loewenfeld","3.3.3","0","h","NA","h","s","NA","h","432","NA","5390","78401","NA","432","2","legacy","1024","2","48000","-16","experiment","HHHHH","4","even","6887","239357","NA","245134","1493","114444","NA","255489","1496","160954","NA","254353","255595","256029","255486","255594","New experiment","82","53225","90","yes","1024"
"91.2087912088","91.2087912088","589.186813187","589.186813187","black","legacy","legacy","legacy","0","incongruent","uniform","1","undefined","1","h","0","0","0","90","0","90","0","90","0","0","0","90","90","90","90","90","09/27/20 21:58:42","600","Flanker Task","yes","flankertasksubmission.osexp","C:\Users\User\Desktop\Quant 2020 - Copy","no","mono","no","18","no","white","no","no","768","legacy","10","79","C:/Users/User/Desktop/Quant 2020 - Copy/GT-subject-4.csv","legacy","Lentiform Loewenfeld","3.3.3","0","h","NA","h","s","NA","h","391","NA","5390","78401","NA","391","2","legacy","1024","2","48000","-16","experiment","SSHSS","4","even","6887","239357","NA","245134","1493","114444","NA","257170","1496","160954","NA","256035","257276","257669","257167","257275","New experiment","83","53616","91","yes","1024"
"91.3043478261","91.3043478261","586.967391304","586.967391304","black","legacy","legacy","legacy","0","congruent","uniform","1","undefined","1","s","0","0","0","91","0","91","0","91","0","0","0","91","91","91","91","91","09/27/20 21:58:42","600","Flanker Task","yes","flankertasksubmission.osexp","C:\Users\User\Desktop\Quant 2020 - Copy","no","mono","no","18","no","white","no","no","768","legacy","11","79","C:/Users/User/Desktop/Quant 2020 - Copy/GT-subject-4.csv","legacy","Lentiform Loewenfeld","3.3.3","0","s","NA","h","s","NA","s","385","NA","5390","78401","NA","385","2","legacy","1024","2","48000","-16","experiment","SSSSS","4","even","6887","239357","NA","245134","1493","114444","NA","258814","1496","160954","NA","257675","258920","259306","258811","258920","New experiment","84","54001","92","yes","1024"
"91.3978494624","91.3978494624","585.11827957","585.11827957","black","legacy","legacy","legacy","0","congruent","uniform","1","undefined","1","h","0","0","0","92","0","92","0","92","0","0","0","92","92","92","92","92","09/27/20 21:58:42","600","Flanker Task","yes","flankertasksubmission.osexp","C:\Users\User\Desktop\Quant 2020 - Copy","no","mono","no","18","no","white","no","no","768","legacy","12","79","C:/Users/User/Desktop/Quant 2020 - Copy/GT-subject-4.csv","legacy","Lentiform Loewenfeld","3.3.3","0","h","NA","h","s","NA","h","415","NA","5390","78401","NA","415","2","legacy","1024","2","48000","-16","experiment","HHHHH","4","even","6887","239357","NA","245134","1493","114444","NA","260441","1496","160954","NA","259312","260547","260964","260438","260546","New experiment","85","54416","93","yes","1024"
"91.4893617021","91.4893617021","585.542553191","585.542553191","black","legacy","legacy","legacy","0","incongruent","uniform","1","undefined","1","s","0","0","0","93","0","93","0","93","0","0","0","93","93","93","93","93","09/27/20 21:58:42","600","Flanker Task","yes","flankertasksubmission.osexp","C:\Users\User\Desktop\Quant 2020 - Copy","no","mono","no","18","no","white","no","no","768","legacy","13","79","C:/Users/User/Desktop/Quant 2020 - Copy/GT-subject-4.csv","legacy","Lentiform Loewenfeld","3.3.3","0","s","NA","h","s","NA","s","625","NA","5390","78401","NA","625","2","legacy","1024","2","48000","-16","experiment","HHSHH","4","even","6887","239357","NA","245134","1493","114444","NA","262130","1496","160954","NA","260969","262236","262867","262127","262235","New experiment","86","55041","94","yes","1024"
"91.5789473684","91.5789473684","584.505263158","584.505263158","black","legacy","legacy","legacy","0","congruent","uniform","1","undefined","1","h","0","0","0","94","0","94","0","94","0","0","0","94","94","94","94","94","09/27/20 21:58:42","600","Flanker Task","yes","flankertasksubmission.osexp","C:\Users\User\Desktop\Quant 2020 - Copy","no","mono","no","18","no","white","no","no","768","legacy","14","79","C:/Users/User/Desktop/Quant 2020 - Copy/GT-subject-4.csv","legacy","Lentiform Loewenfeld","3.3.3","0","h","NA","h","s","NA","h","487","NA","5390","78401","NA","487","2","legacy","1024","2","48000","-16","experiment","HHHHH","4","even","6887","239357","NA","245134","1493","262877","NA","264513","1496","160954","NA","263383","264619","265110","264510","264618","New experiment","87","55528","95","yes","1024"
"91.6666666667","91.6666666667","582.947916667","582.947916667","black","legacy","legacy","legacy","0","congruent","uniform","1","undefined","1","h","0","0","0","95","0","95","0","95","0","0","0","95","95","95","95","95","09/27/20 21:58:42","600","Flanker Task","yes","flankertasksubmission.osexp","C:\Users\User\Desktop\Quant 2020 - Copy","no","mono","no","18","no","white","no","no","768","legacy","15","79","C:/Users/User/Desktop/Quant 2020 - Copy/GT-subject-4.csv","legacy","Lentiform Loewenfeld","3.3.3","0","h","NA","h","s","NA","h","435","NA","5390","78401","NA","435","2","legacy","1024","2","48000","-16","experiment","HHHHH","4","even","6887","239357","NA","245134","1493","262877","NA","266243","1496","160954","NA","265122","266349","266786","266240","266348","New experiment","88","55963","96","yes","1024"
"91.7525773196","91.7525773196","581.329896907","581.329896907","black","legacy","legacy","legacy","0","congruent","uniform","1","undefined","1","h","0","0","0","96","0","96","0","96","0","0","0","96","96","96","96","96","09/27/20 21:58:42","600","Flanker Task","yes","flankertasksubmission.osexp","C:\Users\User\Desktop\Quant 2020 - Copy","no","mono","no","18","no","white","no","no","768","legacy","16","79","C:/Users/User/Desktop/Quant 2020 - Copy/GT-subject-4.csv","legacy","Lentiform Loewenfeld","3.3.3","0","h","NA","h","s","NA","h","426","NA","5390","78401","NA","426","2","legacy","1024","2","48000","-16","experiment","HHHHH","4","even","6887","239357","NA","245134","1493","262877","NA","267937","1496","160954","NA","266791","268043","268471","267934","268042","New experiment","89","56389","97","yes","1024"
"91.8367346939","91.8367346939","579.581632653","579.581632653","black","legacy","legacy","legacy","0","congruent","uniform","1","undefined","1","s","0","0","0","97","0","97","0","97","0","0","0","97","97","97","97","97","09/27/20 21:58:42","600","Flanker Task","yes","flankertasksubmission.osexp","C:\Users\User\Desktop\Quant 2020 - Copy","no","mono","no","18","no","white","no","no","768","legacy","17","79","C:/Users/User/Desktop/Quant 2020 - Copy/GT-subject-4.csv","legacy","Lentiform Loewenfeld","3.3.3","0","s","NA","h","s","NA","s","410","NA","5390","78401","NA","410","2","legacy","1024","2","48000","-16","experiment","SSSSS","4","even","6887","239357","NA","245134","1493","262877","NA","269621","1496","160954","NA","268476","269727","270138","269618","269726","New experiment","90","56799","98","yes","1024"
"91.9191919192","91.9191919192","581.151515152","581.151515152","black","legacy","legacy","legacy","0","congruent","uniform","1","undefined","1","h","0","0","0","98","0","98","0","98","0","0","0","98","98","98","98","98","09/27/20 21:58:42","600","Flanker Task","yes","flankertasksubmission.osexp","C:\Users\User\Desktop\Quant 2020 - Copy","no","mono","no","18","no","white","no","no","768","legacy","18","79","C:/Users/User/Desktop/Quant 2020 - Copy/GT-subject-4.csv","legacy","Lentiform Loewenfeld","3.3.3","0","h","NA","h","s","NA","h","735","NA","5390","78401","NA","735","2","legacy","1024","2","48000","-16","experiment","HHHHH","4","even","6887","239357","NA","245134","1493","262877","NA","271272","1496","160954","NA","270144","271378","272114","271269","271377","New experiment","91","57534","99","yes","1024"
"92","92","579.28","579.28","black","legacy","legacy","legacy","0","congruent","uniform","1","undefined","1","s","0","0","0","99","0","99","0","99","0","0","0","99","99","99","99","99","09/27/20 21:58:42","600","Flanker Task","yes","flankertasksubmission.osexp","C:\Users\User\Desktop\Quant 2020 - Copy","no","mono","no","18","no","white","no","no","768","legacy","19","79","C:/Users/User/Desktop/Quant 2020 - Copy/GT-subject-4.csv","legacy","Lentiform Loewenfeld","3.3.3","0","s","NA","h","s","NA","s","394","NA","5390","78401","NA","394","2","legacy","1024","2","48000","-16","experiment","SSSSS","4","even","6887","239357","NA","245134","1493","272120","NA","273781","1496","160954","NA","272626","273888","274321","273776","273888","New experiment","92","57928","100","yes","1024"
"92.0792079208","92.0792079208","576.673267327","576.673267327","black","legacy","legacy","legacy","0","congruent","uniform","1","undefined","1","h","0","0","0","100","0","100","0","100","0","0","0","100","100","100","100","100","09/27/20 21:58:42","600","Flanker Task","yes","flankertasksubmission.osexp","C:\Users\User\Desktop\Quant 2020 - Copy","no","mono","no","18","no","white","no","no","768","legacy","20","79","C:/Users/User/Desktop/Quant 2020 - Copy/GT-subject-4.csv","legacy","Lentiform Loewenfeld","3.3.3","0","h","NA","h","s","NA","h","316","NA","5390","78401","NA","316","2","legacy","1024","2","48000","-16","experiment","HHHHH","4","even","6887","239357","NA","245134","1493","272120","NA","275653","1496","160954","NA","274366","275759","276077","275647","275758","New experiment","93","58244","101","yes","1024"
"92.1568627451","92.1568627451","576.676470588","576.676470588","black","legacy","legacy","legacy","0","congruent","uniform","1","undefined","1","h","0","0","0","101","0","101","0","101","0","0","0","101","101","101","101","101","09/27/20 21:58:42","600","Flanker Task","yes","flankertasksubmission.osexp","C:\Users\User\Desktop\Quant 2020 - Copy","no","mono","no","18","no","white","no","no","768","legacy","21","79","C:/Users/User/Desktop/Quant 2020 - Copy/GT-subject-4.csv","legacy","Lentiform Loewenfeld","3.3.3","0","h","NA","h","s","NA","h","577","NA","5390","78401","NA","577","2","legacy","1024","2","48000","-16","experiment","HHHHH","4","even","6887","239357","NA","245134","1493","272120","NA","277232","1496","160954","NA","276084","277338","277955","277229","277337","New experiment","94","58821","102","yes","1024"
"92.2330097087","92.2330097087","577.572815534","577.572815534","black","legacy","legacy","legacy","0","incongruent","uniform","1","undefined","1","h","0","0","0","102","0","102","0","102","0","0","0","102","102","102","102","102","09/27/20 21:58:42","600","Flanker Task","yes","flankertasksubmission.osexp","C:\Users\User\Desktop\Quant 2020 - Copy","no","mono","no","18","no","white","no","no","768","legacy","22","79","C:/Users/User/Desktop/Quant 2020 - Copy/GT-subject-4.csv","legacy","Lentiform Loewenfeld","3.3.3","0","h","NA","h","s","NA","h","669","NA","5390","78401","NA","669","2","legacy","1024","2","48000","-16","experiment","SSHSS","4","even","6887","239357","NA","245134","1493","272120","NA","279351","1496","160954","NA","277998","279457","280132","279345","279456","New experiment","95","59490","103","yes","1024"
"92.3076923077","92.3076923077","576.288461538","576.288461538","black","legacy","legacy","legacy","0","congruent","uniform","1","undefined","1","h","0","0","0","103","0","103","0","103","0","0","0","103","103","103","103","103","09/27/20 21:58:42","600","Flanker Task","yes","flankertasksubmission.osexp","C:\Users\User\Desktop\Quant 2020 - Copy","no","mono","no","18","no","white","no","no","768","legacy","23","79","C:/Users/User/Desktop/Quant 2020 - Copy/GT-subject-4.csv","legacy","Lentiform Loewenfeld","3.3.3","0","h","NA","h","s","NA","h","444","NA","5390","78401","NA","444","2","legacy","1024","2","48000","-16","experiment","HHHHH","4","even","6887","239357","NA","245134","1493","280146","NA","281790","1496","160954","NA","280651","281896","282342","281786","281895","New experiment","96","59934","104","yes","1024"
"91.4285714286","91.4285714286","574.038095238","574.038095238","black","legacy","legacy","legacy","0","incongruent","uniform","0","undefined","0","h","0","0","0","104","0","104","0","104","0","0","0","104","104","104","104","104","09/27/20 21:58:42","600","Flanker Task","yes","flankertasksubmission.osexp","C:\Users\User\Desktop\Quant 2020 - Copy","no","mono","no","18","no","white","no","no","768","legacy","24","79","C:/Users/User/Desktop/Quant 2020 - Copy/GT-subject-4.csv","legacy","Lentiform Loewenfeld","3.3.3","0","s","NA","h","s","NA","s","340","NA","5390","78401","NA","340","2","legacy","1024","2","48000","-16","experiment","SSHSS","4","even","6887","239357","NA","245134","1493","280146","NA","283578","1496","160954","NA","282347","283684","284029","283573","283683","New experiment","96","60274","105","yes","1024"
"91.5094339623","91.5094339623","572.877358491","572.877358491","black","legacy","legacy","legacy","0","congruent","uniform","1","undefined","1","s","0","0","0","105","0","105","0","105","0","0","0","105","105","105","105","105","09/27/20 21:58:42","600","Flanker Task","yes","flankertasksubmission.osexp","C:\Users\User\Desktop\Quant 2020 - Copy","no","mono","no","18","no","white","no","no","768","legacy","25","79","C:/Users/User/Desktop/Quant 2020 - Copy/GT-subject-4.csv","legacy","Lentiform Loewenfeld","3.3.3","0","s","NA","h","s","NA","s","451","NA","5390","78401","NA","451","2","legacy","1024","2","48000","-16","experiment","SSSSS","4","even","6887","239357","NA","284043","1493","280146","NA","285880","1496","160954","NA","284549","285986","286443","285874","285985","New experiment","97","60725","106","yes","1024"
"91.5887850467","91.5887850467","571.102803738","571.102803738","black","legacy","legacy","legacy","0","congruent","uniform","1","undefined","1","h","0","0","0","106","0","106","0","106","0","0","0","106","106","106","106","106","09/27/20 21:58:42","600","Flanker Task","yes","flankertasksubmission.osexp","C:\Users\User\Desktop\Quant 2020 - Copy","no","mono","no","18","no","white","no","no","768","legacy","26","79","C:/Users/User/Desktop/Quant 2020 - Copy/GT-subject-4.csv","legacy","Lentiform Loewenfeld","3.3.3","0","h","NA","h","s","NA","h","383","NA","5390","78401","NA","383","2","legacy","1024","2","48000","-16","experiment","HHHHH","4","even","6887","239357","NA","284043","1493","280146","NA","287590","1496","160954","NA","286457","287696","288124","287587","287695","New experiment","98","61108","107","yes","1024"
"91.6666666667","91.6666666667","569.731481481","569.731481481","black","legacy","legacy","legacy","0","congruent","uniform","1","undefined","1","s","0","0","0","107","0","107","0","107","0","0","0","107","107","107","107","107","09/27/20 21:58:42","600","Flanker Task","yes","flankertasksubmission.osexp","C:\Users\User\Desktop\Quant 2020 - Copy","no","mono","no","18","no","white","no","no","768","legacy","27","79","C:/Users/User/Desktop/Quant 2020 - Copy/GT-subject-4.csv","legacy","Lentiform Loewenfeld","3.3.3","0","s","NA","h","s","NA","s","423","NA","5390","78401","NA","423","2","legacy","1024","2","48000","-16","experiment","SSSSS","4","even","6887","239357","NA","284043","1493","280146","NA","289553","1496","160954","NA","288168","289659","290085","289547","289659","New experiment","99","61531","108","yes","1024"
"91.7431192661","91.7431192661","568.752293578","568.752293578","black","legacy","legacy","legacy","0","incongruent","uniform","1","undefined","1","h","0","0","0","108","0","108","0","108","0","0","0","108","108","108","108","108","09/27/20 21:58:42","600","Flanker Task","yes","flankertasksubmission.osexp","C:\Users\User\Desktop\Quant 2020 - Copy","no","mono","no","18","no","white","no","no","768","legacy","28","79","C:/Users/User/Desktop/Quant 2020 - Copy/GT-subject-4.csv","legacy","Lentiform Loewenfeld","3.3.3","0","h","NA","h","s","NA","h","463","NA","5390","78401","NA","463","2","legacy","1024","2","48000","-16","experiment","SSHSS","4","even","6887","239357","NA","284043","1493","280146","NA","291221","1496","160954","NA","290091","291328","291834","291218","291327","New experiment","100","61994","109","yes","1024"
"91.8181818182","91.8181818182","569.527272727","569.527272727","black","legacy","legacy","legacy","0","congruent","uniform","1","undefined","1","h","0","0","0","109","0","109","0","109","0","0","0","109","109","109","109","109","09/27/20 21:58:42","600","Flanker Task","yes","flankertasksubmission.osexp","C:\Users\User\Desktop\Quant 2020 - Copy","no","mono","no","18","no","white","no","no","768","legacy","29","79","C:/Users/User/Desktop/Quant 2020 - Copy/GT-subject-4.csv","legacy","Lentiform Loewenfeld","3.3.3","0","h","NA","h","s","NA","h","654","NA","5390","78401","NA","654","2","legacy","1024","2","48000","-16","experiment","HHHHH","4","even","6887","239357","NA","284043","1493","280146","NA","293324","1496","160954","NA","291878","293430","294087","293318","293429","New experiment","101","62648","110","yes","1024"
"91.8918918919","91.8918918919","569.900900901","569.900900901","black","legacy","legacy","legacy","0","incongruent","uniform","1","undefined","1","s","0","0","0","110","0","110","0","110","0","0","0","110","110","110","110","110","09/27/20 21:58:42","600","Flanker Task","yes","flankertasksubmission.osexp","C:\Users\User\Desktop\Quant 2020 - Copy","no","mono","no","18","no","white","no","no","768","legacy","30","79","C:/Users/User/Desktop/Quant 2020 - Copy/GT-subject-4.csv","legacy","Lentiform Loewenfeld","3.3.3","0","s","NA","h","s","NA","s","611","NA","5390","78401","NA","611","2","legacy","1024","2","48000","-16","experiment","HHSHH","4","even","6887","239357","NA","284043","1493","294092","NA","295739","1496","160954","NA","294598","295845","296473","295736","295844","New experiment","102","63259","111","yes","1024"
"91.9642857143","91.9642857143","568.767857143","568.767857143","black","legacy","legacy","legacy","0","incongruent","uniform","1","undefined","1","s","0","0","0","111","0","111","0","111","0","0","0","111","111","111","111","111","09/27/20 21:58:42","600","Flanker Task","yes","flankertasksubmission.osexp","C:\Users\User\Desktop\Quant 2020 - Copy","no","mono","no","18","no","white","no","no","768","legacy","31","79","C:/Users/User/Desktop/Quant 2020 - Copy/GT-subject-4.csv","legacy","Lentiform Loewenfeld","3.3.3","0","s","NA","h","s","NA","s","443","NA","5390","78401","NA","443","2","legacy","1024","2","48000","-16","experiment","HHSHH","4","even","6887","239357","NA","284043","1493","296496","NA","298139","1496","160954","NA","297001","298245","298732","298136","298244","New experiment","103","63702","112","yes","1024"
"92.0353982301","92.0353982301","567.03539823","567.03539823","black","legacy","legacy","legacy","0","congruent","uniform","1","undefined","1","h","0","0","0","112","0","112","0","112","0","0","0","112","112","112","112","112","09/27/20 21:58:42","600","Flanker Task","yes","flankertasksubmission.osexp","C:\Users\User\Desktop\Quant 2020 - Copy","no","mono","no","18","no","white","no","no","768","legacy","32","79","C:/Users/User/Desktop/Quant 2020 - Copy/GT-subject-4.csv","legacy","Lentiform Loewenfeld","3.3.3","0","h","NA","h","s","NA","h","373","NA","5390","78401","NA","373","2","legacy","1024","2","48000","-16","experiment","HHHHH","4","even","6887","239357","NA","284043","1493","296496","NA","300117","1496","160954","NA","298774","300223","300601","300111","300222","New experiment","104","64075","113","yes","1024"
"92.1052631579","92.1052631579","566.122807018","566.122807018","black","legacy","legacy","legacy","0","incongruent","uniform","1","undefined","1","s","0","0","0","113","0","113","0","113","0","0","0","113","113","113","113","113","09/27/20 21:58:42","600","Flanker Task","yes","flankertasksubmission.osexp","C:\Users\User\Desktop\Quant 2020 - Copy","no","mono","no","18","no","white","no","no","768","legacy","33","79","C:/Users/User/Desktop/Quant 2020 - Copy/GT-subject-4.csv","legacy","Lentiform Loewenfeld","3.3.3","0","s","NA","h","s","NA","s","463","NA","5390","78401","NA","463","2","legacy","1024","2","48000","-16","experiment","HHSHH","4","even","6887","239357","NA","284043","1493","296496","NA","301749","1496","160954","NA","300615","301855","302364","301746","301854","New experiment","105","64538","114","yes","1024"
"92.1739130435","92.1739130435","565.286956522","565.286956522","black","legacy","legacy","legacy","0","incongruent","uniform","1","undefined","1","s","0","0","0","114","0","114","0","114","0","0","0","114","114","114","114","114","09/27/20 21:58:42","600","Flanker Task","yes","flankertasksubmission.osexp","C:\Users\User\Desktop\Quant 2020 - Copy","no","mono","no","18","no","white","no","no","768","legacy","34","79","C:/Users/User/Desktop/Quant 2020 - Copy/GT-subject-4.csv","legacy","Lentiform Loewenfeld","3.3.3","0","s","NA","h","s","NA","s","470","NA","5390","78401","NA","470","2","legacy","1024","2","48000","-16","experiment","HHSHH","4","even","6887","239357","NA","284043","1493","296496","NA","303694","1496","160954","NA","302407","303800","304271","303690","303799","New experiment","106","65008","115","yes","1024"
"92.2413793103","92.2413793103","564.077586207","564.077586207","black","legacy","legacy","legacy","0","congruent","uniform","1","undefined","1","h","0","0","0","115","0","115","0","115","0","0","0","115","115","115","115","115","09/27/20 21:58:42","600","Flanker Task","yes","flankertasksubmission.osexp","C:\Users\User\Desktop\Quant 2020 - Copy","no","mono","no","18","no","white","no","no","768","legacy","35","79","C:/Users/User/Desktop/Quant 2020 - Copy/GT-subject-4.csv","legacy","Lentiform Loewenfeld","3.3.3","0","h","NA","h","s","NA","h","425","NA","5390","78401","NA","425","2","legacy","1024","2","48000","-16","experiment","HHHHH","4","even","6887","239357","NA","284043","1493","296496","NA","305409","1496","160954","NA","304277","305515","305984","305406","305514","New experiment","107","65433","116","yes","1024"
"92.3076923077","92.3076923077","562.418803419","562.418803419","black","legacy","legacy","legacy","0","congruent","uniform","1","undefined","1","h","0","0","0","116","0","116","0","116","0","0","0","116","116","116","116","116","09/27/20 21:58:42","600","Flanker Task","yes","flankertasksubmission.osexp","C:\Users\User\Desktop\Quant 2020 - Copy","no","mono","no","18","no","white","no","no","768","legacy","36","79","C:/Users/User/Desktop/Quant 2020 - Copy/GT-subject-4.csv","legacy","Lentiform Loewenfeld","3.3.3","0","h","NA","h","s","NA","h","370","NA","5390","78401","NA","370","2","legacy","1024","2","48000","-16","experiment","HHHHH","4","even","6887","239357","NA","284043","1493","296496","NA","307387","1496","160954","NA","306029","307493","307866","307381","307492","New experiment","108","65803","117","yes","1024"
"92.3728813559","92.3728813559","561.771186441","561.771186441","black","legacy","legacy","legacy","0","incongruent","uniform","1","undefined","1","s","0","0","0","117","0","117","0","117","0","0","0","117","117","117","117","117","09/27/20 21:58:42","600","Flanker Task","yes","flankertasksubmission.osexp","C:\Users\User\Desktop\Quant 2020 - Copy","no","mono","no","18","no","white","no","no","768","legacy","37","79","C:/Users/User/Desktop/Quant 2020 - Copy/GT-subject-4.csv","legacy","Lentiform Loewenfeld","3.3.3","0","s","NA","h","s","NA","s","486","NA","5390","78401","NA","486","2","legacy","1024","2","48000","-16","experiment","HHSHH","4","even","6887","239357","NA","284043","1493","296496","NA","309009","1496","160954","NA","307876","309115","309646","309006","309114","New experiment","109","66289","118","yes","1024"
"92.4369747899","92.4369747899","560.18487395","560.18487395","black","legacy","legacy","legacy","0","congruent","uniform","1","undefined","1","h","0","0","0","118","0","118","0","118","0","0","0","118","118","118","118","118","09/27/20 21:58:42","600","Flanker Task","yes","flankertasksubmission.osexp","C:\Users\User\Desktop\Quant 2020 - Copy","no","mono","no","18","no","white","no","no","768","legacy","38","79","C:/Users/User/Desktop/Quant 2020 - Copy/GT-subject-4.csv","legacy","Lentiform Loewenfeld","3.3.3","0","h","NA","h","s","NA","h","373","NA","5390","78401","NA","373","2","legacy","1024","2","48000","-16","experiment","HHHHH","4","even","6887","239357","NA","284043","1493","296496","NA","310983","1496","160954","NA","309689","311089","311466","310980","311088","New experiment","110","66662","119","yes","1024"
"91.6666666667","91.6666666667","559.125","559.125","black","legacy","legacy","legacy","0","congruent","uniform","0","undefined","0","h","0","0","0","119","0","119","0","119","0","0","0","119","119","119","119","119","09/27/20 21:58:42","600","Flanker Task","yes","flankertasksubmission.osexp","C:\Users\User\Desktop\Quant 2020 - Copy","no","mono","no","18","no","white","no","no","768","legacy","39","79","C:/Users/User/Desktop/Quant 2020 - Copy/GT-subject-4.csv","legacy","Lentiform Loewenfeld","3.3.3","0","s","NA","h","s","NA","s","433","NA","5390","78401","NA","433","2","legacy","1024","2","48000","-16","experiment","HHHHH","4","even","6887","239357","NA","284043","1493","296496","NA","312615","1496","160954","NA","311478","312722","313205","312612","312722","New experiment","110","67095","120","yes","1024"
"91.7355371901","91.7355371901","558.090909091","558.090909091","black","legacy","legacy","legacy","0","congruent","uniform","1","undefined","1","s","0","0","0","120","0","120","0","120","0","0","0","120","120","120","120","120","09/27/20 21:58:42","600","Flanker Task","yes","flankertasksubmission.osexp","C:\Users\User\Desktop\Quant 2020 - Copy","no","mono","no","18","no","white","no","no","768","legacy","40","79","C:/Users/User/Desktop/Quant 2020 - Copy/GT-subject-4.csv","legacy","Lentiform Loewenfeld","3.3.3","0","s","NA","h","s","NA","s","434","NA","5390","78401","NA","434","2","legacy","1024","2","48000","-16","experiment","SSSSS","4","even","6887","239357","NA","313248","1493","296496","NA","314883","1496","160954","NA","313755","314989","315472","314880","314988","New experiment","111","67529","121","yes","1024"
"91.8032786885","91.8032786885","557","557","black","legacy","legacy","legacy","0","incongruent","uniform","1","undefined","1","s","0","0","0","121","0","121","0","121","0","0","0","121","121","121","121","121","09/27/20 21:58:42","600","Flanker Task","yes","flankertasksubmission.osexp","C:\Users\User\Desktop\Quant 2020 - Copy","no","mono","no","18","no","white","no","no","768","legacy","41","79","C:/Users/User/Desktop/Quant 2020 - Copy/GT-subject-4.csv","legacy","Lentiform Loewenfeld","3.3.3","0","s","NA","h","s","NA","s","425","NA","5390","78401","NA","425","2","legacy","1024","2","48000","-16","experiment","HHSHH","4","even","6887","239357","NA","313248","1493","296496","NA","316966","1496","160954","NA","315520","317072","317504","316959","317072","New experiment","112","67954","122","yes","1024"
