"acc","accuracy","average_response_time","avg_rt","background","canvas_backend","clock_backend","color_backend","compensation","condition","coordinates","correct","correct_Instructions1","correct_keyboard_response","correct_response","count_Block1","count_Block2","count_Block3","count_ISI","count_Instructions1","count_Instructions2","count_Instructions3","count_Sequence","count_errorFeedback","count_experiment","count_faster","count_finish","count_fixation","count_getting_started","count_keyboard_response","count_logger","count_new_loop","count_new_sketchpad","count_stimulus","count_welcome","datetime","deadline","description","disable_garbage_collection","empty_column","experiment_file","experiment_path","font_bold","font_family","font_italic","font_size","font_underline","foreground","form_clicks","fullscreen","height","keyboard_backend","live_row","live_row_Block1","logfile","mouse_backend","opensesame_codename","opensesame_version","repeat_cycle","response","response_Instructions1","response_Instructions2","response_Instructions3","response_finish","response_keyboard_response","response_new_sketchpad","response_time","response_time_Instructions1","response_time_Instructions2","response_time_Instructions3","response_time_finish","response_time_keyboard_response","response_time_new_sketchpad","response_time_welcome","response_welcome","round_decimals","sampler_backend","sound_buf_size","sound_channels","sound_freq","sound_sample_size","start","stimulus","subject_nr","subject_parity","time_Block1","time_Block2","time_Block3","time_ISI","time_Instructions1","time_Instructions2","time_Instructions3","time_Sequence","time_errorFeedback","time_experiment","time_faster","time_finish","time_fixation","time_getting_started","time_keyboard_response","time_logger","time_new_loop","time_new_sketchpad","time_stimulus","time_welcome","title","total_correct","total_response_time","total_responses","uniform_coordinates","width"
"100","100","1120","1120","black","legacy","legacy","legacy","0","incongruent","uniform","1","undefined","1","s","0","0","0","0","0","0","0","0","0","0","0","0","0","0","0","0","NA","NA","0","0","Sun Sep 25 13:55:41 2022","1500","The main experiment item","yes","NA","KH-Subject-1.osexp","/Users/keelihatcher/Desktop/Tarleton M.D./Advanced Quantitative Methods & Experimental Design","no","mono","no","18","no","white","no","no","768","legacy","0","0","/Users/keelihatcher/Desktop/Tarleton M.D./Advanced Quantitative Methods & Experimental Design/LH-subject-3.csv","legacy","Lentiform Loewenfeld","3.3.12","0","s","s","NA","NA","NA","s","NA","1120","1591551","NA","NA","NA","1120","NA","NA","NA","2","legacy","1024","2","48000","-16","experiment","HHSHH","3","odd","1593708","NA","NA","NA","2086","NA","NA","1593772","NA","1939","NA","NA","1593780","NA","1593886","1595017","NA","NA","1593885","NA","Flanker Task","1","1120","1","yes","1024"
"100","100","1249","1249","black","legacy","legacy","legacy","0","incongruent","uniform","1","undefined","1","h","0","0","0","1","0","0","0","1","1","0","1","0","1","0","1","1","NA","NA","1","0","Sun Sep 25 13:55:41 2022","1500","The main experiment item","yes","NA","KH-Subject-1.osexp","/Users/keelihatcher/Desktop/Tarleton M.D./Advanced Quantitative Methods & Experimental Design","no","mono","no","18","no","white","no","no","768","legacy","1","1","/Users/keelihatcher/Desktop/Tarleton M.D./Advanced Quantitative Methods & Experimental Design/LH-subject-3.csv","legacy","Lentiform Loewenfeld","3.3.12","0","h","s","NA","NA","NA","h","NA","1378","1591551","NA","NA","NA","1378","NA","NA","NA","2","legacy","1024","2","48000","-16","experiment","SSHSS","3","odd","1593708","NA","NA","1595022","2086","NA","NA","1596126","NA","1939","NA","NA","1596130","NA","1596236","1597615","NA","NA","1596235","NA","Flanker Task","2","2498","2","yes","1024"
"100","100","1100.6666666666667","1100.6666666666667","black","legacy","legacy","legacy","0","incongruent","uniform","1","undefined","1","s","0","0","0","2","0","0","0","2","2","0","2","0","2","0","2","2","NA","NA","2","0","Sun Sep 25 13:55:41 2022","1500","The main experiment item","yes","NA","KH-Subject-1.osexp","/Users/keelihatcher/Desktop/Tarleton M.D./Advanced Quantitative Methods & Experimental Design","no","mono","no","18","no","white","no","no","768","legacy","2","2","/Users/keelihatcher/Desktop/Tarleton M.D./Advanced Quantitative Methods & Experimental Design/LH-subject-3.csv","legacy","Lentiform Loewenfeld","3.3.12","0","s","s","NA","NA","NA","s","NA","804","1591551","NA","NA","NA","804","NA","NA","NA","2","legacy","1024","2","48000","-16","experiment","HHSHH","3","odd","1593708","NA","NA","1597620","2086","NA","NA","1598700","NA","1939","NA","NA","1598706","NA","1598811","1599616","NA","NA","1598811","NA","Flanker Task","3","3302","3","yes","1024"
"100","100","1005.75","1005.75","black","legacy","legacy","legacy","0","incongruent","uniform","1","undefined","1","h","0","0","0","3","0","0","0","3","3","0","3","0","3","0","3","3","NA","NA","3","0","Sun Sep 25 13:55:41 2022","1500","The main experiment item","yes","NA","KH-Subject-1.osexp","/Users/keelihatcher/Desktop/Tarleton M.D./Advanced Quantitative Methods & Experimental Design","no","mono","no","18","no","white","no","no","768","legacy","3","3","/Users/keelihatcher/Desktop/Tarleton M.D./Advanced Quantitative Methods & Experimental Design/LH-subject-3.csv","legacy","Lentiform Loewenfeld","3.3.12","0","h","s","NA","NA","NA","h","NA","721","1591551","NA","NA","NA","721","NA","NA","NA","2","legacy","1024","2","48000","-16","experiment","SSHSS","3","odd","1593708","NA","NA","1599620","2086","NA","NA","1600702","NA","1939","NA","NA","1600706","NA","1600811","1601532","NA","NA","1600811","NA","Flanker Task","4","4023","4","yes","1024"
"100","100","933.6","933.6","black","legacy","legacy","legacy","0","congruent","uniform","1","undefined","1","h","0","0","0","4","0","0","0","4","4","0","4","0","4","0","4","4","NA","NA","4","0","Sun Sep 25 13:55:41 2022","1500","The main experiment item","yes","NA","KH-Subject-1.osexp","/Users/keelihatcher/Desktop/Tarleton M.D./Advanced Quantitative Methods & Experimental Design","no","mono","no","18","no","white","no","no","768","legacy","4","4","/Users/keelihatcher/Desktop/Tarleton M.D./Advanced Quantitative Methods & Experimental Design/LH-subject-3.csv","legacy","Lentiform Loewenfeld","3.3.12","0","h","s","NA","NA","NA","h","NA","645","1591551","NA","NA","NA","645","NA","NA","NA","2","legacy","1024","2","48000","-16","experiment","HHHHH","3","odd","1593708","NA","NA","1601536","2086","NA","NA","1602610","NA","1939","NA","NA","1602614","NA","1602719","1603365","NA","NA","1602719","NA","Flanker Task","5","4668","5","yes","1024"
"100","100","884.1666666666666","884.1666666666666","black","legacy","legacy","legacy","0","congruent","uniform","1","undefined","1","h","0","0","0","5","0","0","0","5","5","0","5","0","5","0","5","5","NA","NA","5","0","Sun Sep 25 13:55:41 2022","1500","The main experiment item","yes","NA","KH-Subject-1.osexp","/Users/keelihatcher/Desktop/Tarleton M.D./Advanced Quantitative Methods & Experimental Design","no","mono","no","18","no","white","no","no","768","legacy","5","5","/Users/keelihatcher/Desktop/Tarleton M.D./Advanced Quantitative Methods & Experimental Design/LH-subject-3.csv","legacy","Lentiform Loewenfeld","3.3.12","0","h","s","NA","NA","NA","h","NA","637","1591551","NA","NA","NA","637","NA","NA","NA","2","legacy","1024","2","48000","-16","experiment","HHHHH","3","odd","1593708","NA","NA","1603369","2086","NA","NA","1604447","NA","1939","NA","NA","1604451","NA","1604556","1605194","NA","NA","1604555","NA","Flanker Task","6","5305","6","yes","1024"
"100","100","848.4285714285714","848.4285714285714","black","legacy","legacy","legacy","0","congruent","uniform","1","undefined","1","h","0","0","0","6","0","0","0","6","6","0","6","0","6","0","6","6","NA","NA","6","0","Sun Sep 25 13:55:41 2022","1500","The main experiment item","yes","NA","KH-Subject-1.osexp","/Users/keelihatcher/Desktop/Tarleton M.D./Advanced Quantitative Methods & Experimental Design","no","mono","no","18","no","white","no","no","768","legacy","6","6","/Users/keelihatcher/Desktop/Tarleton M.D./Advanced Quantitative Methods & Experimental Design/LH-subject-3.csv","legacy","Lentiform Loewenfeld","3.3.12","0","h","s","NA","NA","NA","h","NA","634","1591551","NA","NA","NA","634","NA","NA","NA","2","legacy","1024","2","48000","-16","experiment","HHHHH","3","odd","1593708","NA","NA","1605198","2086","NA","NA","1606266","NA","1939","NA","NA","1606269","NA","1606374","1607009","NA","NA","1606374","NA","Flanker Task","7","5939","7","yes","1024"
"100","100","836.5","836.5","black","legacy","legacy","legacy","0","incongruent","uniform","1","undefined","1","s","0","0","0","7","0","0","0","7","7","0","7","0","7","0","7","7","NA","NA","7","0","Sun Sep 25 13:55:41 2022","1500","The main experiment item","yes","NA","KH-Subject-1.osexp","/Users/keelihatcher/Desktop/Tarleton M.D./Advanced Quantitative Methods & Experimental Design","no","mono","no","18","no","white","no","no","768","legacy","7","7","/Users/keelihatcher/Desktop/Tarleton M.D./Advanced Quantitative Methods & Experimental Design/LH-subject-3.csv","legacy","Lentiform Loewenfeld","3.3.12","0","s","s","NA","NA","NA","s","NA","753","1591551","NA","NA","NA","753","NA","NA","NA","2","legacy","1024","2","48000","-16","experiment","HHSHH","3","odd","1593708","NA","NA","1607013","2086","NA","NA","1608092","NA","1939","NA","NA","1608096","NA","1608201","1608955","NA","NA","1608201","NA","Flanker Task","8","6692","8","yes","1024"
"100","100","828.5555555555555","828.5555555555555","black","legacy","legacy","legacy","0","incongruent","uniform","1","undefined","1","s","0","0","0","8","0","0","0","8","8","0","8","0","8","0","8","8","NA","NA","8","0","Sun Sep 25 13:55:41 2022","1500","The main experiment item","yes","NA","KH-Subject-1.osexp","/Users/keelihatcher/Desktop/Tarleton M.D./Advanced Quantitative Methods & Experimental Design","no","mono","no","18","no","white","no","no","768","legacy","8","8","/Users/keelihatcher/Desktop/Tarleton M.D./Advanced Quantitative Methods & Experimental Design/LH-subject-3.csv","legacy","Lentiform Loewenfeld","3.3.12","0","s","s","NA","NA","NA","s","NA","765","1591551","NA","NA","NA","765","NA","NA","NA","2","legacy","1024","2","48000","-16","experiment","HHSHH","3","odd","1593708","NA","NA","1608959","2086","NA","NA","1610037","NA","1939","NA","NA","1610040","NA","1610146","1610912","NA","NA","1610146","NA","Flanker Task","9","7457","9","yes","1024"
"100","100","813.1","813.1","black","legacy","legacy","legacy","0","congruent","uniform","1","undefined","1","s","0","0","0","9","0","0","0","9","9","0","9","0","9","0","9","9","NA","NA","9","0","Sun Sep 25 13:55:41 2022","1500","The main experiment item","yes","NA","KH-Subject-1.osexp","/Users/keelihatcher/Desktop/Tarleton M.D./Advanced Quantitative Methods & Experimental Design","no","mono","no","18","no","white","no","no","768","legacy","9","9","/Users/keelihatcher/Desktop/Tarleton M.D./Advanced Quantitative Methods & Experimental Design/LH-subject-3.csv","legacy","Lentiform Loewenfeld","3.3.12","0","s","s","NA","NA","NA","s","NA","674","1591551","NA","NA","NA","674","NA","NA","NA","2","legacy","1024","2","48000","-16","experiment","SSSSS","3","odd","1593708","NA","NA","1610915","2086","NA","NA","1611992","NA","1939","NA","NA","1611996","NA","1612101","1612776","NA","NA","1612101","NA","Flanker Task","10","8131","10","yes","1024"
"100","100","800","800","black","legacy","legacy","legacy","0","incongruent","uniform","1","undefined","1","s","0","0","0","10","0","0","0","10","10","0","10","0","10","0","10","10","NA","NA","10","0","Sun Sep 25 13:55:41 2022","1500","The main experiment item","yes","NA","KH-Subject-1.osexp","/Users/keelihatcher/Desktop/Tarleton M.D./Advanced Quantitative Methods & Experimental Design","no","mono","no","18","no","white","no","no","768","legacy","10","10","/Users/keelihatcher/Desktop/Tarleton M.D./Advanced Quantitative Methods & Experimental Design/LH-subject-3.csv","legacy","Lentiform Loewenfeld","3.3.12","0","s","s","NA","NA","NA","s","NA","669","1591551","NA","NA","NA","669","NA","NA","NA","2","legacy","1024","2","48000","-16","experiment","HHSHH","3","odd","1593708","NA","NA","1612780","2086","NA","NA","1613861","NA","1939","NA","NA","1613865","NA","1613973","1614643","NA","NA","1613973","NA","Flanker Task","11","8800","11","yes","1024"
"100","100","784.4166666666666","784.4166666666666","black","legacy","legacy","legacy","0","congruent","uniform","1","undefined","1","s","0","0","0","11","0","0","0","11","11","0","11","0","11","0","11","11","NA","NA","11","0","Sun Sep 25 13:55:41 2022","1500","The main experiment item","yes","NA","KH-Subject-1.osexp","/Users/keelihatcher/Desktop/Tarleton M.D./Advanced Quantitative Methods & Experimental Design","no","mono","no","18","no","white","no","no","768","legacy","11","11","/Users/keelihatcher/Desktop/Tarleton M.D./Advanced Quantitative Methods & Experimental Design/LH-subject-3.csv","legacy","Lentiform Loewenfeld","3.3.12","0","s","s","NA","NA","NA","s","NA","613","1591551","NA","NA","NA","613","NA","NA","NA","2","legacy","1024","2","48000","-16","experiment","SSSSS","3","odd","1593708","NA","NA","1614647","2086","NA","NA","1615721","NA","1939","NA","NA","1615725","NA","1615830","1616444","NA","NA","1615830","NA","Flanker Task","12","9413","12","yes","1024"
"100","100","773.0769230769231","773.0769230769231","black","legacy","legacy","legacy","0","incongruent","uniform","1","undefined","1","s","0","0","0","12","0","0","0","12","12","0","12","0","12","0","12","12","NA","NA","12","0","Sun Sep 25 13:55:41 2022","1500","The main experiment item","yes","NA","KH-Subject-1.osexp","/Users/keelihatcher/Desktop/Tarleton M.D./Advanced Quantitative Methods & Experimental Design","no","mono","no","18","no","white","no","no","768","legacy","12","12","/Users/keelihatcher/Desktop/Tarleton M.D./Advanced Quantitative Methods & Experimental Design/LH-subject-3.csv","legacy","Lentiform Loewenfeld","3.3.12","0","s","s","NA","NA","NA","s","NA","637","1591551","NA","NA","NA","637","NA","NA","NA","2","legacy","1024","2","48000","-16","experiment","HHSHH","3","odd","1593708","NA","NA","1616448","2086","NA","NA","1617527","NA","1939","NA","NA","1617531","NA","1617636","1618274","NA","NA","1617636","NA","Flanker Task","13","10050","13","yes","1024"
"100","100","758.0714285714286","758.0714285714286","black","legacy","legacy","legacy","0","congruent","uniform","1","undefined","1","s","0","0","0","13","0","0","0","13","13","0","13","0","13","0","13","13","NA","NA","13","0","Sun Sep 25 13:55:41 2022","1500","The main experiment item","yes","NA","KH-Subject-1.osexp","/Users/keelihatcher/Desktop/Tarleton M.D./Advanced Quantitative Methods & Experimental Design","no","mono","no","18","no","white","no","no","768","legacy","13","13","/Users/keelihatcher/Desktop/Tarleton M.D./Advanced Quantitative Methods & Experimental Design/LH-subject-3.csv","legacy","Lentiform Loewenfeld","3.3.12","0","s","s","NA","NA","NA","s","NA","563","1591551","NA","NA","NA","563","NA","NA","NA","2","legacy","1024","2","48000","-16","experiment","SSSSS","3","odd","1593708","NA","NA","1618278","2086","NA","NA","1619355","NA","1939","NA","NA","1619359","NA","1619464","1620027","NA","NA","1619464","NA","Flanker Task","14","10613","14","yes","1024"
"100","100","750.6","750.6","black","legacy","legacy","legacy","0","congruent","uniform","1","undefined","1","h","0","0","0","14","0","0","0","14","14","0","14","0","14","0","14","14","NA","NA","14","0","Sun Sep 25 13:55:41 2022","1500","The main experiment item","yes","NA","KH-Subject-1.osexp","/Users/keelihatcher/Desktop/Tarleton M.D./Advanced Quantitative Methods & Experimental Design","no","mono","no","18","no","white","no","no","768","legacy","14","14","/Users/keelihatcher/Desktop/Tarleton M.D./Advanced Quantitative Methods & Experimental Design/LH-subject-3.csv","legacy","Lentiform Loewenfeld","3.3.12","0","h","s","NA","NA","NA","h","NA","646","1591551","NA","NA","NA","646","NA","NA","NA","2","legacy","1024","2","48000","-16","experiment","HHHHH","3","odd","1593708","NA","NA","1620031","2086","NA","NA","1621111","NA","1939","NA","NA","1621115","NA","1621221","1621868","NA","NA","1621220","NA","Flanker Task","15","11259","15","yes","1024"
"100","100","740.75","740.75","black","legacy","legacy","legacy","0","congruent","uniform","1","undefined","1","h","0","0","0","15","0","0","0","15","15","0","15","0","15","0","15","15","NA","NA","15","0","Sun Sep 25 13:55:41 2022","1500","The main experiment item","yes","NA","KH-Subject-1.osexp","/Users/keelihatcher/Desktop/Tarleton M.D./Advanced Quantitative Methods & Experimental Design","no","mono","no","18","no","white","no","no","768","legacy","15","15","/Users/keelihatcher/Desktop/Tarleton M.D./Advanced Quantitative Methods & Experimental Design/LH-subject-3.csv","legacy","Lentiform Loewenfeld","3.3.12","0","h","s","NA","NA","NA","h","NA","593","1591551","NA","NA","NA","593","NA","NA","NA","2","legacy","1024","2","48000","-16","experiment","HHHHH","3","odd","1593708","NA","NA","1621872","2086","NA","NA","1622930","NA","1939","NA","NA","1622933","NA","1623038","1623631","NA","NA","1623038","NA","Flanker Task","16","11852","16","yes","1024"
"100","100","731.3529411764706","731.3529411764706","black","legacy","legacy","legacy","0","incongruent","uniform","1","undefined","1","s","0","0","0","16","0","0","0","16","16","0","16","0","16","0","16","16","NA","NA","16","0","Sun Sep 25 13:55:41 2022","1500","The main experiment item","yes","NA","KH-Subject-1.osexp","/Users/keelihatcher/Desktop/Tarleton M.D./Advanced Quantitative Methods & Experimental Design","no","mono","no","18","no","white","no","no","768","legacy","16","16","/Users/keelihatcher/Desktop/Tarleton M.D./Advanced Quantitative Methods & Experimental Design/LH-subject-3.csv","legacy","Lentiform Loewenfeld","3.3.12","0","s","s","NA","NA","NA","s","NA","581","1591551","NA","NA","NA","581","NA","NA","NA","2","legacy","1024","2","48000","-16","experiment","HHSHH","3","odd","1593708","NA","NA","1623636","2086","NA","NA","1624716","NA","1939","NA","NA","1624720","NA","1624825","1625407","NA","NA","1624825","NA","Flanker Task","17","12433","17","yes","1024"
"94.44444444444444","94.44444444444444","725.3333333333334","725.3333333333334","black","legacy","legacy","legacy","0","congruent","uniform","0","undefined","0","s","0","0","0","17","0","0","0","17","17","0","17","0","17","0","17","17","NA","NA","17","0","Sun Sep 25 13:55:41 2022","1500","The main experiment item","yes","NA","KH-Subject-1.osexp","/Users/keelihatcher/Desktop/Tarleton M.D./Advanced Quantitative Methods & Experimental Design","no","mono","no","18","no","white","no","no","768","legacy","17","17","/Users/keelihatcher/Desktop/Tarleton M.D./Advanced Quantitative Methods & Experimental Design/LH-subject-3.csv","legacy","Lentiform Loewenfeld","3.3.12","0","h","s","NA","NA","NA","h","NA","623","1591551","NA","NA","NA","623","NA","NA","NA","2","legacy","1024","2","48000","-16","experiment","SSSSS","3","odd","1593708","NA","NA","1625411","2086","NA","NA","1626488","NA","1939","NA","NA","1626492","NA","1626597","1627221","NA","NA","1626597","NA","Flanker Task","17","13056","18","yes","1024"
"94.73684210526316","94.73684210526316","726.2631578947369","726.2631578947369","black","legacy","legacy","legacy","0","incongruent","uniform","1","undefined","1","s","0","0","0","18","0","0","0","18","18","0","18","0","18","0","18","18","NA","NA","18","0","Sun Sep 25 13:55:41 2022","1500","The main experiment item","yes","NA","KH-Subject-1.osexp","/Users/keelihatcher/Desktop/Tarleton M.D./Advanced Quantitative Methods & Experimental Design","no","mono","no","18","no","white","no","no","768","legacy","18","18","/Users/keelihatcher/Desktop/Tarleton M.D./Advanced Quantitative Methods & Experimental Design/LH-subject-3.csv","legacy","Lentiform Loewenfeld","3.3.12","0","s","s","NA","NA","NA","s","NA","743","1591551","NA","NA","NA","743","NA","NA","NA","2","legacy","1024","2","48000","-16","experiment","HHSHH","3","odd","1593708","NA","NA","1627735","2086","NA","NA","1628808","1627225","1939","NA","NA","1628811","NA","1628917","1629661","NA","NA","1628917","NA","Flanker Task","18","13799","19","yes","1024"
"95","95","722.35","722.35","black","legacy","legacy","legacy","0","incongruent","uniform","1","undefined","1","s","0","0","0","19","0","0","0","19","19","0","19","0","19","0","19","19","NA","NA","19","0","Sun Sep 25 13:55:41 2022","1500","The main experiment item","yes","NA","KH-Subject-1.osexp","/Users/keelihatcher/Desktop/Tarleton M.D./Advanced Quantitative Methods & Experimental Design","no","mono","no","18","no","white","no","no","768","legacy","19","19","/Users/keelihatcher/Desktop/Tarleton M.D./Advanced Quantitative Methods & Experimental Design/LH-subject-3.csv","legacy","Lentiform Loewenfeld","3.3.12","0","s","s","NA","NA","NA","s","NA","648","1591551","NA","NA","NA","648","NA","NA","NA","2","legacy","1024","2","48000","-16","experiment","HHSHH","3","odd","1593708","NA","NA","1629665","2086","NA","NA","1630744","1627225","1939","NA","NA","1630748","NA","1630853","1631502","NA","NA","1630853","NA","Flanker Task","19","14447","20","yes","1024"
"95.23809523809524","95.23809523809524","716.3809523809524","716.3809523809524","black","legacy","legacy","legacy","0","congruent","uniform","1","undefined","1","s","0","0","0","20","0","0","0","20","20","0","20","0","20","0","20","20","NA","NA","20","0","Sun Sep 25 13:55:41 2022","1500","The main experiment item","yes","NA","KH-Subject-1.osexp","/Users/keelihatcher/Desktop/Tarleton M.D./Advanced Quantitative Methods & Experimental Design","no","mono","no","18","no","white","no","no","768","legacy","20","20","/Users/keelihatcher/Desktop/Tarleton M.D./Advanced Quantitative Methods & Experimental Design/LH-subject-3.csv","legacy","Lentiform Loewenfeld","3.3.12","0","s","s","NA","NA","NA","s","NA","597","1591551","NA","NA","NA","597","NA","NA","NA","2","legacy","1024","2","48000","-16","experiment","SSSSS","3","odd","1593708","NA","NA","1631506","2086","NA","NA","1632583","1627225","1939","NA","NA","1632587","NA","1632692","1633289","NA","NA","1632692","NA","Flanker Task","20","15044","21","yes","1024"
"95.45454545454545","95.45454545454545","723.4545454545455","723.4545454545455","black","legacy","legacy","legacy","0","incongruent","uniform","1","undefined","1","h","0","0","0","21","0","0","0","21","21","0","21","0","21","0","21","21","NA","NA","21","0","Sun Sep 25 13:55:41 2022","1500","The main experiment item","yes","NA","KH-Subject-1.osexp","/Users/keelihatcher/Desktop/Tarleton M.D./Advanced Quantitative Methods & Experimental Design","no","mono","no","18","no","white","no","no","768","legacy","21","21","/Users/keelihatcher/Desktop/Tarleton M.D./Advanced Quantitative Methods & Experimental Design/LH-subject-3.csv","legacy","Lentiform Loewenfeld","3.3.12","0","h","s","NA","NA","NA","h","NA","872","1591551","NA","NA","NA","872","NA","NA","NA","2","legacy","1024","2","48000","-16","experiment","SSHSS","3","odd","1593708","NA","NA","1633294","2086","NA","NA","1634371","1627225","1939","NA","NA","1634375","NA","1634480","1635353","NA","NA","1634480","NA","Flanker Task","21","15916","22","yes","1024"
"95.65217391304348","95.65217391304348","727.1304347826087","727.1304347826087","black","legacy","legacy","legacy","0","incongruent","uniform","1","undefined","1","h","0","0","0","22","0","0","0","22","22","0","22","0","22","0","22","22","NA","NA","22","0","Sun Sep 25 13:55:41 2022","1500","The main experiment item","yes","NA","KH-Subject-1.osexp","/Users/keelihatcher/Desktop/Tarleton M.D./Advanced Quantitative Methods & Experimental Design","no","mono","no","18","no","white","no","no","768","legacy","22","22","/Users/keelihatcher/Desktop/Tarleton M.D./Advanced Quantitative Methods & Experimental Design/LH-subject-3.csv","legacy","Lentiform Loewenfeld","3.3.12","0","h","s","NA","NA","NA","h","NA","808","1591551","NA","NA","NA","808","NA","NA","NA","2","legacy","1024","2","48000","-16","experiment","SSHSS","3","odd","1593708","NA","NA","1635357","2086","NA","NA","1636433","1627225","1939","NA","NA","1636437","NA","1636543","1637352","NA","NA","1636542","NA","Flanker Task","22","16724","23","yes","1024"
"95.83333333333333","95.83333333333333","722.125","722.125","black","legacy","legacy","legacy","0","congruent","uniform","1","undefined","1","s","0","0","0","23","0","0","0","23","23","0","23","0","23","0","23","23","NA","NA","23","0","Sun Sep 25 13:55:41 2022","1500","The main experiment item","yes","NA","KH-Subject-1.osexp","/Users/keelihatcher/Desktop/Tarleton M.D./Advanced Quantitative Methods & Experimental Design","no","mono","no","18","no","white","no","no","768","legacy","23","23","/Users/keelihatcher/Desktop/Tarleton M.D./Advanced Quantitative Methods & Experimental Design/LH-subject-3.csv","legacy","Lentiform Loewenfeld","3.3.12","0","s","s","NA","NA","NA","s","NA","607","1591551","NA","NA","NA","607","NA","NA","NA","2","legacy","1024","2","48000","-16","experiment","SSSSS","3","odd","1593708","NA","NA","1637356","2086","NA","NA","1638429","1627225","1939","NA","NA","1638433","NA","1638539","1639147","NA","NA","1638539","NA","Flanker Task","23","17331","24","yes","1024"
"96","96","717.24","717.24","black","legacy","legacy","legacy","0","congruent","uniform","1","undefined","1","s","0","0","0","24","0","0","0","24","24","0","24","0","24","0","24","24","NA","NA","24","0","Sun Sep 25 13:55:41 2022","1500","The main experiment item","yes","NA","KH-Subject-1.osexp","/Users/keelihatcher/Desktop/Tarleton M.D./Advanced Quantitative Methods & Experimental Design","no","mono","no","18","no","white","no","no","768","legacy","24","24","/Users/keelihatcher/Desktop/Tarleton M.D./Advanced Quantitative Methods & Experimental Design/LH-subject-3.csv","legacy","Lentiform Loewenfeld","3.3.12","0","s","s","NA","NA","NA","s","NA","600","1591551","NA","NA","NA","600","NA","NA","NA","2","legacy","1024","2","48000","-16","experiment","SSSSS","3","odd","1593708","NA","NA","1639151","2086","NA","NA","1640222","1627225","1939","NA","NA","1640225","NA","1640330","1640931","NA","NA","1640330","NA","Flanker Task","24","17931","25","yes","1024"
"96.15384615384616","96.15384615384616","726.1153846153846","726.1153846153846","black","legacy","legacy","legacy","0","incongruent","uniform","1","undefined","1","s","0","0","0","25","0","0","0","25","25","0","25","0","25","0","25","25","NA","NA","25","0","Sun Sep 25 13:55:41 2022","1500","The main experiment item","yes","NA","KH-Subject-1.osexp","/Users/keelihatcher/Desktop/Tarleton M.D./Advanced Quantitative Methods & Experimental Design","no","mono","no","18","no","white","no","no","768","legacy","25","25","/Users/keelihatcher/Desktop/Tarleton M.D./Advanced Quantitative Methods & Experimental Design/LH-subject-3.csv","legacy","Lentiform Loewenfeld","3.3.12","0","s","s","NA","NA","NA","s","NA","948","1591551","NA","NA","NA","948","NA","NA","NA","2","legacy","1024","2","48000","-16","experiment","HHSHH","3","odd","1593708","NA","NA","1640935","2086","NA","NA","1642013","1627225","1939","NA","NA","1642017","NA","1642122","1643071","NA","NA","1642122","NA","Flanker Task","25","18879","26","yes","1024"
"96.29629629629629","96.29629629629629","724.7407407407408","724.7407407407408","black","legacy","legacy","legacy","0","incongruent","uniform","1","undefined","1","h","0","0","0","26","0","0","0","26","26","0","26","0","26","0","26","26","NA","NA","26","0","Sun Sep 25 13:55:41 2022","1500","The main experiment item","yes","NA","KH-Subject-1.osexp","/Users/keelihatcher/Desktop/Tarleton M.D./Advanced Quantitative Methods & Experimental Design","no","mono","no","18","no","white","no","no","768","legacy","26","26","/Users/keelihatcher/Desktop/Tarleton M.D./Advanced Quantitative Methods & Experimental Design/LH-subject-3.csv","legacy","Lentiform Loewenfeld","3.3.12","0","h","s","NA","NA","NA","h","NA","689","1591551","NA","NA","NA","689","NA","NA","NA","2","legacy","1024","2","48000","-16","experiment","SSHSS","3","odd","1593708","NA","NA","1643075","2086","NA","NA","1644152","1627225","1939","NA","NA","1644156","NA","1644262","1644952","NA","NA","1644262","NA","Flanker Task","26","19568","27","yes","1024"
"96.42857142857143","96.42857142857143","721.6428571428571","721.6428571428571","black","legacy","legacy","legacy","0","congruent","uniform","1","undefined","1","h","0","0","0","27","0","0","0","27","27","0","27","0","27","0","27","27","NA","NA","27","0","Sun Sep 25 13:55:41 2022","1500","The main experiment item","yes","NA","KH-Subject-1.osexp","/Users/keelihatcher/Desktop/Tarleton M.D./Advanced Quantitative Methods & Experimental Design","no","mono","no","18","no","white","no","no","768","legacy","27","27","/Users/keelihatcher/Desktop/Tarleton M.D./Advanced Quantitative Methods & Experimental Design/LH-subject-3.csv","legacy","Lentiform Loewenfeld","3.3.12","0","h","s","NA","NA","NA","h","NA","638","1591551","NA","NA","NA","638","NA","NA","NA","2","legacy","1024","2","48000","-16","experiment","HHHHH","3","odd","1593708","NA","NA","1644956","2086","NA","NA","1646025","1627225","1939","NA","NA","1646029","NA","1646134","1646773","NA","NA","1646134","NA","Flanker Task","27","20206","28","yes","1024"
"96.55172413793103","96.55172413793103","724.7241379310345","724.7241379310345","black","legacy","legacy","legacy","0","incongruent","uniform","1","undefined","1","h","0","0","0","28","0","0","0","28","28","0","28","0","28","0","28","28","NA","NA","28","0","Sun Sep 25 13:55:41 2022","1500","The main experiment item","yes","NA","KH-Subject-1.osexp","/Users/keelihatcher/Desktop/Tarleton M.D./Advanced Quantitative Methods & Experimental Design","no","mono","no","18","no","white","no","no","768","legacy","28","28","/Users/keelihatcher/Desktop/Tarleton M.D./Advanced Quantitative Methods & Experimental Design/LH-subject-3.csv","legacy","Lentiform Loewenfeld","3.3.12","0","h","s","NA","NA","NA","h","NA","811","1591551","NA","NA","NA","811","NA","NA","NA","2","legacy","1024","2","48000","-16","experiment","SSHSS","3","odd","1593708","NA","NA","1646777","2086","NA","NA","1647856","1627225","1939","NA","NA","1647860","NA","1647966","1648778","NA","NA","1647966","NA","Flanker Task","28","21017","29","yes","1024"
"96.66666666666667","96.66666666666667","724.7","724.7","black","legacy","legacy","legacy","0","congruent","uniform","1","undefined","1","s","0","0","0","29","0","0","0","29","29","0","29","0","29","0","29","29","NA","NA","29","0","Sun Sep 25 13:55:41 2022","1500","The main experiment item","yes","NA","KH-Subject-1.osexp","/Users/keelihatcher/Desktop/Tarleton M.D./Advanced Quantitative Methods & Experimental Design","no","mono","no","18","no","white","no","no","768","legacy","29","29","/Users/keelihatcher/Desktop/Tarleton M.D./Advanced Quantitative Methods & Experimental Design/LH-subject-3.csv","legacy","Lentiform Loewenfeld","3.3.12","0","s","s","NA","NA","NA","s","NA","724","1591551","NA","NA","NA","724","NA","NA","NA","2","legacy","1024","2","48000","-16","experiment","SSSSS","3","odd","1593708","NA","NA","1648782","2086","NA","NA","1649866","1627225","1939","NA","NA","1649870","NA","1649975","1650700","NA","NA","1649975","NA","Flanker Task","29","21741","30","yes","1024"
"96.7741935483871","96.7741935483871","721.741935483871","721.741935483871","black","legacy","legacy","legacy","0","incongruent","uniform","1","undefined","1","s","0","0","0","30","0","0","0","30","30","0","30","0","30","0","30","30","NA","NA","30","0","Sun Sep 25 13:55:41 2022","1500","The main experiment item","yes","NA","KH-Subject-1.osexp","/Users/keelihatcher/Desktop/Tarleton M.D./Advanced Quantitative Methods & Experimental Design","no","mono","no","18","no","white","no","no","768","legacy","30","30","/Users/keelihatcher/Desktop/Tarleton M.D./Advanced Quantitative Methods & Experimental Design/LH-subject-3.csv","legacy","Lentiform Loewenfeld","3.3.12","0","s","s","NA","NA","NA","s","NA","633","1591551","NA","NA","NA","633","NA","NA","NA","2","legacy","1024","2","48000","-16","experiment","HHSHH","3","odd","1593708","NA","NA","1650704","2086","NA","NA","1651775","1627225","1939","NA","NA","1651779","NA","1651884","1652518","NA","NA","1651884","NA","Flanker Task","30","22374","31","yes","1024"
"96.875","96.875","716.90625","716.90625","black","legacy","legacy","legacy","0","congruent","uniform","1","undefined","1","s","0","0","0","31","0","0","0","31","31","0","31","0","31","0","31","31","NA","NA","31","0","Sun Sep 25 13:55:41 2022","1500","The main experiment item","yes","NA","KH-Subject-1.osexp","/Users/keelihatcher/Desktop/Tarleton M.D./Advanced Quantitative Methods & Experimental Design","no","mono","no","18","no","white","no","no","768","legacy","31","31","/Users/keelihatcher/Desktop/Tarleton M.D./Advanced Quantitative Methods & Experimental Design/LH-subject-3.csv","legacy","Lentiform Loewenfeld","3.3.12","0","s","s","NA","NA","NA","s","NA","567","1591551","NA","NA","NA","567","NA","NA","NA","2","legacy","1024","2","48000","-16","experiment","SSSSS","3","odd","1593708","NA","NA","1652522","2086","NA","NA","1653579","1627225","1939","NA","NA","1653583","NA","1653688","1654256","NA","NA","1653688","NA","Flanker Task","31","22941","32","yes","1024"
"96.96969696969697","96.96969696969697","714.7272727272727","714.7272727272727","black","legacy","legacy","legacy","0","congruent","uniform","1","undefined","1","s","0","0","0","32","0","0","0","32","32","0","32","0","32","0","32","32","NA","NA","32","0","Sun Sep 25 13:55:41 2022","1500","The main experiment item","yes","NA","KH-Subject-1.osexp","/Users/keelihatcher/Desktop/Tarleton M.D./Advanced Quantitative Methods & Experimental Design","no","mono","no","18","no","white","no","no","768","legacy","32","32","/Users/keelihatcher/Desktop/Tarleton M.D./Advanced Quantitative Methods & Experimental Design/LH-subject-3.csv","legacy","Lentiform Loewenfeld","3.3.12","0","s","s","NA","NA","NA","s","NA","645","1591551","NA","NA","NA","645","NA","NA","NA","2","legacy","1024","2","48000","-16","experiment","SSSSS","3","odd","1593708","NA","NA","1654260","2086","NA","NA","1655336","1627225","1939","NA","NA","1655340","NA","1655446","1656092","NA","NA","1655446","NA","Flanker Task","32","23586","33","yes","1024"
"97.05882352941177","97.05882352941177","711.7941176470588","711.7941176470588","black","legacy","legacy","legacy","0","congruent","uniform","1","undefined","1","s","0","0","0","33","0","0","0","33","33","0","33","0","33","0","33","33","NA","NA","33","0","Sun Sep 25 13:55:41 2022","1500","The main experiment item","yes","NA","KH-Subject-1.osexp","/Users/keelihatcher/Desktop/Tarleton M.D./Advanced Quantitative Methods & Experimental Design","no","mono","no","18","no","white","no","no","768","legacy","33","33","/Users/keelihatcher/Desktop/Tarleton M.D./Advanced Quantitative Methods & Experimental Design/LH-subject-3.csv","legacy","Lentiform Loewenfeld","3.3.12","0","s","s","NA","NA","NA","s","NA","615","1591551","NA","NA","NA","615","NA","NA","NA","2","legacy","1024","2","48000","-16","experiment","SSSSS","3","odd","1593708","NA","NA","1656096","2086","NA","NA","1657172","1627225","1939","NA","NA","1657176","NA","1657281","1657897","NA","NA","1657281","NA","Flanker Task","33","24201","34","yes","1024"
"97.14285714285714","97.14285714285714","711.2","711.2","black","legacy","legacy","legacy","0","incongruent","uniform","1","undefined","1","h","0","0","0","34","0","0","0","34","34","0","34","0","34","0","34","34","NA","NA","34","0","Sun Sep 25 13:55:41 2022","1500","The main experiment item","yes","NA","KH-Subject-1.osexp","/Users/keelihatcher/Desktop/Tarleton M.D./Advanced Quantitative Methods & Experimental Design","no","mono","no","18","no","white","no","no","768","legacy","34","34","/Users/keelihatcher/Desktop/Tarleton M.D./Advanced Quantitative Methods & Experimental Design/LH-subject-3.csv","legacy","Lentiform Loewenfeld","3.3.12","0","h","s","NA","NA","NA","h","NA","691","1591551","NA","NA","NA","691","NA","NA","NA","2","legacy","1024","2","48000","-16","experiment","SSHSS","3","odd","1593708","NA","NA","1657901","2086","NA","NA","1658971","1627225","1939","NA","NA","1658975","NA","1659080","1659772","NA","NA","1659080","NA","Flanker Task","34","24892","35","yes","1024"
"97.22222222222223","97.22222222222223","713.4444444444445","713.4444444444445","black","legacy","legacy","legacy","0","incongruent","uniform","1","undefined","1","h","0","0","0","35","0","0","0","35","35","0","35","0","35","0","35","35","NA","NA","35","0","Sun Sep 25 13:55:41 2022","1500","The main experiment item","yes","NA","KH-Subject-1.osexp","/Users/keelihatcher/Desktop/Tarleton M.D./Advanced Quantitative Methods & Experimental Design","no","mono","no","18","no","white","no","no","768","legacy","35","35","/Users/keelihatcher/Desktop/Tarleton M.D./Advanced Quantitative Methods & Experimental Design/LH-subject-3.csv","legacy","Lentiform Loewenfeld","3.3.12","0","h","s","NA","NA","NA","h","NA","792","1591551","NA","NA","NA","792","NA","NA","NA","2","legacy","1024","2","48000","-16","experiment","SSHSS","3","odd","1593708","NA","NA","1659776","2086","NA","NA","1660851","1627225","1939","NA","NA","1660855","NA","1660960","1661753","NA","NA","1660960","NA","Flanker Task","35","25684","36","yes","1024"
"97.29729729729729","97.29729729729729","711.7567567567568","711.7567567567568","black","legacy","legacy","legacy","0","incongruent","uniform","1","undefined","1","h","0","0","0","36","0","0","0","36","36","0","36","0","36","0","36","36","NA","NA","36","0","Sun Sep 25 13:55:41 2022","1500","The main experiment item","yes","NA","KH-Subject-1.osexp","/Users/keelihatcher/Desktop/Tarleton M.D./Advanced Quantitative Methods & Experimental Design","no","mono","no","18","no","white","no","no","768","legacy","36","36","/Users/keelihatcher/Desktop/Tarleton M.D./Advanced Quantitative Methods & Experimental Design/LH-subject-3.csv","legacy","Lentiform Loewenfeld","3.3.12","0","h","s","NA","NA","NA","h","NA","651","1591551","NA","NA","NA","651","NA","NA","NA","2","legacy","1024","2","48000","-16","experiment","SSHSS","3","odd","1593708","NA","NA","1661757","2086","NA","NA","1662822","1627225","1939","NA","NA","1662826","NA","1662931","1663583","NA","NA","1662931","NA","Flanker Task","36","26335","37","yes","1024"
"97.36842105263158","97.36842105263158","725.7631578947369","725.7631578947369","black","legacy","legacy","legacy","0","incongruent","uniform","1","undefined","1","s","0","0","0","37","0","0","0","37","37","0","37","0","37","0","37","37","NA","NA","37","0","Sun Sep 25 13:55:41 2022","1500","The main experiment item","yes","NA","KH-Subject-1.osexp","/Users/keelihatcher/Desktop/Tarleton M.D./Advanced Quantitative Methods & Experimental Design","no","mono","no","18","no","white","no","no","768","legacy","37","37","/Users/keelihatcher/Desktop/Tarleton M.D./Advanced Quantitative Methods & Experimental Design/LH-subject-3.csv","legacy","Lentiform Loewenfeld","3.3.12","0","s","s","NA","NA","NA","s","NA","1244","1591551","NA","NA","NA","1244","NA","NA","NA","2","legacy","1024","2","48000","-16","experiment","HHSHH","3","odd","1593708","NA","NA","1663587","2086","NA","NA","1664665","1627225","1939","NA","NA","1664669","NA","1664773","1666018","NA","NA","1664773","NA","Flanker Task","37","27579","38","yes","1024"
"97.43589743589743","97.43589743589743","723.8717948717949","723.8717948717949","black","legacy","legacy","legacy","0","congruent","uniform","1","undefined","1","h","0","0","0","38","0","0","0","38","38","0","38","0","38","0","38","38","NA","NA","38","0","Sun Sep 25 13:55:41 2022","1500","The main experiment item","yes","NA","KH-Subject-1.osexp","/Users/keelihatcher/Desktop/Tarleton M.D./Advanced Quantitative Methods & Experimental Design","no","mono","no","18","no","white","no","no","768","legacy","38","38","/Users/keelihatcher/Desktop/Tarleton M.D./Advanced Quantitative Methods & Experimental Design/LH-subject-3.csv","legacy","Lentiform Loewenfeld","3.3.12","0","h","s","NA","NA","NA","h","NA","652","1591551","NA","NA","NA","652","NA","NA","NA","2","legacy","1024","2","48000","-16","experiment","HHHHH","3","odd","1593708","NA","NA","1666022","2086","NA","NA","1667102","1627225","1939","NA","NA","1667106","NA","1667211","1667863","NA","NA","1667211","NA","Flanker Task","38","28231","39","yes","1024"
"97.5","97.5","720.8","720.8","black","legacy","legacy","legacy","0","incongruent","uniform","1","undefined","1","s","0","0","0","39","0","0","0","39","39","0","39","0","39","0","39","39","NA","NA","39","0","Sun Sep 25 13:55:41 2022","1500","The main experiment item","yes","NA","KH-Subject-1.osexp","/Users/keelihatcher/Desktop/Tarleton M.D./Advanced Quantitative Methods & Experimental Design","no","mono","no","18","no","white","no","no","768","legacy","39","39","/Users/keelihatcher/Desktop/Tarleton M.D./Advanced Quantitative Methods & Experimental Design/LH-subject-3.csv","legacy","Lentiform Loewenfeld","3.3.12","0","s","s","NA","NA","NA","s","NA","601","1591551","NA","NA","NA","601","NA","NA","NA","2","legacy","1024","2","48000","-16","experiment","HHSHH","3","odd","1593708","NA","NA","1667867","2086","NA","NA","1668934","1627225","1939","NA","NA","1668938","NA","1669044","1669645","NA","NA","1669043","NA","Flanker Task","39","28832","40","yes","1024"
"97.5609756097561","97.5609756097561","722","722","black","legacy","legacy","legacy","0","congruent","uniform","1","undefined","1","h","0","0","0","40","0","0","0","40","40","0","40","0","40","0","40","40","NA","NA","40","0","Sun Sep 25 13:55:41 2022","1500","The main experiment item","yes","NA","KH-Subject-1.osexp","/Users/keelihatcher/Desktop/Tarleton M.D./Advanced Quantitative Methods & Experimental Design","no","mono","no","18","no","white","no","no","768","legacy","40","40","/Users/keelihatcher/Desktop/Tarleton M.D./Advanced Quantitative Methods & Experimental Design/LH-subject-3.csv","legacy","Lentiform Loewenfeld","3.3.12","0","h","s","NA","NA","NA","h","NA","770","1591551","NA","NA","NA","770","NA","NA","NA","2","legacy","1024","2","48000","-16","experiment","HHHHH","3","odd","1593708","NA","NA","1669650","2086","NA","NA","1670728","1627225","1939","NA","NA","1670731","NA","1670837","1671607","NA","NA","1670837","NA","Flanker Task","40","29602","41","yes","1024"
"97.61904761904762","97.61904761904762","718.2142857142857","718.2142857142857","black","legacy","legacy","legacy","0","congruent","uniform","1","undefined","1","s","0","0","0","41","0","0","0","41","41","0","41","0","41","0","41","41","NA","NA","41","0","Sun Sep 25 13:55:41 2022","1500","The main experiment item","yes","NA","KH-Subject-1.osexp","/Users/keelihatcher/Desktop/Tarleton M.D./Advanced Quantitative Methods & Experimental Design","no","mono","no","18","no","white","no","no","768","legacy","41","41","/Users/keelihatcher/Desktop/Tarleton M.D./Advanced Quantitative Methods & Experimental Design/LH-subject-3.csv","legacy","Lentiform Loewenfeld","3.3.12","0","s","s","NA","NA","NA","s","NA","563","1591551","NA","NA","NA","563","NA","NA","NA","2","legacy","1024","2","48000","-16","experiment","SSSSS","3","odd","1593708","NA","NA","1671612","2086","NA","NA","1672687","1627225","1939","NA","NA","1672691","NA","1672796","1673360","NA","NA","1672796","NA","Flanker Task","41","30165","42","yes","1024"
"97.67441860465117","97.67441860465117","716.6744186046511","716.6744186046511","black","legacy","legacy","legacy","0","incongruent","uniform","1","undefined","1","h","0","0","0","42","0","0","0","42","42","0","42","0","42","0","42","42","NA","NA","42","0","Sun Sep 25 13:55:41 2022","1500","The main experiment item","yes","NA","KH-Subject-1.osexp","/Users/keelihatcher/Desktop/Tarleton M.D./Advanced Quantitative Methods & Experimental Design","no","mono","no","18","no","white","no","no","768","legacy","42","42","/Users/keelihatcher/Desktop/Tarleton M.D./Advanced Quantitative Methods & Experimental Design/LH-subject-3.csv","legacy","Lentiform Loewenfeld","3.3.12","0","h","s","NA","NA","NA","h","NA","652","1591551","NA","NA","NA","652","NA","NA","NA","2","legacy","1024","2","48000","-16","experiment","SSHSS","3","odd","1593708","NA","NA","1673364","2086","NA","NA","1674441","1627225","1939","NA","NA","1674445","NA","1674550","1675203","NA","NA","1674550","NA","Flanker Task","42","30817","43","yes","1024"
"97.72727272727273","97.72727272727273","712.6136363636364","712.6136363636364","black","legacy","legacy","legacy","0","incongruent","uniform","1","undefined","1","s","0","0","0","43","0","0","0","43","43","0","43","0","43","0","43","43","NA","NA","43","0","Sun Sep 25 13:55:41 2022","1500","The main experiment item","yes","NA","KH-Subject-1.osexp","/Users/keelihatcher/Desktop/Tarleton M.D./Advanced Quantitative Methods & Experimental Design","no","mono","no","18","no","white","no","no","768","legacy","43","43","/Users/keelihatcher/Desktop/Tarleton M.D./Advanced Quantitative Methods & Experimental Design/LH-subject-3.csv","legacy","Lentiform Loewenfeld","3.3.12","0","s","s","NA","NA","NA","s","NA","538","1591551","NA","NA","NA","538","NA","NA","NA","2","legacy","1024","2","48000","-16","experiment","HHSHH","3","odd","1593708","NA","NA","1675208","2086","NA","NA","1676286","1627225","1939","NA","NA","1676290","NA","1676395","1676934","NA","NA","1676395","NA","Flanker Task","43","31355","44","yes","1024"
"97.77777777777777","97.77777777777777","711.4444444444445","711.4444444444445","black","legacy","legacy","legacy","0","incongruent","uniform","1","undefined","1","s","0","0","0","44","0","0","0","44","44","0","44","0","44","0","44","44","NA","NA","44","0","Sun Sep 25 13:55:41 2022","1500","The main experiment item","yes","NA","KH-Subject-1.osexp","/Users/keelihatcher/Desktop/Tarleton M.D./Advanced Quantitative Methods & Experimental Design","no","mono","no","18","no","white","no","no","768","legacy","44","44","/Users/keelihatcher/Desktop/Tarleton M.D./Advanced Quantitative Methods & Experimental Design/LH-subject-3.csv","legacy","Lentiform Loewenfeld","3.3.12","0","s","s","NA","NA","NA","s","NA","660","1591551","NA","NA","NA","660","NA","NA","NA","2","legacy","1024","2","48000","-16","experiment","HHSHH","3","odd","1593708","NA","NA","1676938","2086","NA","NA","1678020","1627225","1939","NA","NA","1678023","NA","1678129","1678790","NA","NA","1678129","NA","Flanker Task","44","32015","45","yes","1024"
"97.82608695652173","97.82608695652173","713.1086956521739","713.1086956521739","black","legacy","legacy","legacy","0","incongruent","uniform","1","undefined","1","s","0","0","0","45","0","0","0","45","45","0","45","0","45","0","45","45","NA","NA","45","0","Sun Sep 25 13:55:41 2022","1500","The main experiment item","yes","NA","KH-Subject-1.osexp","/Users/keelihatcher/Desktop/Tarleton M.D./Advanced Quantitative Methods & Experimental Design","no","mono","no","18","no","white","no","no","768","legacy","45","45","/Users/keelihatcher/Desktop/Tarleton M.D./Advanced Quantitative Methods & Experimental Design/LH-subject-3.csv","legacy","Lentiform Loewenfeld","3.3.12","0","s","s","NA","NA","NA","s","NA","788","1591551","NA","NA","NA","788","NA","NA","NA","2","legacy","1024","2","48000","-16","experiment","HHSHH","3","odd","1593708","NA","NA","1678794","2086","NA","NA","1679874","1627225","1939","NA","NA","1679878","NA","1679983","1680772","NA","NA","1679983","NA","Flanker Task","45","32803","46","yes","1024"
"97.87234042553192","97.87234042553192","711.9787234042553","711.9787234042553","black","legacy","legacy","legacy","0","incongruent","uniform","1","undefined","1","h","0","0","0","46","0","0","0","46","46","0","46","0","46","0","46","46","NA","NA","46","0","Sun Sep 25 13:55:41 2022","1500","The main experiment item","yes","NA","KH-Subject-1.osexp","/Users/keelihatcher/Desktop/Tarleton M.D./Advanced Quantitative Methods & Experimental Design","no","mono","no","18","no","white","no","no","768","legacy","46","46","/Users/keelihatcher/Desktop/Tarleton M.D./Advanced Quantitative Methods & Experimental Design/LH-subject-3.csv","legacy","Lentiform Loewenfeld","3.3.12","0","h","s","NA","NA","NA","h","NA","660","1591551","NA","NA","NA","660","NA","NA","NA","2","legacy","1024","2","48000","-16","experiment","SSHSS","3","odd","1593708","NA","NA","1680777","2086","NA","NA","1681854","1627225","1939","NA","NA","1681858","NA","1681964","1682625","NA","NA","1681964","NA","Flanker Task","46","33463","47","yes","1024"
"97.91666666666667","97.91666666666667","708.3541666666666","708.3541666666666","black","legacy","legacy","legacy","0","congruent","uniform","1","undefined","1","h","0","0","0","47","0","0","0","47","47","0","47","0","47","0","47","47","NA","NA","47","0","Sun Sep 25 13:55:41 2022","1500","The main experiment item","yes","NA","KH-Subject-1.osexp","/Users/keelihatcher/Desktop/Tarleton M.D./Advanced Quantitative Methods & Experimental Design","no","mono","no","18","no","white","no","no","768","legacy","47","47","/Users/keelihatcher/Desktop/Tarleton M.D./Advanced Quantitative Methods & Experimental Design/LH-subject-3.csv","legacy","Lentiform Loewenfeld","3.3.12","0","h","s","NA","NA","NA","h","NA","538","1591551","NA","NA","NA","538","NA","NA","NA","2","legacy","1024","2","48000","-16","experiment","HHHHH","3","odd","1593708","NA","NA","1682629","2086","NA","NA","1683708","1627225","1939","NA","NA","1683712","NA","1683817","1684356","NA","NA","1683817","NA","Flanker Task","47","34001","48","yes","1024"
"97.95918367346938","97.95918367346938","704.4081632653061","704.4081632653061","black","legacy","legacy","legacy","0","congruent","uniform","1","undefined","1","s","0","0","0","48","0","0","0","48","48","0","48","0","48","0","48","48","NA","NA","48","0","Sun Sep 25 13:55:41 2022","1500","The main experiment item","yes","NA","KH-Subject-1.osexp","/Users/keelihatcher/Desktop/Tarleton M.D./Advanced Quantitative Methods & Experimental Design","no","mono","no","18","no","white","no","no","768","legacy","48","48","/Users/keelihatcher/Desktop/Tarleton M.D./Advanced Quantitative Methods & Experimental Design/LH-subject-3.csv","legacy","Lentiform Loewenfeld","3.3.12","0","s","s","NA","NA","NA","s","NA","515","1591551","NA","NA","NA","515","NA","NA","NA","2","legacy","1024","2","48000","-16","experiment","SSSSS","3","odd","1593708","NA","NA","1684360","2086","NA","NA","1685435","1627225","1939","NA","NA","1685439","NA","1685545","1686061","NA","NA","1685545","NA","Flanker Task","48","34516","49","yes","1024"
"98","98","703.24","703.24","black","legacy","legacy","legacy","0","incongruent","uniform","1","undefined","1","h","0","0","0","49","0","0","0","49","49","0","49","0","49","0","49","49","NA","NA","49","0","Sun Sep 25 13:55:41 2022","1500","The main experiment item","yes","NA","KH-Subject-1.osexp","/Users/keelihatcher/Desktop/Tarleton M.D./Advanced Quantitative Methods & Experimental Design","no","mono","no","18","no","white","no","no","768","legacy","49","49","/Users/keelihatcher/Desktop/Tarleton M.D./Advanced Quantitative Methods & Experimental Design/LH-subject-3.csv","legacy","Lentiform Loewenfeld","3.3.12","0","h","s","NA","NA","NA","h","NA","646","1591551","NA","NA","NA","646","NA","NA","NA","2","legacy","1024","2","48000","-16","experiment","SSHSS","3","odd","1593708","NA","NA","1686065","2086","NA","NA","1687145","1627225","1939","NA","NA","1687149","NA","1687253","1687900","NA","NA","1687253","NA","Flanker Task","49","35162","50","yes","1024"
"98.03921568627452","98.03921568627452","701.5686274509804","701.5686274509804","black","legacy","legacy","legacy","0","congruent","uniform","1","undefined","1","h","0","0","0","50","0","0","0","50","50","0","50","0","50","0","50","50","NA","NA","50","0","Sun Sep 25 13:55:41 2022","1500","The main experiment item","yes","NA","KH-Subject-1.osexp","/Users/keelihatcher/Desktop/Tarleton M.D./Advanced Quantitative Methods & Experimental Design","no","mono","no","18","no","white","no","no","768","legacy","50","50","/Users/keelihatcher/Desktop/Tarleton M.D./Advanced Quantitative Methods & Experimental Design/LH-subject-3.csv","legacy","Lentiform Loewenfeld","3.3.12","0","h","s","NA","NA","NA","h","NA","618","1591551","NA","NA","NA","618","NA","NA","NA","2","legacy","1024","2","48000","-16","experiment","HHHHH","3","odd","1593708","NA","NA","1687904","2086","NA","NA","1688982","1627225","1939","NA","NA","1688986","NA","1689091","1689709","NA","NA","1689091","NA","Flanker Task","50","35780","51","yes","1024"
"98.07692307692308","98.07692307692308","699.3653846153846","699.3653846153846","black","legacy","legacy","legacy","0","incongruent","uniform","1","undefined","1","s","0","0","0","51","0","0","0","51","51","0","51","0","51","0","51","51","NA","NA","51","0","Sun Sep 25 13:55:41 2022","1500","The main experiment item","yes","NA","KH-Subject-1.osexp","/Users/keelihatcher/Desktop/Tarleton M.D./Advanced Quantitative Methods & Experimental Design","no","mono","no","18","no","white","no","no","768","legacy","51","51","/Users/keelihatcher/Desktop/Tarleton M.D./Advanced Quantitative Methods & Experimental Design/LH-subject-3.csv","legacy","Lentiform Loewenfeld","3.3.12","0","s","s","NA","NA","NA","s","NA","587","1591551","NA","NA","NA","587","NA","NA","NA","2","legacy","1024","2","48000","-16","experiment","HHSHH","3","odd","1593708","NA","NA","1689714","2086","NA","NA","1690794","1627225","1939","NA","NA","1690797","NA","1690902","1691490","NA","NA","1690902","NA","Flanker Task","51","36367","52","yes","1024"
"98.11320754716981","98.11320754716981","698.5094339622641","698.5094339622641","black","legacy","legacy","legacy","0","congruent","uniform","1","undefined","1","h","0","0","0","52","0","0","0","52","52","0","52","0","52","0","52","52","NA","NA","52","0","Sun Sep 25 13:55:41 2022","1500","The main experiment item","yes","NA","KH-Subject-1.osexp","/Users/keelihatcher/Desktop/Tarleton M.D./Advanced Quantitative Methods & Experimental Design","no","mono","no","18","no","white","no","no","768","legacy","52","52","/Users/keelihatcher/Desktop/Tarleton M.D./Advanced Quantitative Methods & Experimental Design/LH-subject-3.csv","legacy","Lentiform Loewenfeld","3.3.12","0","h","s","NA","NA","NA","h","NA","654","1591551","NA","NA","NA","654","NA","NA","NA","2","legacy","1024","2","48000","-16","experiment","HHHHH","3","odd","1593708","NA","NA","1691494","2086","NA","NA","1692573","1627225","1939","NA","NA","1692577","NA","1692682","1693336","NA","NA","1692682","NA","Flanker Task","52","37021","53","yes","1024"
"98.14814814814815","98.14814814814815","698.6666666666666","698.6666666666666","black","legacy","legacy","legacy","0","incongruent","uniform","1","undefined","1","h","0","0","0","53","0","0","0","53","53","0","53","0","53","0","53","53","NA","NA","53","0","Sun Sep 25 13:55:41 2022","1500","The main experiment item","yes","NA","KH-Subject-1.osexp","/Users/keelihatcher/Desktop/Tarleton M.D./Advanced Quantitative Methods & Experimental Design","no","mono","no","18","no","white","no","no","768","legacy","53","53","/Users/keelihatcher/Desktop/Tarleton M.D./Advanced Quantitative Methods & Experimental Design/LH-subject-3.csv","legacy","Lentiform Loewenfeld","3.3.12","0","h","s","NA","NA","NA","h","NA","707","1591551","NA","NA","NA","707","NA","NA","NA","2","legacy","1024","2","48000","-16","experiment","SSHSS","3","odd","1593708","NA","NA","1693340","2086","NA","NA","1694408","1627225","1939","NA","NA","1694412","NA","1694517","1695225","NA","NA","1694517","NA","Flanker Task","53","37728","54","yes","1024"
"98.18181818181819","98.18181818181819","696.9818181818182","696.9818181818182","black","legacy","legacy","legacy","0","congruent","uniform","1","undefined","1","h","0","0","0","54","0","0","0","54","54","0","54","0","54","0","54","54","NA","NA","54","0","Sun Sep 25 13:55:41 2022","1500","The main experiment item","yes","NA","KH-Subject-1.osexp","/Users/keelihatcher/Desktop/Tarleton M.D./Advanced Quantitative Methods & Experimental Design","no","mono","no","18","no","white","no","no","768","legacy","54","54","/Users/keelihatcher/Desktop/Tarleton M.D./Advanced Quantitative Methods & Experimental Design/LH-subject-3.csv","legacy","Lentiform Loewenfeld","3.3.12","0","h","s","NA","NA","NA","h","NA","606","1591551","NA","NA","NA","606","NA","NA","NA","2","legacy","1024","2","48000","-16","experiment","HHHHH","3","odd","1593708","NA","NA","1695229","2086","NA","NA","1696306","1627225","1939","NA","NA","1696310","NA","1696414","1697021","NA","NA","1696414","NA","Flanker Task","54","38334","55","yes","1024"
"98.21428571428571","98.21428571428571","698.375","698.375","black","legacy","legacy","legacy","0","incongruent","uniform","1","undefined","1","h","0","0","0","55","0","0","0","55","55","0","55","0","55","0","55","55","NA","NA","55","0","Sun Sep 25 13:55:41 2022","1500","The main experiment item","yes","NA","KH-Subject-1.osexp","/Users/keelihatcher/Desktop/Tarleton M.D./Advanced Quantitative Methods & Experimental Design","no","mono","no","18","no","white","no","no","768","legacy","55","55","/Users/keelihatcher/Desktop/Tarleton M.D./Advanced Quantitative Methods & Experimental Design/LH-subject-3.csv","legacy","Lentiform Loewenfeld","3.3.12","0","h","s","NA","NA","NA","h","NA","775","1591551","NA","NA","NA","775","NA","NA","NA","2","legacy","1024","2","48000","-16","experiment","SSHSS","3","odd","1593708","NA","NA","1697025","2086","NA","NA","1698103","1627225","1939","NA","NA","1698107","NA","1698212","1698987","NA","NA","1698212","NA","Flanker Task","55","39109","56","yes","1024"
"98.24561403508773","98.24561403508773","697.9473684210526","697.9473684210526","black","legacy","legacy","legacy","0","incongruent","uniform","1","undefined","1","s","0","0","0","56","0","0","0","56","56","0","56","0","56","0","56","56","NA","NA","56","0","Sun Sep 25 13:55:41 2022","1500","The main experiment item","yes","NA","KH-Subject-1.osexp","/Users/keelihatcher/Desktop/Tarleton M.D./Advanced Quantitative Methods & Experimental Design","no","mono","no","18","no","white","no","no","768","legacy","56","56","/Users/keelihatcher/Desktop/Tarleton M.D./Advanced Quantitative Methods & Experimental Design/LH-subject-3.csv","legacy","Lentiform Loewenfeld","3.3.12","0","s","s","NA","NA","NA","s","NA","674","1591551","NA","NA","NA","674","NA","NA","NA","2","legacy","1024","2","48000","-16","experiment","HHSHH","3","odd","1593708","NA","NA","1698992","2086","NA","NA","1700072","1627225","1939","NA","NA","1700076","NA","1700181","1700856","NA","NA","1700181","NA","Flanker Task","56","39783","57","yes","1024"
"98.27586206896552","98.27586206896552","696.9655172413793","696.9655172413793","black","legacy","legacy","legacy","0","incongruent","uniform","1","undefined","1","h","0","0","0","57","0","0","0","57","57","0","57","0","57","0","57","57","NA","NA","57","0","Sun Sep 25 13:55:41 2022","1500","The main experiment item","yes","NA","KH-Subject-1.osexp","/Users/keelihatcher/Desktop/Tarleton M.D./Advanced Quantitative Methods & Experimental Design","no","mono","no","18","no","white","no","no","768","legacy","57","57","/Users/keelihatcher/Desktop/Tarleton M.D./Advanced Quantitative Methods & Experimental Design/LH-subject-3.csv","legacy","Lentiform Loewenfeld","3.3.12","0","h","s","NA","NA","NA","h","NA","641","1591551","NA","NA","NA","641","NA","NA","NA","2","legacy","1024","2","48000","-16","experiment","SSHSS","3","odd","1593708","NA","NA","1700860","2086","NA","NA","1701937","1627225","1939","NA","NA","1701941","NA","1702047","1702688","NA","NA","1702046","NA","Flanker Task","57","40424","58","yes","1024"
"98.30508474576271","98.30508474576271","697.5593220338983","697.5593220338983","black","legacy","legacy","legacy","0","incongruent","uniform","1","undefined","1","s","0","0","0","58","0","0","0","58","58","0","58","0","58","0","58","58","NA","NA","58","0","Sun Sep 25 13:55:41 2022","1500","The main experiment item","yes","NA","KH-Subject-1.osexp","/Users/keelihatcher/Desktop/Tarleton M.D./Advanced Quantitative Methods & Experimental Design","no","mono","no","18","no","white","no","no","768","legacy","58","58","/Users/keelihatcher/Desktop/Tarleton M.D./Advanced Quantitative Methods & Experimental Design/LH-subject-3.csv","legacy","Lentiform Loewenfeld","3.3.12","0","s","s","NA","NA","NA","s","NA","732","1591551","NA","NA","NA","732","NA","NA","NA","2","legacy","1024","2","48000","-16","experiment","HHSHH","3","odd","1593708","NA","NA","1702693","2086","NA","NA","1703771","1627225","1939","NA","NA","1703775","NA","1703880","1704613","NA","NA","1703880","NA","Flanker Task","58","41156","59","yes","1024"
"98.33333333333333","98.33333333333333","696.75","696.75","black","legacy","legacy","legacy","0","congruent","uniform","1","undefined","1","h","0","0","0","59","0","0","0","59","59","0","59","0","59","0","59","59","NA","NA","59","0","Sun Sep 25 13:55:41 2022","1500","The main experiment item","yes","NA","KH-Subject-1.osexp","/Users/keelihatcher/Desktop/Tarleton M.D./Advanced Quantitative Methods & Experimental Design","no","mono","no","18","no","white","no","no","768","legacy","59","59","/Users/keelihatcher/Desktop/Tarleton M.D./Advanced Quantitative Methods & Experimental Design/LH-subject-3.csv","legacy","Lentiform Loewenfeld","3.3.12","0","h","s","NA","NA","NA","h","NA","649","1591551","NA","NA","NA","649","NA","NA","NA","2","legacy","1024","2","48000","-16","experiment","HHHHH","3","odd","1593708","NA","NA","1704617","2086","NA","NA","1705678","1627225","1939","NA","NA","1705681","NA","1705787","1706437","NA","NA","1705787","NA","Flanker Task","59","41805","60","yes","1024"
"98.36065573770492","98.36065573770492","695.4262295081967","695.4262295081967","black","legacy","legacy","legacy","0","incongruent","uniform","1","undefined","1","s","0","0","0","60","0","0","0","60","60","0","60","0","60","0","60","60","NA","NA","60","0","Sun Sep 25 13:55:41 2022","1500","The main experiment item","yes","NA","KH-Subject-1.osexp","/Users/keelihatcher/Desktop/Tarleton M.D./Advanced Quantitative Methods & Experimental Design","no","mono","no","18","no","white","no","no","768","legacy","60","60","/Users/keelihatcher/Desktop/Tarleton M.D./Advanced Quantitative Methods & Experimental Design/LH-subject-3.csv","legacy","Lentiform Loewenfeld","3.3.12","0","s","s","NA","NA","NA","s","NA","616","1591551","NA","NA","NA","616","NA","NA","NA","2","legacy","1024","2","48000","-16","experiment","HHSHH","3","odd","1593708","NA","NA","1706441","2086","NA","NA","1707517","1627225","1939","NA","NA","1707521","NA","1707625","1708242","NA","NA","1707625","NA","Flanker Task","60","42421","61","yes","1024"
"98.38709677419355","98.38709677419355","693.5322580645161","693.5322580645161","black","legacy","legacy","legacy","0","congruent","uniform","1","undefined","1","h","0","0","0","61","0","0","0","61","61","0","61","0","61","0","61","61","NA","NA","61","0","Sun Sep 25 13:55:41 2022","1500","The main experiment item","yes","NA","KH-Subject-1.osexp","/Users/keelihatcher/Desktop/Tarleton M.D./Advanced Quantitative Methods & Experimental Design","no","mono","no","18","no","white","no","no","768","legacy","61","61","/Users/keelihatcher/Desktop/Tarleton M.D./Advanced Quantitative Methods & Experimental Design/LH-subject-3.csv","legacy","Lentiform Loewenfeld","3.3.12","0","h","s","NA","NA","NA","h","NA","578","1591551","NA","NA","NA","578","NA","NA","NA","2","legacy","1024","2","48000","-16","experiment","HHHHH","3","odd","1593708","NA","NA","1708246","2086","NA","NA","1709324","1627225","1939","NA","NA","1709328","NA","1709433","1710012","NA","NA","1709433","NA","Flanker Task","61","42999","62","yes","1024"
"98.41269841269842","98.41269841269842","692.5079365079365","692.5079365079365","black","legacy","legacy","legacy","0","congruent","uniform","1","undefined","1","h","0","0","0","62","0","0","0","62","62","0","62","0","62","0","62","62","NA","NA","62","0","Sun Sep 25 13:55:41 2022","1500","The main experiment item","yes","NA","KH-Subject-1.osexp","/Users/keelihatcher/Desktop/Tarleton M.D./Advanced Quantitative Methods & Experimental Design","no","mono","no","18","no","white","no","no","768","legacy","62","62","/Users/keelihatcher/Desktop/Tarleton M.D./Advanced Quantitative Methods & Experimental Design/LH-subject-3.csv","legacy","Lentiform Loewenfeld","3.3.12","0","h","s","NA","NA","NA","h","NA","629","1591551","NA","NA","NA","629","NA","NA","NA","2","legacy","1024","2","48000","-16","experiment","HHHHH","3","odd","1593708","NA","NA","1710016","2086","NA","NA","1711090","1627225","1939","NA","NA","1711094","NA","1711199","1711829","NA","NA","1711199","NA","Flanker Task","62","43628","63","yes","1024"
"98.4375","98.4375","691.921875","691.921875","black","legacy","legacy","legacy","0","congruent","uniform","1","undefined","1","s","0","0","0","63","0","0","0","63","63","0","63","0","63","0","63","63","NA","NA","63","0","Sun Sep 25 13:55:41 2022","1500","The main experiment item","yes","NA","KH-Subject-1.osexp","/Users/keelihatcher/Desktop/Tarleton M.D./Advanced Quantitative Methods & Experimental Design","no","mono","no","18","no","white","no","no","768","legacy","63","63","/Users/keelihatcher/Desktop/Tarleton M.D./Advanced Quantitative Methods & Experimental Design/LH-subject-3.csv","legacy","Lentiform Loewenfeld","3.3.12","0","s","s","NA","NA","NA","s","NA","655","1591551","NA","NA","NA","655","NA","NA","NA","2","legacy","1024","2","48000","-16","experiment","SSSSS","3","odd","1593708","NA","NA","1711833","2086","NA","NA","1712917","1627225","1939","NA","NA","1712921","NA","1713026","1713682","NA","NA","1713026","NA","Flanker Task","63","44283","64","yes","1024"
"98.46153846153847","98.46153846153847","691.6153846153846","691.6153846153846","black","legacy","legacy","legacy","0","congruent","uniform","1","undefined","1","h","0","0","0","64","0","0","0","64","64","0","64","0","64","0","64","64","NA","NA","64","0","Sun Sep 25 13:55:41 2022","1500","The main experiment item","yes","NA","KH-Subject-1.osexp","/Users/keelihatcher/Desktop/Tarleton M.D./Advanced Quantitative Methods & Experimental Design","no","mono","no","18","no","white","no","no","768","legacy","64","64","/Users/keelihatcher/Desktop/Tarleton M.D./Advanced Quantitative Methods & Experimental Design/LH-subject-3.csv","legacy","Lentiform Loewenfeld","3.3.12","0","h","s","NA","NA","NA","h","NA","672","1591551","NA","NA","NA","672","NA","NA","NA","2","legacy","1024","2","48000","-16","experiment","HHHHH","3","odd","1593708","NA","NA","1713686","2086","NA","NA","1714771","1627225","1939","NA","NA","1714774","NA","1714879","1715552","NA","NA","1714879","NA","Flanker Task","64","44955","65","yes","1024"
"98.48484848484848","98.48484848484848","695.5454545454545","695.5454545454545","black","legacy","legacy","legacy","0","incongruent","uniform","1","undefined","1","h","0","0","0","65","0","0","0","65","65","0","65","0","65","0","65","65","NA","NA","65","0","Sun Sep 25 13:55:41 2022","1500","The main experiment item","yes","NA","KH-Subject-1.osexp","/Users/keelihatcher/Desktop/Tarleton M.D./Advanced Quantitative Methods & Experimental Design","no","mono","no","18","no","white","no","no","768","legacy","65","65","/Users/keelihatcher/Desktop/Tarleton M.D./Advanced Quantitative Methods & Experimental Design/LH-subject-3.csv","legacy","Lentiform Loewenfeld","3.3.12","0","h","s","NA","NA","NA","h","NA","951","1591551","NA","NA","NA","951","NA","NA","NA","2","legacy","1024","2","48000","-16","experiment","SSHSS","3","odd","1593708","NA","NA","1715557","2086","NA","NA","1716637","1627225","1939","NA","NA","1716641","NA","1716747","1717699","NA","NA","1716746","NA","Flanker Task","65","45906","66","yes","1024"
"98.50746268656717","98.50746268656717","695.2686567164179","695.2686567164179","black","legacy","legacy","legacy","0","incongruent","uniform","1","undefined","1","h","0","0","0","66","0","0","0","66","66","0","66","0","66","0","66","66","NA","NA","66","0","Sun Sep 25 13:55:41 2022","1500","The main experiment item","yes","NA","KH-Subject-1.osexp","/Users/keelihatcher/Desktop/Tarleton M.D./Advanced Quantitative Methods & Experimental Design","no","mono","no","18","no","white","no","no","768","legacy","66","66","/Users/keelihatcher/Desktop/Tarleton M.D./Advanced Quantitative Methods & Experimental Design/LH-subject-3.csv","legacy","Lentiform Loewenfeld","3.3.12","0","h","s","NA","NA","NA","h","NA","677","1591551","NA","NA","NA","677","NA","NA","NA","2","legacy","1024","2","48000","-16","experiment","SSHSS","3","odd","1593708","NA","NA","1717704","2086","NA","NA","1718786","1627225","1939","NA","NA","1718790","NA","1718895","1719573","NA","NA","1718895","NA","Flanker Task","66","46583","67","yes","1024"
"98.52941176470588","98.52941176470588","694.1617647058823","694.1617647058823","black","legacy","legacy","legacy","0","congruent","uniform","1","undefined","1","s","0","0","0","67","0","0","0","67","67","0","67","0","67","0","67","67","NA","NA","67","0","Sun Sep 25 13:55:41 2022","1500","The main experiment item","yes","NA","KH-Subject-1.osexp","/Users/keelihatcher/Desktop/Tarleton M.D./Advanced Quantitative Methods & Experimental Design","no","mono","no","18","no","white","no","no","768","legacy","67","67","/Users/keelihatcher/Desktop/Tarleton M.D./Advanced Quantitative Methods & Experimental Design/LH-subject-3.csv","legacy","Lentiform Loewenfeld","3.3.12","0","s","s","NA","NA","NA","s","NA","620","1591551","NA","NA","NA","620","NA","NA","NA","2","legacy","1024","2","48000","-16","experiment","SSSSS","3","odd","1593708","NA","NA","1719577","2086","NA","NA","1720650","1627225","1939","NA","NA","1720654","NA","1720759","1721379","NA","NA","1720759","NA","Flanker Task","67","47203","68","yes","1024"
"98.55072463768116","98.55072463768116","693.7391304347826","693.7391304347826","black","legacy","legacy","legacy","0","congruent","uniform","1","undefined","1","h","0","0","0","68","0","0","0","68","68","0","68","0","68","0","68","68","NA","NA","68","0","Sun Sep 25 13:55:41 2022","1500","The main experiment item","yes","NA","KH-Subject-1.osexp","/Users/keelihatcher/Desktop/Tarleton M.D./Advanced Quantitative Methods & Experimental Design","no","mono","no","18","no","white","no","no","768","legacy","68","68","/Users/keelihatcher/Desktop/Tarleton M.D./Advanced Quantitative Methods & Experimental Design/LH-subject-3.csv","legacy","Lentiform Loewenfeld","3.3.12","0","h","s","NA","NA","NA","h","NA","665","1591551","NA","NA","NA","665","NA","NA","NA","2","legacy","1024","2","48000","-16","experiment","HHHHH","3","odd","1593708","NA","NA","1721383","2086","NA","NA","1722459","1627225","1939","NA","NA","1722463","NA","1722568","1723234","NA","NA","1722568","NA","Flanker Task","68","47868","69","yes","1024"
"98.57142857142857","98.57142857142857","692.9","692.9","black","legacy","legacy","legacy","0","incongruent","uniform","1","undefined","1","h","0","0","0","69","0","0","0","69","69","0","69","0","69","0","69","69","NA","NA","69","0","Sun Sep 25 13:55:41 2022","1500","The main experiment item","yes","NA","KH-Subject-1.osexp","/Users/keelihatcher/Desktop/Tarleton M.D./Advanced Quantitative Methods & Experimental Design","no","mono","no","18","no","white","no","no","768","legacy","69","69","/Users/keelihatcher/Desktop/Tarleton M.D./Advanced Quantitative Methods & Experimental Design/LH-subject-3.csv","legacy","Lentiform Loewenfeld","3.3.12","0","h","s","NA","NA","NA","h","NA","635","1591551","NA","NA","NA","635","NA","NA","NA","2","legacy","1024","2","48000","-16","experiment","SSHSS","3","odd","1593708","NA","NA","1723238","2086","NA","NA","1724313","1627225","1939","NA","NA","1724317","NA","1724423","1725059","NA","NA","1724423","NA","Flanker Task","69","48503","70","yes","1024"
"98.59154929577464","98.59154929577464","690.9577464788732","690.9577464788732","black","legacy","legacy","legacy","0","congruent","uniform","1","undefined","1","h","0","0","0","70","0","0","0","70","70","0","70","0","70","0","70","70","NA","NA","70","0","Sun Sep 25 13:55:41 2022","1500","The main experiment item","yes","NA","KH-Subject-1.osexp","/Users/keelihatcher/Desktop/Tarleton M.D./Advanced Quantitative Methods & Experimental Design","no","mono","no","18","no","white","no","no","768","legacy","70","70","/Users/keelihatcher/Desktop/Tarleton M.D./Advanced Quantitative Methods & Experimental Design/LH-subject-3.csv","legacy","Lentiform Loewenfeld","3.3.12","0","h","s","NA","NA","NA","h","NA","555","1591551","NA","NA","NA","555","NA","NA","NA","2","legacy","1024","2","48000","-16","experiment","HHHHH","3","odd","1593708","NA","NA","1725063","2086","NA","NA","1726144","1627225","1939","NA","NA","1726148","NA","1726253","1726809","NA","NA","1726253","NA","Flanker Task","70","49058","71","yes","1024"
"98.61111111111111","98.61111111111111","689.4305555555555","689.4305555555555","black","legacy","legacy","legacy","0","congruent","uniform","1","undefined","1","s","0","0","0","71","0","0","0","71","71","0","71","0","71","0","71","71","NA","NA","71","0","Sun Sep 25 13:55:41 2022","1500","The main experiment item","yes","NA","KH-Subject-1.osexp","/Users/keelihatcher/Desktop/Tarleton M.D./Advanced Quantitative Methods & Experimental Design","no","mono","no","18","no","white","no","no","768","legacy","71","71","/Users/keelihatcher/Desktop/Tarleton M.D./Advanced Quantitative Methods & Experimental Design/LH-subject-3.csv","legacy","Lentiform Loewenfeld","3.3.12","0","s","s","NA","NA","NA","s","NA","581","1591551","NA","NA","NA","581","NA","NA","NA","2","legacy","1024","2","48000","-16","experiment","SSSSS","3","odd","1593708","NA","NA","1726813","2086","NA","NA","1727888","1627225","1939","NA","NA","1727892","NA","1728002","1728584","NA","NA","1728002","NA","Flanker Task","71","49639","72","yes","1024"
"98.63013698630137","98.63013698630137","687.9589041095891","687.9589041095891","black","legacy","legacy","legacy","0","congruent","uniform","1","undefined","1","s","0","0","0","72","0","0","0","72","72","0","72","0","72","0","72","72","NA","NA","72","0","Sun Sep 25 13:55:41 2022","1500","The main experiment item","yes","NA","KH-Subject-1.osexp","/Users/keelihatcher/Desktop/Tarleton M.D./Advanced Quantitative Methods & Experimental Design","no","mono","no","18","no","white","no","no","768","legacy","72","72","/Users/keelihatcher/Desktop/Tarleton M.D./Advanced Quantitative Methods & Experimental Design/LH-subject-3.csv","legacy","Lentiform Loewenfeld","3.3.12","0","s","s","NA","NA","NA","s","NA","582","1591551","NA","NA","NA","582","NA","NA","NA","2","legacy","1024","2","48000","-16","experiment","SSSSS","3","odd","1593708","NA","NA","1728589","2086","NA","NA","1729664","1627225","1939","NA","NA","1729668","NA","1729774","1730357","NA","NA","1729774","NA","Flanker Task","72","50221","73","yes","1024"
"98.64864864864865","98.64864864864865","687","687","black","legacy","legacy","legacy","0","congruent","uniform","1","undefined","1","s","0","0","0","73","0","0","0","73","73","0","73","0","73","0","73","73","NA","NA","73","0","Sun Sep 25 13:55:41 2022","1500","The main experiment item","yes","NA","KH-Subject-1.osexp","/Users/keelihatcher/Desktop/Tarleton M.D./Advanced Quantitative Methods & Experimental Design","no","mono","no","18","no","white","no","no","768","legacy","73","73","/Users/keelihatcher/Desktop/Tarleton M.D./Advanced Quantitative Methods & Experimental Design/LH-subject-3.csv","legacy","Lentiform Loewenfeld","3.3.12","0","s","s","NA","NA","NA","s","NA","617","1591551","NA","NA","NA","617","NA","NA","NA","2","legacy","1024","2","48000","-16","experiment","SSSSS","3","odd","1593708","NA","NA","1730361","2086","NA","NA","1731440","1627225","1939","NA","NA","1731444","NA","1731549","1732166","NA","NA","1731549","NA","Flanker Task","73","50838","74","yes","1024"
"98.66666666666667","98.66666666666667","686.1466666666666","686.1466666666666","black","legacy","legacy","legacy","0","congruent","uniform","1","undefined","1","h","0","0","0","74","0","0","0","74","74","0","74","0","74","0","74","74","NA","NA","74","0","Sun Sep 25 13:55:41 2022","1500","The main experiment item","yes","NA","KH-Subject-1.osexp","/Users/keelihatcher/Desktop/Tarleton M.D./Advanced Quantitative Methods & Experimental Design","no","mono","no","18","no","white","no","no","768","legacy","74","74","/Users/keelihatcher/Desktop/Tarleton M.D./Advanced Quantitative Methods & Experimental Design/LH-subject-3.csv","legacy","Lentiform Loewenfeld","3.3.12","0","h","s","NA","NA","NA","h","NA","623","1591551","NA","NA","NA","623","NA","NA","NA","2","legacy","1024","2","48000","-16","experiment","HHHHH","3","odd","1593708","NA","NA","1732170","2086","NA","NA","1733236","1627225","1939","NA","NA","1733239","NA","1733344","1733968","NA","NA","1733344","NA","Flanker Task","74","51461","75","yes","1024"
"98.6842105263158","98.6842105263158","687","687","black","legacy","legacy","legacy","0","congruent","uniform","1","undefined","1","s","0","0","0","75","0","0","0","75","75","0","75","0","75","0","75","75","NA","NA","75","0","Sun Sep 25 13:55:41 2022","1500","The main experiment item","yes","NA","KH-Subject-1.osexp","/Users/keelihatcher/Desktop/Tarleton M.D./Advanced Quantitative Methods & Experimental Design","no","mono","no","18","no","white","no","no","768","legacy","75","75","/Users/keelihatcher/Desktop/Tarleton M.D./Advanced Quantitative Methods & Experimental Design/LH-subject-3.csv","legacy","Lentiform Loewenfeld","3.3.12","0","s","s","NA","NA","NA","s","NA","751","1591551","NA","NA","NA","751","NA","NA","NA","2","legacy","1024","2","48000","-16","experiment","SSSSS","3","odd","1593708","NA","NA","1733972","2086","NA","NA","1735050","1627225","1939","NA","NA","1735054","NA","1735159","1735911","NA","NA","1735158","NA","Flanker Task","75","52212","76","yes","1024"
"98.7012987012987","98.7012987012987","689.7922077922078","689.7922077922078","black","legacy","legacy","legacy","0","incongruent","uniform","1","undefined","1","h","0","0","0","76","0","0","0","76","76","0","76","0","76","0","76","76","NA","NA","76","0","Sun Sep 25 13:55:41 2022","1500","The main experiment item","yes","NA","KH-Subject-1.osexp","/Users/keelihatcher/Desktop/Tarleton M.D./Advanced Quantitative Methods & Experimental Design","no","mono","no","18","no","white","no","no","768","legacy","76","76","/Users/keelihatcher/Desktop/Tarleton M.D./Advanced Quantitative Methods & Experimental Design/LH-subject-3.csv","legacy","Lentiform Loewenfeld","3.3.12","0","h","s","NA","NA","NA","h","NA","902","1591551","NA","NA","NA","902","NA","NA","NA","2","legacy","1024","2","48000","-16","experiment","SSHSS","3","odd","1593708","NA","NA","1735915","2086","NA","NA","1736992","1627225","1939","NA","NA","1736996","NA","1737101","1738004","NA","NA","1737101","NA","Flanker Task","76","53114","77","yes","1024"
"98.71794871794872","98.71794871794872","690.9871794871794","690.9871794871794","black","legacy","legacy","legacy","0","incongruent","uniform","1","undefined","1","h","0","0","0","77","0","0","0","77","77","0","77","0","77","0","77","77","NA","NA","77","0","Sun Sep 25 13:55:41 2022","1500","The main experiment item","yes","NA","KH-Subject-1.osexp","/Users/keelihatcher/Desktop/Tarleton M.D./Advanced Quantitative Methods & Experimental Design","no","mono","no","18","no","white","no","no","768","legacy","77","77","/Users/keelihatcher/Desktop/Tarleton M.D./Advanced Quantitative Methods & Experimental Design/LH-subject-3.csv","legacy","Lentiform Loewenfeld","3.3.12","0","h","s","NA","NA","NA","h","NA","783","1591551","NA","NA","NA","783","NA","NA","NA","2","legacy","1024","2","48000","-16","experiment","SSHSS","3","odd","1593708","NA","NA","1738008","2086","NA","NA","1739087","1627225","1939","NA","NA","1739091","NA","1739196","1739979","NA","NA","1739196","NA","Flanker Task","77","53897","78","yes","1024"
"98.73417721518987","98.73417721518987","689.0759493670886","689.0759493670886","black","legacy","legacy","legacy","0","congruent","uniform","1","undefined","1","h","0","0","0","78","0","0","0","78","78","0","78","0","78","0","78","78","NA","NA","78","0","Sun Sep 25 13:55:41 2022","1500","The main experiment item","yes","NA","KH-Subject-1.osexp","/Users/keelihatcher/Desktop/Tarleton M.D./Advanced Quantitative Methods & Experimental Design","no","mono","no","18","no","white","no","no","768","legacy","78","78","/Users/keelihatcher/Desktop/Tarleton M.D./Advanced Quantitative Methods & Experimental Design/LH-subject-3.csv","legacy","Lentiform Loewenfeld","3.3.12","0","h","s","NA","NA","NA","h","NA","540","1591551","NA","NA","NA","540","NA","NA","NA","2","legacy","1024","2","48000","-16","experiment","HHHHH","3","odd","1593708","NA","NA","1739984","2086","NA","NA","1741066","1627225","1939","NA","NA","1741069","NA","1741175","1741716","NA","NA","1741175","NA","Flanker Task","78","54437","79","yes","1024"
"98.75","98.75","687.725","687.725","black","legacy","legacy","legacy","0","congruent","uniform","1","undefined","1","s","0","0","0","79","0","0","0","79","79","0","79","0","79","0","79","79","NA","NA","79","0","Sun Sep 25 13:55:41 2022","1500","The main experiment item","yes","NA","KH-Subject-1.osexp","/Users/keelihatcher/Desktop/Tarleton M.D./Advanced Quantitative Methods & Experimental Design","no","mono","no","18","no","white","no","no","768","legacy","79","79","/Users/keelihatcher/Desktop/Tarleton M.D./Advanced Quantitative Methods & Experimental Design/LH-subject-3.csv","legacy","Lentiform Loewenfeld","3.3.12","0","s","s","NA","NA","NA","s","NA","581","1591551","NA","NA","NA","581","NA","NA","NA","2","legacy","1024","2","48000","-16","experiment","SSSSS","3","odd","1593708","NA","NA","1741720","2086","NA","NA","1742789","1627225","1939","NA","NA","1742793","NA","1742898","1743480","NA","NA","1742898","NA","Flanker Task","79","55018","80","yes","1024"
"98.76543209876543","98.76543209876543","691.0617283950618","691.0617283950618","black","legacy","legacy","legacy","0","incongruent","uniform","1","undefined","1","s","0","0","0","80","0","0","0","80","80","0","80","0","80","0","80","80","NA","NA","80","0","Sun Sep 25 13:55:41 2022","600","The main experiment item","yes","NA","KH-Subject-1.osexp","/Users/keelihatcher/Desktop/Tarleton M.D./Advanced Quantitative Methods & Experimental Design","no","mono","no","18","no","white","no","no","768","legacy","0","79","/Users/keelihatcher/Desktop/Tarleton M.D./Advanced Quantitative Methods & Experimental Design/LH-subject-3.csv","legacy","Lentiform Loewenfeld","3.3.12","0","s","s","s","NA","NA","s","NA","958","1591551","31823","NA","NA","958","NA","NA","NA","2","legacy","1024","2","48000","-16","experiment","HHSHH","3","odd","1593708","1776342","NA","1743484","2086","1744518","NA","1776378","1627225","1939","NA","NA","1776381","NA","1776486","1777444","NA","NA","1776486","NA","Flanker Task","80","55976","81","yes","1024"
"98.78048780487805","98.78048780487805","691.8048780487804","691.8048780487804","black","legacy","legacy","legacy","0","congruent","uniform","1","undefined","1","s","0","0","0","81","0","0","0","81","81","0","81","0","81","0","81","81","NA","NA","81","0","Sun Sep 25 13:55:41 2022","600","The main experiment item","yes","NA","KH-Subject-1.osexp","/Users/keelihatcher/Desktop/Tarleton M.D./Advanced Quantitative Methods & Experimental Design","no","mono","no","18","no","white","no","no","768","legacy","1","79","/Users/keelihatcher/Desktop/Tarleton M.D./Advanced Quantitative Methods & Experimental Design/LH-subject-3.csv","legacy","Lentiform Loewenfeld","3.3.12","0","s","s","s","NA","NA","s","NA","752","1591551","31823","NA","NA","752","NA","NA","NA","2","legacy","1024","2","48000","-16","experiment","SSSSS","3","odd","1593708","1776342","NA","1777955","2086","1744518","NA","1779034","1627225","1939","1777449","NA","1779038","NA","1779143","1779896","NA","NA","1779143","NA","Flanker Task","81","56728","82","yes","1024"
"97.59036144578313","97.59036144578313","688.9879518072289","688.9879518072289","black","legacy","legacy","legacy","0","incongruent","uniform","0","undefined","0","h","0","0","0","82","0","0","0","82","82","0","82","0","82","0","82","82","NA","NA","82","0","Sun Sep 25 13:55:41 2022","600","The main experiment item","yes","NA","KH-Subject-1.osexp","/Users/keelihatcher/Desktop/Tarleton M.D./Advanced Quantitative Methods & Experimental Design","no","mono","no","18","no","white","no","no","768","legacy","2","79","/Users/keelihatcher/Desktop/Tarleton M.D./Advanced Quantitative Methods & Experimental Design/LH-subject-3.csv","legacy","Lentiform Loewenfeld","3.3.12","0","s","s","s","NA","NA","s","NA","458","1591551","31823","NA","NA","458","NA","NA","NA","2","legacy","1024","2","48000","-16","experiment","SSHSS","3","odd","1593708","1776342","NA","1780409","2086","1744518","NA","1781487","1627225","1939","1779900","NA","1781491","NA","1781596","1782055","NA","NA","1781596","NA","Flanker Task","81","57186","83","yes","1024"
"97.61904761904762","97.61904761904762","688.1190476190476","688.1190476190476","black","legacy","legacy","legacy","0","incongruent","uniform","1","undefined","1","s","0","0","0","83","0","0","0","83","83","0","83","0","83","0","83","83","NA","NA","83","0","Sun Sep 25 13:55:41 2022","600","The main experiment item","yes","NA","KH-Subject-1.osexp","/Users/keelihatcher/Desktop/Tarleton M.D./Advanced Quantitative Methods & Experimental Design","no","mono","no","18","no","white","no","no","768","legacy","3","79","/Users/keelihatcher/Desktop/Tarleton M.D./Advanced Quantitative Methods & Experimental Design/LH-subject-3.csv","legacy","Lentiform Loewenfeld","3.3.12","0","s","s","s","NA","NA","s","NA","616","1591551","31823","NA","NA","616","NA","NA","NA","2","legacy","1024","2","48000","-16","experiment","HHSHH","3","odd","1593708","1776342","NA","1782570","2086","1744518","NA","1783648","1782060","1939","1779900","NA","1783652","NA","1783757","1784374","NA","NA","1783757","NA","Flanker Task","82","57802","84","yes","1024"
"97.6470588235294","97.6470588235294","685.0470588235294","685.0470588235294","black","legacy","legacy","legacy","0","congruent","uniform","1","undefined","1","h","0","0","0","84","0","0","0","84","84","0","84","0","84","0","84","84","NA","NA","84","0","Sun Sep 25 13:55:41 2022","600","The main experiment item","yes","NA","KH-Subject-1.osexp","/Users/keelihatcher/Desktop/Tarleton M.D./Advanced Quantitative Methods & Experimental Design","no","mono","no","18","no","white","no","no","768","legacy","4","79","/Users/keelihatcher/Desktop/Tarleton M.D./Advanced Quantitative Methods & Experimental Design/LH-subject-3.csv","legacy","Lentiform Loewenfeld","3.3.12","0","h","s","s","NA","NA","h","NA","427","1591551","31823","NA","NA","427","NA","NA","NA","2","legacy","1024","2","48000","-16","experiment","HHHHH","3","odd","1593708","1776342","NA","1784888","2086","1744518","NA","1785966","1782060","1939","1784378","NA","1785970","NA","1786075","1786502","NA","NA","1786075","NA","Flanker Task","83","58229","85","yes","1024"
"97.67441860465117","97.67441860465117","682.2441860465116","682.2441860465116","black","legacy","legacy","legacy","0","congruent","uniform","1","undefined","1","h","0","0","0","85","0","0","0","85","85","0","85","0","85","0","85","85","NA","NA","85","0","Sun Sep 25 13:55:41 2022","600","The main experiment item","yes","NA","KH-Subject-1.osexp","/Users/keelihatcher/Desktop/Tarleton M.D./Advanced Quantitative Methods & Experimental Design","no","mono","no","18","no","white","no","no","768","legacy","5","79","/Users/keelihatcher/Desktop/Tarleton M.D./Advanced Quantitative Methods & Experimental Design/LH-subject-3.csv","legacy","Lentiform Loewenfeld","3.3.12","0","h","s","s","NA","NA","h","NA","444","1591551","31823","NA","NA","444","NA","NA","NA","2","legacy","1024","2","48000","-16","experiment","HHHHH","3","odd","1593708","1776342","NA","1786507","2086","1744518","NA","1787580","1782060","1939","1784378","NA","1787583","NA","1787689","1788134","NA","NA","1787689","NA","Flanker Task","84","58673","86","yes","1024"
"97.70114942528735","97.70114942528735","680.6091954022988","680.6091954022988","black","legacy","legacy","legacy","0","incongruent","uniform","1","undefined","1","h","0","0","0","86","0","0","0","86","86","0","86","0","86","0","86","86","NA","NA","86","0","Sun Sep 25 13:55:41 2022","600","The main experiment item","yes","NA","KH-Subject-1.osexp","/Users/keelihatcher/Desktop/Tarleton M.D./Advanced Quantitative Methods & Experimental Design","no","mono","no","18","no","white","no","no","768","legacy","6","79","/Users/keelihatcher/Desktop/Tarleton M.D./Advanced Quantitative Methods & Experimental Design/LH-subject-3.csv","legacy","Lentiform Loewenfeld","3.3.12","0","h","s","s","NA","NA","h","NA","540","1591551","31823","NA","NA","540","NA","NA","NA","2","legacy","1024","2","48000","-16","experiment","SSHSS","3","odd","1593708","1776342","NA","1788138","2086","1744518","NA","1789220","1782060","1939","1784378","NA","1789223","NA","1789329","1789870","NA","NA","1789328","NA","Flanker Task","85","59213","87","yes","1024"
"96.5909090909091","96.5909090909091","678.1022727272727","678.1022727272727","black","legacy","legacy","legacy","0","incongruent","uniform","0","undefined","0","s","0","0","0","87","0","0","0","87","87","0","87","0","87","0","87","87","NA","NA","87","0","Sun Sep 25 13:55:41 2022","600","The main experiment item","yes","NA","KH-Subject-1.osexp","/Users/keelihatcher/Desktop/Tarleton M.D./Advanced Quantitative Methods & Experimental Design","no","mono","no","18","no","white","no","no","768","legacy","7","79","/Users/keelihatcher/Desktop/Tarleton M.D./Advanced Quantitative Methods & Experimental Design/LH-subject-3.csv","legacy","Lentiform Loewenfeld","3.3.12","0","h","s","s","NA","NA","h","NA","460","1591551","31823","NA","NA","460","NA","NA","NA","2","legacy","1024","2","48000","-16","experiment","HHSHH","3","odd","1593708","1776342","NA","1789874","2086","1744518","NA","1790952","1782060","1939","1784378","NA","1790956","NA","1791061","1791522","NA","NA","1791061","NA","Flanker Task","85","59673","88","yes","1024"
"96.62921348314607","96.62921348314607","677.8202247191011","677.8202247191011","black","legacy","legacy","legacy","0","incongruent","uniform","1","undefined","1","h","0","0","0","88","0","0","0","88","88","0","88","0","88","0","88","88","NA","NA","88","0","Sun Sep 25 13:55:41 2022","600","The main experiment item","yes","NA","KH-Subject-1.osexp","/Users/keelihatcher/Desktop/Tarleton M.D./Advanced Quantitative Methods & Experimental Design","no","mono","no","18","no","white","no","no","768","legacy","8","79","/Users/keelihatcher/Desktop/Tarleton M.D./Advanced Quantitative Methods & Experimental Design/LH-subject-3.csv","legacy","Lentiform Loewenfeld","3.3.12","0","h","s","s","NA","NA","h","NA","653","1591551","31823","NA","NA","653","NA","NA","NA","2","legacy","1024","2","48000","-16","experiment","SSHSS","3","odd","1593708","1776342","NA","1792035","2086","1744518","NA","1793104","1791526","1939","1784378","NA","1793108","NA","1793213","1793867","NA","NA","1793213","NA","Flanker Task","86","60326","89","yes","1024"
"96.66666666666667","96.66666666666667","675.6888888888889","675.6888888888889","black","legacy","legacy","legacy","0","incongruent","uniform","1","undefined","1","s","0","0","0","89","0","0","0","89","89","0","89","0","89","0","89","89","NA","NA","89","0","Sun Sep 25 13:55:41 2022","600","The main experiment item","yes","NA","KH-Subject-1.osexp","/Users/keelihatcher/Desktop/Tarleton M.D./Advanced Quantitative Methods & Experimental Design","no","mono","no","18","no","white","no","no","768","legacy","9","79","/Users/keelihatcher/Desktop/Tarleton M.D./Advanced Quantitative Methods & Experimental Design/LH-subject-3.csv","legacy","Lentiform Loewenfeld","3.3.12","0","s","s","s","NA","NA","s","NA","486","1591551","31823","NA","NA","486","NA","NA","NA","2","legacy","1024","2","48000","-16","experiment","HHSHH","3","odd","1593708","1776342","NA","1794377","2086","1744518","NA","1795436","1791526","1939","1793870","NA","1795439","NA","1795544","1796031","NA","NA","1795544","NA","Flanker Task","87","60812","90","yes","1024"
"96.7032967032967","96.7032967032967","672.8901098901099","672.8901098901099","black","legacy","legacy","legacy","0","congruent","uniform","1","undefined","1","s","0","0","0","90","0","0","0","90","90","0","90","0","90","0","90","90","NA","NA","90","0","Sun Sep 25 13:55:41 2022","600","The main experiment item","yes","NA","KH-Subject-1.osexp","/Users/keelihatcher/Desktop/Tarleton M.D./Advanced Quantitative Methods & Experimental Design","no","mono","no","18","no","white","no","no","768","legacy","10","79","/Users/keelihatcher/Desktop/Tarleton M.D./Advanced Quantitative Methods & Experimental Design/LH-subject-3.csv","legacy","Lentiform Loewenfeld","3.3.12","0","s","s","s","NA","NA","s","NA","421","1591551","31823","NA","NA","421","NA","NA","NA","2","legacy","1024","2","48000","-16","experiment","SSSSS","3","odd","1593708","1776342","NA","1796035","2086","1744518","NA","1797112","1791526","1939","1793870","NA","1797116","NA","1797221","1797643","NA","NA","1797221","NA","Flanker Task","88","61233","91","yes","1024"
"96.73913043478261","96.73913043478261","671.2717391304348","671.2717391304348","black","legacy","legacy","legacy","0","congruent","uniform","1","undefined","1","h","0","0","0","91","0","0","0","91","91","0","91","0","91","0","91","91","NA","NA","91","0","Sun Sep 25 13:55:41 2022","600","The main experiment item","yes","NA","KH-Subject-1.osexp","/Users/keelihatcher/Desktop/Tarleton M.D./Advanced Quantitative Methods & Experimental Design","no","mono","no","18","no","white","no","no","768","legacy","11","79","/Users/keelihatcher/Desktop/Tarleton M.D./Advanced Quantitative Methods & Experimental Design/LH-subject-3.csv","legacy","Lentiform Loewenfeld","3.3.12","0","h","s","s","NA","NA","h","NA","524","1591551","31823","NA","NA","524","NA","NA","NA","2","legacy","1024","2","48000","-16","experiment","HHHHH","3","odd","1593708","1776342","NA","1797647","2086","1744518","NA","1798726","1791526","1939","1793870","NA","1798730","NA","1798835","1799360","NA","NA","1798835","NA","Flanker Task","89","61757","92","yes","1024"
"96.7741935483871","96.7741935483871","668.0860215053764","668.0860215053764","black","legacy","legacy","legacy","0","congruent","uniform","1","undefined","1","h","0","0","0","92","0","0","0","92","92","0","92","0","92","0","92","92","NA","NA","92","0","Sun Sep 25 13:55:41 2022","600","The main experiment item","yes","NA","KH-Subject-1.osexp","/Users/keelihatcher/Desktop/Tarleton M.D./Advanced Quantitative Methods & Experimental Design","no","mono","no","18","no","white","no","no","768","legacy","12","79","/Users/keelihatcher/Desktop/Tarleton M.D./Advanced Quantitative Methods & Experimental Design/LH-subject-3.csv","legacy","Lentiform Loewenfeld","3.3.12","0","h","s","s","NA","NA","h","NA","375","1591551","31823","NA","NA","375","NA","NA","NA","2","legacy","1024","2","48000","-16","experiment","HHHHH","3","odd","1593708","1776342","NA","1799364","2086","1744518","NA","1800444","1791526","1939","1793870","NA","1800448","NA","1800553","1800929","NA","NA","1800553","NA","Flanker Task","90","62132","93","yes","1024"
"96.80851063829788","96.80851063829788","665.3936170212766","665.3936170212766","black","legacy","legacy","legacy","0","congruent","uniform","1","undefined","1","h","0","0","0","93","0","0","0","93","93","0","93","0","93","0","93","93","NA","NA","93","0","Sun Sep 25 13:55:41 2022","600","The main experiment item","yes","NA","KH-Subject-1.osexp","/Users/keelihatcher/Desktop/Tarleton M.D./Advanced Quantitative Methods & Experimental Design","no","mono","no","18","no","white","no","no","768","legacy","13","79","/Users/keelihatcher/Desktop/Tarleton M.D./Advanced Quantitative Methods & Experimental Design/LH-subject-3.csv","legacy","Lentiform Loewenfeld","3.3.12","0","h","s","s","NA","NA","h","NA","415","1591551","31823","NA","NA","415","NA","NA","NA","2","legacy","1024","2","48000","-16","experiment","HHHHH","3","odd","1593708","1776342","NA","1800933","2086","1744518","NA","1802012","1791526","1939","1793870","NA","1802016","NA","1802121","1802536","NA","NA","1802121","NA","Flanker Task","91","62547","94","yes","1024"
"96.84210526315789","96.84210526315789","663.3052631578947","663.3052631578947","black","legacy","legacy","legacy","0","incongruent","uniform","1","undefined","1","s","0","0","0","94","0","0","0","94","94","0","94","0","94","0","94","94","NA","NA","94","0","Sun Sep 25 13:55:41 2022","600","The main experiment item","yes","NA","KH-Subject-1.osexp","/Users/keelihatcher/Desktop/Tarleton M.D./Advanced Quantitative Methods & Experimental Design","no","mono","no","18","no","white","no","no","768","legacy","14","79","/Users/keelihatcher/Desktop/Tarleton M.D./Advanced Quantitative Methods & Experimental Design/LH-subject-3.csv","legacy","Lentiform Loewenfeld","3.3.12","0","s","s","s","NA","NA","s","NA","467","1591551","31823","NA","NA","467","NA","NA","NA","2","legacy","1024","2","48000","-16","experiment","HHSHH","3","odd","1593708","1776342","NA","1802541","2086","1744518","NA","1803606","1791526","1939","1793870","NA","1803609","NA","1803714","1804182","NA","NA","1803714","NA","Flanker Task","92","63014","95","yes","1024"
"95.83333333333333","95.83333333333333","660.1666666666666","660.1666666666666","black","legacy","legacy","legacy","0","incongruent","uniform","0","undefined","0","s","0","0","0","95","0","0","0","95","95","0","95","0","95","0","95","95","NA","NA","95","0","Sun Sep 25 13:55:41 2022","600","The main experiment item","yes","NA","KH-Subject-1.osexp","/Users/keelihatcher/Desktop/Tarleton M.D./Advanced Quantitative Methods & Experimental Design","no","mono","no","18","no","white","no","no","768","legacy","15","79","/Users/keelihatcher/Desktop/Tarleton M.D./Advanced Quantitative Methods & Experimental Design/LH-subject-3.csv","legacy","Lentiform Loewenfeld","3.3.12","0","h","s","s","NA","NA","h","NA","362","1591551","31823","NA","NA","362","NA","NA","NA","2","legacy","1024","2","48000","-16","experiment","HHSHH","3","odd","1593708","1776342","NA","1804186","2086","1744518","NA","1805265","1791526","1939","1793870","NA","1805269","NA","1805374","1805737","NA","NA","1805374","NA","Flanker Task","92","63376","96","yes","1024"
"95.87628865979381","95.87628865979381","657.1958762886597","657.1958762886597","black","legacy","legacy","legacy","0","congruent","uniform","1","undefined","1","h","0","0","0","96","0","0","0","96","96","0","96","0","96","0","96","96","NA","NA","96","0","Sun Sep 25 13:55:41 2022","600","The main experiment item","yes","NA","KH-Subject-1.osexp","/Users/keelihatcher/Desktop/Tarleton M.D./Advanced Quantitative Methods & Experimental Design","no","mono","no","18","no","white","no","no","768","legacy","16","79","/Users/keelihatcher/Desktop/Tarleton M.D./Advanced Quantitative Methods & Experimental Design/LH-subject-3.csv","legacy","Lentiform Loewenfeld","3.3.12","0","h","s","s","NA","NA","h","NA","372","1591551","31823","NA","NA","372","NA","NA","NA","2","legacy","1024","2","48000","-16","experiment","HHHHH","3","odd","1593708","1776342","NA","1806250","2086","1744518","NA","1807326","1805741","1939","1793870","NA","1807330","NA","1807435","1807808","NA","NA","1807435","NA","Flanker Task","93","63748","97","yes","1024"
