acc,accuracy,average_response_time,avg_rt,background,canvas_backend,clock_backend,color_backend,compensation,condition,coordinates,correct,correct_Instructions1,correct_keyboard_response,correct_response,count_Block1,count_Block2,count_Block3,count_Finish,count_ISI,count_Instructions1,count_Instructions2,count_Instructions3,count_errorFeedback,count_experiment,count_faster,count_fixation,count_keyboard_response,count_logger,count_sequence,count_stimulus,datetime,deadline,description,disable_garbage_collection,experiment_file,experiment_path,font_bold,font_family,font_italic,font_size,font_underline,foreground,form_clicks,fullscreen,height,keyboard_backend,live_row,live_row_Block1,logfile,mouse_backend,opensesame_codename,opensesame_version,repeat_cycle,response,response_Finish,response_Instructions1,response_Instructions2,response_Instructions3,response_keyboard_response,response_time,response_time_Finish,response_time_Instructions1,response_time_Instructions2,response_time_Instructions3,response_time_keyboard_response,round_decimals,sampler_backend,sound_buf_size,sound_channels,sound_freq,sound_sample_size,start,stimulus,subject_nr,subject_parity,time_Block1,time_Block2,time_Block3,time_Finish,time_ISI,time_Instructions1,time_Instructions2,time_Instructions3,time_errorFeedback,time_experiment,time_faster,time_fixation,time_keyboard_response,time_logger,time_sequence,time_stimulus,title,total_correct,total_response_time,total_responses,uniform_coordinates,width
100,100,687,687,black,legacy,legacy,legacy,0,congruent,uniform,1,undefined,1,s,0,0,0,0,0,0,0,0,0,0,0,0,0,0,0,0,Fri Sep 20 17:34:08 2019,infinite,The main experiment item,yes,fp-subject-1.osexp,/Users/freyaportales/Documents,no,mono,no,18,no,white,no,no,768,legacy,0,0,/Users/freyaportales/Documents/fp-subject-1.csv,legacy,Kafkaesque Koffka,3.2.8,0,s,NA,s,NA,NA,s,687,NA,2310,NA,NA,687,2,legacy,1024,2,48000,-16,experiment,SSSSS,1,odd,4927,NA,NA,NA,NA,2608,NA,NA,NA,2548,NA,5059,5192,5881,5023,5192,Flanker task,1,687,1,yes,1024
100,100,4244.5,4244.5,black,legacy,legacy,legacy,0,incongruent,uniform,1,undefined,1,h,0,0,0,0,1,0,0,0,1,0,1,1,1,1,1,1,Fri Sep 20 17:34:08 2019,infinite,The main experiment item,yes,fp-subject-1.osexp,/Users/freyaportales/Documents,no,mono,no,18,no,white,no,no,768,legacy,1,1,/Users/freyaportales/Documents/fp-subject-1.csv,legacy,Kafkaesque Koffka,3.2.8,0,h,NA,s,NA,NA,h,7802,NA,2310,NA,NA,7802,2,legacy,1024,2,48000,-16,experiment,SSHSS,1,odd,4927,NA,NA,NA,5919,2608,NA,NA,NA,2548,NA,7049,7182,14986,7011,7182,Flanker task,2,8489,2,yes,1024
100,100,3017.333333,3017.333333,black,legacy,legacy,legacy,0,congruent,uniform,1,undefined,1,s,0,0,0,0,2,0,0,0,2,0,2,2,2,2,2,2,Fri Sep 20 17:34:08 2019,infinite,The main experiment item,yes,fp-subject-1.osexp,/Users/freyaportales/Documents,no,mono,no,18,no,white,no,no,768,legacy,2,2,/Users/freyaportales/Documents/fp-subject-1.csv,legacy,Kafkaesque Koffka,3.2.8,0,s,NA,s,NA,NA,s,563,NA,2310,NA,NA,563,2,legacy,1024,2,48000,-16,experiment,SSSSS,1,odd,4927,NA,NA,NA,15020,2608,NA,NA,NA,2548,NA,16146,16281,16846,16111,16281,Flanker task,3,9052,3,yes,1024
100,100,2376.25,2376.25,black,legacy,legacy,legacy,0,congruent,uniform,1,undefined,1,h,0,0,0,0,3,0,0,0,3,0,3,3,3,3,3,3,Fri Sep 20 17:34:08 2019,infinite,The main experiment item,yes,fp-subject-1.osexp,/Users/freyaportales/Documents,no,mono,no,18,no,white,no,no,768,legacy,3,3,/Users/freyaportales/Documents/fp-subject-1.csv,legacy,Kafkaesque Koffka,3.2.8,0,h,NA,s,NA,NA,h,453,NA,2310,NA,NA,453,2,legacy,1024,2,48000,-16,experiment,HHHHH,1,odd,4927,NA,NA,NA,16880,2608,NA,NA,NA,2548,NA,18055,18193,18648,18000,18193,Flanker task,4,9505,4,yes,1024
100,100,2061,2061,black,legacy,legacy,legacy,0,incongruent,uniform,1,undefined,1,h,0,0,0,0,4,0,0,0,4,0,4,4,4,4,4,4,Fri Sep 20 17:34:08 2019,infinite,The main experiment item,yes,fp-subject-1.osexp,/Users/freyaportales/Documents,no,mono,no,18,no,white,no,no,768,legacy,4,4,/Users/freyaportales/Documents/fp-subject-1.csv,legacy,Kafkaesque Koffka,3.2.8,0,h,NA,s,NA,NA,h,800,NA,2310,NA,NA,800,2,legacy,1024,2,48000,-16,experiment,SSHSS,1,odd,4927,NA,NA,NA,18682,2608,NA,NA,NA,2548,NA,19810,19944,20746,19774,19944,Flanker task,5,10305,5,yes,1024
100,100,1820.666667,1820.666667,black,legacy,legacy,legacy,0,incongruent,uniform,1,undefined,1,h,0,0,0,0,5,0,0,0,5,0,5,5,5,5,5,5,Fri Sep 20 17:34:08 2019,infinite,The main experiment item,yes,fp-subject-1.osexp,/Users/freyaportales/Documents,no,mono,no,18,no,white,no,no,768,legacy,5,5,/Users/freyaportales/Documents/fp-subject-1.csv,legacy,Kafkaesque Koffka,3.2.8,0,h,NA,s,NA,NA,h,619,NA,2310,NA,NA,619,2,legacy,1024,2,48000,-16,experiment,SSHSS,1,odd,4927,NA,NA,NA,20781,2608,NA,NA,NA,2548,NA,21911,22043,22663,21875,22043,Flanker task,6,10924,6,yes,1024
100,100,1633.428571,1633.428571,black,legacy,legacy,legacy,0,congruent,uniform,1,undefined,1,h,0,0,0,0,6,0,0,0,6,0,6,6,6,6,6,6,Fri Sep 20 17:34:08 2019,infinite,The main experiment item,yes,fp-subject-1.osexp,/Users/freyaportales/Documents,no,mono,no,18,no,white,no,no,768,legacy,6,6,/Users/freyaportales/Documents/fp-subject-1.csv,legacy,Kafkaesque Koffka,3.2.8,0,h,NA,s,NA,NA,h,510,NA,2310,NA,NA,510,2,legacy,1024,2,48000,-16,experiment,HHHHH,1,odd,4927,NA,NA,NA,22697,2608,NA,NA,NA,2548,NA,23815,23948,24459,23783,23947,Flanker task,7,11434,7,yes,1024
100,100,1536.875,1536.875,black,legacy,legacy,legacy,0,congruent,uniform,1,undefined,1,s,0,0,0,0,7,0,0,0,7,0,7,7,7,7,7,7,Fri Sep 20 17:34:08 2019,infinite,The main experiment item,yes,fp-subject-1.osexp,/Users/freyaportales/Documents,no,mono,no,18,no,white,no,no,768,legacy,7,7,/Users/freyaportales/Documents/fp-subject-1.csv,legacy,Kafkaesque Koffka,3.2.8,0,s,NA,s,NA,NA,s,861,NA,2310,NA,NA,861,2,legacy,1024,2,48000,-16,experiment,SSSSS,1,odd,4927,NA,NA,NA,24493,2608,NA,NA,NA,2548,NA,25605,25737,26599,25573,25737,Flanker task,8,12295,8,yes,1024
100,100,1431.666667,1431.666667,black,legacy,legacy,legacy,0,incongruent,uniform,1,undefined,1,s,0,0,0,0,8,0,0,0,8,0,8,8,8,8,8,8,Fri Sep 20 17:34:08 2019,infinite,The main experiment item,yes,fp-subject-1.osexp,/Users/freyaportales/Documents,no,mono,no,18,no,white,no,no,768,legacy,8,8,/Users/freyaportales/Documents/fp-subject-1.csv,legacy,Kafkaesque Koffka,3.2.8,0,s,NA,s,NA,NA,s,590,NA,2310,NA,NA,590,2,legacy,1024,2,48000,-16,experiment,HHSHH,1,odd,4927,NA,NA,NA,26635,2608,NA,NA,NA,2548,NA,27751,27884,28475,27719,27884,Flanker task,9,12885,9,yes,1024
100,100,1339.8,1339.8,black,legacy,legacy,legacy,0,congruent,uniform,1,undefined,1,h,0,0,0,0,9,0,0,0,9,0,9,9,9,9,9,9,Fri Sep 20 17:34:08 2019,infinite,The main experiment item,yes,fp-subject-1.osexp,/Users/freyaportales/Documents,no,mono,no,18,no,white,no,no,768,legacy,9,9,/Users/freyaportales/Documents/fp-subject-1.csv,legacy,Kafkaesque Koffka,3.2.8,0,h,NA,s,NA,NA,h,513,NA,2310,NA,NA,513,2,legacy,1024,2,48000,-16,experiment,HHHHH,1,odd,4927,NA,NA,NA,28510,2608,NA,NA,NA,2548,NA,29623,29756,30270,29591,29755,Flanker task,10,13398,10,yes,1024
100,100,1266.909091,1266.909091,black,legacy,legacy,legacy,0,congruent,uniform,1,undefined,1,h,0,0,0,0,10,0,0,0,10,0,10,10,10,10,10,10,Fri Sep 20 17:34:08 2019,infinite,The main experiment item,yes,fp-subject-1.osexp,/Users/freyaportales/Documents,no,mono,no,18,no,white,no,no,768,legacy,10,10,/Users/freyaportales/Documents/fp-subject-1.csv,legacy,Kafkaesque Koffka,3.2.8,0,h,NA,s,NA,NA,h,538,NA,2310,NA,NA,538,2,legacy,1024,2,48000,-16,experiment,HHHHH,1,odd,4927,NA,NA,NA,30305,2608,NA,NA,NA,2548,NA,31418,31550,32089,31386,31550,Flanker task,11,13936,11,yes,1024
100,100,1203.5,1203.5,black,legacy,legacy,legacy,0,congruent,uniform,1,undefined,1,s,0,0,0,0,11,0,0,0,11,0,11,11,11,11,11,11,Fri Sep 20 17:34:08 2019,infinite,The main experiment item,yes,fp-subject-1.osexp,/Users/freyaportales/Documents,no,mono,no,18,no,white,no,no,768,legacy,11,11,/Users/freyaportales/Documents/fp-subject-1.csv,legacy,Kafkaesque Koffka,3.2.8,0,s,NA,s,NA,NA,s,506,NA,2310,NA,NA,506,2,legacy,1024,2,48000,-16,experiment,SSSSS,1,odd,4927,NA,NA,NA,32124,2608,NA,NA,NA,2548,NA,33244,33377,33885,33212,33377,Flanker task,12,14442,12,yes,1024
100,100,1153.230769,1153.230769,black,legacy,legacy,legacy,0,congruent,uniform,1,undefined,1,h,0,0,0,0,12,0,0,0,12,0,12,12,12,12,12,12,Fri Sep 20 17:34:08 2019,infinite,The main experiment item,yes,fp-subject-1.osexp,/Users/freyaportales/Documents,no,mono,no,18,no,white,no,no,768,legacy,12,12,/Users/freyaportales/Documents/fp-subject-1.csv,legacy,Kafkaesque Koffka,3.2.8,0,h,NA,s,NA,NA,h,550,NA,2310,NA,NA,550,2,legacy,1024,2,48000,-16,experiment,HHHHH,1,odd,4927,NA,NA,NA,33933,2608,NA,NA,NA,2548,NA,35045,35179,35730,35014,35178,Flanker task,13,14992,13,yes,1024
100,100,1113.357143,1113.357143,black,legacy,legacy,legacy,0,incongruent,uniform,1,undefined,1,h,0,0,0,0,13,0,0,0,13,0,13,13,13,13,13,13,Fri Sep 20 17:34:08 2019,infinite,The main experiment item,yes,fp-subject-1.osexp,/Users/freyaportales/Documents,no,mono,no,18,no,white,no,no,768,legacy,13,13,/Users/freyaportales/Documents/fp-subject-1.csv,legacy,Kafkaesque Koffka,3.2.8,0,h,NA,s,NA,NA,h,595,NA,2310,NA,NA,595,2,legacy,1024,2,48000,-16,experiment,SSHSS,1,odd,4927,NA,NA,NA,35769,2608,NA,NA,NA,2548,NA,36888,37019,37615,36855,37019,Flanker task,14,15587,14,yes,1024
100,100,1071.866667,1071.866667,black,legacy,legacy,legacy,0,congruent,uniform,1,undefined,1,h,0,0,0,0,14,0,0,0,14,0,14,14,14,14,14,14,Fri Sep 20 17:34:08 2019,infinite,The main experiment item,yes,fp-subject-1.osexp,/Users/freyaportales/Documents,no,mono,no,18,no,white,no,no,768,legacy,14,14,/Users/freyaportales/Documents/fp-subject-1.csv,legacy,Kafkaesque Koffka,3.2.8,0,h,NA,s,NA,NA,h,491,NA,2310,NA,NA,491,2,legacy,1024,2,48000,-16,experiment,HHHHH,1,odd,4927,NA,NA,NA,37650,2608,NA,NA,NA,2548,NA,38767,38900,39392,38731,38900,Flanker task,15,16078,15,yes,1024
100,100,1037.6875,1037.6875,black,legacy,legacy,legacy,0,congruent,uniform,1,undefined,1,s,0,0,0,0,15,0,0,0,15,0,15,15,15,15,15,15,Fri Sep 20 17:34:08 2019,infinite,The main experiment item,yes,fp-subject-1.osexp,/Users/freyaportales/Documents,no,mono,no,18,no,white,no,no,768,legacy,15,15,/Users/freyaportales/Documents/fp-subject-1.csv,legacy,Kafkaesque Koffka,3.2.8,0,s,NA,s,NA,NA,s,525,NA,2310,NA,NA,525,2,legacy,1024,2,48000,-16,experiment,SSSSS,1,odd,4927,NA,NA,NA,39426,2608,NA,NA,NA,2548,NA,40538,40671,41197,40507,40671,Flanker task,16,16603,16,yes,1024
100,100,1006.647059,1006.647059,black,legacy,legacy,legacy,0,incongruent,uniform,1,undefined,1,s,0,0,0,0,16,0,0,0,16,0,16,16,16,16,16,16,Fri Sep 20 17:34:08 2019,infinite,The main experiment item,yes,fp-subject-1.osexp,/Users/freyaportales/Documents,no,mono,no,18,no,white,no,no,768,legacy,16,16,/Users/freyaportales/Documents/fp-subject-1.csv,legacy,Kafkaesque Koffka,3.2.8,0,s,NA,s,NA,NA,s,510,NA,2310,NA,NA,510,2,legacy,1024,2,48000,-16,experiment,HHSHH,1,odd,4927,NA,NA,NA,41235,2608,NA,NA,NA,2548,NA,42359,42491,43002,42327,42491,Flanker task,17,17113,17,yes,1024
100,100,981.4444444,981.4444444,black,legacy,legacy,legacy,0,congruent,uniform,1,undefined,1,h,0,0,0,0,17,0,0,0,17,0,17,17,17,17,17,17,Fri Sep 20 17:34:08 2019,infinite,The main experiment item,yes,fp-subject-1.osexp,/Users/freyaportales/Documents,no,mono,no,18,no,white,no,no,768,legacy,17,17,/Users/freyaportales/Documents/fp-subject-1.csv,legacy,Kafkaesque Koffka,3.2.8,0,h,NA,s,NA,NA,h,553,NA,2310,NA,NA,553,2,legacy,1024,2,48000,-16,experiment,HHHHH,1,odd,4927,NA,NA,NA,43037,2608,NA,NA,NA,2548,NA,44150,44283,44837,44118,44283,Flanker task,18,17666,18,yes,1024
100,100,954.6842105,954.6842105,black,legacy,legacy,legacy,0,incongruent,uniform,1,undefined,1,s,0,0,0,0,18,0,0,0,18,0,18,18,18,18,18,18,Fri Sep 20 17:34:08 2019,infinite,The main experiment item,yes,fp-subject-1.osexp,/Users/freyaportales/Documents,no,mono,no,18,no,white,no,no,768,legacy,18,18,/Users/freyaportales/Documents/fp-subject-1.csv,legacy,Kafkaesque Koffka,3.2.8,0,s,NA,s,NA,NA,s,473,NA,2310,NA,NA,473,2,legacy,1024,2,48000,-16,experiment,HHSHH,1,odd,4927,NA,NA,NA,44881,2608,NA,NA,NA,2548,NA,45998,46130,46604,45966,46130,Flanker task,19,18139,19,yes,1024
100,100,928.45,928.45,black,legacy,legacy,legacy,0,incongruent,uniform,1,undefined,1,s,0,0,0,0,19,0,0,0,19,0,19,19,19,19,19,19,Fri Sep 20 17:34:08 2019,infinite,The main experiment item,yes,fp-subject-1.osexp,/Users/freyaportales/Documents,no,mono,no,18,no,white,no,no,768,legacy,19,19,/Users/freyaportales/Documents/fp-subject-1.csv,legacy,Kafkaesque Koffka,3.2.8,0,s,NA,s,NA,NA,s,430,NA,2310,NA,NA,430,2,legacy,1024,2,48000,-16,experiment,HHSHH,1,odd,4927,NA,NA,NA,46638,2608,NA,NA,NA,2548,NA,47751,47885,48316,47718,47884,Flanker task,20,18569,20,yes,1024
100,100,913.5714286,913.5714286,black,legacy,legacy,legacy,0,incongruent,uniform,1,undefined,1,h,0,0,0,0,20,0,0,0,20,0,20,20,20,20,20,20,Fri Sep 20 17:34:08 2019,infinite,The main experiment item,yes,fp-subject-1.osexp,/Users/freyaportales/Documents,no,mono,no,18,no,white,no,no,768,legacy,20,20,/Users/freyaportales/Documents/fp-subject-1.csv,legacy,Kafkaesque Koffka,3.2.8,0,h,NA,s,NA,NA,h,616,NA,2310,NA,NA,616,2,legacy,1024,2,48000,-16,experiment,SSHSS,1,odd,4927,NA,NA,NA,48352,2608,NA,NA,NA,2548,NA,49471,49604,50222,49440,49604,Flanker task,21,19185,21,yes,1024
100,100,896.5,896.5,black,legacy,legacy,legacy,0,incongruent,uniform,1,undefined,1,s,0,0,0,0,21,0,0,0,21,0,21,21,21,21,21,21,Fri Sep 20 17:34:08 2019,infinite,The main experiment item,yes,fp-subject-1.osexp,/Users/freyaportales/Documents,no,mono,no,18,no,white,no,no,768,legacy,21,21,/Users/freyaportales/Documents/fp-subject-1.csv,legacy,Kafkaesque Koffka,3.2.8,0,s,NA,s,NA,NA,s,538,NA,2310,NA,NA,538,2,legacy,1024,2,48000,-16,experiment,HHSHH,1,odd,4927,NA,NA,NA,50256,2608,NA,NA,NA,2548,NA,51369,51501,52042,51337,51501,Flanker task,22,19723,22,yes,1024
100,100,876.6521739,876.6521739,black,legacy,legacy,legacy,0,incongruent,uniform,1,undefined,1,s,0,0,0,0,22,0,0,0,22,0,22,22,22,22,22,22,Fri Sep 20 17:34:08 2019,infinite,The main experiment item,yes,fp-subject-1.osexp,/Users/freyaportales/Documents,no,mono,no,18,no,white,no,no,768,legacy,22,22,/Users/freyaportales/Documents/fp-subject-1.csv,legacy,Kafkaesque Koffka,3.2.8,0,s,NA,s,NA,NA,s,440,NA,2310,NA,NA,440,2,legacy,1024,2,48000,-16,experiment,HHSHH,1,odd,4927,NA,NA,NA,52078,2608,NA,NA,NA,2548,NA,53190,53323,53765,53158,53323,Flanker task,23,20163,23,yes,1024
100,100,858.7916667,858.7916667,black,legacy,legacy,legacy,0,congruent,uniform,1,undefined,1,s,0,0,0,0,23,0,0,0,23,0,23,23,23,23,23,23,Fri Sep 20 17:34:08 2019,infinite,The main experiment item,yes,fp-subject-1.osexp,/Users/freyaportales/Documents,no,mono,no,18,no,white,no,no,768,legacy,23,23,/Users/freyaportales/Documents/fp-subject-1.csv,legacy,Kafkaesque Koffka,3.2.8,0,s,NA,s,NA,NA,s,448,NA,2310,NA,NA,448,2,legacy,1024,2,48000,-16,experiment,SSSSS,1,odd,4927,NA,NA,NA,53802,2608,NA,NA,NA,2548,NA,54922,55055,55505,54890,55054,Flanker task,24,20611,24,yes,1024
100,100,847.88,847.88,black,legacy,legacy,legacy,0,incongruent,uniform,1,undefined,1,s,0,0,0,0,24,0,0,0,24,0,24,24,24,24,24,24,Fri Sep 20 17:34:08 2019,infinite,The main experiment item,yes,fp-subject-1.osexp,/Users/freyaportales/Documents,no,mono,no,18,no,white,no,no,768,legacy,24,24,/Users/freyaportales/Documents/fp-subject-1.csv,legacy,Kafkaesque Koffka,3.2.8,0,s,NA,s,NA,NA,s,586,NA,2310,NA,NA,586,2,legacy,1024,2,48000,-16,experiment,HHSHH,1,odd,4927,NA,NA,NA,55540,2608,NA,NA,NA,2548,NA,56653,56785,57373,56621,56785,Flanker task,25,21197,25,yes,1024
100,100,835.3846154,835.3846154,black,legacy,legacy,legacy,0,incongruent,uniform,1,undefined,1,s,0,0,0,0,25,0,0,0,25,0,25,25,25,25,25,25,Fri Sep 20 17:34:08 2019,infinite,The main experiment item,yes,fp-subject-1.osexp,/Users/freyaportales/Documents,no,mono,no,18,no,white,no,no,768,legacy,25,25,/Users/freyaportales/Documents/fp-subject-1.csv,legacy,Kafkaesque Koffka,3.2.8,0,s,NA,s,NA,NA,s,523,NA,2310,NA,NA,523,2,legacy,1024,2,48000,-16,experiment,HHSHH,1,odd,4927,NA,NA,NA,57408,2608,NA,NA,NA,2548,NA,58524,58656,59181,58493,58656,Flanker task,26,21720,26,yes,1024
100,100,830.5185185,830.5185185,black,legacy,legacy,legacy,0,incongruent,uniform,1,undefined,1,h,0,0,0,0,26,0,0,0,26,0,26,26,26,26,26,26,Fri Sep 20 17:34:08 2019,infinite,The main experiment item,yes,fp-subject-1.osexp,/Users/freyaportales/Documents,no,mono,no,18,no,white,no,no,768,legacy,26,26,/Users/freyaportales/Documents/fp-subject-1.csv,legacy,Kafkaesque Koffka,3.2.8,0,h,NA,s,NA,NA,h,704,NA,2310,NA,NA,704,2,legacy,1024,2,48000,-16,experiment,SSHSS,1,odd,4927,NA,NA,NA,59215,2608,NA,NA,NA,2548,NA,60329,60462,61168,60296,60462,Flanker task,27,22424,27,yes,1024
100,100,822.25,822.25,black,legacy,legacy,legacy,0,incongruent,uniform,1,undefined,1,h,0,0,0,0,27,0,0,0,27,0,27,27,27,27,27,27,Fri Sep 20 17:34:08 2019,infinite,The main experiment item,yes,fp-subject-1.osexp,/Users/freyaportales/Documents,no,mono,no,18,no,white,no,no,768,legacy,27,27,/Users/freyaportales/Documents/fp-subject-1.csv,legacy,Kafkaesque Koffka,3.2.8,0,h,NA,s,NA,NA,h,599,NA,2310,NA,NA,599,2,legacy,1024,2,48000,-16,experiment,SSHSS,1,odd,4927,NA,NA,NA,61211,2608,NA,NA,NA,2548,NA,62327,62460,63060,62295,62460,Flanker task,28,23023,28,yes,1024
100,100,810.5517241,810.5517241,black,legacy,legacy,legacy,0,congruent,uniform,1,undefined,1,s,0,0,0,0,28,0,0,0,28,0,28,28,28,28,28,28,Fri Sep 20 17:34:08 2019,infinite,The main experiment item,yes,fp-subject-1.osexp,/Users/freyaportales/Documents,no,mono,no,18,no,white,no,no,768,legacy,28,28,/Users/freyaportales/Documents/fp-subject-1.csv,legacy,Kafkaesque Koffka,3.2.8,0,s,NA,s,NA,NA,s,483,NA,2310,NA,NA,483,2,legacy,1024,2,48000,-16,experiment,SSSSS,1,odd,4927,NA,NA,NA,63094,2608,NA,NA,NA,2548,NA,64208,64341,64826,64176,64341,Flanker task,29,23506,29,yes,1024
100,100,801.1666667,801.1666667,black,legacy,legacy,legacy,0,incongruent,uniform,1,undefined,1,s,0,0,0,0,29,0,0,0,29,0,29,29,29,29,29,29,Fri Sep 20 17:34:08 2019,infinite,The main experiment item,yes,fp-subject-1.osexp,/Users/freyaportales/Documents,no,mono,no,18,no,white,no,no,768,legacy,29,29,/Users/freyaportales/Documents/fp-subject-1.csv,legacy,Kafkaesque Koffka,3.2.8,0,s,NA,s,NA,NA,s,529,NA,2310,NA,NA,529,2,legacy,1024,2,48000,-16,experiment,HHSHH,1,odd,4927,NA,NA,NA,64865,2608,NA,NA,NA,2548,NA,66016,66153,66684,65972,66152,Flanker task,30,24035,30,yes,1024
100,100,791.1935484,791.1935484,black,legacy,legacy,legacy,0,incongruent,uniform,1,undefined,1,s,0,0,0,0,30,0,0,0,30,0,30,30,30,30,30,30,Fri Sep 20 17:34:08 2019,infinite,The main experiment item,yes,fp-subject-1.osexp,/Users/freyaportales/Documents,no,mono,no,18,no,white,no,no,768,legacy,30,30,/Users/freyaportales/Documents/fp-subject-1.csv,legacy,Kafkaesque Koffka,3.2.8,0,s,NA,s,NA,NA,s,492,NA,2310,NA,NA,492,2,legacy,1024,2,48000,-16,experiment,HHSHH,1,odd,4927,NA,NA,NA,66721,2608,NA,NA,NA,2548,NA,67841,67974,68468,67808,67973,Flanker task,31,24527,31,yes,1024
100,100,778.9375,778.9375,black,legacy,legacy,legacy,0,congruent,uniform,1,undefined,1,s,0,0,0,0,31,0,0,0,31,0,31,31,31,31,31,31,Fri Sep 20 17:34:08 2019,infinite,The main experiment item,yes,fp-subject-1.osexp,/Users/freyaportales/Documents,no,mono,no,18,no,white,no,no,768,legacy,31,31,/Users/freyaportales/Documents/fp-subject-1.csv,legacy,Kafkaesque Koffka,3.2.8,0,s,NA,s,NA,NA,s,399,NA,2310,NA,NA,399,2,legacy,1024,2,48000,-16,experiment,SSSSS,1,odd,4927,NA,NA,NA,68502,2608,NA,NA,NA,2548,NA,69616,69751,70152,69584,69750,Flanker task,32,24926,32,yes,1024
100,100,767.6363636,767.6363636,black,legacy,legacy,legacy,0,congruent,uniform,1,undefined,1,s,0,0,0,0,32,0,0,0,32,0,32,32,32,32,32,32,Fri Sep 20 17:34:08 2019,infinite,The main experiment item,yes,fp-subject-1.osexp,/Users/freyaportales/Documents,no,mono,no,18,no,white,no,no,768,legacy,32,32,/Users/freyaportales/Documents/fp-subject-1.csv,legacy,Kafkaesque Koffka,3.2.8,0,s,NA,s,NA,NA,s,406,NA,2310,NA,NA,406,2,legacy,1024,2,48000,-16,experiment,SSSSS,1,odd,4927,NA,NA,NA,70188,2608,NA,NA,NA,2548,NA,71308,71440,71848,71276,71440,Flanker task,33,25332,33,yes,1024
100,100,759.2647059,759.2647059,black,legacy,legacy,legacy,0,congruent,uniform,1,undefined,1,h,0,0,0,0,33,0,0,0,33,0,33,33,33,33,33,33,Fri Sep 20 17:34:08 2019,infinite,The main experiment item,yes,fp-subject-1.osexp,/Users/freyaportales/Documents,no,mono,no,18,no,white,no,no,768,legacy,33,33,/Users/freyaportales/Documents/fp-subject-1.csv,legacy,Kafkaesque Koffka,3.2.8,0,h,NA,s,NA,NA,h,483,NA,2310,NA,NA,483,2,legacy,1024,2,48000,-16,experiment,HHHHH,1,odd,4927,NA,NA,NA,71883,2608,NA,NA,NA,2548,NA,72997,73130,73615,72966,73130,Flanker task,34,25815,34,yes,1024
100,100,752.6571429,752.6571429,black,legacy,legacy,legacy,0,incongruent,uniform,1,undefined,1,h,0,0,0,0,34,0,0,0,34,0,34,34,34,34,34,34,Fri Sep 20 17:34:08 2019,infinite,The main experiment item,yes,fp-subject-1.osexp,/Users/freyaportales/Documents,no,mono,no,18,no,white,no,no,768,legacy,34,34,/Users/freyaportales/Documents/fp-subject-1.csv,legacy,Kafkaesque Koffka,3.2.8,0,h,NA,s,NA,NA,h,528,NA,2310,NA,NA,528,2,legacy,1024,2,48000,-16,experiment,SSHSS,1,odd,4927,NA,NA,NA,73651,2608,NA,NA,NA,2548,NA,74773,74906,75436,74740,74906,Flanker task,35,26343,35,yes,1024
100,100,746.1111111,746.1111111,black,legacy,legacy,legacy,0,incongruent,uniform,1,undefined,1,h,0,0,0,0,35,0,0,0,35,0,35,35,35,35,35,35,Fri Sep 20 17:34:08 2019,infinite,The main experiment item,yes,fp-subject-1.osexp,/Users/freyaportales/Documents,no,mono,no,18,no,white,no,no,768,legacy,35,35,/Users/freyaportales/Documents/fp-subject-1.csv,legacy,Kafkaesque Koffka,3.2.8,0,h,NA,s,NA,NA,h,517,NA,2310,NA,NA,517,2,legacy,1024,2,48000,-16,experiment,SSHSS,1,odd,4927,NA,NA,NA,75471,2608,NA,NA,NA,2548,NA,76584,76724,77243,76552,76724,Flanker task,36,26860,36,yes,1024
100,100,739.9459459,739.9459459,black,legacy,legacy,legacy,0,congruent,uniform,1,undefined,1,h,0,0,0,0,36,0,0,0,36,0,36,36,36,36,36,36,Fri Sep 20 17:34:08 2019,infinite,The main experiment item,yes,fp-subject-1.osexp,/Users/freyaportales/Documents,no,mono,no,18,no,white,no,no,768,legacy,36,36,/Users/freyaportales/Documents/fp-subject-1.csv,legacy,Kafkaesque Koffka,3.2.8,0,h,NA,s,NA,NA,h,518,NA,2310,NA,NA,518,2,legacy,1024,2,48000,-16,experiment,HHHHH,1,odd,4927,NA,NA,NA,77282,2608,NA,NA,NA,2548,NA,78395,78527,79047,78363,78527,Flanker task,37,27378,37,yes,1024
100,100,737.0789474,737.0789474,black,legacy,legacy,legacy,0,incongruent,uniform,1,undefined,1,s,0,0,0,0,37,0,0,0,37,0,37,37,37,37,37,37,Fri Sep 20 17:34:08 2019,infinite,The main experiment item,yes,fp-subject-1.osexp,/Users/freyaportales/Documents,no,mono,no,18,no,white,no,no,768,legacy,37,37,/Users/freyaportales/Documents/fp-subject-1.csv,legacy,Kafkaesque Koffka,3.2.8,0,s,NA,s,NA,NA,s,631,NA,2310,NA,NA,631,2,legacy,1024,2,48000,-16,experiment,HHSHH,1,odd,4927,NA,NA,NA,79082,2608,NA,NA,NA,2548,NA,80196,80329,80962,80164,80329,Flanker task,38,28009,38,yes,1024
100,100,731.2051282,731.2051282,black,legacy,legacy,legacy,0,incongruent,uniform,1,undefined,1,h,0,0,0,0,38,0,0,0,38,0,38,38,38,38,38,38,Fri Sep 20 17:34:08 2019,infinite,The main experiment item,yes,fp-subject-1.osexp,/Users/freyaportales/Documents,no,mono,no,18,no,white,no,no,768,legacy,38,38,/Users/freyaportales/Documents/fp-subject-1.csv,legacy,Kafkaesque Koffka,3.2.8,0,h,NA,s,NA,NA,h,508,NA,2310,NA,NA,508,2,legacy,1024,2,48000,-16,experiment,SSHSS,1,odd,4927,NA,NA,NA,81000,2608,NA,NA,NA,2548,NA,82146,82279,82789,82110,82279,Flanker task,39,28517,39,yes,1024
100,100,726.425,726.425,black,legacy,legacy,legacy,0,congruent,uniform,1,undefined,1,s,0,0,0,0,39,0,0,0,39,0,39,39,39,39,39,39,Fri Sep 20 17:34:08 2019,infinite,The main experiment item,yes,fp-subject-1.osexp,/Users/freyaportales/Documents,no,mono,no,18,no,white,no,no,768,legacy,39,39,/Users/freyaportales/Documents/fp-subject-1.csv,legacy,Kafkaesque Koffka,3.2.8,0,s,NA,s,NA,NA,s,540,NA,2310,NA,NA,540,2,legacy,1024,2,48000,-16,experiment,SSSSS,1,odd,4927,NA,NA,NA,82828,2608,NA,NA,NA,2548,NA,83948,84081,84623,83915,84080,Flanker task,40,29057,40,yes,1024
100,100,720.2682927,720.2682927,black,legacy,legacy,legacy,0,congruent,uniform,1,undefined,1,h,0,0,0,0,40,0,0,0,40,0,40,40,40,40,40,40,Fri Sep 20 17:34:08 2019,infinite,The main experiment item,yes,fp-subject-1.osexp,/Users/freyaportales/Documents,no,mono,no,18,no,white,no,no,768,legacy,40,40,/Users/freyaportales/Documents/fp-subject-1.csv,legacy,Kafkaesque Koffka,3.2.8,0,h,NA,s,NA,NA,h,474,NA,2310,NA,NA,474,2,legacy,1024,2,48000,-16,experiment,HHHHH,1,odd,4927,NA,NA,NA,84658,2608,NA,NA,NA,2548,NA,85772,85906,86382,85740,85905,Flanker task,41,29531,41,yes,1024
100,100,715.6904762,715.6904762,black,legacy,legacy,legacy,0,congruent,uniform,1,undefined,1,h,0,0,0,0,41,0,0,0,41,0,41,41,41,41,41,41,Fri Sep 20 17:34:08 2019,infinite,The main experiment item,yes,fp-subject-1.osexp,/Users/freyaportales/Documents,no,mono,no,18,no,white,no,no,768,legacy,41,41,/Users/freyaportales/Documents/fp-subject-1.csv,legacy,Kafkaesque Koffka,3.2.8,0,h,NA,s,NA,NA,h,528,NA,2310,NA,NA,528,2,legacy,1024,2,48000,-16,experiment,HHHHH,1,odd,4927,NA,NA,NA,86417,2608,NA,NA,NA,2548,NA,87531,87664,88194,87499,87663,Flanker task,42,30059,42,yes,1024
100,100,710.8604651,710.8604651,black,legacy,legacy,legacy,0,incongruent,uniform,1,undefined,1,h,0,0,0,0,42,0,0,0,42,0,42,42,42,42,42,42,Fri Sep 20 17:34:08 2019,infinite,The main experiment item,yes,fp-subject-1.osexp,/Users/freyaportales/Documents,no,mono,no,18,no,white,no,no,768,legacy,42,42,/Users/freyaportales/Documents/fp-subject-1.csv,legacy,Kafkaesque Koffka,3.2.8,0,h,NA,s,NA,NA,h,508,NA,2310,NA,NA,508,2,legacy,1024,2,48000,-16,experiment,SSHSS,1,odd,4927,NA,NA,NA,88230,2608,NA,NA,NA,2548,NA,89353,89486,89996,89321,89486,Flanker task,43,30567,43,yes,1024
100,100,706.1818182,706.1818182,black,legacy,legacy,legacy,0,incongruent,uniform,1,undefined,1,s,0,0,0,0,43,0,0,0,43,0,43,43,43,43,43,43,Fri Sep 20 17:34:08 2019,infinite,The main experiment item,yes,fp-subject-1.osexp,/Users/freyaportales/Documents,no,mono,no,18,no,white,no,no,768,legacy,43,43,/Users/freyaportales/Documents/fp-subject-1.csv,legacy,Kafkaesque Koffka,3.2.8,0,s,NA,s,NA,NA,s,505,NA,2310,NA,NA,505,2,legacy,1024,2,48000,-16,experiment,HHSHH,1,odd,4927,NA,NA,NA,90030,2608,NA,NA,NA,2548,NA,91142,91275,91782,91111,91275,Flanker task,44,31072,44,yes,1024
100,100,702.2666667,702.2666667,black,legacy,legacy,legacy,0,congruent,uniform,1,undefined,1,h,0,0,0,0,44,0,0,0,44,0,44,44,44,44,44,44,Fri Sep 20 17:34:08 2019,infinite,The main experiment item,yes,fp-subject-1.osexp,/Users/freyaportales/Documents,no,mono,no,18,no,white,no,no,768,legacy,44,44,/Users/freyaportales/Documents/fp-subject-1.csv,legacy,Kafkaesque Koffka,3.2.8,0,h,NA,s,NA,NA,h,530,NA,2310,NA,NA,530,2,legacy,1024,2,48000,-16,experiment,HHHHH,1,odd,4927,NA,NA,NA,91832,2608,NA,NA,NA,2548,NA,92946,93079,93611,92913,93078,Flanker task,45,31602,45,yes,1024
100,100,698.5,698.5,black,legacy,legacy,legacy,0,incongruent,uniform,1,undefined,1,h,0,0,0,0,45,0,0,0,45,0,45,45,45,45,45,45,Fri Sep 20 17:34:08 2019,infinite,The main experiment item,yes,fp-subject-1.osexp,/Users/freyaportales/Documents,no,mono,no,18,no,white,no,no,768,legacy,45,45,/Users/freyaportales/Documents/fp-subject-1.csv,legacy,Kafkaesque Koffka,3.2.8,0,h,NA,s,NA,NA,h,529,NA,2310,NA,NA,529,2,legacy,1024,2,48000,-16,experiment,SSHSS,1,odd,4927,NA,NA,NA,93645,2608,NA,NA,NA,2548,NA,94758,94895,95426,94726,94895,Flanker task,46,32131,46,yes,1024
100,100,700.5744681,700.5744681,black,legacy,legacy,legacy,0,congruent,uniform,1,undefined,1,s,0,0,0,0,46,0,0,0,46,0,46,46,46,46,46,46,Fri Sep 20 17:34:08 2019,infinite,The main experiment item,yes,fp-subject-1.osexp,/Users/freyaportales/Documents,no,mono,no,18,no,white,no,no,768,legacy,46,46,/Users/freyaportales/Documents/fp-subject-1.csv,legacy,Kafkaesque Koffka,3.2.8,0,s,NA,s,NA,NA,s,796,NA,2310,NA,NA,796,2,legacy,1024,2,48000,-16,experiment,SSSSS,1,odd,4927,NA,NA,NA,95464,2608,NA,NA,NA,2548,NA,96577,96710,97508,96545,96710,Flanker task,47,32927,47,yes,1024
100,100,696.3541667,696.3541667,black,legacy,legacy,legacy,0,incongruent,uniform,1,undefined,1,s,0,0,0,0,47,0,0,0,47,0,47,47,47,47,47,47,Fri Sep 20 17:34:08 2019,infinite,The main experiment item,yes,fp-subject-1.osexp,/Users/freyaportales/Documents,no,mono,no,18,no,white,no,no,768,legacy,47,47,/Users/freyaportales/Documents/fp-subject-1.csv,legacy,Kafkaesque Koffka,3.2.8,0,s,NA,s,NA,NA,s,498,NA,2310,NA,NA,498,2,legacy,1024,2,48000,-16,experiment,HHSHH,1,odd,4927,NA,NA,NA,97549,2608,NA,NA,NA,2548,NA,98668,98801,99301,98636,98801,Flanker task,48,33425,48,yes,1024
100,100,694.3061224,694.3061224,black,legacy,legacy,legacy,0,incongruent,uniform,1,undefined,1,s,0,0,0,0,48,0,0,0,48,0,48,48,48,48,48,48,Fri Sep 20 17:34:08 2019,infinite,The main experiment item,yes,fp-subject-1.osexp,/Users/freyaportales/Documents,no,mono,no,18,no,white,no,no,768,legacy,48,48,/Users/freyaportales/Documents/fp-subject-1.csv,legacy,Kafkaesque Koffka,3.2.8,0,s,NA,s,NA,NA,s,596,NA,2310,NA,NA,596,2,legacy,1024,2,48000,-16,experiment,HHSHH,1,odd,4927,NA,NA,NA,99335,2608,NA,NA,NA,2548,NA,100448,100581,101179,100416,100581,Flanker task,49,34021,49,yes,1024
100,100,692.74,692.74,black,legacy,legacy,legacy,0,incongruent,uniform,1,undefined,1,h,0,0,0,0,49,0,0,0,49,0,49,49,49,49,49,49,Fri Sep 20 17:34:08 2019,infinite,The main experiment item,yes,fp-subject-1.osexp,/Users/freyaportales/Documents,no,mono,no,18,no,white,no,no,768,legacy,49,49,/Users/freyaportales/Documents/fp-subject-1.csv,legacy,Kafkaesque Koffka,3.2.8,0,h,NA,s,NA,NA,h,616,NA,2310,NA,NA,616,2,legacy,1024,2,48000,-16,experiment,SSHSS,1,odd,4927,NA,NA,NA,101218,2608,NA,NA,NA,2548,NA,102337,102470,103088,102305,102470,Flanker task,50,34637,50,yes,1024
100,100,689.4705882,689.4705882,black,legacy,legacy,legacy,0,congruent,uniform,1,undefined,1,h,0,0,0,0,50,0,0,0,50,0,50,50,50,50,50,50,Fri Sep 20 17:34:08 2019,infinite,The main experiment item,yes,fp-subject-1.osexp,/Users/freyaportales/Documents,no,mono,no,18,no,white,no,no,768,legacy,50,50,/Users/freyaportales/Documents/fp-subject-1.csv,legacy,Kafkaesque Koffka,3.2.8,0,h,NA,s,NA,NA,h,526,NA,2310,NA,NA,526,2,legacy,1024,2,48000,-16,experiment,HHHHH,1,odd,4927,NA,NA,NA,103123,2608,NA,NA,NA,2548,NA,104238,104371,104899,104206,104370,Flanker task,51,35163,51,yes,1024
100,100,691.75,691.75,black,legacy,legacy,legacy,0,congruent,uniform,1,undefined,1,s,0,0,0,0,51,0,0,0,51,0,51,51,51,51,51,51,Fri Sep 20 17:34:08 2019,infinite,The main experiment item,yes,fp-subject-1.osexp,/Users/freyaportales/Documents,no,mono,no,18,no,white,no,no,768,legacy,51,51,/Users/freyaportales/Documents/fp-subject-1.csv,legacy,Kafkaesque Koffka,3.2.8,0,s,NA,s,NA,NA,s,808,NA,2310,NA,NA,808,2,legacy,1024,2,48000,-16,experiment,SSSSS,1,odd,4927,NA,NA,NA,104933,2608,NA,NA,NA,2548,NA,106046,106179,106989,106013,106179,Flanker task,52,35971,52,yes,1024
100,100,688.7169811,688.7169811,black,legacy,legacy,legacy,0,incongruent,uniform,1,undefined,1,h,0,0,0,0,52,0,0,0,52,0,52,52,52,52,52,52,Fri Sep 20 17:34:08 2019,infinite,The main experiment item,yes,fp-subject-1.osexp,/Users/freyaportales/Documents,no,mono,no,18,no,white,no,no,768,legacy,52,52,/Users/freyaportales/Documents/fp-subject-1.csv,legacy,Kafkaesque Koffka,3.2.8,0,h,NA,s,NA,NA,h,531,NA,2310,NA,NA,531,2,legacy,1024,2,48000,-16,experiment,SSHSS,1,odd,4927,NA,NA,NA,107025,2608,NA,NA,NA,2548,NA,108146,108279,108812,108114,108279,Flanker task,53,36502,53,yes,1024
100,100,687.9444444,687.9444444,black,legacy,legacy,legacy,0,incongruent,uniform,1,undefined,1,s,0,0,0,0,53,0,0,0,53,0,53,53,53,53,53,53,Fri Sep 20 17:34:08 2019,infinite,The main experiment item,yes,fp-subject-1.osexp,/Users/freyaportales/Documents,no,mono,no,18,no,white,no,no,768,legacy,53,53,/Users/freyaportales/Documents/fp-subject-1.csv,legacy,Kafkaesque Koffka,3.2.8,0,s,NA,s,NA,NA,s,647,NA,2310,NA,NA,647,2,legacy,1024,2,48000,-16,experiment,HHSHH,1,odd,4927,NA,NA,NA,108846,2608,NA,NA,NA,2548,NA,109960,110093,110742,109928,110093,Flanker task,54,37149,54,yes,1024
100,100,684.1272727,684.1272727,black,legacy,legacy,legacy,0,incongruent,uniform,1,undefined,1,h,0,0,0,0,54,0,0,0,54,0,54,54,54,54,54,54,Fri Sep 20 17:34:08 2019,infinite,The main experiment item,yes,fp-subject-1.osexp,/Users/freyaportales/Documents,no,mono,no,18,no,white,no,no,768,legacy,54,54,/Users/freyaportales/Documents/fp-subject-1.csv,legacy,Kafkaesque Koffka,3.2.8,0,h,NA,s,NA,NA,h,478,NA,2310,NA,NA,478,2,legacy,1024,2,48000,-16,experiment,SSHSS,1,odd,4927,NA,NA,NA,110780,2608,NA,NA,NA,2548,NA,111899,112030,112510,111866,112030,Flanker task,55,37627,55,yes,1024
100,100,679.5178571,679.5178571,black,legacy,legacy,legacy,0,congruent,uniform,1,undefined,1,s,0,0,0,0,55,0,0,0,55,0,55,55,55,55,55,55,Fri Sep 20 17:34:08 2019,infinite,The main experiment item,yes,fp-subject-1.osexp,/Users/freyaportales/Documents,no,mono,no,18,no,white,no,no,768,legacy,55,55,/Users/freyaportales/Documents/fp-subject-1.csv,legacy,Kafkaesque Koffka,3.2.8,0,s,NA,s,NA,NA,s,426,NA,2310,NA,NA,426,2,legacy,1024,2,48000,-16,experiment,SSSSS,1,odd,4927,NA,NA,NA,112544,2608,NA,NA,NA,2548,NA,113656,113791,114219,113624,113791,Flanker task,56,38053,56,yes,1024
100,100,674.6666667,674.6666667,black,legacy,legacy,legacy,0,congruent,uniform,1,undefined,1,s,0,0,0,0,56,0,0,0,56,0,56,56,56,56,56,56,Fri Sep 20 17:34:08 2019,infinite,The main experiment item,yes,fp-subject-1.osexp,/Users/freyaportales/Documents,no,mono,no,18,no,white,no,no,768,legacy,56,56,/Users/freyaportales/Documents/fp-subject-1.csv,legacy,Kafkaesque Koffka,3.2.8,0,s,NA,s,NA,NA,s,403,NA,2310,NA,NA,403,2,legacy,1024,2,48000,-16,experiment,SSSSS,1,odd,4927,NA,NA,NA,114258,2608,NA,NA,NA,2548,NA,115374,115508,115913,115342,115508,Flanker task,57,38456,57,yes,1024
98.27586207,98.27586207,669.7758621,669.7758621,black,legacy,legacy,legacy,0,incongruent,uniform,0,undefined,0,s,0,0,0,0,57,0,0,0,57,0,57,57,57,57,57,57,Fri Sep 20 17:34:08 2019,infinite,The main experiment item,yes,fp-subject-1.osexp,/Users/freyaportales/Documents,no,mono,no,18,no,white,no,no,768,legacy,57,57,/Users/freyaportales/Documents/fp-subject-1.csv,legacy,Kafkaesque Koffka,3.2.8,0,h,NA,s,NA,NA,h,391,NA,2310,NA,NA,391,2,legacy,1024,2,48000,-16,experiment,HHSHH,1,odd,4927,NA,NA,NA,115947,2608,NA,NA,NA,2548,NA,117059,117191,117584,117027,117191,Flanker task,57,38847,58,yes,1024
98.30508475,98.30508475,667.2372881,667.2372881,black,legacy,legacy,legacy,0,congruent,uniform,1,undefined,1,h,0,0,0,0,58,0,0,0,58,0,58,58,58,58,58,58,Fri Sep 20 17:34:08 2019,infinite,The main experiment item,yes,fp-subject-1.osexp,/Users/freyaportales/Documents,no,mono,no,18,no,white,no,no,768,legacy,58,58,/Users/freyaportales/Documents/fp-subject-1.csv,legacy,Kafkaesque Koffka,3.2.8,0,h,NA,s,NA,NA,h,520,NA,2310,NA,NA,520,2,legacy,1024,2,48000,-16,experiment,HHHHH,1,odd,4927,NA,NA,NA,118157,2608,NA,NA,117625,2548,NA,119269,119402,119924,119237,119402,Flanker task,58,39367,59,yes,1024
98.33333333,98.33333333,664.9333333,664.9333333,black,legacy,legacy,legacy,0,congruent,uniform,1,undefined,1,s,0,0,0,0,59,0,0,0,59,0,59,59,59,59,59,59,Fri Sep 20 17:34:08 2019,infinite,The main experiment item,yes,fp-subject-1.osexp,/Users/freyaportales/Documents,no,mono,no,18,no,white,no,no,768,legacy,59,59,/Users/freyaportales/Documents/fp-subject-1.csv,legacy,Kafkaesque Koffka,3.2.8,0,s,NA,s,NA,NA,s,529,NA,2310,NA,NA,529,2,legacy,1024,2,48000,-16,experiment,SSSSS,1,odd,4927,NA,NA,NA,119959,2608,NA,NA,117625,2548,NA,121074,121206,121737,121042,121206,Flanker task,59,39896,60,yes,1024
98.36065574,98.36065574,662.295082,662.295082,black,legacy,legacy,legacy,0,congruent,uniform,1,undefined,1,h,0,0,0,0,60,0,0,0,60,0,60,60,60,60,60,60,Fri Sep 20 17:34:08 2019,infinite,The main experiment item,yes,fp-subject-1.osexp,/Users/freyaportales/Documents,no,mono,no,18,no,white,no,no,768,legacy,60,60,/Users/freyaportales/Documents/fp-subject-1.csv,legacy,Kafkaesque Koffka,3.2.8,0,h,NA,s,NA,NA,h,504,NA,2310,NA,NA,504,2,legacy,1024,2,48000,-16,experiment,HHHHH,1,odd,4927,NA,NA,NA,121771,2608,NA,NA,117625,2548,NA,122884,123016,123522,122852,123016,Flanker task,60,40400,61,yes,1024
98.38709677,98.38709677,660.483871,660.483871,black,legacy,legacy,legacy,0,incongruent,uniform,1,undefined,1,s,0,0,0,0,61,0,0,0,61,0,61,61,61,61,61,61,Fri Sep 20 17:34:08 2019,infinite,The main experiment item,yes,fp-subject-1.osexp,/Users/freyaportales/Documents,no,mono,no,18,no,white,no,no,768,legacy,61,61,/Users/freyaportales/Documents/fp-subject-1.csv,legacy,Kafkaesque Koffka,3.2.8,0,s,NA,s,NA,NA,s,550,NA,2310,NA,NA,550,2,legacy,1024,2,48000,-16,experiment,HHSHH,1,odd,4927,NA,NA,NA,123567,2608,NA,NA,117625,2548,NA,124681,124816,125368,124648,124816,Flanker task,61,40950,62,yes,1024
98.41269841,98.41269841,658.3015873,658.3015873,black,legacy,legacy,legacy,0,congruent,uniform,1,undefined,1,s,0,0,0,0,62,0,0,0,62,0,62,62,62,62,62,62,Fri Sep 20 17:34:08 2019,infinite,The main experiment item,yes,fp-subject-1.osexp,/Users/freyaportales/Documents,no,mono,no,18,no,white,no,no,768,legacy,62,62,/Users/freyaportales/Documents/fp-subject-1.csv,legacy,Kafkaesque Koffka,3.2.8,0,s,NA,s,NA,NA,s,523,NA,2310,NA,NA,523,2,legacy,1024,2,48000,-16,experiment,SSSSS,1,odd,4927,NA,NA,NA,125403,2608,NA,NA,117625,2548,NA,126516,126648,127173,126484,126648,Flanker task,62,41473,63,yes,1024
98.4375,98.4375,660.984375,660.984375,black,legacy,legacy,legacy,0,incongruent,uniform,1,undefined,1,h,0,0,0,0,63,0,0,0,63,0,63,63,63,63,63,63,Fri Sep 20 17:34:08 2019,infinite,The main experiment item,yes,fp-subject-1.osexp,/Users/freyaportales/Documents,no,mono,no,18,no,white,no,no,768,legacy,63,63,/Users/freyaportales/Documents/fp-subject-1.csv,legacy,Kafkaesque Koffka,3.2.8,0,h,NA,s,NA,NA,h,830,NA,2310,NA,NA,830,2,legacy,1024,2,48000,-16,experiment,SSHSS,1,odd,4927,NA,NA,NA,127208,2608,NA,NA,117625,2548,NA,128321,128454,129286,128289,128454,Flanker task,63,42303,64,yes,1024
98.46153846,98.46153846,658.6,658.6,black,legacy,legacy,legacy,0,congruent,uniform,1,undefined,1,h,0,0,0,0,64,0,0,0,64,0,64,64,64,64,64,64,Fri Sep 20 17:34:08 2019,infinite,The main experiment item,yes,fp-subject-1.osexp,/Users/freyaportales/Documents,no,mono,no,18,no,white,no,no,768,legacy,64,64,/Users/freyaportales/Documents/fp-subject-1.csv,legacy,Kafkaesque Koffka,3.2.8,0,h,NA,s,NA,NA,h,506,NA,2310,NA,NA,506,2,legacy,1024,2,48000,-16,experiment,HHHHH,1,odd,4927,NA,NA,NA,129325,2608,NA,NA,117625,2548,NA,130446,130579,131087,130414,130579,Flanker task,64,42809,65,yes,1024
98.48484848,98.48484848,657.1969697,657.1969697,black,legacy,legacy,legacy,0,incongruent,uniform,1,undefined,1,s,0,0,0,0,65,0,0,0,65,0,65,65,65,65,65,65,Fri Sep 20 17:34:08 2019,infinite,The main experiment item,yes,fp-subject-1.osexp,/Users/freyaportales/Documents,no,mono,no,18,no,white,no,no,768,legacy,65,65,/Users/freyaportales/Documents/fp-subject-1.csv,legacy,Kafkaesque Koffka,3.2.8,0,s,NA,s,NA,NA,s,566,NA,2310,NA,NA,566,2,legacy,1024,2,48000,-16,experiment,HHSHH,1,odd,4927,NA,NA,NA,131121,2608,NA,NA,117625,2548,NA,132233,132365,132933,132201,132365,Flanker task,65,43375,66,yes,1024
98.50746269,98.50746269,654.8656716,654.8656716,black,legacy,legacy,legacy,0,congruent,uniform,1,undefined,1,h,0,0,0,0,66,0,0,0,66,0,66,66,66,66,66,66,Fri Sep 20 17:34:08 2019,infinite,The main experiment item,yes,fp-subject-1.osexp,/Users/freyaportales/Documents,no,mono,no,18,no,white,no,no,768,legacy,66,66,/Users/freyaportales/Documents/fp-subject-1.csv,legacy,Kafkaesque Koffka,3.2.8,0,h,NA,s,NA,NA,h,501,NA,2310,NA,NA,501,2,legacy,1024,2,48000,-16,experiment,HHHHH,1,odd,4927,NA,NA,NA,132974,2608,NA,NA,117625,2548,NA,134092,134226,134729,134060,134225,Flanker task,66,43876,67,yes,1024
98.52941176,98.52941176,654.5147059,654.5147059,black,legacy,legacy,legacy,0,incongruent,uniform,1,undefined,1,h,0,0,0,0,67,0,0,0,67,0,67,67,67,67,67,67,Fri Sep 20 17:34:08 2019,infinite,The main experiment item,yes,fp-subject-1.osexp,/Users/freyaportales/Documents,no,mono,no,18,no,white,no,no,768,legacy,67,67,/Users/freyaportales/Documents/fp-subject-1.csv,legacy,Kafkaesque Koffka,3.2.8,0,h,NA,s,NA,NA,h,631,NA,2310,NA,NA,631,2,legacy,1024,2,48000,-16,experiment,SSHSS,1,odd,4927,NA,NA,NA,134763,2608,NA,NA,117625,2548,NA,135878,136009,136642,135845,136009,Flanker task,67,44507,68,yes,1024
98.55072464,98.55072464,654.6666667,654.6666667,black,legacy,legacy,legacy,0,incongruent,uniform,1,undefined,1,h,0,0,0,0,68,0,0,0,68,0,68,68,68,68,68,68,Fri Sep 20 17:34:08 2019,infinite,The main experiment item,yes,fp-subject-1.osexp,/Users/freyaportales/Documents,no,mono,no,18,no,white,no,no,768,legacy,68,68,/Users/freyaportales/Documents/fp-subject-1.csv,legacy,Kafkaesque Koffka,3.2.8,0,h,NA,s,NA,NA,h,665,NA,2310,NA,NA,665,2,legacy,1024,2,48000,-16,experiment,SSHSS,1,odd,4927,NA,NA,NA,136678,2608,NA,NA,117625,2548,NA,137806,137939,138606,137773,137938,Flanker task,68,45172,69,yes,1024
98.57142857,98.57142857,652.3142857,652.3142857,black,legacy,legacy,legacy,0,congruent,uniform,1,undefined,1,s,0,0,0,0,69,0,0,0,69,0,69,69,69,69,69,69,Fri Sep 20 17:34:08 2019,infinite,The main experiment item,yes,fp-subject-1.osexp,/Users/freyaportales/Documents,no,mono,no,18,no,white,no,no,768,legacy,69,69,/Users/freyaportales/Documents/fp-subject-1.csv,legacy,Kafkaesque Koffka,3.2.8,0,s,NA,s,NA,NA,s,490,NA,2310,NA,NA,490,2,legacy,1024,2,48000,-16,experiment,SSSSS,1,odd,4927,NA,NA,NA,138640,2608,NA,NA,117625,2548,NA,139753,139887,140379,139720,139887,Flanker task,69,45662,70,yes,1024
98.5915493,98.5915493,651.943662,651.943662,black,legacy,legacy,legacy,0,incongruent,uniform,1,undefined,1,s,0,0,0,0,70,0,0,0,70,0,70,70,70,70,70,70,Fri Sep 20 17:34:08 2019,infinite,The main experiment item,yes,fp-subject-1.osexp,/Users/freyaportales/Documents,no,mono,no,18,no,white,no,no,768,legacy,70,70,/Users/freyaportales/Documents/fp-subject-1.csv,legacy,Kafkaesque Koffka,3.2.8,0,s,NA,s,NA,NA,s,626,NA,2310,NA,NA,626,2,legacy,1024,2,48000,-16,experiment,HHSHH,1,odd,4927,NA,NA,NA,140413,2608,NA,NA,117625,2548,NA,141528,141660,142288,141495,141660,Flanker task,70,46288,71,yes,1024
98.61111111,98.61111111,649.9722222,649.9722222,black,legacy,legacy,legacy,0,incongruent,uniform,1,undefined,1,h,0,0,0,0,71,0,0,0,71,0,71,71,71,71,71,71,Fri Sep 20 17:34:08 2019,infinite,The main experiment item,yes,fp-subject-1.osexp,/Users/freyaportales/Documents,no,mono,no,18,no,white,no,no,768,legacy,71,71,/Users/freyaportales/Documents/fp-subject-1.csv,legacy,Kafkaesque Koffka,3.2.8,0,h,NA,s,NA,NA,h,510,NA,2310,NA,NA,510,2,legacy,1024,2,48000,-16,experiment,SSHSS,1,odd,4927,NA,NA,NA,142324,2608,NA,NA,117625,2548,NA,143442,143576,144088,143410,143576,Flanker task,71,46798,72,yes,1024
98.63013699,98.63013699,648.2739726,648.2739726,black,legacy,legacy,legacy,0,congruent,uniform,1,undefined,1,s,0,0,0,0,72,0,0,0,72,0,72,72,72,72,72,72,Fri Sep 20 17:34:08 2019,infinite,The main experiment item,yes,fp-subject-1.osexp,/Users/freyaportales/Documents,no,mono,no,18,no,white,no,no,768,legacy,72,72,/Users/freyaportales/Documents/fp-subject-1.csv,legacy,Kafkaesque Koffka,3.2.8,0,s,NA,s,NA,NA,s,526,NA,2310,NA,NA,526,2,legacy,1024,2,48000,-16,experiment,SSSSS,1,odd,4927,NA,NA,NA,144122,2608,NA,NA,117625,2548,NA,145236,145369,145899,145204,145369,Flanker task,72,47324,73,yes,1024
98.64864865,98.64864865,648.9054054,648.9054054,black,legacy,legacy,legacy,0,congruent,uniform,1,undefined,1,s,0,0,0,0,73,0,0,0,73,0,73,73,73,73,73,73,Fri Sep 20 17:34:08 2019,infinite,The main experiment item,yes,fp-subject-1.osexp,/Users/freyaportales/Documents,no,mono,no,18,no,white,no,no,768,legacy,73,73,/Users/freyaportales/Documents/fp-subject-1.csv,legacy,Kafkaesque Koffka,3.2.8,0,s,NA,s,NA,NA,s,695,NA,2310,NA,NA,695,2,legacy,1024,2,48000,-16,experiment,SSSSS,1,odd,4927,NA,NA,NA,145951,2608,NA,NA,117625,2548,NA,147070,147203,147900,147037,147202,Flanker task,73,48019,74,yes,1024
98.66666667,98.66666667,648.0666667,648.0666667,black,legacy,legacy,legacy,0,incongruent,uniform,1,undefined,1,s,0,0,0,0,74,0,0,0,74,0,74,74,74,74,74,74,Fri Sep 20 17:34:08 2019,infinite,The main experiment item,yes,fp-subject-1.osexp,/Users/freyaportales/Documents,no,mono,no,18,no,white,no,no,768,legacy,74,74,/Users/freyaportales/Documents/fp-subject-1.csv,legacy,Kafkaesque Koffka,3.2.8,0,s,NA,s,NA,NA,s,586,NA,2310,NA,NA,586,2,legacy,1024,2,48000,-16,experiment,HHSHH,1,odd,4927,NA,NA,NA,147934,2608,NA,NA,117625,2548,NA,149055,149188,149776,149022,149188,Flanker task,74,48605,75,yes,1024
98.68421053,98.68421053,646.1578947,646.1578947,black,legacy,legacy,legacy,0,congruent,uniform,1,undefined,1,s,0,0,0,0,75,0,0,0,75,0,75,75,75,75,75,75,Fri Sep 20 17:34:08 2019,infinite,The main experiment item,yes,fp-subject-1.osexp,/Users/freyaportales/Documents,no,mono,no,18,no,white,no,no,768,legacy,75,75,/Users/freyaportales/Documents/fp-subject-1.csv,legacy,Kafkaesque Koffka,3.2.8,0,s,NA,s,NA,NA,s,503,NA,2310,NA,NA,503,2,legacy,1024,2,48000,-16,experiment,SSSSS,1,odd,4927,NA,NA,NA,149810,2608,NA,NA,117625,2548,NA,150926,151059,151565,150894,151059,Flanker task,75,49108,76,yes,1024
98.7012987,98.7012987,645.6623377,645.6623377,black,legacy,legacy,legacy,0,congruent,uniform,1,undefined,1,h,0,0,0,0,76,0,0,0,76,0,76,76,76,76,76,76,Fri Sep 20 17:34:08 2019,infinite,The main experiment item,yes,fp-subject-1.osexp,/Users/freyaportales/Documents,no,mono,no,18,no,white,no,no,768,legacy,76,76,/Users/freyaportales/Documents/fp-subject-1.csv,legacy,Kafkaesque Koffka,3.2.8,0,h,NA,s,NA,NA,h,608,NA,2310,NA,NA,608,2,legacy,1024,2,48000,-16,experiment,HHHHH,1,odd,4927,NA,NA,NA,151606,2608,NA,NA,117625,2548,NA,152724,152856,153467,152692,152856,Flanker task,76,49716,77,yes,1024
97.43589744,97.43589744,645.474359,645.474359,black,legacy,legacy,legacy,0,incongruent,uniform,0,undefined,0,h,0,0,0,0,77,0,0,0,77,0,77,77,77,77,77,77,Fri Sep 20 17:34:08 2019,infinite,The main experiment item,yes,fp-subject-1.osexp,/Users/freyaportales/Documents,no,mono,no,18,no,white,no,no,768,legacy,77,77,/Users/freyaportales/Documents/fp-subject-1.csv,legacy,Kafkaesque Koffka,3.2.8,0,s,NA,s,NA,NA,s,631,NA,2310,NA,NA,631,2,legacy,1024,2,48000,-16,experiment,SSHSS,1,odd,4927,NA,NA,NA,153501,2608,NA,NA,117625,2548,NA,154615,154747,155380,154583,154746,Flanker task,76,50347,78,yes,1024
97.46835443,97.46835443,645.0253165,645.0253165,black,legacy,legacy,legacy,0,congruent,uniform,1,undefined,1,h,0,0,0,0,78,0,0,0,78,0,78,78,78,78,78,78,Fri Sep 20 17:34:08 2019,infinite,The main experiment item,yes,fp-subject-1.osexp,/Users/freyaportales/Documents,no,mono,no,18,no,white,no,no,768,legacy,78,78,/Users/freyaportales/Documents/fp-subject-1.csv,legacy,Kafkaesque Koffka,3.2.8,0,h,NA,s,NA,NA,h,610,NA,2310,NA,NA,610,2,legacy,1024,2,48000,-16,experiment,HHHHH,1,odd,4927,NA,NA,NA,155949,2608,NA,NA,155417,2548,NA,157062,157195,157808,157029,157195,Flanker task,77,50957,79,yes,1024
97.5,97.5,644.8,644.8,black,legacy,legacy,legacy,0,congruent,uniform,1,undefined,1,h,0,0,0,0,79,0,0,0,79,0,79,79,79,79,79,79,Fri Sep 20 17:34:08 2019,infinite,The main experiment item,yes,fp-subject-1.osexp,/Users/freyaportales/Documents,no,mono,no,18,no,white,no,no,768,legacy,79,79,/Users/freyaportales/Documents/fp-subject-1.csv,legacy,Kafkaesque Koffka,3.2.8,0,h,NA,s,NA,NA,h,627,NA,2310,NA,NA,627,2,legacy,1024,2,48000,-16,experiment,HHHHH,1,odd,4927,NA,NA,NA,157844,2608,NA,NA,155417,2548,NA,158963,159096,159726,158931,159096,Flanker task,78,51584,80,yes,1024
97.5308642,97.5308642,643.5925926,643.5925926,black,legacy,legacy,legacy,0,congruent,uniform,1,undefined,1,h,0,0,0,0,80,0,0,0,80,0,80,80,80,80,80,80,Fri Sep 20 17:34:08 2019,600,The main experiment item,yes,fp-subject-1.osexp,/Users/freyaportales/Documents,no,mono,no,18,no,white,no,no,768,legacy,0,79,/Users/freyaportales/Documents/fp-subject-1.csv,legacy,Kafkaesque Koffka,3.2.8,0,h,NA,s,s,NA,h,547,NA,2310,23091,NA,547,2,legacy,1024,2,48000,-16,experiment,HHHHH,1,odd,4927,183907,NA,NA,159761,2608,160813,NA,155417,2548,NA,184030,184162,184711,184000,184162,Flanker task,79,52131,81,yes,1024
97.56097561,97.56097561,642.597561,642.597561,black,legacy,legacy,legacy,0,incongruent,uniform,1,undefined,1,h,0,0,0,0,81,0,0,0,81,0,81,81,81,81,81,81,Fri Sep 20 17:34:08 2019,600,The main experiment item,yes,fp-subject-1.osexp,/Users/freyaportales/Documents,no,mono,no,18,no,white,no,no,768,legacy,1,79,/Users/freyaportales/Documents/fp-subject-1.csv,legacy,Kafkaesque Koffka,3.2.8,0,h,NA,s,s,NA,h,562,NA,2310,23091,NA,562,2,legacy,1024,2,48000,-16,experiment,SSHSS,1,odd,4927,183907,NA,NA,184746,2608,160813,NA,155417,2548,NA,185859,185992,186556,185827,185992,Flanker task,80,52693,82,yes,1024
97.59036145,97.59036145,640.6746988,640.6746988,black,legacy,legacy,legacy,0,incongruent,uniform,1,undefined,1,s,0,0,0,0,82,0,0,0,82,0,82,82,82,82,82,82,Fri Sep 20 17:34:08 2019,600,The main experiment item,yes,fp-subject-1.osexp,/Users/freyaportales/Documents,no,mono,no,18,no,white,no,no,768,legacy,2,79,/Users/freyaportales/Documents/fp-subject-1.csv,legacy,Kafkaesque Koffka,3.2.8,0,s,NA,s,s,NA,s,483,NA,2310,23091,NA,483,2,legacy,1024,2,48000,-16,experiment,HHSHH,1,odd,4927,183907,NA,NA,186592,2608,160813,NA,155417,2548,NA,187705,187838,188324,187673,187838,Flanker task,81,53176,83,yes,1024
97.61904762,97.61904762,638.7738095,638.7738095,black,legacy,legacy,legacy,0,congruent,uniform,1,undefined,1,h,0,0,0,0,83,0,0,0,83,0,83,83,83,83,83,83,Fri Sep 20 17:34:08 2019,600,The main experiment item,yes,fp-subject-1.osexp,/Users/freyaportales/Documents,no,mono,no,18,no,white,no,no,768,legacy,3,79,/Users/freyaportales/Documents/fp-subject-1.csv,legacy,Kafkaesque Koffka,3.2.8,0,h,NA,s,s,NA,h,481,NA,2310,23091,NA,481,2,legacy,1024,2,48000,-16,experiment,HHHHH,1,odd,4927,183907,NA,NA,188365,2608,160813,NA,155417,2548,NA,189483,189616,190099,189451,189616,Flanker task,82,53657,84,yes,1024
97.64705882,97.64705882,637.1764706,637.1764706,black,legacy,legacy,legacy,0,incongruent,uniform,1,undefined,1,h,0,0,0,0,84,0,0,0,84,0,84,84,84,84,84,84,Fri Sep 20 17:34:08 2019,600,The main experiment item,yes,fp-subject-1.osexp,/Users/freyaportales/Documents,no,mono,no,18,no,white,no,no,768,legacy,4,79,/Users/freyaportales/Documents/fp-subject-1.csv,legacy,Kafkaesque Koffka,3.2.8,0,h,NA,s,s,NA,h,503,NA,2310,23091,NA,503,2,legacy,1024,2,48000,-16,experiment,SSHSS,1,odd,4927,183907,NA,NA,190133,2608,160813,NA,155417,2548,NA,191246,191380,191885,191215,191380,Flanker task,83,54160,85,yes,1024
97.6744186,97.6744186,635.7093023,635.7093023,black,legacy,legacy,legacy,0,incongruent,uniform,1,undefined,1,h,0,0,0,0,85,0,0,0,85,0,85,85,85,85,85,85,Fri Sep 20 17:34:08 2019,600,The main experiment item,yes,fp-subject-1.osexp,/Users/freyaportales/Documents,no,mono,no,18,no,white,no,no,768,legacy,5,79,/Users/freyaportales/Documents/fp-subject-1.csv,legacy,Kafkaesque Koffka,3.2.8,0,h,NA,s,s,NA,h,511,NA,2310,23091,NA,511,2,legacy,1024,2,48000,-16,experiment,SSHSS,1,odd,4927,183907,NA,NA,191929,2608,160813,NA,155417,2548,NA,193041,193174,193687,193009,193174,Flanker task,84,54671,86,yes,1024
97.70114943,97.70114943,632.6551724,632.6551724,black,legacy,legacy,legacy,0,congruent,uniform,1,undefined,1,s,0,0,0,0,86,0,0,0,86,0,86,86,86,86,86,86,Fri Sep 20 17:34:08 2019,600,The main experiment item,yes,fp-subject-1.osexp,/Users/freyaportales/Documents,no,mono,no,18,no,white,no,no,768,legacy,6,79,/Users/freyaportales/Documents/fp-subject-1.csv,legacy,Kafkaesque Koffka,3.2.8,0,s,NA,s,s,NA,s,370,NA,2310,23091,NA,370,2,legacy,1024,2,48000,-16,experiment,SSSSS,1,odd,4927,183907,NA,NA,193722,2608,160813,NA,155417,2548,NA,194834,194967,195339,194802,194967,Flanker task,85,55041,87,yes,1024
97.72727273,97.72727273,631.2272727,631.2272727,black,legacy,legacy,legacy,0,incongruent,uniform,1,undefined,1,h,0,0,0,0,87,0,0,0,87,0,87,87,87,87,87,87,Fri Sep 20 17:34:08 2019,600,The main experiment item,yes,fp-subject-1.osexp,/Users/freyaportales/Documents,no,mono,no,18,no,white,no,no,768,legacy,7,79,/Users/freyaportales/Documents/fp-subject-1.csv,legacy,Kafkaesque Koffka,3.2.8,0,h,NA,s,s,NA,h,507,NA,2310,23091,NA,507,2,legacy,1024,2,48000,-16,experiment,SSHSS,1,odd,4927,183907,NA,NA,195374,2608,160813,NA,155417,2548,NA,196486,196618,197127,196454,196618,Flanker task,86,55548,88,yes,1024
97.75280899,97.75280899,629.6067416,629.6067416,black,legacy,legacy,legacy,0,incongruent,uniform,1,undefined,1,h,0,0,0,0,88,0,0,0,88,0,88,88,88,88,88,88,Fri Sep 20 17:34:08 2019,600,The main experiment item,yes,fp-subject-1.osexp,/Users/freyaportales/Documents,no,mono,no,18,no,white,no,no,768,legacy,8,79,/Users/freyaportales/Documents/fp-subject-1.csv,legacy,Kafkaesque Koffka,3.2.8,0,h,NA,s,s,NA,h,487,NA,2310,23091,NA,487,2,legacy,1024,2,48000,-16,experiment,SSHSS,1,odd,4927,183907,NA,NA,197163,2608,160813,NA,155417,2548,NA,198286,198418,198907,198254,198418,Flanker task,87,56035,89,yes,1024
97.77777778,97.77777778,627.4,627.4,black,legacy,legacy,legacy,0,congruent,uniform,1,undefined,1,h,0,0,0,0,89,0,0,0,89,0,89,89,89,89,89,89,Fri Sep 20 17:34:08 2019,600,The main experiment item,yes,fp-subject-1.osexp,/Users/freyaportales/Documents,no,mono,no,18,no,white,no,no,768,legacy,9,79,/Users/freyaportales/Documents/fp-subject-1.csv,legacy,Kafkaesque Koffka,3.2.8,0,h,NA,s,s,NA,h,431,NA,2310,23091,NA,431,2,legacy,1024,2,48000,-16,experiment,HHHHH,1,odd,4927,183907,NA,NA,198941,2608,160813,NA,155417,2548,NA,200053,200186,200619,200020,200185,Flanker task,88,56466,90,yes,1024
97.8021978,97.8021978,625.2307692,625.2307692,black,legacy,legacy,legacy,0,congruent,uniform,1,undefined,1,s,0,0,0,0,90,0,0,0,90,0,90,90,90,90,90,90,Fri Sep 20 17:34:08 2019,600,The main experiment item,yes,fp-subject-1.osexp,/Users/freyaportales/Documents,no,mono,no,18,no,white,no,no,768,legacy,10,79,/Users/freyaportales/Documents/fp-subject-1.csv,legacy,Kafkaesque Koffka,3.2.8,0,s,NA,s,s,NA,s,430,NA,2310,23091,NA,430,2,legacy,1024,2,48000,-16,experiment,SSSSS,1,odd,4927,183907,NA,NA,200657,2608,160813,NA,155417,2548,NA,201784,201919,202351,201752,201918,Flanker task,89,56896,91,yes,1024
97.82608696,97.82608696,623.4130435,623.4130435,black,legacy,legacy,legacy,0,congruent,uniform,1,undefined,1,h,0,0,0,0,91,0,0,0,91,0,91,91,91,91,91,91,Fri Sep 20 17:34:08 2019,600,The main experiment item,yes,fp-subject-1.osexp,/Users/freyaportales/Documents,no,mono,no,18,no,white,no,no,768,legacy,11,79,/Users/freyaportales/Documents/fp-subject-1.csv,legacy,Kafkaesque Koffka,3.2.8,0,h,NA,s,s,NA,h,458,NA,2310,23091,NA,458,2,legacy,1024,2,48000,-16,experiment,HHHHH,1,odd,4927,183907,NA,NA,202386,2608,160813,NA,155417,2548,NA,203499,203633,204094,203467,203633,Flanker task,90,57354,92,yes,1024
97.84946237,97.84946237,621.2795699,621.2795699,black,legacy,legacy,legacy,0,congruent,uniform,1,undefined,1,h,0,0,0,0,92,0,0,0,92,0,92,92,92,92,92,92,Fri Sep 20 17:34:08 2019,600,The main experiment item,yes,fp-subject-1.osexp,/Users/freyaportales/Documents,no,mono,no,18,no,white,no,no,768,legacy,12,79,/Users/freyaportales/Documents/fp-subject-1.csv,legacy,Kafkaesque Koffka,3.2.8,0,h,NA,s,s,NA,h,425,NA,2310,23091,NA,425,2,legacy,1024,2,48000,-16,experiment,HHHHH,1,odd,4927,183907,NA,NA,204129,2608,160813,NA,155417,2548,NA,205255,205387,205814,205222,205387,Flanker task,91,57779,93,yes,1024
97.87234043,97.87234043,619.2978723,619.2978723,black,legacy,legacy,legacy,0,congruent,uniform,1,undefined,1,s,0,0,0,0,93,0,0,0,93,0,93,93,93,93,93,93,Fri Sep 20 17:34:08 2019,600,The main experiment item,yes,fp-subject-1.osexp,/Users/freyaportales/Documents,no,mono,no,18,no,white,no,no,768,legacy,13,79,/Users/freyaportales/Documents/fp-subject-1.csv,legacy,Kafkaesque Koffka,3.2.8,0,s,NA,s,s,NA,s,435,NA,2310,23091,NA,435,2,legacy,1024,2,48000,-16,experiment,SSSSS,1,odd,4927,183907,NA,NA,205850,2608,160813,NA,155417,2548,NA,206963,207096,207533,206931,207096,Flanker task,92,58214,94,yes,1024
97.89473684,97.89473684,616.9473684,616.9473684,black,legacy,legacy,legacy,0,congruent,uniform,1,undefined,1,s,0,0,0,0,94,0,0,0,94,0,94,94,94,94,94,94,Fri Sep 20 17:34:08 2019,600,The main experiment item,yes,fp-subject-1.osexp,/Users/freyaportales/Documents,no,mono,no,18,no,white,no,no,768,legacy,14,79,/Users/freyaportales/Documents/fp-subject-1.csv,legacy,Kafkaesque Koffka,3.2.8,0,s,NA,s,s,NA,s,396,NA,2310,23091,NA,396,2,legacy,1024,2,48000,-16,experiment,SSSSS,1,odd,4927,183907,NA,NA,207577,2608,160813,NA,155417,2548,NA,208694,208826,209224,208662,208826,Flanker task,93,58610,95,yes,1024
97.91666667,97.91666667,615.8020833,615.8020833,black,legacy,legacy,legacy,0,incongruent,uniform,1,undefined,1,h,0,0,0,0,95,0,0,0,95,0,95,95,95,95,95,95,Fri Sep 20 17:34:08 2019,600,The main experiment item,yes,fp-subject-1.osexp,/Users/freyaportales/Documents,no,mono,no,18,no,white,no,no,768,legacy,15,79,/Users/freyaportales/Documents/fp-subject-1.csv,legacy,Kafkaesque Koffka,3.2.8,0,h,NA,s,s,NA,h,507,NA,2310,23091,NA,507,2,legacy,1024,2,48000,-16,experiment,SSHSS,1,odd,4927,183907,NA,NA,209259,2608,160813,NA,155417,2548,NA,210371,210504,211013,210339,210504,Flanker task,94,59117,96,yes,1024
96.90721649,96.90721649,613.2474227,613.2474227,black,legacy,legacy,legacy,0,incongruent,uniform,0,undefined,0,s,0,0,0,0,96,0,0,0,96,0,96,96,96,96,96,96,Fri Sep 20 17:34:08 2019,600,The main experiment item,yes,fp-subject-1.osexp,/Users/freyaportales/Documents,no,mono,no,18,no,white,no,no,768,legacy,16,79,/Users/freyaportales/Documents/fp-subject-1.csv,legacy,Kafkaesque Koffka,3.2.8,0,h,NA,s,s,NA,h,368,NA,2310,23091,NA,368,2,legacy,1024,2,48000,-16,experiment,HHSHH,1,odd,4927,183907,NA,NA,211050,2608,160813,NA,155417,2548,NA,212166,212298,212668,212134,212298,Flanker task,94,59485,97,yes,1024
96.93877551,96.93877551,611.6428571,611.6428571,black,legacy,legacy,legacy,0,congruent,uniform,1,undefined,1,s,0,0,0,0,97,0,0,0,97,0,97,97,97,97,97,97,Fri Sep 20 17:34:08 2019,600,The main experiment item,yes,fp-subject-1.osexp,/Users/freyaportales/Documents,no,mono,no,18,no,white,no,no,768,legacy,17,79,/Users/freyaportales/Documents/fp-subject-1.csv,legacy,Kafkaesque Koffka,3.2.8,0,s,NA,s,s,NA,s,456,NA,2310,23091,NA,456,2,legacy,1024,2,48000,-16,experiment,SSSSS,1,odd,4927,183907,NA,NA,213234,2608,160813,NA,212702,2548,NA,214346,214480,214938,214315,214480,Flanker task,95,59941,98,yes,1024
96.96969697,96.96969697,609.7070707,609.7070707,black,legacy,legacy,legacy,0,congruent,uniform,1,undefined,1,s,0,0,0,0,98,0,0,0,98,0,98,98,98,98,98,98,Fri Sep 20 17:34:08 2019,600,The main experiment item,yes,fp-subject-1.osexp,/Users/freyaportales/Documents,no,mono,no,18,no,white,no,no,768,legacy,18,79,/Users/freyaportales/Documents/fp-subject-1.csv,legacy,Kafkaesque Koffka,3.2.8,0,s,NA,s,s,NA,s,420,NA,2310,23091,NA,420,2,legacy,1024,2,48000,-16,experiment,SSSSS,1,odd,4927,183907,NA,NA,214974,2608,160813,NA,212702,2548,NA,216086,216219,216641,216053,216219,Flanker task,96,60361,99,yes,1024
97,97,608.23,608.23,black,legacy,legacy,legacy,0,incongruent,uniform,1,undefined,1,s,0,0,0,0,99,0,0,0,99,0,99,99,99,99,99,99,Fri Sep 20 17:34:08 2019,600,The main experiment item,yes,fp-subject-1.osexp,/Users/freyaportales/Documents,no,mono,no,18,no,white,no,no,768,legacy,19,79,/Users/freyaportales/Documents/fp-subject-1.csv,legacy,Kafkaesque Koffka,3.2.8,0,s,NA,s,s,NA,s,462,NA,2310,23091,NA,462,2,legacy,1024,2,48000,-16,experiment,HHSHH,1,odd,4927,183907,NA,NA,216676,2608,160813,NA,212702,2548,NA,217792,217925,218389,217758,217925,Flanker task,97,60823,100,yes,1024
97.02970297,97.02970297,606.8910891,606.8910891,black,legacy,legacy,legacy,0,congruent,uniform,1,undefined,1,h,0,0,0,0,100,0,0,0,100,0,100,100,100,100,100,100,Fri Sep 20 17:34:08 2019,600,The main experiment item,yes,fp-subject-1.osexp,/Users/freyaportales/Documents,no,mono,no,18,no,white,no,no,768,legacy,20,79,/Users/freyaportales/Documents/fp-subject-1.csv,legacy,Kafkaesque Koffka,3.2.8,0,h,NA,s,s,NA,h,473,NA,2310,23091,NA,473,2,legacy,1024,2,48000,-16,experiment,HHHHH,1,odd,4927,183907,NA,NA,218430,2608,160813,NA,212702,2548,NA,219552,219684,220159,219519,219684,Flanker task,98,61296,101,yes,1024
97.05882353,97.05882353,605.8235294,605.8235294,black,legacy,legacy,legacy,0,incongruent,uniform,1,undefined,1,h,0,0,0,0,101,0,0,0,101,0,101,101,101,101,101,101,Fri Sep 20 17:34:08 2019,600,The main experiment item,yes,fp-subject-1.osexp,/Users/freyaportales/Documents,no,mono,no,18,no,white,no,no,768,legacy,21,79,/Users/freyaportales/Documents/fp-subject-1.csv,legacy,Kafkaesque Koffka,3.2.8,0,h,NA,s,s,NA,h,498,NA,2310,23091,NA,498,2,legacy,1024,2,48000,-16,experiment,SSHSS,1,odd,4927,183907,NA,NA,220193,2608,160813,NA,212702,2548,NA,221306,221438,221938,221274,221438,Flanker task,99,61794,102,yes,1024
97.08737864,97.08737864,605.9805825,605.9805825,black,legacy,legacy,legacy,0,incongruent,uniform,1,undefined,1,s,0,0,0,0,102,0,0,0,102,0,102,102,102,102,102,102,Fri Sep 20 17:34:08 2019,600,The main experiment item,yes,fp-subject-1.osexp,/Users/freyaportales/Documents,no,mono,no,18,no,white,no,no,768,legacy,22,79,/Users/freyaportales/Documents/fp-subject-1.csv,legacy,Kafkaesque Koffka,3.2.8,0,s,NA,s,s,NA,s,622,NA,2310,23091,NA,622,2,legacy,1024,2,48000,-16,experiment,HHSHH,1,odd,4927,183907,NA,NA,221976,2608,160813,NA,212702,2548,NA,223093,223225,223849,223062,223225,Flanker task,100,62416,103,yes,1024
97.11538462,97.11538462,604.5480769,604.5480769,black,legacy,legacy,legacy,0,incongruent,uniform,1,undefined,1,s,0,0,0,0,103,0,0,0,103,0,103,103,103,103,103,103,Fri Sep 20 17:34:08 2019,600,The main experiment item,yes,fp-subject-1.osexp,/Users/freyaportales/Documents,no,mono,no,18,no,white,no,no,768,legacy,23,79,/Users/freyaportales/Documents/fp-subject-1.csv,legacy,Kafkaesque Koffka,3.2.8,0,s,NA,s,s,NA,s,457,NA,2310,23091,NA,457,2,legacy,1024,2,48000,-16,experiment,HHSHH,1,odd,4927,183907,NA,NA,224415,2608,160813,NA,212702,2548,223884,225528,225661,226124,225496,225660,Flanker task,101,62873,104,yes,1024
97.14285714,97.14285714,602.9904762,602.9904762,black,legacy,legacy,legacy,0,congruent,uniform,1,undefined,1,h,0,0,0,0,104,0,0,0,104,0,104,104,104,104,104,104,Fri Sep 20 17:34:08 2019,600,The main experiment item,yes,fp-subject-1.osexp,/Users/freyaportales/Documents,no,mono,no,18,no,white,no,no,768,legacy,24,79,/Users/freyaportales/Documents/fp-subject-1.csv,legacy,Kafkaesque Koffka,3.2.8,0,h,NA,s,s,NA,h,441,NA,2310,23091,NA,441,2,legacy,1024,2,48000,-16,experiment,HHHHH,1,odd,4927,183907,NA,NA,226170,2608,160813,NA,212702,2548,223884,227287,227420,227863,227255,227420,Flanker task,102,63314,105,yes,1024
97.16981132,97.16981132,601.5,601.5,black,legacy,legacy,legacy,0,incongruent,uniform,1,undefined,1,s,0,0,0,0,105,0,0,0,105,0,105,105,105,105,105,105,Fri Sep 20 17:34:08 2019,600,The main experiment item,yes,fp-subject-1.osexp,/Users/freyaportales/Documents,no,mono,no,18,no,white,no,no,768,legacy,25,79,/Users/freyaportales/Documents/fp-subject-1.csv,legacy,Kafkaesque Koffka,3.2.8,0,s,NA,s,s,NA,s,445,NA,2310,23091,NA,445,2,legacy,1024,2,48000,-16,experiment,HHSHH,1,odd,4927,183907,NA,NA,227898,2608,160813,NA,212702,2548,223884,229010,229142,229589,228980,229142,Flanker task,103,63759,106,yes,1024
97.19626168,97.19626168,599.8878505,599.8878505,black,legacy,legacy,legacy,0,congruent,uniform,1,undefined,1,h,0,0,0,0,106,0,0,0,106,0,106,106,106,106,106,106,Fri Sep 20 17:34:08 2019,600,The main experiment item,yes,fp-subject-1.osexp,/Users/freyaportales/Documents,no,mono,no,18,no,white,no,no,768,legacy,26,79,/Users/freyaportales/Documents/fp-subject-1.csv,legacy,Kafkaesque Koffka,3.2.8,0,h,NA,s,s,NA,h,429,NA,2310,23091,NA,429,2,legacy,1024,2,48000,-16,experiment,HHHHH,1,odd,4927,183907,NA,NA,229635,2608,160813,NA,212702,2548,223884,230750,230883,231314,230718,230883,Flanker task,104,64188,107,yes,1024
97.22222222,97.22222222,597.462963,597.462963,black,legacy,legacy,legacy,0,congruent,uniform,1,undefined,1,s,0,0,0,0,107,0,0,0,107,0,107,107,107,107,107,107,Fri Sep 20 17:34:08 2019,600,The main experiment item,yes,fp-subject-1.osexp,/Users/freyaportales/Documents,no,mono,no,18,no,white,no,no,768,legacy,27,79,/Users/freyaportales/Documents/fp-subject-1.csv,legacy,Kafkaesque Koffka,3.2.8,0,s,NA,s,s,NA,s,338,NA,2310,23091,NA,338,2,legacy,1024,2,48000,-16,experiment,SSSSS,1,odd,4927,183907,NA,NA,231348,2608,160813,NA,212702,2548,223884,232460,232593,232934,232428,232593,Flanker task,105,64526,108,yes,1024
97.24770642,97.24770642,596.0275229,596.0275229,black,legacy,legacy,legacy,0,incongruent,uniform,1,undefined,1,s,0,0,0,0,108,0,0,0,108,0,108,108,108,108,108,108,Fri Sep 20 17:34:08 2019,600,The main experiment item,yes,fp-subject-1.osexp,/Users/freyaportales/Documents,no,mono,no,18,no,white,no,no,768,legacy,28,79,/Users/freyaportales/Documents/fp-subject-1.csv,legacy,Kafkaesque Koffka,3.2.8,0,s,NA,s,s,NA,s,441,NA,2310,23091,NA,441,2,legacy,1024,2,48000,-16,experiment,HHSHH,1,odd,4927,183907,NA,NA,232971,2608,160813,NA,212702,2548,223884,234093,234226,234669,234059,234226,Flanker task,106,64967,109,yes,1024
97.27272727,97.27272727,594.2636364,594.2636364,black,legacy,legacy,legacy,0,incongruent,uniform,1,undefined,1,s,0,0,0,0,109,0,0,0,109,0,109,109,109,109,109,109,Fri Sep 20 17:34:08 2019,600,The main experiment item,yes,fp-subject-1.osexp,/Users/freyaportales/Documents,no,mono,no,18,no,white,no,no,768,legacy,29,79,/Users/freyaportales/Documents/fp-subject-1.csv,legacy,Kafkaesque Koffka,3.2.8,0,s,NA,s,s,NA,s,402,NA,2310,23091,NA,402,2,legacy,1024,2,48000,-16,experiment,HHSHH,1,odd,4927,183907,NA,NA,234704,2608,160813,NA,212702,2548,223884,235818,235951,236355,235786,235951,Flanker task,107,65369,110,yes,1024
97.2972973,97.2972973,593.3333333,593.3333333,black,legacy,legacy,legacy,0,incongruent,uniform,1,undefined,1,s,0,0,0,0,110,0,0,0,110,0,110,110,110,110,110,110,Fri Sep 20 17:34:08 2019,600,The main experiment item,yes,fp-subject-1.osexp,/Users/freyaportales/Documents,no,mono,no,18,no,white,no,no,768,legacy,30,79,/Users/freyaportales/Documents/fp-subject-1.csv,legacy,Kafkaesque Koffka,3.2.8,0,s,NA,s,s,NA,s,491,NA,2310,23091,NA,491,2,legacy,1024,2,48000,-16,experiment,HHSHH,1,odd,4927,183907,NA,NA,236391,2608,160813,NA,212702,2548,223884,237512,237644,238138,237481,237644,Flanker task,108,65860,111,yes,1024
97.32142857,97.32142857,592.1160714,592.1160714,black,legacy,legacy,legacy,0,congruent,uniform,1,undefined,1,h,0,0,0,0,111,0,0,0,111,0,111,111,111,111,111,111,Fri Sep 20 17:34:08 2019,600,The main experiment item,yes,fp-subject-1.osexp,/Users/freyaportales/Documents,no,mono,no,18,no,white,no,no,768,legacy,31,79,/Users/freyaportales/Documents/fp-subject-1.csv,legacy,Kafkaesque Koffka,3.2.8,0,h,NA,s,s,NA,h,457,NA,2310,23091,NA,457,2,legacy,1024,2,48000,-16,experiment,HHHHH,1,odd,4927,183907,NA,NA,238172,2608,160813,NA,212702,2548,223884,239284,239417,239876,239252,239417,Flanker task,109,66317,112,yes,1024
97.34513274,97.34513274,591.699115,591.699115,black,legacy,legacy,legacy,0,congruent,uniform,1,undefined,1,h,0,0,0,0,112,0,0,0,112,0,112,112,112,112,112,112,Fri Sep 20 17:34:08 2019,600,The main experiment item,yes,fp-subject-1.osexp,/Users/freyaportales/Documents,no,mono,no,18,no,white,no,no,768,legacy,32,79,/Users/freyaportales/Documents/fp-subject-1.csv,legacy,Kafkaesque Koffka,3.2.8,0,h,NA,s,s,NA,h,545,NA,2310,23091,NA,545,2,legacy,1024,2,48000,-16,experiment,HHHHH,1,odd,4927,183907,NA,NA,239914,2608,160813,NA,212702,2548,223884,241035,241167,241715,241002,241167,Flanker task,110,66862,113,yes,1024
97.36842105,97.36842105,589.745614,589.745614,black,legacy,legacy,legacy,0,congruent,uniform,1,undefined,1,s,0,0,0,0,113,0,0,0,113,0,113,113,113,113,113,113,Fri Sep 20 17:34:08 2019,600,The main experiment item,yes,fp-subject-1.osexp,/Users/freyaportales/Documents,no,mono,no,18,no,white,no,no,768,legacy,33,79,/Users/freyaportales/Documents/fp-subject-1.csv,legacy,Kafkaesque Koffka,3.2.8,0,s,NA,s,s,NA,s,369,NA,2310,23091,NA,369,2,legacy,1024,2,48000,-16,experiment,SSSSS,1,odd,4927,183907,NA,NA,241750,2608,160813,NA,212702,2548,223884,242862,242996,243368,242830,242996,Flanker task,111,67231,114,yes,1024
97.39130435,97.39130435,588.5913043,588.5913043,black,legacy,legacy,legacy,0,congruent,uniform,1,undefined,1,h,0,0,0,0,114,0,0,0,114,0,114,114,114,114,114,114,Fri Sep 20 17:34:08 2019,600,The main experiment item,yes,fp-subject-1.osexp,/Users/freyaportales/Documents,no,mono,no,18,no,white,no,no,768,legacy,34,79,/Users/freyaportales/Documents/fp-subject-1.csv,legacy,Kafkaesque Koffka,3.2.8,0,h,NA,s,s,NA,h,457,NA,2310,23091,NA,457,2,legacy,1024,2,48000,-16,experiment,HHHHH,1,odd,4927,183907,NA,NA,243402,2608,160813,NA,212702,2548,223884,244515,244648,245109,244483,244648,Flanker task,112,67688,115,yes,1024
97.4137931,97.4137931,588.2068966,588.2068966,black,legacy,legacy,legacy,0,incongruent,uniform,1,undefined,1,h,0,0,0,0,115,0,0,0,115,0,115,115,115,115,115,115,Fri Sep 20 17:34:08 2019,600,The main experiment item,yes,fp-subject-1.osexp,/Users/freyaportales/Documents,no,mono,no,18,no,white,no,no,768,legacy,35,79,/Users/freyaportales/Documents/fp-subject-1.csv,legacy,Kafkaesque Koffka,3.2.8,0,h,NA,s,s,NA,h,544,NA,2310,23091,NA,544,2,legacy,1024,2,48000,-16,experiment,SSHSS,1,odd,4927,183907,NA,NA,245151,2608,160813,NA,212702,2548,223884,246270,246402,246949,246238,246402,Flanker task,113,68232,116,yes,1024
97.43589744,97.43589744,586.3247863,586.3247863,black,legacy,legacy,legacy,0,congruent,uniform,1,undefined,1,s,0,0,0,0,116,0,0,0,116,0,116,116,116,116,116,116,Fri Sep 20 17:34:08 2019,600,The main experiment item,yes,fp-subject-1.osexp,/Users/freyaportales/Documents,no,mono,no,18,no,white,no,no,768,legacy,36,79,/Users/freyaportales/Documents/fp-subject-1.csv,legacy,Kafkaesque Koffka,3.2.8,0,s,NA,s,s,NA,s,368,NA,2310,23091,NA,368,2,legacy,1024,2,48000,-16,experiment,SSSSS,1,odd,4927,183907,NA,NA,246984,2608,160813,NA,212702,2548,223884,248096,248229,248600,248064,248229,Flanker task,114,68600,117,yes,1024
97.45762712,97.45762712,584.6101695,584.6101695,black,legacy,legacy,legacy,0,congruent,uniform,1,undefined,1,s,0,0,0,0,117,0,0,0,117,0,117,117,117,117,117,117,Fri Sep 20 17:34:08 2019,600,The main experiment item,yes,fp-subject-1.osexp,/Users/freyaportales/Documents,no,mono,no,18,no,white,no,no,768,legacy,37,79,/Users/freyaportales/Documents/fp-subject-1.csv,legacy,Kafkaesque Koffka,3.2.8,0,s,NA,s,s,NA,s,384,NA,2310,23091,NA,384,2,legacy,1024,2,48000,-16,experiment,SSSSS,1,odd,4927,183907,NA,NA,248634,2608,160813,NA,212702,2548,223884,249747,249879,250267,249714,249879,Flanker task,115,68984,118,yes,1024
97.4789916,97.4789916,583.7394958,583.7394958,black,legacy,legacy,legacy,0,incongruent,uniform,1,undefined,1,s,0,0,0,0,118,0,0,0,118,0,118,118,118,118,118,118,Fri Sep 20 17:34:08 2019,600,The main experiment item,yes,fp-subject-1.osexp,/Users/freyaportales/Documents,no,mono,no,18,no,white,no,no,768,legacy,38,79,/Users/freyaportales/Documents/fp-subject-1.csv,legacy,Kafkaesque Koffka,3.2.8,0,s,NA,s,s,NA,s,481,NA,2310,23091,NA,481,2,legacy,1024,2,48000,-16,experiment,HHSHH,1,odd,4927,183907,NA,NA,250303,2608,160813,NA,212702,2548,223884,251422,251554,252038,251391,251554,Flanker task,116,69465,119,yes,1024
97.5,97.5,582.6916667,582.6916667,black,legacy,legacy,legacy,0,incongruent,uniform,1,undefined,1,s,0,0,0,0,119,0,0,0,119,0,119,119,119,119,119,119,Fri Sep 20 17:34:08 2019,600,The main experiment item,yes,fp-subject-1.osexp,/Users/freyaportales/Documents,no,mono,no,18,no,white,no,no,768,legacy,39,79,/Users/freyaportales/Documents/fp-subject-1.csv,legacy,Kafkaesque Koffka,3.2.8,0,s,NA,s,s,NA,s,458,NA,2310,23091,NA,458,2,legacy,1024,2,48000,-16,experiment,HHSHH,1,odd,4927,183907,NA,NA,252072,2608,160813,NA,212702,2548,223884,253185,253317,253778,253153,253317,Flanker task,117,69923,120,yes,1024
97.52066116,97.52066116,582.9173554,582.9173554,black,legacy,legacy,legacy,0,incongruent,uniform,1,undefined,1,h,0,0,0,0,120,0,0,0,120,0,120,120,120,120,120,120,Fri Sep 20 17:34:08 2019,600,The main experiment item,yes,fp-subject-1.osexp,/Users/freyaportales/Documents,no,mono,no,18,no,white,no,no,768,legacy,40,79,/Users/freyaportales/Documents/fp-subject-1.csv,legacy,Kafkaesque Koffka,3.2.8,0,h,NA,s,s,NA,h,610,NA,2310,23091,NA,610,2,legacy,1024,2,48000,-16,experiment,SSHSS,1,odd,4927,183907,NA,NA,253822,2608,160813,NA,212702,2548,223884,254938,255071,255684,254906,255070,Flanker task,118,70533,121,yes,1024
97.54098361,97.54098361,581.4672131,581.4672131,black,legacy,legacy,legacy,0,congruent,uniform,1,undefined,1,s,0,0,0,0,121,0,0,0,121,0,121,121,121,121,121,121,Fri Sep 20 17:34:08 2019,600,The main experiment item,yes,fp-subject-1.osexp,/Users/freyaportales/Documents,no,mono,no,18,no,white,no,no,768,legacy,41,79,/Users/freyaportales/Documents/fp-subject-1.csv,legacy,Kafkaesque Koffka,3.2.8,0,s,NA,s,s,NA,s,406,NA,2310,23091,NA,406,2,legacy,1024,2,48000,-16,experiment,SSSSS,1,odd,4927,183907,NA,NA,256250,2608,160813,NA,212702,2548,255718,257363,257496,257907,257331,257495,Flanker task,119,70939,122,yes,1024
97.56097561,97.56097561,579.9105691,579.9105691,black,legacy,legacy,legacy,0,congruent,uniform,1,undefined,1,s,0,0,0,0,122,0,0,0,122,0,122,122,122,122,122,122,Fri Sep 20 17:34:08 2019,600,The main experiment item,yes,fp-subject-1.osexp,/Users/freyaportales/Documents,no,mono,no,18,no,white,no,no,768,legacy,42,79,/Users/freyaportales/Documents/fp-subject-1.csv,legacy,Kafkaesque Koffka,3.2.8,0,s,NA,s,s,NA,s,390,NA,2310,23091,NA,390,2,legacy,1024,2,48000,-16,experiment,SSSSS,1,odd,4927,183907,NA,NA,257958,2608,160813,NA,212702,2548,255718,259077,259210,259603,259044,259210,Flanker task,120,71329,123,yes,1024
97.58064516,97.58064516,579.0483871,579.0483871,black,legacy,legacy,legacy,0,incongruent,uniform,1,undefined,1,s,0,0,0,0,123,0,0,0,123,0,123,123,123,123,123,123,Fri Sep 20 17:34:08 2019,600,The main experiment item,yes,fp-subject-1.osexp,/Users/freyaportales/Documents,no,mono,no,18,no,white,no,no,768,legacy,43,79,/Users/freyaportales/Documents/fp-subject-1.csv,legacy,Kafkaesque Koffka,3.2.8,0,s,NA,s,s,NA,s,473,NA,2310,23091,NA,473,2,legacy,1024,2,48000,-16,experiment,HHSHH,1,odd,4927,183907,NA,NA,259638,2608,160813,NA,212702,2548,255718,260750,260883,261361,260718,260883,Flanker task,121,71802,124,yes,1024
96.8,96.8,577.76,577.76,black,legacy,legacy,legacy,0,incongruent,uniform,0,undefined,0,h,0,0,0,0,124,0,0,0,124,0,124,124,124,124,124,124,Fri Sep 20 17:34:08 2019,600,The main experiment item,yes,fp-subject-1.osexp,/Users/freyaportales/Documents,no,mono,no,18,no,white,no,no,768,legacy,44,79,/Users/freyaportales/Documents/fp-subject-1.csv,legacy,Kafkaesque Koffka,3.2.8,0,s,NA,s,s,NA,s,418,NA,2310,23091,NA,418,2,legacy,1024,2,48000,-16,experiment,SSHSS,1,odd,4927,183907,NA,NA,261397,2608,160813,NA,212702,2548,255718,262519,262651,263072,262487,262651,Flanker task,121,72220,125,yes,1024
96.82539683,96.82539683,576.6587302,576.6587302,black,legacy,legacy,legacy,0,incongruent,uniform,1,undefined,1,h,0,0,0,0,125,0,0,0,125,0,125,125,125,125,125,125,Fri Sep 20 17:34:08 2019,600,The main experiment item,yes,fp-subject-1.osexp,/Users/freyaportales/Documents,no,mono,no,18,no,white,no,no,768,legacy,45,79,/Users/freyaportales/Documents/fp-subject-1.csv,legacy,Kafkaesque Koffka,3.2.8,0,h,NA,s,s,NA,h,439,NA,2310,23091,NA,439,2,legacy,1024,2,48000,-16,experiment,SSHSS,1,odd,4927,183907,NA,NA,263638,2608,160813,NA,263106,2548,255718,264752,264884,265326,264719,264884,Flanker task,122,72659,126,yes,1024
96.8503937,96.8503937,576.5354331,576.5354331,black,legacy,legacy,legacy,0,incongruent,uniform,1,undefined,1,s,0,0,0,0,126,0,0,0,126,0,126,126,126,126,126,126,Fri Sep 20 17:34:08 2019,600,The main experiment item,yes,fp-subject-1.osexp,/Users/freyaportales/Documents,no,mono,no,18,no,white,no,no,768,legacy,46,79,/Users/freyaportales/Documents/fp-subject-1.csv,legacy,Kafkaesque Koffka,3.2.8,0,s,NA,s,s,NA,s,561,NA,2310,23091,NA,561,2,legacy,1024,2,48000,-16,experiment,HHSHH,1,odd,4927,183907,NA,NA,265360,2608,160813,NA,263106,2548,255718,266474,266606,267170,266442,266606,Flanker task,123,73220,127,yes,1024
96.875,96.875,575.6484375,575.6484375,black,legacy,legacy,legacy,0,congruent,uniform,1,undefined,1,s,0,0,0,0,127,0,0,0,127,0,127,127,127,127,127,127,Fri Sep 20 17:34:08 2019,600,The main experiment item,yes,fp-subject-1.osexp,/Users/freyaportales/Documents,no,mono,no,18,no,white,no,no,768,legacy,47,79,/Users/freyaportales/Documents/fp-subject-1.csv,legacy,Kafkaesque Koffka,3.2.8,0,s,NA,s,s,NA,s,463,NA,2310,23091,NA,463,2,legacy,1024,2,48000,-16,experiment,SSSSS,1,odd,4927,183907,NA,NA,267204,2608,160813,NA,263106,2548,255718,268316,268449,268915,268284,268449,Flanker task,124,73683,128,yes,1024
96.89922481,96.89922481,575.2015504,575.2015504,black,legacy,legacy,legacy,0,incongruent,uniform,1,undefined,1,s,0,0,0,0,128,0,0,0,128,0,128,128,128,128,128,128,Fri Sep 20 17:34:08 2019,600,The main experiment item,yes,fp-subject-1.osexp,/Users/freyaportales/Documents,no,mono,no,18,no,white,no,no,768,legacy,48,79,/Users/freyaportales/Documents/fp-subject-1.csv,legacy,Kafkaesque Koffka,3.2.8,0,s,NA,s,s,NA,s,518,NA,2310,23091,NA,518,2,legacy,1024,2,48000,-16,experiment,HHSHH,1,odd,4927,183907,NA,NA,268963,2608,160813,NA,263106,2548,255718,270075,270207,270728,270043,270207,Flanker task,125,74201,129,yes,1024
96.92307692,96.92307692,574.1461538,574.1461538,black,legacy,legacy,legacy,0,congruent,uniform,1,undefined,1,s,0,0,0,0,129,0,0,0,129,0,129,129,129,129,129,129,Fri Sep 20 17:34:08 2019,600,The main experiment item,yes,fp-subject-1.osexp,/Users/freyaportales/Documents,no,mono,no,18,no,white,no,no,768,legacy,49,79,/Users/freyaportales/Documents/fp-subject-1.csv,legacy,Kafkaesque Koffka,3.2.8,0,s,NA,s,s,NA,s,438,NA,2310,23091,NA,438,2,legacy,1024,2,48000,-16,experiment,SSSSS,1,odd,4927,183907,NA,NA,270762,2608,160813,NA,263106,2548,255718,271874,272006,272447,271842,272006,Flanker task,126,74639,130,yes,1024
96.94656489,96.94656489,573.1374046,573.1374046,black,legacy,legacy,legacy,0,congruent,uniform,1,undefined,1,s,0,0,0,0,130,0,0,0,130,0,130,130,130,130,130,130,Fri Sep 20 17:34:08 2019,600,The main experiment item,yes,fp-subject-1.osexp,/Users/freyaportales/Documents,no,mono,no,18,no,white,no,no,768,legacy,50,79,/Users/freyaportales/Documents/fp-subject-1.csv,legacy,Kafkaesque Koffka,3.2.8,0,s,NA,s,s,NA,s,442,NA,2310,23091,NA,442,2,legacy,1024,2,48000,-16,experiment,SSSSS,1,odd,4927,183907,NA,NA,272481,2608,160813,NA,263106,2548,255718,273593,273725,274170,273561,273725,Flanker task,127,75081,131,yes,1024
96.96969697,96.96969697,572.2045455,572.2045455,black,legacy,legacy,legacy,0,congruent,uniform,1,undefined,1,h,0,0,0,0,131,0,0,0,131,0,131,131,131,131,131,131,Fri Sep 20 17:34:08 2019,600,The main experiment item,yes,fp-subject-1.osexp,/Users/freyaportales/Documents,no,mono,no,18,no,white,no,no,768,legacy,51,79,/Users/freyaportales/Documents/fp-subject-1.csv,legacy,Kafkaesque Koffka,3.2.8,0,h,NA,s,s,NA,h,450,NA,2310,23091,NA,450,2,legacy,1024,2,48000,-16,experiment,HHHHH,1,odd,4927,183907,NA,NA,274208,2608,160813,NA,263106,2548,255718,275330,275462,275915,275298,275462,Flanker task,128,75531,132,yes,1024
96.9924812,96.9924812,571.4360902,571.4360902,black,legacy,legacy,legacy,0,congruent,uniform,1,undefined,1,s,0,0,0,0,132,0,0,0,132,0,132,132,132,132,132,132,Fri Sep 20 17:34:08 2019,600,The main experiment item,yes,fp-subject-1.osexp,/Users/freyaportales/Documents,no,mono,no,18,no,white,no,no,768,legacy,52,79,/Users/freyaportales/Documents/fp-subject-1.csv,legacy,Kafkaesque Koffka,3.2.8,0,s,NA,s,s,NA,s,470,NA,2310,23091,NA,470,2,legacy,1024,2,48000,-16,experiment,SSSSS,1,odd,4927,183907,NA,NA,275950,2608,160813,NA,263106,2548,255718,277061,277194,277667,277029,277194,Flanker task,129,76001,133,yes,1024
97.01492537,97.01492537,570.5746269,570.5746269,black,legacy,legacy,legacy,0,congruent,uniform,1,undefined,1,h,0,0,0,0,133,0,0,0,133,0,133,133,133,133,133,133,Fri Sep 20 17:34:08 2019,600,The main experiment item,yes,fp-subject-1.osexp,/Users/freyaportales/Documents,no,mono,no,18,no,white,no,no,768,legacy,53,79,/Users/freyaportales/Documents/fp-subject-1.csv,legacy,Kafkaesque Koffka,3.2.8,0,h,NA,s,s,NA,h,456,NA,2310,23091,NA,456,2,legacy,1024,2,48000,-16,experiment,HHHHH,1,odd,4927,183907,NA,NA,277711,2608,160813,NA,263106,2548,255718,278830,278963,279422,278799,278963,Flanker task,130,76457,134,yes,1024
97.03703704,97.03703704,569.4592593,569.4592593,black,legacy,legacy,legacy,0,congruent,uniform,1,undefined,1,h,0,0,0,0,134,0,0,0,134,0,134,134,134,134,134,134,Fri Sep 20 17:34:08 2019,600,The main experiment item,yes,fp-subject-1.osexp,/Users/freyaportales/Documents,no,mono,no,18,no,white,no,no,768,legacy,54,79,/Users/freyaportales/Documents/fp-subject-1.csv,legacy,Kafkaesque Koffka,3.2.8,0,h,NA,s,s,NA,h,420,NA,2310,23091,NA,420,2,legacy,1024,2,48000,-16,experiment,HHHHH,1,odd,4927,183907,NA,NA,279456,2608,160813,NA,263106,2548,255718,280569,280701,281127,280537,280701,Flanker task,131,76877,135,yes,1024
97.05882353,97.05882353,568.8455882,568.8455882,black,legacy,legacy,legacy,0,incongruent,uniform,1,undefined,1,s,0,0,0,0,135,0,0,0,135,0,135,135,135,135,135,135,Fri Sep 20 17:34:08 2019,600,The main experiment item,yes,fp-subject-1.osexp,/Users/freyaportales/Documents,no,mono,no,18,no,white,no,no,768,legacy,55,79,/Users/freyaportales/Documents/fp-subject-1.csv,legacy,Kafkaesque Koffka,3.2.8,0,s,NA,s,s,NA,s,486,NA,2310,23091,NA,486,2,legacy,1024,2,48000,-16,experiment,HHSHH,1,odd,4927,183907,NA,NA,281163,2608,160813,NA,263106,2548,255718,282290,282422,282911,282257,282422,Flanker task,132,77363,136,yes,1024
97.08029197,97.08029197,568.0218978,568.0218978,black,legacy,legacy,legacy,0,incongruent,uniform,1,undefined,1,s,0,0,0,0,136,0,0,0,136,0,136,136,136,136,136,136,Fri Sep 20 17:34:08 2019,600,The main experiment item,yes,fp-subject-1.osexp,/Users/freyaportales/Documents,no,mono,no,18,no,white,no,no,768,legacy,56,79,/Users/freyaportales/Documents/fp-subject-1.csv,legacy,Kafkaesque Koffka,3.2.8,0,s,NA,s,s,NA,s,456,NA,2310,23091,NA,456,2,legacy,1024,2,48000,-16,experiment,HHSHH,1,odd,4927,183907,NA,NA,282944,2608,160813,NA,263106,2548,255718,284059,284192,284651,284026,284191,Flanker task,133,77819,137,yes,1024
97.10144928,97.10144928,566.7173913,566.7173913,black,legacy,legacy,legacy,0,congruent,uniform,1,undefined,1,h,0,0,0,0,137,0,0,0,137,0,137,137,137,137,137,137,Fri Sep 20 17:34:08 2019,600,The main experiment item,yes,fp-subject-1.osexp,/Users/freyaportales/Documents,no,mono,no,18,no,white,no,no,768,legacy,57,79,/Users/freyaportales/Documents/fp-subject-1.csv,legacy,Kafkaesque Koffka,3.2.8,0,h,NA,s,s,NA,h,388,NA,2310,23091,NA,388,2,legacy,1024,2,48000,-16,experiment,HHHHH,1,odd,4927,183907,NA,NA,284689,2608,160813,NA,263106,2548,255718,285807,285940,286331,285774,285939,Flanker task,134,78207,138,yes,1024
97.12230216,97.12230216,566.8273381,566.8273381,black,legacy,legacy,legacy,0,incongruent,uniform,1,undefined,1,s,0,0,0,0,138,0,0,0,138,0,138,138,138,138,138,138,Fri Sep 20 17:34:08 2019,600,The main experiment item,yes,fp-subject-1.osexp,/Users/freyaportales/Documents,no,mono,no,18,no,white,no,no,768,legacy,58,79,/Users/freyaportales/Documents/fp-subject-1.csv,legacy,Kafkaesque Koffka,3.2.8,0,s,NA,s,s,NA,s,582,NA,2310,23091,NA,582,2,legacy,1024,2,48000,-16,experiment,HHSHH,1,odd,4927,183907,NA,NA,286365,2608,160813,NA,263106,2548,255718,287478,287610,288206,287446,287610,Flanker task,135,78789,139,yes,1024
97.14285714,97.14285714,566.9285714,566.9285714,black,legacy,legacy,legacy,0,incongruent,uniform,1,undefined,1,h,0,0,0,0,139,0,0,0,139,0,139,139,139,139,139,139,Fri Sep 20 17:34:08 2019,600,The main experiment item,yes,fp-subject-1.osexp,/Users/freyaportales/Documents,no,mono,no,18,no,white,no,no,768,legacy,59,79,/Users/freyaportales/Documents/fp-subject-1.csv,legacy,Kafkaesque Koffka,3.2.8,0,h,NA,s,s,NA,h,581,NA,2310,23091,NA,581,2,legacy,1024,2,48000,-16,experiment,SSHSS,1,odd,4927,183907,NA,NA,288244,2608,160813,NA,263106,2548,255718,289356,289489,290075,289324,289489,Flanker task,136,79370,140,yes,1024
97.16312057,97.16312057,566.3971631,566.3971631,black,legacy,legacy,legacy,0,incongruent,uniform,1,undefined,1,h,0,0,0,0,140,0,0,0,140,0,140,140,140,140,140,140,Fri Sep 20 17:34:08 2019,600,The main experiment item,yes,fp-subject-1.osexp,/Users/freyaportales/Documents,no,mono,no,18,no,white,no,no,768,legacy,60,79,/Users/freyaportales/Documents/fp-subject-1.csv,legacy,Kafkaesque Koffka,3.2.8,0,h,NA,s,s,NA,h,492,NA,2310,23091,NA,492,2,legacy,1024,2,48000,-16,experiment,SSHSS,1,odd,4927,183907,NA,NA,290115,2608,160813,NA,263106,2548,255718,291228,291361,291856,291196,291361,Flanker task,137,79862,141,yes,1024
97.18309859,97.18309859,565.1690141,565.1690141,black,legacy,legacy,legacy,0,congruent,uniform,1,undefined,1,s,0,0,0,0,141,0,0,0,141,0,141,141,141,141,141,141,Fri Sep 20 17:34:08 2019,600,The main experiment item,yes,fp-subject-1.osexp,/Users/freyaportales/Documents,no,mono,no,18,no,white,no,no,768,legacy,61,79,/Users/freyaportales/Documents/fp-subject-1.csv,legacy,Kafkaesque Koffka,3.2.8,0,s,NA,s,s,NA,s,392,NA,2310,23091,NA,392,2,legacy,1024,2,48000,-16,experiment,SSSSS,1,odd,4927,183907,NA,NA,291891,2608,160813,NA,263106,2548,255718,293002,293135,293530,292972,293135,Flanker task,138,80254,142,yes,1024
97.2027972,97.2027972,564.7832168,564.7832168,black,legacy,legacy,legacy,0,incongruent,uniform,1,undefined,1,s,0,0,0,0,142,0,0,0,142,0,142,142,142,142,142,142,Fri Sep 20 17:34:08 2019,600,The main experiment item,yes,fp-subject-1.osexp,/Users/freyaportales/Documents,no,mono,no,18,no,white,no,no,768,legacy,62,79,/Users/freyaportales/Documents/fp-subject-1.csv,legacy,Kafkaesque Koffka,3.2.8,0,s,NA,s,s,NA,s,510,NA,2310,23091,NA,510,2,legacy,1024,2,48000,-16,experiment,HHSHH,1,odd,4927,183907,NA,NA,293566,2608,160813,NA,263106,2548,255718,294686,294818,295331,294654,294818,Flanker task,139,80764,143,yes,1024
96.52777778,96.52777778,563.9166667,563.9166667,black,legacy,legacy,legacy,0,incongruent,uniform,0,undefined,0,h,0,0,0,0,143,0,0,0,143,0,143,143,143,143,143,143,Fri Sep 20 17:34:08 2019,600,The main experiment item,yes,fp-subject-1.osexp,/Users/freyaportales/Documents,no,mono,no,18,no,white,no,no,768,legacy,63,79,/Users/freyaportales/Documents/fp-subject-1.csv,legacy,Kafkaesque Koffka,3.2.8,0,s,NA,s,s,NA,s,440,NA,2310,23091,NA,440,2,legacy,1024,2,48000,-16,experiment,SSHSS,1,odd,4927,183907,NA,NA,295365,2608,160813,NA,263106,2548,255718,296477,296609,297053,296445,296609,Flanker task,139,81204,144,yes,1024
96.55172414,96.55172414,562.8965517,562.8965517,black,legacy,legacy,legacy,0,congruent,uniform,1,undefined,1,h,0,0,0,0,144,0,0,0,144,0,144,144,144,144,144,144,Fri Sep 20 17:34:08 2019,600,The main experiment item,yes,fp-subject-1.osexp,/Users/freyaportales/Documents,no,mono,no,18,no,white,no,no,768,legacy,64,79,/Users/freyaportales/Documents/fp-subject-1.csv,legacy,Kafkaesque Koffka,3.2.8,0,h,NA,s,s,NA,h,416,NA,2310,23091,NA,416,2,legacy,1024,2,48000,-16,experiment,HHHHH,1,odd,4927,183907,NA,NA,297626,2608,160813,NA,297095,2548,255718,298740,298873,299292,298708,298872,Flanker task,140,81620,145,yes,1024
95.89041096,95.89041096,562.7054795,562.7054795,black,legacy,legacy,legacy,0,incongruent,uniform,0,undefined,0,h,0,0,0,0,145,0,0,0,145,0,145,145,145,145,145,145,Fri Sep 20 17:34:08 2019,600,The main experiment item,yes,fp-subject-1.osexp,/Users/freyaportales/Documents,no,mono,no,18,no,white,no,no,768,legacy,65,79,/Users/freyaportales/Documents/fp-subject-1.csv,legacy,Kafkaesque Koffka,3.2.8,0,s,NA,s,s,NA,s,535,NA,2310,23091,NA,535,2,legacy,1024,2,48000,-16,experiment,SSHSS,1,odd,4927,183907,NA,NA,299334,2608,160813,NA,297095,2548,255718,300455,300587,301125,300422,300587,Flanker task,140,82155,146,yes,1024
95.91836735,95.91836735,561.8027211,561.8027211,black,legacy,legacy,legacy,0,congruent,uniform,1,undefined,1,h,0,0,0,0,146,0,0,0,146,0,146,146,146,146,146,146,Fri Sep 20 17:34:08 2019,600,The main experiment item,yes,fp-subject-1.osexp,/Users/freyaportales/Documents,no,mono,no,18,no,white,no,no,768,legacy,66,79,/Users/freyaportales/Documents/fp-subject-1.csv,legacy,Kafkaesque Koffka,3.2.8,0,h,NA,s,s,NA,h,430,NA,2310,23091,NA,430,2,legacy,1024,2,48000,-16,experiment,HHHHH,1,odd,4927,183907,NA,NA,301692,2608,160813,NA,301159,2548,255718,302805,302937,303370,302773,302937,Flanker task,141,82585,147,yes,1024
95.94594595,95.94594595,561.0675676,561.0675676,black,legacy,legacy,legacy,0,congruent,uniform,1,undefined,1,h,0,0,0,0,147,0,0,0,147,0,147,147,147,147,147,147,Fri Sep 20 17:34:08 2019,600,The main experiment item,yes,fp-subject-1.osexp,/Users/freyaportales/Documents,no,mono,no,18,no,white,no,no,768,legacy,67,79,/Users/freyaportales/Documents/fp-subject-1.csv,legacy,Kafkaesque Koffka,3.2.8,0,h,NA,s,s,NA,h,453,NA,2310,23091,NA,453,2,legacy,1024,2,48000,-16,experiment,HHHHH,1,odd,4927,183907,NA,NA,303404,2608,160813,NA,301159,2548,255718,304523,304656,305112,304490,304655,Flanker task,142,83038,148,yes,1024
95.97315436,95.97315436,560.7651007,560.7651007,black,legacy,legacy,legacy,0,incongruent,uniform,1,undefined,1,h,0,0,0,0,148,0,0,0,148,0,148,148,148,148,148,148,Fri Sep 20 17:34:08 2019,600,The main experiment item,yes,fp-subject-1.osexp,/Users/freyaportales/Documents,no,mono,no,18,no,white,no,no,768,legacy,68,79,/Users/freyaportales/Documents/fp-subject-1.csv,legacy,Kafkaesque Koffka,3.2.8,0,h,NA,s,s,NA,h,516,NA,2310,23091,NA,516,2,legacy,1024,2,48000,-16,experiment,SSHSS,1,odd,4927,183907,NA,NA,305149,2608,160813,NA,301159,2548,255718,306264,306396,306915,306231,306396,Flanker task,143,83554,149,yes,1024
96,96,559.7,559.7,black,legacy,legacy,legacy,0,incongruent,uniform,1,undefined,1,s,0,0,0,0,149,0,0,0,149,0,149,149,149,149,149,149,Fri Sep 20 17:34:08 2019,600,The main experiment item,yes,fp-subject-1.osexp,/Users/freyaportales/Documents,no,mono,no,18,no,white,no,no,768,legacy,69,79,/Users/freyaportales/Documents/fp-subject-1.csv,legacy,Kafkaesque Koffka,3.2.8,0,s,NA,s,s,NA,s,401,NA,2310,23091,NA,401,2,legacy,1024,2,48000,-16,experiment,HHSHH,1,odd,4927,183907,NA,NA,306955,2608,160813,NA,301159,2548,255718,308073,308205,308609,308041,308205,Flanker task,144,83955,150,yes,1024
96.02649007,96.02649007,558.8741722,558.8741722,black,legacy,legacy,legacy,0,congruent,uniform,1,undefined,1,h,0,0,0,0,150,0,0,0,150,0,150,150,150,150,150,150,Fri Sep 20 17:34:08 2019,600,The main experiment item,yes,fp-subject-1.osexp,/Users/freyaportales/Documents,no,mono,no,18,no,white,no,no,768,legacy,70,79,/Users/freyaportales/Documents/fp-subject-1.csv,legacy,Kafkaesque Koffka,3.2.8,0,h,NA,s,s,NA,h,435,NA,2310,23091,NA,435,2,legacy,1024,2,48000,-16,experiment,HHHHH,1,odd,4927,183907,NA,NA,308643,2608,160813,NA,301159,2548,255718,309755,309889,310327,309724,309889,Flanker task,145,84390,151,yes,1024
96.05263158,96.05263158,558.0592105,558.0592105,black,legacy,legacy,legacy,0,congruent,uniform,1,undefined,1,s,0,0,0,0,151,0,0,0,151,0,151,151,151,151,151,151,Fri Sep 20 17:34:08 2019,600,The main experiment item,yes,fp-subject-1.osexp,/Users/freyaportales/Documents,no,mono,no,18,no,white,no,no,768,legacy,71,79,/Users/freyaportales/Documents/fp-subject-1.csv,legacy,Kafkaesque Koffka,3.2.8,0,s,NA,s,s,NA,s,435,NA,2310,23091,NA,435,2,legacy,1024,2,48000,-16,experiment,SSSSS,1,odd,4927,183907,NA,NA,310366,2608,160813,NA,301159,2548,255718,311483,311615,312053,311451,311615,Flanker task,146,84825,152,yes,1024
96.07843137,96.07843137,557.6601307,557.6601307,black,legacy,legacy,legacy,0,incongruent,uniform,1,undefined,1,h,0,0,0,0,152,0,0,0,152,0,152,152,152,152,152,152,Fri Sep 20 17:34:08 2019,600,The main experiment item,yes,fp-subject-1.osexp,/Users/freyaportales/Documents,no,mono,no,18,no,white,no,no,768,legacy,72,79,/Users/freyaportales/Documents/fp-subject-1.csv,legacy,Kafkaesque Koffka,3.2.8,0,h,NA,s,s,NA,h,497,NA,2310,23091,NA,497,2,legacy,1024,2,48000,-16,experiment,SSHSS,1,odd,4927,183907,NA,NA,312087,2608,160813,NA,301159,2548,255718,313201,313334,313834,313169,313334,Flanker task,147,85322,153,yes,1024
96.1038961,96.1038961,556.9480519,556.9480519,black,legacy,legacy,legacy,0,congruent,uniform,1,undefined,1,h,0,0,0,0,153,0,0,0,153,0,153,153,153,153,153,153,Fri Sep 20 17:34:08 2019,600,The main experiment item,yes,fp-subject-1.osexp,/Users/freyaportales/Documents,no,mono,no,18,no,white,no,no,768,legacy,73,79,/Users/freyaportales/Documents/fp-subject-1.csv,legacy,Kafkaesque Koffka,3.2.8,0,h,NA,s,s,NA,h,448,NA,2310,23091,NA,448,2,legacy,1024,2,48000,-16,experiment,HHHHH,1,odd,4927,183907,NA,NA,313870,2608,160813,NA,301159,2548,255718,314993,315125,315576,314961,315125,Flanker task,148,85770,154,yes,1024
96.12903226,96.12903226,556.1741935,556.1741935,black,legacy,legacy,legacy,0,incongruent,uniform,1,undefined,1,h,0,0,0,0,154,0,0,0,154,0,154,154,154,154,154,154,Fri Sep 20 17:34:08 2019,600,The main experiment item,yes,fp-subject-1.osexp,/Users/freyaportales/Documents,no,mono,no,18,no,white,no,no,768,legacy,74,79,/Users/freyaportales/Documents/fp-subject-1.csv,legacy,Kafkaesque Koffka,3.2.8,0,h,NA,s,s,NA,h,437,NA,2310,23091,NA,437,2,legacy,1024,2,48000,-16,experiment,SSHSS,1,odd,4927,183907,NA,NA,315610,2608,160813,NA,301159,2548,255718,316723,316856,317296,316691,316856,Flanker task,149,86207,155,yes,1024
96.15384615,96.15384615,555.025641,555.025641,black,legacy,legacy,legacy,0,congruent,uniform,1,undefined,1,s,0,0,0,0,155,0,0,0,155,0,155,155,155,155,155,155,Fri Sep 20 17:34:08 2019,600,The main experiment item,yes,fp-subject-1.osexp,/Users/freyaportales/Documents,no,mono,no,18,no,white,no,no,768,legacy,75,79,/Users/freyaportales/Documents/fp-subject-1.csv,legacy,Kafkaesque Koffka,3.2.8,0,s,NA,s,s,NA,s,377,NA,2310,23091,NA,377,2,legacy,1024,2,48000,-16,experiment,SSSSS,1,odd,4927,183907,NA,NA,317334,2608,160813,NA,301159,2548,255718,318451,318585,318965,318419,318584,Flanker task,150,86584,156,yes,1024
96.17834395,96.17834395,554.7070064,554.7070064,black,legacy,legacy,legacy,0,incongruent,uniform,1,undefined,1,h,0,0,0,0,156,0,0,0,156,0,156,156,156,156,156,156,Fri Sep 20 17:34:08 2019,600,The main experiment item,yes,fp-subject-1.osexp,/Users/freyaportales/Documents,no,mono,no,18,no,white,no,no,768,legacy,76,79,/Users/freyaportales/Documents/fp-subject-1.csv,legacy,Kafkaesque Koffka,3.2.8,0,h,NA,s,s,NA,h,505,NA,2310,23091,NA,505,2,legacy,1024,2,48000,-16,experiment,SSHSS,1,odd,4927,183907,NA,NA,318999,2608,160813,NA,301159,2548,255718,320111,320244,320752,320079,320244,Flanker task,151,87089,157,yes,1024
96.20253165,96.20253165,554.3734177,554.3734177,black,legacy,legacy,legacy,0,congruent,uniform,1,undefined,1,s,0,0,0,0,157,0,0,0,157,0,157,157,157,157,157,157,Fri Sep 20 17:34:08 2019,600,The main experiment item,yes,fp-subject-1.osexp,/Users/freyaportales/Documents,no,mono,no,18,no,white,no,no,768,legacy,77,79,/Users/freyaportales/Documents/fp-subject-1.csv,legacy,Kafkaesque Koffka,3.2.8,0,s,NA,s,s,NA,s,502,NA,2310,23091,NA,502,2,legacy,1024,2,48000,-16,experiment,SSSSS,1,odd,4927,183907,NA,NA,320788,2608,160813,NA,301159,2548,255718,321915,322064,322569,321873,322063,Flanker task,152,87591,158,yes,1024
95.59748428,95.59748428,553.7798742,553.7798742,black,legacy,legacy,legacy,0,incongruent,uniform,0,undefined,0,h,0,0,0,0,158,0,0,0,158,0,158,158,158,158,158,158,Fri Sep 20 17:34:08 2019,600,The main experiment item,yes,fp-subject-1.osexp,/Users/freyaportales/Documents,no,mono,no,18,no,white,no,no,768,legacy,78,79,/Users/freyaportales/Documents/fp-subject-1.csv,legacy,Kafkaesque Koffka,3.2.8,0,s,NA,s,s,NA,s,460,NA,2310,23091,NA,460,2,legacy,1024,2,48000,-16,experiment,SSHSS,1,odd,4927,183907,NA,NA,322603,2608,160813,NA,301159,2548,255718,323716,323848,324311,323683,323848,Flanker task,152,88051,159,yes,1024
95.625,95.625,554.24375,554.24375,black,legacy,legacy,legacy,0,incongruent,uniform,1,undefined,1,s,0,0,0,0,159,0,0,0,159,0,159,159,159,159,159,159,Fri Sep 20 17:34:08 2019,600,The main experiment item,yes,fp-subject-1.osexp,/Users/freyaportales/Documents,no,mono,no,18,no,white,no,no,768,legacy,79,79,/Users/freyaportales/Documents/fp-subject-1.csv,legacy,Kafkaesque Koffka,3.2.8,0,s,NA,s,s,NA,s,628,NA,2310,23091,NA,628,2,legacy,1024,2,48000,-16,experiment,HHSHH,1,odd,4927,183907,NA,NA,324878,2608,160813,NA,324346,2548,255718,325992,326124,326755,325960,326124,Flanker task,153,88679,160,yes,1024
95.65217391,95.65217391,553.9751553,553.9751553,black,legacy,legacy,legacy,0,congruent,uniform,1,undefined,1,s,0,0,0,0,160,0,0,0,160,0,160,160,160,160,160,160,Fri Sep 20 17:34:08 2019,300,The main experiment item,yes,fp-subject-1.osexp,/Users/freyaportales/Documents,no,mono,no,18,no,white,no,no,768,legacy,0,79,/Users/freyaportales/Documents/fp-subject-1.csv,legacy,Kafkaesque Koffka,3.2.8,0,s,NA,s,s,s,s,511,NA,2310,23091,32153,511,2,legacy,1024,2,48000,-16,experiment,SSSSS,1,odd,4927,183907,360533,NA,327323,2608,160813,328376,324346,2548,326791,360653,360786,361300,360621,360786,Flanker task,154,89190,161,yes,1024
95.67901235,95.67901235,553.3703704,553.3703704,black,legacy,legacy,legacy,0,incongruent,uniform,1,undefined,1,h,0,0,0,0,161,0,0,0,161,0,161,161,161,161,161,161,Fri Sep 20 17:34:08 2019,300,The main experiment item,yes,fp-subject-1.osexp,/Users/freyaportales/Documents,no,mono,no,18,no,white,no,no,768,legacy,1,79,/Users/freyaportales/Documents/fp-subject-1.csv,legacy,Kafkaesque Koffka,3.2.8,0,h,NA,s,s,s,h,456,NA,2310,23091,32153,456,2,legacy,1024,2,48000,-16,experiment,SSHSS,1,odd,4927,183907,360533,NA,361866,2608,160813,328376,324346,2548,361334,362980,363112,363571,362948,363112,Flanker task,155,89646,162,yes,1024
95.70552147,95.70552147,552.3803681,552.3803681,black,legacy,legacy,legacy,0,congruent,uniform,1,undefined,1,h,0,0,0,0,162,0,0,0,162,0,162,162,162,162,162,162,Fri Sep 20 17:34:08 2019,300,The main experiment item,yes,fp-subject-1.osexp,/Users/freyaportales/Documents,no,mono,no,18,no,white,no,no,768,legacy,2,79,/Users/freyaportales/Documents/fp-subject-1.csv,legacy,Kafkaesque Koffka,3.2.8,0,h,NA,s,s,s,h,392,NA,2310,23091,32153,392,2,legacy,1024,2,48000,-16,experiment,HHHHH,1,odd,4927,183907,360533,NA,364141,2608,160813,328376,324346,2548,363607,365253,365386,365782,365222,365386,Flanker task,156,90038,163,yes,1024
95.12195122,95.12195122,549.597561,549.597561,black,legacy,legacy,legacy,0,incongruent,uniform,0,undefined,0,h,0,0,0,0,163,0,0,0,163,0,163,163,163,163,163,163,Fri Sep 20 17:34:08 2019,300,The main experiment item,yes,fp-subject-1.osexp,/Users/freyaportales/Documents,no,mono,no,18,no,white,no,no,768,legacy,3,79,/Users/freyaportales/Documents/fp-subject-1.csv,legacy,Kafkaesque Koffka,3.2.8,0,s,NA,s,s,s,s,96,NA,2310,23091,32153,96,2,legacy,1024,2,48000,-16,experiment,SSHSS,1,odd,4927,183907,360533,NA,366353,2608,160813,328376,324346,2548,365821,367466,367598,367697,367434,367598,Flanker task,156,90134,164,yes,1024
95.15151515,95.15151515,548.6545455,548.6545455,black,legacy,legacy,legacy,0,incongruent,uniform,1,undefined,1,s,0,0,0,0,164,0,0,0,164,0,164,164,164,164,164,164,Fri Sep 20 17:34:08 2019,300,The main experiment item,yes,fp-subject-1.osexp,/Users/freyaportales/Documents,no,mono,no,18,no,white,no,no,768,legacy,4,79,/Users/freyaportales/Documents/fp-subject-1.csv,legacy,Kafkaesque Koffka,3.2.8,0,s,NA,s,s,s,s,394,NA,2310,23091,32153,394,2,legacy,1024,2,48000,-16,experiment,HHSHH,1,odd,4927,183907,360533,NA,368264,2608,160813,328376,367731,2548,365821,369379,369511,369908,369346,369511,Flanker task,157,90528,165,yes,1024
95.18072289,95.18072289,546.7831325,546.7831325,black,legacy,legacy,legacy,0,congruent,uniform,1,undefined,1,h,0,0,0,0,165,0,0,0,165,0,165,165,165,165,165,165,Fri Sep 20 17:34:08 2019,300,The main experiment item,yes,fp-subject-1.osexp,/Users/freyaportales/Documents,no,mono,no,18,no,white,no,no,768,legacy,5,79,/Users/freyaportales/Documents/fp-subject-1.csv,legacy,Kafkaesque Koffka,3.2.8,0,h,NA,s,s,s,h,238,NA,2310,23091,32153,238,2,legacy,1024,2,48000,-16,experiment,HHHHH,1,odd,4927,183907,360533,NA,370475,2608,160813,328376,367731,2548,369943,371588,371720,371961,371556,371720,Flanker task,158,90766,166,yes,1024
