"acc","accuracy","average_response_time","avg_rt","background","canvas_backend","clock_backend","color_backend","compensation","condition","coordinates","correct","correct_Instructions1","correct_keyboard_response","correct_response","count_Block1","count_Block2","count_Block3","count_Finish","count_ISI","count_Instructions1","count_Instructions2","count_Instructions3","count_errorFeedback","count_experiment","count_faster","count_fixation","count_keyboard_response","count_logger","count_sequence","count_stimulus","datetime","deadline","description","disable_garbage_collection","experiment_file","experiment_path","font_bold","font_family","font_italic","font_size","font_underline","foreground","form_clicks","fullscreen","height","keyboard_backend","live_row","live_row_Block1","logfile","mouse_backend","opensesame_codename","opensesame_version","repeat_cycle","response","response_Finish","response_Instructions1","response_Instructions2","response_Instructions3","response_keyboard_response","response_time","response_time_Finish","response_time_Instructions1","response_time_Instructions2","response_time_Instructions3","response_time_keyboard_response","round_decimals","sampler_backend","sound_buf_size","sound_channels","sound_freq","sound_sample_size","start","stimulus","subject_nr","subject_parity","time_Block1","time_Block2","time_Block3","time_Finish","time_ISI","time_Instructions1","time_Instructions2","time_Instructions3","time_errorFeedback","time_experiment","time_faster","time_fixation","time_keyboard_response","time_logger","time_sequence","time_stimulus","title","total_correct","total_response_time","total_responses","uniform_coordinates","width"
"100","100","1014","1014","black","legacy","legacy","legacy","0","incongruent","uniform","1","undefined","1","h","0","0","0","0","0","0","0","0","0","0","0","0","0","0","0","0","09/23/21 14:56:38","1500","The main experiment item","yes","FlankerTask.osexp","C:\Users\bryan\OneDrive\Documents\School\PSYC 5316  (Quant Methods)\Lab 2","no","mono","no","18","no","white","no","yes","768","legacy","0","0","C:/Users/bryan/OneDrive/Documents/School/PSYC 5316  (Quant Methods)/Lab 2/BS-subject-3.csv","legacy","Lentiform Loewenfeld","3.3.9","0","h","NA","s","NA","NA","h","1014","NA","347878","NA","NA","1014","2","legacy","1024","2","48000","-16","experiment","SSHSS","3","odd","350856","NA","NA","NA","NA","2977","NA","NA","NA","2971","NA","350974","351083","352098","350970","351082","Flanker Task","1","1014","1","yes","1024"
"100","100","768.5","768.5","black","legacy","legacy","legacy","0","incongruent","uniform","1","undefined","1","h","0","0","0","0","1","0","0","0","1","0","1","1","1","1","1","1","09/23/21 14:56:38","1500","The main experiment item","yes","FlankerTask.osexp","C:\Users\bryan\OneDrive\Documents\School\PSYC 5316  (Quant Methods)\Lab 2","no","mono","no","18","no","white","no","yes","768","legacy","1","1","C:/Users/bryan/OneDrive/Documents/School/PSYC 5316  (Quant Methods)/Lab 2/BS-subject-3.csv","legacy","Lentiform Loewenfeld","3.3.9","0","h","NA","s","NA","NA","h","523","NA","347878","NA","NA","523","2","legacy","1024","2","48000","-16","experiment","SSHSS","3","odd","350856","NA","NA","NA","352113","2977","NA","NA","NA","2971","NA","353224","353327","353850","353219","353327","Flanker Task","2","1537","2","yes","1024"
"100","100","683.333333333","683.333333333","black","legacy","legacy","legacy","0","congruent","uniform","1","undefined","1","s","0","0","0","0","2","0","0","0","2","0","2","2","2","2","2","2","09/23/21 14:56:38","1500","The main experiment item","yes","FlankerTask.osexp","C:\Users\bryan\OneDrive\Documents\School\PSYC 5316  (Quant Methods)\Lab 2","no","mono","no","18","no","white","no","yes","768","legacy","2","2","C:/Users/bryan/OneDrive/Documents/School/PSYC 5316  (Quant Methods)/Lab 2/BS-subject-3.csv","legacy","Lentiform Loewenfeld","3.3.9","0","s","NA","s","NA","NA","s","513","NA","347878","NA","NA","513","2","legacy","1024","2","48000","-16","experiment","SSSSS","3","odd","350856","NA","NA","NA","353860","2977","NA","NA","NA","2971","NA","354971","355079","355593","354967","355079","Flanker Task","3","2050","3","yes","1024"
"100","100","626","626","black","legacy","legacy","legacy","0","incongruent","uniform","1","undefined","1","s","0","0","0","0","3","0","0","0","3","0","3","3","3","3","3","3","09/23/21 14:56:38","1500","The main experiment item","yes","FlankerTask.osexp","C:\Users\bryan\OneDrive\Documents\School\PSYC 5316  (Quant Methods)\Lab 2","no","mono","no","18","no","white","no","yes","768","legacy","3","3","C:/Users/bryan/OneDrive/Documents/School/PSYC 5316  (Quant Methods)/Lab 2/BS-subject-3.csv","legacy","Lentiform Loewenfeld","3.3.9","0","s","NA","s","NA","NA","s","454","NA","347878","NA","NA","454","2","legacy","1024","2","48000","-16","experiment","HHSHH","3","odd","350856","NA","NA","NA","355603","2977","NA","NA","NA","2971","NA","356708","356815","357270","356704","356815","Flanker Task","4","2504","4","yes","1024"
"100","100","584.2","584.2","black","legacy","legacy","legacy","0","congruent","uniform","1","undefined","1","s","0","0","0","0","4","0","0","0","4","0","4","4","4","4","4","4","09/23/21 14:56:38","1500","The main experiment item","yes","FlankerTask.osexp","C:\Users\bryan\OneDrive\Documents\School\PSYC 5316  (Quant Methods)\Lab 2","no","mono","no","18","no","white","no","yes","768","legacy","4","4","C:/Users/bryan/OneDrive/Documents/School/PSYC 5316  (Quant Methods)/Lab 2/BS-subject-3.csv","legacy","Lentiform Loewenfeld","3.3.9","0","s","NA","s","NA","NA","s","417","NA","347878","NA","NA","417","2","legacy","1024","2","48000","-16","experiment","SSSSS","3","odd","350856","NA","NA","NA","357279","2977","NA","NA","NA","2971","NA","358406","358514","358932","358402","358514","Flanker Task","5","2921","5","yes","1024"
"83.3333333333","83.3333333333","558.166666667","558.166666667","black","legacy","legacy","legacy","0","incongruent","uniform","0","undefined","0","h","0","0","0","0","5","0","0","0","5","0","5","5","5","5","5","5","09/23/21 14:56:38","1500","The main experiment item","yes","FlankerTask.osexp","C:\Users\bryan\OneDrive\Documents\School\PSYC 5316  (Quant Methods)\Lab 2","no","mono","no","18","no","white","no","yes","768","legacy","5","5","C:/Users/bryan/OneDrive/Documents/School/PSYC 5316  (Quant Methods)/Lab 2/BS-subject-3.csv","legacy","Lentiform Loewenfeld","3.3.9","0","s","NA","s","NA","NA","s","428","NA","347878","NA","NA","428","2","legacy","1024","2","48000","-16","experiment","SSHSS","3","odd","350856","NA","NA","NA","358938","2977","NA","NA","NA","2971","NA","360069","360177","360605","360065","360177","Flanker Task","5","3349","6","yes","1024"
"85.7142857143","85.7142857143","555.857142857","555.857142857","black","legacy","legacy","legacy","0","congruent","uniform","1","undefined","1","s","0","0","0","0","6","0","0","0","6","0","6","6","6","6","6","6","09/23/21 14:56:38","1500","The main experiment item","yes","FlankerTask.osexp","C:\Users\bryan\OneDrive\Documents\School\PSYC 5316  (Quant Methods)\Lab 2","no","mono","no","18","no","white","no","yes","768","legacy","6","6","C:/Users/bryan/OneDrive/Documents/School/PSYC 5316  (Quant Methods)/Lab 2/BS-subject-3.csv","legacy","Lentiform Loewenfeld","3.3.9","0","s","NA","s","NA","NA","s","542","NA","347878","NA","NA","542","2","legacy","1024","2","48000","-16","experiment","SSSSS","3","odd","350856","NA","NA","NA","361115","2977","NA","NA","360612","2971","NA","362226","362334","362876","362221","362334","Flanker Task","6","3891","7","yes","1024"
"87.5","87.5","550.25","550.25","black","legacy","legacy","legacy","0","congruent","uniform","1","undefined","1","s","0","0","0","0","7","0","0","0","7","0","7","7","7","7","7","7","09/23/21 14:56:38","1500","The main experiment item","yes","FlankerTask.osexp","C:\Users\bryan\OneDrive\Documents\School\PSYC 5316  (Quant Methods)\Lab 2","no","mono","no","18","no","white","no","yes","768","legacy","7","7","C:/Users/bryan/OneDrive/Documents/School/PSYC 5316  (Quant Methods)/Lab 2/BS-subject-3.csv","legacy","Lentiform Loewenfeld","3.3.9","0","s","NA","s","NA","NA","s","511","NA","347878","NA","NA","511","2","legacy","1024","2","48000","-16","experiment","SSSSS","3","odd","350856","NA","NA","NA","362885","2977","NA","NA","360612","2971","NA","363992","364100","364611","363988","364100","Flanker Task","7","4402","8","yes","1024"
"88.8888888889","88.8888888889","541.222222222","541.222222222","black","legacy","legacy","legacy","0","incongruent","uniform","1","undefined","1","s","0","0","0","0","8","0","0","0","8","0","8","8","8","8","8","8","09/23/21 14:56:38","1500","The main experiment item","yes","FlankerTask.osexp","C:\Users\bryan\OneDrive\Documents\School\PSYC 5316  (Quant Methods)\Lab 2","no","mono","no","18","no","white","no","yes","768","legacy","8","8","C:/Users/bryan/OneDrive/Documents/School/PSYC 5316  (Quant Methods)/Lab 2/BS-subject-3.csv","legacy","Lentiform Loewenfeld","3.3.9","0","s","NA","s","NA","NA","s","469","NA","347878","NA","NA","469","2","legacy","1024","2","48000","-16","experiment","HHSHH","3","odd","350856","NA","NA","NA","364621","2977","NA","NA","360612","2971","NA","365727","365836","366306","365723","365836","Flanker Task","8","4871","9","yes","1024"
"90","90","532.9","532.9","black","legacy","legacy","legacy","0","congruent","uniform","1","undefined","1","s","0","0","0","0","9","0","0","0","9","0","9","9","9","9","9","9","09/23/21 14:56:38","1500","The main experiment item","yes","FlankerTask.osexp","C:\Users\bryan\OneDrive\Documents\School\PSYC 5316  (Quant Methods)\Lab 2","no","mono","no","18","no","white","no","yes","768","legacy","9","9","C:/Users/bryan/OneDrive/Documents/School/PSYC 5316  (Quant Methods)/Lab 2/BS-subject-3.csv","legacy","Lentiform Loewenfeld","3.3.9","0","s","NA","s","NA","NA","s","458","NA","347878","NA","NA","458","2","legacy","1024","2","48000","-16","experiment","SSSSS","3","odd","350856","NA","NA","NA","366313","2977","NA","NA","360612","2971","NA","367435","367543","368002","367431","367542","Flanker Task","9","5329","10","yes","1024"
"90.9090909091","90.9090909091","536.272727273","536.272727273","black","legacy","legacy","legacy","0","incongruent","uniform","1","undefined","1","s","0","0","0","0","10","0","0","0","10","0","10","10","10","10","10","10","09/23/21 14:56:38","1500","The main experiment item","yes","FlankerTask.osexp","C:\Users\bryan\OneDrive\Documents\School\PSYC 5316  (Quant Methods)\Lab 2","no","mono","no","18","no","white","no","yes","768","legacy","10","10","C:/Users/bryan/OneDrive/Documents/School/PSYC 5316  (Quant Methods)/Lab 2/BS-subject-3.csv","legacy","Lentiform Loewenfeld","3.3.9","0","s","NA","s","NA","NA","s","570","NA","347878","NA","NA","570","2","legacy","1024","2","48000","-16","experiment","HHSHH","3","odd","350856","NA","NA","NA","368012","2977","NA","NA","360612","2971","NA","369127","369235","369806","369122","369235","Flanker Task","10","5899","11","yes","1024"
"91.6666666667","91.6666666667","540","540","black","legacy","legacy","legacy","0","congruent","uniform","1","undefined","1","h","0","0","0","0","11","0","0","0","11","0","11","11","11","11","11","11","09/23/21 14:56:38","1500","The main experiment item","yes","FlankerTask.osexp","C:\Users\bryan\OneDrive\Documents\School\PSYC 5316  (Quant Methods)\Lab 2","no","mono","no","18","no","white","no","yes","768","legacy","11","11","C:/Users/bryan/OneDrive/Documents/School/PSYC 5316  (Quant Methods)/Lab 2/BS-subject-3.csv","legacy","Lentiform Loewenfeld","3.3.9","0","h","NA","s","NA","NA","h","581","NA","347878","NA","NA","581","2","legacy","1024","2","48000","-16","experiment","HHHHH","3","odd","350856","NA","NA","NA","369813","2977","NA","NA","360612","2971","NA","370917","371026","371608","370913","371025","Flanker Task","11","6480","12","yes","1024"
"92.3076923077","92.3076923077","542.846153846","542.846153846","black","legacy","legacy","legacy","0","congruent","uniform","1","undefined","1","s","0","0","0","0","12","0","0","0","12","0","12","12","12","12","12","12","09/23/21 14:56:38","1500","The main experiment item","yes","FlankerTask.osexp","C:\Users\bryan\OneDrive\Documents\School\PSYC 5316  (Quant Methods)\Lab 2","no","mono","no","18","no","white","no","yes","768","legacy","12","12","C:/Users/bryan/OneDrive/Documents/School/PSYC 5316  (Quant Methods)/Lab 2/BS-subject-3.csv","legacy","Lentiform Loewenfeld","3.3.9","0","s","NA","s","NA","NA","s","577","NA","347878","NA","NA","577","2","legacy","1024","2","48000","-16","experiment","SSSSS","3","odd","350856","NA","NA","NA","371614","2977","NA","NA","360612","2971","NA","372728","372836","373414","372724","372836","Flanker Task","12","7057","13","yes","1024"
"92.8571428571","92.8571428571","546.571428571","546.571428571","black","legacy","legacy","legacy","0","incongruent","uniform","1","undefined","1","s","0","0","0","0","13","0","0","0","13","0","13","13","13","13","13","13","09/23/21 14:56:38","1500","The main experiment item","yes","FlankerTask.osexp","C:\Users\bryan\OneDrive\Documents\School\PSYC 5316  (Quant Methods)\Lab 2","no","mono","no","18","no","white","no","yes","768","legacy","13","13","C:/Users/bryan/OneDrive/Documents/School/PSYC 5316  (Quant Methods)/Lab 2/BS-subject-3.csv","legacy","Lentiform Loewenfeld","3.3.9","0","s","NA","s","NA","NA","s","595","NA","347878","NA","NA","595","2","legacy","1024","2","48000","-16","experiment","HHSHH","3","odd","350856","NA","NA","NA","373424","2977","NA","NA","360612","2971","NA","374552","374660","375255","374548","374660","Flanker Task","13","7652","14","yes","1024"
"93.3333333333","93.3333333333","541.066666667","541.066666667","black","legacy","legacy","legacy","0","congruent","uniform","1","undefined","1","s","0","0","0","0","14","0","0","0","14","0","14","14","14","14","14","14","09/23/21 14:56:38","1500","The main experiment item","yes","FlankerTask.osexp","C:\Users\bryan\OneDrive\Documents\School\PSYC 5316  (Quant Methods)\Lab 2","no","mono","no","18","no","white","no","yes","768","legacy","14","14","C:/Users/bryan/OneDrive/Documents/School/PSYC 5316  (Quant Methods)/Lab 2/BS-subject-3.csv","legacy","Lentiform Loewenfeld","3.3.9","0","s","NA","s","NA","NA","s","464","NA","347878","NA","NA","464","2","legacy","1024","2","48000","-16","experiment","SSSSS","3","odd","350856","NA","NA","NA","375264","2977","NA","NA","360612","2971","NA","376381","376489","376953","376377","376489","Flanker Task","14","8116","15","yes","1024"
"93.75","93.75","550.0625","550.0625","black","legacy","legacy","legacy","0","incongruent","uniform","1","undefined","1","s","0","0","0","0","15","0","0","0","15","0","15","15","15","15","15","15","09/23/21 14:56:38","1500","The main experiment item","yes","FlankerTask.osexp","C:\Users\bryan\OneDrive\Documents\School\PSYC 5316  (Quant Methods)\Lab 2","no","mono","no","18","no","white","no","yes","768","legacy","15","15","C:/Users/bryan/OneDrive/Documents/School/PSYC 5316  (Quant Methods)/Lab 2/BS-subject-3.csv","legacy","Lentiform Loewenfeld","3.3.9","0","s","NA","s","NA","NA","s","685","NA","347878","NA","NA","685","2","legacy","1024","2","48000","-16","experiment","HHSHH","3","odd","350856","NA","NA","NA","376960","2977","NA","NA","360612","2971","NA","378070","378174","378860","378065","378174","Flanker Task","15","8801","16","yes","1024"
"94.1176470588","94.1176470588","547.529411765","547.529411765","black","legacy","legacy","legacy","0","incongruent","uniform","1","undefined","1","s","0","0","0","0","16","0","0","0","16","0","16","16","16","16","16","16","09/23/21 14:56:38","1500","The main experiment item","yes","FlankerTask.osexp","C:\Users\bryan\OneDrive\Documents\School\PSYC 5316  (Quant Methods)\Lab 2","no","mono","no","18","no","white","no","yes","768","legacy","16","16","C:/Users/bryan/OneDrive/Documents/School/PSYC 5316  (Quant Methods)/Lab 2/BS-subject-3.csv","legacy","Lentiform Loewenfeld","3.3.9","0","s","NA","s","NA","NA","s","507","NA","347878","NA","NA","507","2","legacy","1024","2","48000","-16","experiment","HHSHH","3","odd","350856","NA","NA","NA","378870","2977","NA","NA","360612","2971","NA","379986","380095","380603","379983","380094","Flanker Task","16","9308","17","yes","1024"
"94.4444444444","94.4444444444","544.666666667","544.666666667","black","legacy","legacy","legacy","0","incongruent","uniform","1","undefined","1","h","0","0","0","0","17","0","0","0","17","0","17","17","17","17","17","17","09/23/21 14:56:38","1500","The main experiment item","yes","FlankerTask.osexp","C:\Users\bryan\OneDrive\Documents\School\PSYC 5316  (Quant Methods)\Lab 2","no","mono","no","18","no","white","no","yes","768","legacy","17","17","C:/Users/bryan/OneDrive/Documents/School/PSYC 5316  (Quant Methods)/Lab 2/BS-subject-3.csv","legacy","Lentiform Loewenfeld","3.3.9","0","h","NA","s","NA","NA","h","496","NA","347878","NA","NA","496","2","legacy","1024","2","48000","-16","experiment","SSHSS","3","odd","350856","NA","NA","NA","380613","2977","NA","NA","360612","2971","NA","381731","381839","382336","381726","381838","Flanker Task","17","9804","18","yes","1024"
"94.7368421053","94.7368421053","542.105263158","542.105263158","black","legacy","legacy","legacy","0","congruent","uniform","1","undefined","1","h","0","0","0","0","18","0","0","0","18","0","18","18","18","18","18","18","09/23/21 14:56:38","1500","The main experiment item","yes","FlankerTask.osexp","C:\Users\bryan\OneDrive\Documents\School\PSYC 5316  (Quant Methods)\Lab 2","no","mono","no","18","no","white","no","yes","768","legacy","18","18","C:/Users/bryan/OneDrive/Documents/School/PSYC 5316  (Quant Methods)/Lab 2/BS-subject-3.csv","legacy","Lentiform Loewenfeld","3.3.9","0","h","NA","s","NA","NA","h","496","NA","347878","NA","NA","496","2","legacy","1024","2","48000","-16","experiment","HHHHH","3","odd","350856","NA","NA","NA","382345","2977","NA","NA","360612","2971","NA","383451","383554","384051","383447","383554","Flanker Task","18","10300","19","yes","1024"
"95","95","536.95","536.95","black","legacy","legacy","legacy","0","incongruent","uniform","1","undefined","1","h","0","0","0","0","19","0","0","0","19","0","19","19","19","19","19","19","09/23/21 14:56:38","1500","The main experiment item","yes","FlankerTask.osexp","C:\Users\bryan\OneDrive\Documents\School\PSYC 5316  (Quant Methods)\Lab 2","no","mono","no","18","no","white","no","yes","768","legacy","19","19","C:/Users/bryan/OneDrive/Documents/School/PSYC 5316  (Quant Methods)/Lab 2/BS-subject-3.csv","legacy","Lentiform Loewenfeld","3.3.9","0","h","NA","s","NA","NA","h","439","NA","347878","NA","NA","439","2","legacy","1024","2","48000","-16","experiment","SSHSS","3","odd","350856","NA","NA","NA","384058","2977","NA","NA","360612","2971","NA","385173","385281","385721","385169","385281","Flanker Task","19","10739","20","yes","1024"
"95.2380952381","95.2380952381","539.952380952","539.952380952","black","legacy","legacy","legacy","0","incongruent","uniform","1","undefined","1","s","0","0","0","0","20","0","0","0","20","0","20","20","20","20","20","20","09/23/21 14:56:38","1500","The main experiment item","yes","FlankerTask.osexp","C:\Users\bryan\OneDrive\Documents\School\PSYC 5316  (Quant Methods)\Lab 2","no","mono","no","18","no","white","no","yes","768","legacy","20","20","C:/Users/bryan/OneDrive/Documents/School/PSYC 5316  (Quant Methods)/Lab 2/BS-subject-3.csv","legacy","Lentiform Loewenfeld","3.3.9","0","s","NA","s","NA","NA","s","600","NA","347878","NA","NA","600","2","legacy","1024","2","48000","-16","experiment","HHSHH","3","odd","350856","NA","NA","NA","385731","2977","NA","NA","360612","2971","NA","386853","386961","387562","386849","386961","Flanker Task","20","11339","21","yes","1024"
"95.4545454545","95.4545454545","542.954545455","542.954545455","black","legacy","legacy","legacy","0","congruent","uniform","1","undefined","1","s","0","0","0","0","21","0","0","0","21","0","21","21","21","21","21","21","09/23/21 14:56:38","1500","The main experiment item","yes","FlankerTask.osexp","C:\Users\bryan\OneDrive\Documents\School\PSYC 5316  (Quant Methods)\Lab 2","no","mono","no","18","no","white","no","yes","768","legacy","21","21","C:/Users/bryan/OneDrive/Documents/School/PSYC 5316  (Quant Methods)/Lab 2/BS-subject-3.csv","legacy","Lentiform Loewenfeld","3.3.9","0","s","NA","s","NA","NA","s","606","NA","347878","NA","NA","606","2","legacy","1024","2","48000","-16","experiment","SSSSS","3","odd","350856","NA","NA","NA","387571","2977","NA","NA","360612","2971","NA","388684","388793","389400","388680","388792","Flanker Task","21","11945","22","yes","1024"
"95.652173913","95.652173913","541.913043478","541.913043478","black","legacy","legacy","legacy","0","incongruent","uniform","1","undefined","1","h","0","0","0","0","22","0","0","0","22","0","22","22","22","22","22","22","09/23/21 14:56:38","1500","The main experiment item","yes","FlankerTask.osexp","C:\Users\bryan\OneDrive\Documents\School\PSYC 5316  (Quant Methods)\Lab 2","no","mono","no","18","no","white","no","yes","768","legacy","22","22","C:/Users/bryan/OneDrive/Documents/School/PSYC 5316  (Quant Methods)/Lab 2/BS-subject-3.csv","legacy","Lentiform Loewenfeld","3.3.9","0","h","NA","s","NA","NA","h","519","NA","347878","NA","NA","519","2","legacy","1024","2","48000","-16","experiment","SSHSS","3","odd","350856","NA","NA","NA","389411","2977","NA","NA","360612","2971","NA","390517","390626","391146","390513","390625","Flanker Task","22","12464","23","yes","1024"
"95.8333333333","95.8333333333","538.791666667","538.791666667","black","legacy","legacy","legacy","0","incongruent","uniform","1","undefined","1","s","0","0","0","0","23","0","0","0","23","0","23","23","23","23","23","23","09/23/21 14:56:38","1500","The main experiment item","yes","FlankerTask.osexp","C:\Users\bryan\OneDrive\Documents\School\PSYC 5316  (Quant Methods)\Lab 2","no","mono","no","18","no","white","no","yes","768","legacy","23","23","C:/Users/bryan/OneDrive/Documents/School/PSYC 5316  (Quant Methods)/Lab 2/BS-subject-3.csv","legacy","Lentiform Loewenfeld","3.3.9","0","s","NA","s","NA","NA","s","467","NA","347878","NA","NA","467","2","legacy","1024","2","48000","-16","experiment","HHSHH","3","odd","350856","NA","NA","NA","391153","2977","NA","NA","360612","2971","NA","392257","392361","392829","392253","392361","Flanker Task","23","12931","24","yes","1024"
"96","96","538.12","538.12","black","legacy","legacy","legacy","0","congruent","uniform","1","undefined","1","s","0","0","0","0","24","0","0","0","24","0","24","24","24","24","24","24","09/23/21 14:56:38","1500","The main experiment item","yes","FlankerTask.osexp","C:\Users\bryan\OneDrive\Documents\School\PSYC 5316  (Quant Methods)\Lab 2","no","mono","no","18","no","white","no","yes","768","legacy","24","24","C:/Users/bryan/OneDrive/Documents/School/PSYC 5316  (Quant Methods)/Lab 2/BS-subject-3.csv","legacy","Lentiform Loewenfeld","3.3.9","0","s","NA","s","NA","NA","s","522","NA","347878","NA","NA","522","2","legacy","1024","2","48000","-16","experiment","SSSSS","3","odd","350856","NA","NA","NA","392836","2977","NA","NA","360612","2971","NA","393943","394051","394574","393939","394051","Flanker Task","24","13453","25","yes","1024"
"96.1538461538","96.1538461538","536.346153846","536.346153846","black","legacy","legacy","legacy","0","incongruent","uniform","1","undefined","1","s","0","0","0","0","25","0","0","0","25","0","25","25","25","25","25","25","09/23/21 14:56:38","1500","The main experiment item","yes","FlankerTask.osexp","C:\Users\bryan\OneDrive\Documents\School\PSYC 5316  (Quant Methods)\Lab 2","no","mono","no","18","no","white","no","yes","768","legacy","25","25","C:/Users/bryan/OneDrive/Documents/School/PSYC 5316  (Quant Methods)/Lab 2/BS-subject-3.csv","legacy","Lentiform Loewenfeld","3.3.9","0","s","NA","s","NA","NA","s","492","NA","347878","NA","NA","492","2","legacy","1024","2","48000","-16","experiment","HHSHH","3","odd","350856","NA","NA","NA","394581","2977","NA","NA","360612","2971","NA","395701","395808","396301","395696","395808","Flanker Task","25","13945","26","yes","1024"
"96.2962962963","96.2962962963","535.407407407","535.407407407","black","legacy","legacy","legacy","0","incongruent","uniform","1","undefined","1","h","0","0","0","0","26","0","0","0","26","0","26","26","26","26","26","26","09/23/21 14:56:38","1500","The main experiment item","yes","FlankerTask.osexp","C:\Users\bryan\OneDrive\Documents\School\PSYC 5316  (Quant Methods)\Lab 2","no","mono","no","18","no","white","no","yes","768","legacy","26","26","C:/Users/bryan/OneDrive/Documents/School/PSYC 5316  (Quant Methods)/Lab 2/BS-subject-3.csv","legacy","Lentiform Loewenfeld","3.3.9","0","h","NA","s","NA","NA","h","511","NA","347878","NA","NA","511","2","legacy","1024","2","48000","-16","experiment","SSHSS","3","odd","350856","NA","NA","NA","396308","2977","NA","NA","360612","2971","NA","397422","397531","398043","397417","397530","Flanker Task","26","14456","27","yes","1024"
"96.4285714286","96.4285714286","532.035714286","532.035714286","black","legacy","legacy","legacy","0","incongruent","uniform","1","undefined","1","h","0","0","0","0","27","0","0","0","27","0","27","27","27","27","27","27","09/23/21 14:56:38","1500","The main experiment item","yes","FlankerTask.osexp","C:\Users\bryan\OneDrive\Documents\School\PSYC 5316  (Quant Methods)\Lab 2","no","mono","no","18","no","white","no","yes","768","legacy","27","27","C:/Users/bryan/OneDrive/Documents/School/PSYC 5316  (Quant Methods)/Lab 2/BS-subject-3.csv","legacy","Lentiform Loewenfeld","3.3.9","0","h","NA","s","NA","NA","h","441","NA","347878","NA","NA","441","2","legacy","1024","2","48000","-16","experiment","SSHSS","3","odd","350856","NA","NA","NA","398052","2977","NA","NA","360612","2971","NA","399176","399284","399727","399171","399284","Flanker Task","27","14897","28","yes","1024"
"96.5517241379","96.5517241379","526.172413793","526.172413793","black","legacy","legacy","legacy","0","congruent","uniform","1","undefined","1","h","0","0","0","0","28","0","0","0","28","0","28","28","28","28","28","28","09/23/21 14:56:38","1500","The main experiment item","yes","FlankerTask.osexp","C:\Users\bryan\OneDrive\Documents\School\PSYC 5316  (Quant Methods)\Lab 2","no","mono","no","18","no","white","no","yes","768","legacy","28","28","C:/Users/bryan/OneDrive/Documents/School/PSYC 5316  (Quant Methods)/Lab 2/BS-subject-3.csv","legacy","Lentiform Loewenfeld","3.3.9","0","h","NA","s","NA","NA","h","362","NA","347878","NA","NA","362","2","legacy","1024","2","48000","-16","experiment","HHHHH","3","odd","350856","NA","NA","NA","399734","2977","NA","NA","360612","2971","NA","400858","400968","401331","400854","400967","Flanker Task","28","15259","29","yes","1024"
"96.6666666667","96.6666666667","519.266666667","519.266666667","black","legacy","legacy","legacy","0","incongruent","uniform","1","undefined","1","h","0","0","0","0","29","0","0","0","29","0","29","29","29","29","29","29","09/23/21 14:56:38","1500","The main experiment item","yes","FlankerTask.osexp","C:\Users\bryan\OneDrive\Documents\School\PSYC 5316  (Quant Methods)\Lab 2","no","mono","no","18","no","white","no","yes","768","legacy","29","29","C:/Users/bryan/OneDrive/Documents/School/PSYC 5316  (Quant Methods)/Lab 2/BS-subject-3.csv","legacy","Lentiform Loewenfeld","3.3.9","0","h","NA","s","NA","NA","h","319","NA","347878","NA","NA","319","2","legacy","1024","2","48000","-16","experiment","SSHSS","3","odd","350856","NA","NA","NA","401340","2977","NA","NA","360612","2971","NA","402445","402553","402873","402441","402553","Flanker Task","29","15578","30","yes","1024"
"96.7741935484","96.7741935484","515.064516129","515.064516129","black","legacy","legacy","legacy","0","incongruent","uniform","1","undefined","1","h","0","0","0","0","30","0","0","0","30","0","30","30","30","30","30","30","09/23/21 14:56:38","1500","The main experiment item","yes","FlankerTask.osexp","C:\Users\bryan\OneDrive\Documents\School\PSYC 5316  (Quant Methods)\Lab 2","no","mono","no","18","no","white","no","yes","768","legacy","30","30","C:/Users/bryan/OneDrive/Documents/School/PSYC 5316  (Quant Methods)/Lab 2/BS-subject-3.csv","legacy","Lentiform Loewenfeld","3.3.9","0","h","NA","s","NA","NA","h","389","NA","347878","NA","NA","389","2","legacy","1024","2","48000","-16","experiment","SSHSS","3","odd","350856","NA","NA","NA","402879","2977","NA","NA","360612","2971","NA","403988","404097","404487","403984","404097","Flanker Task","30","15967","31","yes","1024"
"96.875","96.875","516.90625","516.90625","black","legacy","legacy","legacy","0","incongruent","uniform","1","undefined","1","s","0","0","0","0","31","0","0","0","31","0","31","31","31","31","31","31","09/23/21 14:56:38","1500","The main experiment item","yes","FlankerTask.osexp","C:\Users\bryan\OneDrive\Documents\School\PSYC 5316  (Quant Methods)\Lab 2","no","mono","no","18","no","white","no","yes","768","legacy","31","31","C:/Users/bryan/OneDrive/Documents/School/PSYC 5316  (Quant Methods)/Lab 2/BS-subject-3.csv","legacy","Lentiform Loewenfeld","3.3.9","0","s","NA","s","NA","NA","s","574","NA","347878","NA","NA","574","2","legacy","1024","2","48000","-16","experiment","HHSHH","3","odd","350856","NA","NA","NA","404496","2977","NA","NA","360612","2971","NA","405601","405710","406285","405597","405710","Flanker Task","31","16541","32","yes","1024"
"96.9696969697","96.9696969697","517.424242424","517.424242424","black","legacy","legacy","legacy","0","congruent","uniform","1","undefined","1","s","0","0","0","0","32","0","0","0","32","0","32","32","32","32","32","32","09/23/21 14:56:38","1500","The main experiment item","yes","FlankerTask.osexp","C:\Users\bryan\OneDrive\Documents\School\PSYC 5316  (Quant Methods)\Lab 2","no","mono","no","18","no","white","no","yes","768","legacy","32","32","C:/Users/bryan/OneDrive/Documents/School/PSYC 5316  (Quant Methods)/Lab 2/BS-subject-3.csv","legacy","Lentiform Loewenfeld","3.3.9","0","s","NA","s","NA","NA","s","534","NA","347878","NA","NA","534","2","legacy","1024","2","48000","-16","experiment","SSSSS","3","odd","350856","NA","NA","NA","406292","2977","NA","NA","360612","2971","NA","407411","407515","408050","407407","407514","Flanker Task","32","17075","33","yes","1024"
"97.0588235294","97.0588235294","516.323529412","516.323529412","black","legacy","legacy","legacy","0","congruent","uniform","1","undefined","1","s","0","0","0","0","33","0","0","0","33","0","33","33","33","33","33","33","09/23/21 14:56:38","1500","The main experiment item","yes","FlankerTask.osexp","C:\Users\bryan\OneDrive\Documents\School\PSYC 5316  (Quant Methods)\Lab 2","no","mono","no","18","no","white","no","yes","768","legacy","33","33","C:/Users/bryan/OneDrive/Documents/School/PSYC 5316  (Quant Methods)/Lab 2/BS-subject-3.csv","legacy","Lentiform Loewenfeld","3.3.9","0","s","NA","s","NA","NA","s","480","NA","347878","NA","NA","480","2","legacy","1024","2","48000","-16","experiment","SSSSS","3","odd","350856","NA","NA","NA","408060","2977","NA","NA","360612","2971","NA","409164","409274","409755","409160","409274","Flanker Task","33","17555","34","yes","1024"
"97.1428571429","97.1428571429","516.828571429","516.828571429","black","legacy","legacy","legacy","0","incongruent","uniform","1","undefined","1","s","0","0","0","0","34","0","0","0","34","0","34","34","34","34","34","34","09/23/21 14:56:38","1500","The main experiment item","yes","FlankerTask.osexp","C:\Users\bryan\OneDrive\Documents\School\PSYC 5316  (Quant Methods)\Lab 2","no","mono","no","18","no","white","no","yes","768","legacy","34","34","C:/Users/bryan/OneDrive/Documents/School/PSYC 5316  (Quant Methods)/Lab 2/BS-subject-3.csv","legacy","Lentiform Loewenfeld","3.3.9","0","s","NA","s","NA","NA","s","534","NA","347878","NA","NA","534","2","legacy","1024","2","48000","-16","experiment","HHSHH","3","odd","350856","NA","NA","NA","409761","2977","NA","NA","360612","2971","NA","410884","410993","411528","410880","410992","Flanker Task","34","18089","35","yes","1024"
"97.2222222222","97.2222222222","514.861111111","514.861111111","black","legacy","legacy","legacy","0","congruent","uniform","1","undefined","1","s","0","0","0","0","35","0","0","0","35","0","35","35","35","35","35","35","09/23/21 14:56:38","1500","The main experiment item","yes","FlankerTask.osexp","C:\Users\bryan\OneDrive\Documents\School\PSYC 5316  (Quant Methods)\Lab 2","no","mono","no","18","no","white","no","yes","768","legacy","35","35","C:/Users/bryan/OneDrive/Documents/School/PSYC 5316  (Quant Methods)/Lab 2/BS-subject-3.csv","legacy","Lentiform Loewenfeld","3.3.9","0","s","NA","s","NA","NA","s","446","NA","347878","NA","NA","446","2","legacy","1024","2","48000","-16","experiment","SSSSS","3","odd","350856","NA","NA","NA","411538","2977","NA","NA","360612","2971","NA","412651","412759","413206","412646","412758","Flanker Task","35","18535","36","yes","1024"
"97.2972972973","97.2972972973","514.432432432","514.432432432","black","legacy","legacy","legacy","0","congruent","uniform","1","undefined","1","h","0","0","0","0","36","0","0","0","36","0","36","36","36","36","36","36","09/23/21 14:56:38","1500","The main experiment item","yes","FlankerTask.osexp","C:\Users\bryan\OneDrive\Documents\School\PSYC 5316  (Quant Methods)\Lab 2","no","mono","no","18","no","white","no","yes","768","legacy","36","36","C:/Users/bryan/OneDrive/Documents/School/PSYC 5316  (Quant Methods)/Lab 2/BS-subject-3.csv","legacy","Lentiform Loewenfeld","3.3.9","0","h","NA","s","NA","NA","h","499","NA","347878","NA","NA","499","2","legacy","1024","2","48000","-16","experiment","HHHHH","3","odd","350856","NA","NA","NA","413216","2977","NA","NA","360612","2971","NA","414325","414433","414933","414319","414433","Flanker Task","36","19034","37","yes","1024"
"97.3684210526","97.3684210526","513.026315789","513.026315789","black","legacy","legacy","legacy","0","congruent","uniform","1","undefined","1","h","0","0","0","0","37","0","0","0","37","0","37","37","37","37","37","37","09/23/21 14:56:38","1500","The main experiment item","yes","FlankerTask.osexp","C:\Users\bryan\OneDrive\Documents\School\PSYC 5316  (Quant Methods)\Lab 2","no","mono","no","18","no","white","no","yes","768","legacy","37","37","C:/Users/bryan/OneDrive/Documents/School/PSYC 5316  (Quant Methods)/Lab 2/BS-subject-3.csv","legacy","Lentiform Loewenfeld","3.3.9","0","h","NA","s","NA","NA","h","461","NA","347878","NA","NA","461","2","legacy","1024","2","48000","-16","experiment","HHHHH","3","odd","350856","NA","NA","NA","414939","2977","NA","NA","360612","2971","NA","416048","416156","416618","416044","416156","Flanker Task","37","19495","38","yes","1024"
"97.4358974359","97.4358974359","513.871794872","513.871794872","black","legacy","legacy","legacy","0","incongruent","uniform","1","undefined","1","h","0","0","0","0","38","0","0","0","38","0","38","38","38","38","38","38","09/23/21 14:56:38","1500","The main experiment item","yes","FlankerTask.osexp","C:\Users\bryan\OneDrive\Documents\School\PSYC 5316  (Quant Methods)\Lab 2","no","mono","no","18","no","white","no","yes","768","legacy","38","38","C:/Users/bryan/OneDrive/Documents/School/PSYC 5316  (Quant Methods)/Lab 2/BS-subject-3.csv","legacy","Lentiform Loewenfeld","3.3.9","0","h","NA","s","NA","NA","h","546","NA","347878","NA","NA","546","2","legacy","1024","2","48000","-16","experiment","SSHSS","3","odd","350856","NA","NA","NA","416625","2977","NA","NA","360612","2971","NA","417734","417837","418385","417729","417837","Flanker Task","38","20041","39","yes","1024"
"97.5","97.5","512.6","512.6","black","legacy","legacy","legacy","0","congruent","uniform","1","undefined","1","h","0","0","0","0","39","0","0","0","39","0","39","39","39","39","39","39","09/23/21 14:56:38","1500","The main experiment item","yes","FlankerTask.osexp","C:\Users\bryan\OneDrive\Documents\School\PSYC 5316  (Quant Methods)\Lab 2","no","mono","no","18","no","white","no","yes","768","legacy","39","39","C:/Users/bryan/OneDrive/Documents/School/PSYC 5316  (Quant Methods)/Lab 2/BS-subject-3.csv","legacy","Lentiform Loewenfeld","3.3.9","0","h","NA","s","NA","NA","h","463","NA","347878","NA","NA","463","2","legacy","1024","2","48000","-16","experiment","HHHHH","3","odd","350856","NA","NA","NA","418393","2977","NA","NA","360612","2971","NA","419515","419624","420088","419511","419623","Flanker Task","39","20504","40","yes","1024"
"97.5609756098","97.5609756098","510.853658537","510.853658537","black","legacy","legacy","legacy","0","congruent","uniform","1","undefined","1","h","0","0","0","0","40","0","0","0","40","0","40","40","40","40","40","40","09/23/21 14:56:38","1500","The main experiment item","yes","FlankerTask.osexp","C:\Users\bryan\OneDrive\Documents\School\PSYC 5316  (Quant Methods)\Lab 2","no","mono","no","18","no","white","no","yes","768","legacy","40","40","C:/Users/bryan/OneDrive/Documents/School/PSYC 5316  (Quant Methods)/Lab 2/BS-subject-3.csv","legacy","Lentiform Loewenfeld","3.3.9","0","h","NA","s","NA","NA","h","441","NA","347878","NA","NA","441","2","legacy","1024","2","48000","-16","experiment","HHHHH","3","odd","350856","NA","NA","NA","420094","2977","NA","NA","360612","2971","NA","421204","421312","421755","421199","421312","Flanker Task","40","20945","41","yes","1024"
"97.619047619","97.619047619","511.5","511.5","black","legacy","legacy","legacy","0","congruent","uniform","1","undefined","1","s","0","0","0","0","41","0","0","0","41","0","41","41","41","41","41","41","09/23/21 14:56:38","1500","The main experiment item","yes","FlankerTask.osexp","C:\Users\bryan\OneDrive\Documents\School\PSYC 5316  (Quant Methods)\Lab 2","no","mono","no","18","no","white","no","yes","768","legacy","41","41","C:/Users/bryan/OneDrive/Documents/School/PSYC 5316  (Quant Methods)/Lab 2/BS-subject-3.csv","legacy","Lentiform Loewenfeld","3.3.9","0","s","NA","s","NA","NA","s","538","NA","347878","NA","NA","538","2","legacy","1024","2","48000","-16","experiment","SSSSS","3","odd","350856","NA","NA","NA","421764","2977","NA","NA","360612","2971","NA","422869","422979","423518","422865","422978","Flanker Task","41","21483","42","yes","1024"
"97.6744186047","97.6744186047","515","515","black","legacy","legacy","legacy","0","incongruent","uniform","1","undefined","1","s","0","0","0","0","42","0","0","0","42","0","42","42","42","42","42","42","09/23/21 14:56:38","1500","The main experiment item","yes","FlankerTask.osexp","C:\Users\bryan\OneDrive\Documents\School\PSYC 5316  (Quant Methods)\Lab 2","no","mono","no","18","no","white","no","yes","768","legacy","42","42","C:/Users/bryan/OneDrive/Documents/School/PSYC 5316  (Quant Methods)/Lab 2/BS-subject-3.csv","legacy","Lentiform Loewenfeld","3.3.9","0","s","NA","s","NA","NA","s","662","NA","347878","NA","NA","662","2","legacy","1024","2","48000","-16","experiment","HHSHH","3","odd","350856","NA","NA","NA","423527","2977","NA","NA","360612","2971","NA","424662","424765","425428","424657","424765","Flanker Task","42","22145","43","yes","1024"
"97.7272727273","97.7272727273","516.704545455","516.704545455","black","legacy","legacy","legacy","0","incongruent","uniform","1","undefined","1","h","0","0","0","0","43","0","0","0","43","0","43","43","43","43","43","43","09/23/21 14:56:38","1500","The main experiment item","yes","FlankerTask.osexp","C:\Users\bryan\OneDrive\Documents\School\PSYC 5316  (Quant Methods)\Lab 2","no","mono","no","18","no","white","no","yes","768","legacy","43","43","C:/Users/bryan/OneDrive/Documents/School/PSYC 5316  (Quant Methods)/Lab 2/BS-subject-3.csv","legacy","Lentiform Loewenfeld","3.3.9","0","h","NA","s","NA","NA","h","590","NA","347878","NA","NA","590","2","legacy","1024","2","48000","-16","experiment","SSHSS","3","odd","350856","NA","NA","NA","425439","2977","NA","NA","360612","2971","NA","426541","426649","427240","426537","426649","Flanker Task","43","22735","44","yes","1024"
"97.7777777778","97.7777777778","515.511111111","515.511111111","black","legacy","legacy","legacy","0","congruent","uniform","1","undefined","1","h","0","0","0","0","44","0","0","0","44","0","44","44","44","44","44","44","09/23/21 14:56:38","1500","The main experiment item","yes","FlankerTask.osexp","C:\Users\bryan\OneDrive\Documents\School\PSYC 5316  (Quant Methods)\Lab 2","no","mono","no","18","no","white","no","yes","768","legacy","44","44","C:/Users/bryan/OneDrive/Documents/School/PSYC 5316  (Quant Methods)/Lab 2/BS-subject-3.csv","legacy","Lentiform Loewenfeld","3.3.9","0","h","NA","s","NA","NA","h","463","NA","347878","NA","NA","463","2","legacy","1024","2","48000","-16","experiment","HHHHH","3","odd","350856","NA","NA","NA","427250","2977","NA","NA","360612","2971","NA","428358","428462","428926","428353","428462","Flanker Task","44","23198","45","yes","1024"
"97.8260869565","97.8260869565","513.630434783","513.630434783","black","legacy","legacy","legacy","0","incongruent","uniform","1","undefined","1","h","0","0","0","0","45","0","0","0","45","0","45","45","45","45","45","45","09/23/21 14:56:38","1500","The main experiment item","yes","FlankerTask.osexp","C:\Users\bryan\OneDrive\Documents\School\PSYC 5316  (Quant Methods)\Lab 2","no","mono","no","18","no","white","no","yes","768","legacy","45","45","C:/Users/bryan/OneDrive/Documents/School/PSYC 5316  (Quant Methods)/Lab 2/BS-subject-3.csv","legacy","Lentiform Loewenfeld","3.3.9","0","h","NA","s","NA","NA","h","429","NA","347878","NA","NA","429","2","legacy","1024","2","48000","-16","experiment","SSHSS","3","odd","350856","NA","NA","NA","428937","2977","NA","NA","360612","2971","NA","430055","430163","430593","430051","430163","Flanker Task","45","23627","46","yes","1024"
"97.8723404255","97.8723404255","511.404255319","511.404255319","black","legacy","legacy","legacy","0","incongruent","uniform","1","undefined","1","h","0","0","0","0","46","0","0","0","46","0","46","46","46","46","46","46","09/23/21 14:56:38","1500","The main experiment item","yes","FlankerTask.osexp","C:\Users\bryan\OneDrive\Documents\School\PSYC 5316  (Quant Methods)\Lab 2","no","mono","no","18","no","white","no","yes","768","legacy","46","46","C:/Users/bryan/OneDrive/Documents/School/PSYC 5316  (Quant Methods)/Lab 2/BS-subject-3.csv","legacy","Lentiform Loewenfeld","3.3.9","0","h","NA","s","NA","NA","h","409","NA","347878","NA","NA","409","2","legacy","1024","2","48000","-16","experiment","SSHSS","3","odd","350856","NA","NA","NA","430602","2977","NA","NA","360612","2971","NA","431712","431821","432231","431708","431821","Flanker Task","46","24036","47","yes","1024"
"97.9166666667","97.9166666667","509.604166667","509.604166667","black","legacy","legacy","legacy","0","congruent","uniform","1","undefined","1","h","0","0","0","0","47","0","0","0","47","0","47","47","47","47","47","47","09/23/21 14:56:38","1500","The main experiment item","yes","FlankerTask.osexp","C:\Users\bryan\OneDrive\Documents\School\PSYC 5316  (Quant Methods)\Lab 2","no","mono","no","18","no","white","no","yes","768","legacy","47","47","C:/Users/bryan/OneDrive/Documents/School/PSYC 5316  (Quant Methods)/Lab 2/BS-subject-3.csv","legacy","Lentiform Loewenfeld","3.3.9","0","h","NA","s","NA","NA","h","425","NA","347878","NA","NA","425","2","legacy","1024","2","48000","-16","experiment","HHHHH","3","odd","350856","NA","NA","NA","432239","2977","NA","NA","360612","2971","NA","433354","433462","433889","433350","433462","Flanker Task","47","24461","48","yes","1024"
"97.9591836735","97.9591836735","507.551020408","507.551020408","black","legacy","legacy","legacy","0","incongruent","uniform","1","undefined","1","h","0","0","0","0","48","0","0","0","48","0","48","48","48","48","48","48","09/23/21 14:56:38","1500","The main experiment item","yes","FlankerTask.osexp","C:\Users\bryan\OneDrive\Documents\School\PSYC 5316  (Quant Methods)\Lab 2","no","mono","no","18","no","white","no","yes","768","legacy","48","48","C:/Users/bryan/OneDrive/Documents/School/PSYC 5316  (Quant Methods)/Lab 2/BS-subject-3.csv","legacy","Lentiform Loewenfeld","3.3.9","0","h","NA","s","NA","NA","h","409","NA","347878","NA","NA","409","2","legacy","1024","2","48000","-16","experiment","SSHSS","3","odd","350856","NA","NA","NA","433898","2977","NA","NA","360612","2971","NA","435011","435114","435525","435007","435114","Flanker Task","48","24870","49","yes","1024"
"98","98","506.62","506.62","black","legacy","legacy","legacy","0","congruent","uniform","1","undefined","1","s","0","0","0","0","49","0","0","0","49","0","49","49","49","49","49","49","09/23/21 14:56:38","1500","The main experiment item","yes","FlankerTask.osexp","C:\Users\bryan\OneDrive\Documents\School\PSYC 5316  (Quant Methods)\Lab 2","no","mono","no","18","no","white","no","yes","768","legacy","49","49","C:/Users/bryan/OneDrive/Documents/School/PSYC 5316  (Quant Methods)/Lab 2/BS-subject-3.csv","legacy","Lentiform Loewenfeld","3.3.9","0","s","NA","s","NA","NA","s","461","NA","347878","NA","NA","461","2","legacy","1024","2","48000","-16","experiment","SSSSS","3","odd","350856","NA","NA","NA","435531","2977","NA","NA","360612","2971","NA","436634","436743","437205","436629","436742","Flanker Task","49","25331","50","yes","1024"
"98.0392156863","98.0392156863","505.274509804","505.274509804","black","legacy","legacy","legacy","0","congruent","uniform","1","undefined","1","h","0","0","0","0","50","0","0","0","50","0","50","50","50","50","50","50","09/23/21 14:56:38","1500","The main experiment item","yes","FlankerTask.osexp","C:\Users\bryan\OneDrive\Documents\School\PSYC 5316  (Quant Methods)\Lab 2","no","mono","no","18","no","white","no","yes","768","legacy","50","50","C:/Users/bryan/OneDrive/Documents/School/PSYC 5316  (Quant Methods)/Lab 2/BS-subject-3.csv","legacy","Lentiform Loewenfeld","3.3.9","0","h","NA","s","NA","NA","h","438","NA","347878","NA","NA","438","2","legacy","1024","2","48000","-16","experiment","HHHHH","3","odd","350856","NA","NA","NA","437215","2977","NA","NA","360612","2971","NA","438335","438443","438883","438331","438443","Flanker Task","50","25769","51","yes","1024"
"98.0769230769","98.0769230769","503.576923077","503.576923077","black","legacy","legacy","legacy","0","congruent","uniform","1","undefined","1","s","0","0","0","0","51","0","0","0","51","0","51","51","51","51","51","51","09/23/21 14:56:38","1500","The main experiment item","yes","FlankerTask.osexp","C:\Users\bryan\OneDrive\Documents\School\PSYC 5316  (Quant Methods)\Lab 2","no","mono","no","18","no","white","no","yes","768","legacy","51","51","C:/Users/bryan/OneDrive/Documents/School/PSYC 5316  (Quant Methods)/Lab 2/BS-subject-3.csv","legacy","Lentiform Loewenfeld","3.3.9","0","s","NA","s","NA","NA","s","417","NA","347878","NA","NA","417","2","legacy","1024","2","48000","-16","experiment","SSSSS","3","odd","350856","NA","NA","NA","438891","2977","NA","NA","360612","2971","NA","440010","440119","440537","440005","440118","Flanker Task","51","26186","52","yes","1024"
"98.1132075472","98.1132075472","502.433962264","502.433962264","black","legacy","legacy","legacy","0","congruent","uniform","1","undefined","1","h","0","0","0","0","52","0","0","0","52","0","52","52","52","52","52","52","09/23/21 14:56:38","1500","The main experiment item","yes","FlankerTask.osexp","C:\Users\bryan\OneDrive\Documents\School\PSYC 5316  (Quant Methods)\Lab 2","no","mono","no","18","no","white","no","yes","768","legacy","52","52","C:/Users/bryan/OneDrive/Documents/School/PSYC 5316  (Quant Methods)/Lab 2/BS-subject-3.csv","legacy","Lentiform Loewenfeld","3.3.9","0","h","NA","s","NA","NA","h","443","NA","347878","NA","NA","443","2","legacy","1024","2","48000","-16","experiment","HHHHH","3","odd","350856","NA","NA","NA","440547","2977","NA","NA","360612","2971","NA","441670","441779","442223","441666","441779","Flanker Task","52","26629","53","yes","1024"
"98.1481481481","98.1481481481","503.018518519","503.018518519","black","legacy","legacy","legacy","0","incongruent","uniform","1","undefined","1","h","0","0","0","0","53","0","0","0","53","0","53","53","53","53","53","53","09/23/21 14:56:38","1500","The main experiment item","yes","FlankerTask.osexp","C:\Users\bryan\OneDrive\Documents\School\PSYC 5316  (Quant Methods)\Lab 2","no","mono","no","18","no","white","no","yes","768","legacy","53","53","C:/Users/bryan/OneDrive/Documents/School/PSYC 5316  (Quant Methods)/Lab 2/BS-subject-3.csv","legacy","Lentiform Loewenfeld","3.3.9","0","h","NA","s","NA","NA","h","534","NA","347878","NA","NA","534","2","legacy","1024","2","48000","-16","experiment","SSHSS","3","odd","350856","NA","NA","NA","442233","2977","NA","NA","360612","2971","NA","443346","443454","443990","443341","443454","Flanker Task","53","27163","54","yes","1024"
"98.1818181818","98.1818181818","501.563636364","501.563636364","black","legacy","legacy","legacy","0","incongruent","uniform","1","undefined","1","s","0","0","0","0","54","0","0","0","54","0","54","54","54","54","54","54","09/23/21 14:56:38","1500","The main experiment item","yes","FlankerTask.osexp","C:\Users\bryan\OneDrive\Documents\School\PSYC 5316  (Quant Methods)\Lab 2","no","mono","no","18","no","white","no","yes","768","legacy","54","54","C:/Users/bryan/OneDrive/Documents/School/PSYC 5316  (Quant Methods)/Lab 2/BS-subject-3.csv","legacy","Lentiform Loewenfeld","3.3.9","0","s","NA","s","NA","NA","s","423","NA","347878","NA","NA","423","2","legacy","1024","2","48000","-16","experiment","HHSHH","3","odd","350856","NA","NA","NA","443998","2977","NA","NA","360612","2971","NA","445117","445225","445649","445112","445225","Flanker Task","54","27586","55","yes","1024"
"98.2142857143","98.2142857143","500.785714286","500.785714286","black","legacy","legacy","legacy","0","congruent","uniform","1","undefined","1","h","0","0","0","0","55","0","0","0","55","0","55","55","55","55","55","55","09/23/21 14:56:38","1500","The main experiment item","yes","FlankerTask.osexp","C:\Users\bryan\OneDrive\Documents\School\PSYC 5316  (Quant Methods)\Lab 2","no","mono","no","18","no","white","no","yes","768","legacy","55","55","C:/Users/bryan/OneDrive/Documents/School/PSYC 5316  (Quant Methods)/Lab 2/BS-subject-3.csv","legacy","Lentiform Loewenfeld","3.3.9","0","h","NA","s","NA","NA","h","458","NA","347878","NA","NA","458","2","legacy","1024","2","48000","-16","experiment","HHHHH","3","odd","350856","NA","NA","NA","445658","2977","NA","NA","360612","2971","NA","446785","446893","447352","446780","446893","Flanker Task","55","28044","56","yes","1024"
"98.2456140351","98.2456140351","499.157894737","499.157894737","black","legacy","legacy","legacy","0","congruent","uniform","1","undefined","1","s","0","0","0","0","56","0","0","0","56","0","56","56","56","56","56","56","09/23/21 14:56:38","1500","The main experiment item","yes","FlankerTask.osexp","C:\Users\bryan\OneDrive\Documents\School\PSYC 5316  (Quant Methods)\Lab 2","no","mono","no","18","no","white","no","yes","768","legacy","56","56","C:/Users/bryan/OneDrive/Documents/School/PSYC 5316  (Quant Methods)/Lab 2/BS-subject-3.csv","legacy","Lentiform Loewenfeld","3.3.9","0","s","NA","s","NA","NA","s","408","NA","347878","NA","NA","408","2","legacy","1024","2","48000","-16","experiment","SSSSS","3","odd","350856","NA","NA","NA","447359","2977","NA","NA","360612","2971","NA","448476","448585","448995","448472","448584","Flanker Task","56","28452","57","yes","1024"
"98.275862069","98.275862069","499.844827586","499.844827586","black","legacy","legacy","legacy","0","congruent","uniform","1","undefined","1","h","0","0","0","0","57","0","0","0","57","0","57","57","57","57","57","57","09/23/21 14:56:38","1500","The main experiment item","yes","FlankerTask.osexp","C:\Users\bryan\OneDrive\Documents\School\PSYC 5316  (Quant Methods)\Lab 2","no","mono","no","18","no","white","no","yes","768","legacy","57","57","C:/Users/bryan/OneDrive/Documents/School/PSYC 5316  (Quant Methods)/Lab 2/BS-subject-3.csv","legacy","Lentiform Loewenfeld","3.3.9","0","h","NA","s","NA","NA","h","539","NA","347878","NA","NA","539","2","legacy","1024","2","48000","-16","experiment","HHHHH","3","odd","350856","NA","NA","NA","449003","2977","NA","NA","360612","2971","NA","450120","450230","450770","450116","450229","Flanker Task","57","28991","58","yes","1024"
"98.3050847458","98.3050847458","499.13559322","499.13559322","black","legacy","legacy","legacy","0","incongruent","uniform","1","undefined","1","s","0","0","0","0","58","0","0","0","58","0","58","58","58","58","58","58","09/23/21 14:56:38","1500","The main experiment item","yes","FlankerTask.osexp","C:\Users\bryan\OneDrive\Documents\School\PSYC 5316  (Quant Methods)\Lab 2","no","mono","no","18","no","white","no","yes","768","legacy","58","58","C:/Users/bryan/OneDrive/Documents/School/PSYC 5316  (Quant Methods)/Lab 2/BS-subject-3.csv","legacy","Lentiform Loewenfeld","3.3.9","0","s","NA","s","NA","NA","s","458","NA","347878","NA","NA","458","2","legacy","1024","2","48000","-16","experiment","HHSHH","3","odd","350856","NA","NA","NA","450777","2977","NA","NA","360612","2971","NA","451897","452004","452463","451892","452004","Flanker Task","58","29449","59","yes","1024"
"98.3333333333","98.3333333333","499.5","499.5","black","legacy","legacy","legacy","0","incongruent","uniform","1","undefined","1","s","0","0","0","0","59","0","0","0","59","0","59","59","59","59","59","59","09/23/21 14:56:38","1500","The main experiment item","yes","FlankerTask.osexp","C:\Users\bryan\OneDrive\Documents\School\PSYC 5316  (Quant Methods)\Lab 2","no","mono","no","18","no","white","no","yes","768","legacy","59","59","C:/Users/bryan/OneDrive/Documents/School/PSYC 5316  (Quant Methods)/Lab 2/BS-subject-3.csv","legacy","Lentiform Loewenfeld","3.3.9","0","s","NA","s","NA","NA","s","521","NA","347878","NA","NA","521","2","legacy","1024","2","48000","-16","experiment","HHSHH","3","odd","350856","NA","NA","NA","452473","2977","NA","NA","360612","2971","NA","453578","453681","454203","453574","453681","Flanker Task","59","29970","60","yes","1024"
"98.3606557377","98.3606557377","498.344262295","498.344262295","black","legacy","legacy","legacy","0","congruent","uniform","1","undefined","1","h","0","0","0","0","60","0","0","0","60","0","60","60","60","60","60","60","09/23/21 14:56:38","1500","The main experiment item","yes","FlankerTask.osexp","C:\Users\bryan\OneDrive\Documents\School\PSYC 5316  (Quant Methods)\Lab 2","no","mono","no","18","no","white","no","yes","768","legacy","60","60","C:/Users/bryan/OneDrive/Documents/School/PSYC 5316  (Quant Methods)/Lab 2/BS-subject-3.csv","legacy","Lentiform Loewenfeld","3.3.9","0","h","NA","s","NA","NA","h","429","NA","347878","NA","NA","429","2","legacy","1024","2","48000","-16","experiment","HHHHH","3","odd","350856","NA","NA","NA","454209","2977","NA","NA","360612","2971","NA","455337","455446","455876","455333","455445","Flanker Task","60","30399","61","yes","1024"
"98.3870967742","98.3870967742","498.290322581","498.290322581","black","legacy","legacy","legacy","0","incongruent","uniform","1","undefined","1","s","0","0","0","0","61","0","0","0","61","0","61","61","61","61","61","61","09/23/21 14:56:38","1500","The main experiment item","yes","FlankerTask.osexp","C:\Users\bryan\OneDrive\Documents\School\PSYC 5316  (Quant Methods)\Lab 2","no","mono","no","18","no","white","no","yes","768","legacy","61","61","C:/Users/bryan/OneDrive/Documents/School/PSYC 5316  (Quant Methods)/Lab 2/BS-subject-3.csv","legacy","Lentiform Loewenfeld","3.3.9","0","s","NA","s","NA","NA","s","495","NA","347878","NA","NA","495","2","legacy","1024","2","48000","-16","experiment","HHSHH","3","odd","350856","NA","NA","NA","455886","2977","NA","NA","360612","2971","NA","456997","457105","457602","456992","457105","Flanker Task","61","30894","62","yes","1024"
"98.4126984127","98.4126984127","497.396825397","497.396825397","black","legacy","legacy","legacy","0","congruent","uniform","1","undefined","1","s","0","0","0","0","62","0","0","0","62","0","62","62","62","62","62","62","09/23/21 14:56:38","1500","The main experiment item","yes","FlankerTask.osexp","C:\Users\bryan\OneDrive\Documents\School\PSYC 5316  (Quant Methods)\Lab 2","no","mono","no","18","no","white","no","yes","768","legacy","62","62","C:/Users/bryan/OneDrive/Documents/School/PSYC 5316  (Quant Methods)/Lab 2/BS-subject-3.csv","legacy","Lentiform Loewenfeld","3.3.9","0","s","NA","s","NA","NA","s","442","NA","347878","NA","NA","442","2","legacy","1024","2","48000","-16","experiment","SSSSS","3","odd","350856","NA","NA","NA","457612","2977","NA","NA","360612","2971","NA","458733","458841","459284","458728","458841","Flanker Task","62","31336","63","yes","1024"
"98.4375","98.4375","497.328125","497.328125","black","legacy","legacy","legacy","0","congruent","uniform","1","undefined","1","h","0","0","0","0","63","0","0","0","63","0","63","63","63","63","63","63","09/23/21 14:56:38","1500","The main experiment item","yes","FlankerTask.osexp","C:\Users\bryan\OneDrive\Documents\School\PSYC 5316  (Quant Methods)\Lab 2","no","mono","no","18","no","white","no","yes","768","legacy","63","63","C:/Users/bryan/OneDrive/Documents/School/PSYC 5316  (Quant Methods)/Lab 2/BS-subject-3.csv","legacy","Lentiform Loewenfeld","3.3.9","0","h","NA","s","NA","NA","h","493","NA","347878","NA","NA","493","2","legacy","1024","2","48000","-16","experiment","HHHHH","3","odd","350856","NA","NA","NA","459291","2977","NA","NA","360612","2971","NA","460408","460517","461011","460404","460517","Flanker Task","63","31829","64","yes","1024"
"98.4615384615","98.4615384615","496.384615385","496.384615385","black","legacy","legacy","legacy","0","congruent","uniform","1","undefined","1","h","0","0","0","0","64","0","0","0","64","0","64","64","64","64","64","64","09/23/21 14:56:38","1500","The main experiment item","yes","FlankerTask.osexp","C:\Users\bryan\OneDrive\Documents\School\PSYC 5316  (Quant Methods)\Lab 2","no","mono","no","18","no","white","no","yes","768","legacy","64","64","C:/Users/bryan/OneDrive/Documents/School/PSYC 5316  (Quant Methods)/Lab 2/BS-subject-3.csv","legacy","Lentiform Loewenfeld","3.3.9","0","h","NA","s","NA","NA","h","436","NA","347878","NA","NA","436","2","legacy","1024","2","48000","-16","experiment","HHHHH","3","odd","350856","NA","NA","NA","461018","2977","NA","NA","360612","2971","NA","462131","462240","462678","462127","462240","Flanker Task","64","32265","65","yes","1024"
"98.4848484848","98.4848484848","496.621212121","496.621212121","black","legacy","legacy","legacy","0","congruent","uniform","1","undefined","1","s","0","0","0","0","65","0","0","0","65","0","65","65","65","65","65","65","09/23/21 14:56:38","1500","The main experiment item","yes","FlankerTask.osexp","C:\Users\bryan\OneDrive\Documents\School\PSYC 5316  (Quant Methods)\Lab 2","no","mono","no","18","no","white","no","yes","768","legacy","65","65","C:/Users/bryan/OneDrive/Documents/School/PSYC 5316  (Quant Methods)/Lab 2/BS-subject-3.csv","legacy","Lentiform Loewenfeld","3.3.9","0","s","NA","s","NA","NA","s","512","NA","347878","NA","NA","512","2","legacy","1024","2","48000","-16","experiment","SSSSS","3","odd","350856","NA","NA","NA","462684","2977","NA","NA","360612","2971","NA","463803","463911","464425","463798","463911","Flanker Task","65","32777","66","yes","1024"
"98.5074626866","98.5074626866","495.731343284","495.731343284","black","legacy","legacy","legacy","0","congruent","uniform","1","undefined","1","h","0","0","0","0","66","0","0","0","66","0","66","66","66","66","66","66","09/23/21 14:56:38","1500","The main experiment item","yes","FlankerTask.osexp","C:\Users\bryan\OneDrive\Documents\School\PSYC 5316  (Quant Methods)\Lab 2","no","mono","no","18","no","white","no","yes","768","legacy","66","66","C:/Users/bryan/OneDrive/Documents/School/PSYC 5316  (Quant Methods)/Lab 2/BS-subject-3.csv","legacy","Lentiform Loewenfeld","3.3.9","0","h","NA","s","NA","NA","h","437","NA","347878","NA","NA","437","2","legacy","1024","2","48000","-16","experiment","HHHHH","3","odd","350856","NA","NA","NA","464431","2977","NA","NA","360612","2971","NA","465552","465659","466098","465548","465659","Flanker Task","66","33214","67","yes","1024"
"98.5294117647","98.5294117647","496.926470588","496.926470588","black","legacy","legacy","legacy","0","incongruent","uniform","1","undefined","1","h","0","0","0","0","67","0","0","0","67","0","67","67","67","67","67","67","09/23/21 14:56:38","1500","The main experiment item","yes","FlankerTask.osexp","C:\Users\bryan\OneDrive\Documents\School\PSYC 5316  (Quant Methods)\Lab 2","no","mono","no","18","no","white","no","yes","768","legacy","67","67","C:/Users/bryan/OneDrive/Documents/School/PSYC 5316  (Quant Methods)/Lab 2/BS-subject-3.csv","legacy","Lentiform Loewenfeld","3.3.9","0","h","NA","s","NA","NA","h","577","NA","347878","NA","NA","577","2","legacy","1024","2","48000","-16","experiment","SSHSS","3","odd","350856","NA","NA","NA","466108","2977","NA","NA","360612","2971","NA","467223","467326","467904","467219","467326","Flanker Task","67","33791","68","yes","1024"
"98.5507246377","98.5507246377","496.449275362","496.449275362","black","legacy","legacy","legacy","0","incongruent","uniform","1","undefined","1","s","0","0","0","0","68","0","0","0","68","0","68","68","68","68","68","68","09/23/21 14:56:38","1500","The main experiment item","yes","FlankerTask.osexp","C:\Users\bryan\OneDrive\Documents\School\PSYC 5316  (Quant Methods)\Lab 2","no","mono","no","18","no","white","no","yes","768","legacy","68","68","C:/Users/bryan/OneDrive/Documents/School/PSYC 5316  (Quant Methods)/Lab 2/BS-subject-3.csv","legacy","Lentiform Loewenfeld","3.3.9","0","s","NA","s","NA","NA","s","464","NA","347878","NA","NA","464","2","legacy","1024","2","48000","-16","experiment","HHSHH","3","odd","350856","NA","NA","NA","467914","2977","NA","NA","360612","2971","NA","469031","469140","469605","469026","469139","Flanker Task","68","34255","69","yes","1024"
"98.5714285714","98.5714285714","498.085714286","498.085714286","black","legacy","legacy","legacy","0","incongruent","uniform","1","undefined","1","h","0","0","0","0","69","0","0","0","69","0","69","69","69","69","69","69","09/23/21 14:56:38","1500","The main experiment item","yes","FlankerTask.osexp","C:\Users\bryan\OneDrive\Documents\School\PSYC 5316  (Quant Methods)\Lab 2","no","mono","no","18","no","white","no","yes","768","legacy","69","69","C:/Users/bryan/OneDrive/Documents/School/PSYC 5316  (Quant Methods)/Lab 2/BS-subject-3.csv","legacy","Lentiform Loewenfeld","3.3.9","0","h","NA","s","NA","NA","h","611","NA","347878","NA","NA","611","2","legacy","1024","2","48000","-16","experiment","SSHSS","3","odd","350856","NA","NA","NA","469612","2977","NA","NA","360612","2971","NA","470731","470840","471453","470727","470840","Flanker Task","69","34866","70","yes","1024"
"98.5915492958","98.5915492958","497.14084507","497.14084507","black","legacy","legacy","legacy","0","congruent","uniform","1","undefined","1","h","0","0","0","0","70","0","0","0","70","0","70","70","70","70","70","70","09/23/21 14:56:38","1500","The main experiment item","yes","FlankerTask.osexp","C:\Users\bryan\OneDrive\Documents\School\PSYC 5316  (Quant Methods)\Lab 2","no","mono","no","18","no","white","no","yes","768","legacy","70","70","C:/Users/bryan/OneDrive/Documents/School/PSYC 5316  (Quant Methods)/Lab 2/BS-subject-3.csv","legacy","Lentiform Loewenfeld","3.3.9","0","h","NA","s","NA","NA","h","431","NA","347878","NA","NA","431","2","legacy","1024","2","48000","-16","experiment","HHHHH","3","odd","350856","NA","NA","NA","471461","2977","NA","NA","360612","2971","NA","472572","472676","473108","472568","472676","Flanker Task","70","35297","71","yes","1024"
"98.6111111111","98.6111111111","498.180555556","498.180555556","black","legacy","legacy","legacy","0","incongruent","uniform","1","undefined","1","h","0","0","0","0","71","0","0","0","71","0","71","71","71","71","71","71","09/23/21 14:56:38","1500","The main experiment item","yes","FlankerTask.osexp","C:\Users\bryan\OneDrive\Documents\School\PSYC 5316  (Quant Methods)\Lab 2","no","mono","no","18","no","white","no","yes","768","legacy","71","71","C:/Users/bryan/OneDrive/Documents/School/PSYC 5316  (Quant Methods)/Lab 2/BS-subject-3.csv","legacy","Lentiform Loewenfeld","3.3.9","0","h","NA","s","NA","NA","h","572","NA","347878","NA","NA","572","2","legacy","1024","2","48000","-16","experiment","SSHSS","3","odd","350856","NA","NA","NA","473117","2977","NA","NA","360612","2971","NA","474235","474343","474916","474230","474343","Flanker Task","71","35869","72","yes","1024"
"98.6301369863","98.6301369863","499.301369863","499.301369863","black","legacy","legacy","legacy","0","incongruent","uniform","1","undefined","1","s","0","0","0","0","72","0","0","0","72","0","72","72","72","72","72","72","09/23/21 14:56:38","1500","The main experiment item","yes","FlankerTask.osexp","C:\Users\bryan\OneDrive\Documents\School\PSYC 5316  (Quant Methods)\Lab 2","no","mono","no","18","no","white","no","yes","768","legacy","72","72","C:/Users/bryan/OneDrive/Documents/School/PSYC 5316  (Quant Methods)/Lab 2/BS-subject-3.csv","legacy","Lentiform Loewenfeld","3.3.9","0","s","NA","s","NA","NA","s","580","NA","347878","NA","NA","580","2","legacy","1024","2","48000","-16","experiment","HHSHH","3","odd","350856","NA","NA","NA","474926","2977","NA","NA","360612","2971","NA","476048","476157","476738","476044","476156","Flanker Task","72","36449","73","yes","1024"
"98.6486486486","98.6486486486","498.310810811","498.310810811","black","legacy","legacy","legacy","0","congruent","uniform","1","undefined","1","s","0","0","0","0","73","0","0","0","73","0","73","73","73","73","73","73","09/23/21 14:56:38","1500","The main experiment item","yes","FlankerTask.osexp","C:\Users\bryan\OneDrive\Documents\School\PSYC 5316  (Quant Methods)\Lab 2","no","mono","no","18","no","white","no","yes","768","legacy","73","73","C:/Users/bryan/OneDrive/Documents/School/PSYC 5316  (Quant Methods)/Lab 2/BS-subject-3.csv","legacy","Lentiform Loewenfeld","3.3.9","0","s","NA","s","NA","NA","s","426","NA","347878","NA","NA","426","2","legacy","1024","2","48000","-16","experiment","SSSSS","3","odd","350856","NA","NA","NA","476747","2977","NA","NA","360612","2971","NA","477853","477961","478388","477848","477961","Flanker Task","73","36875","74","yes","1024"
"98.6666666667","98.6666666667","498.92","498.92","black","legacy","legacy","legacy","0","congruent","uniform","1","undefined","1","h","0","0","0","0","74","0","0","0","74","0","74","74","74","74","74","74","09/23/21 14:56:38","1500","The main experiment item","yes","FlankerTask.osexp","C:\Users\bryan\OneDrive\Documents\School\PSYC 5316  (Quant Methods)\Lab 2","no","mono","no","18","no","white","no","yes","768","legacy","74","74","C:/Users/bryan/OneDrive/Documents/School/PSYC 5316  (Quant Methods)/Lab 2/BS-subject-3.csv","legacy","Lentiform Loewenfeld","3.3.9","0","h","NA","s","NA","NA","h","544","NA","347878","NA","NA","544","2","legacy","1024","2","48000","-16","experiment","HHHHH","3","odd","350856","NA","NA","NA","478395","2977","NA","NA","360612","2971","NA","479518","479626","480171","479514","479626","Flanker Task","74","37419","75","yes","1024"
"98.6842105263","98.6842105263","498.631578947","498.631578947","black","legacy","legacy","legacy","0","incongruent","uniform","1","undefined","1","s","0","0","0","0","75","0","0","0","75","0","75","75","75","75","75","75","09/23/21 14:56:38","1500","The main experiment item","yes","FlankerTask.osexp","C:\Users\bryan\OneDrive\Documents\School\PSYC 5316  (Quant Methods)\Lab 2","no","mono","no","18","no","white","no","yes","768","legacy","75","75","C:/Users/bryan/OneDrive/Documents/School/PSYC 5316  (Quant Methods)/Lab 2/BS-subject-3.csv","legacy","Lentiform Loewenfeld","3.3.9","0","s","NA","s","NA","NA","s","477","NA","347878","NA","NA","477","2","legacy","1024","2","48000","-16","experiment","HHSHH","3","odd","350856","NA","NA","NA","480181","2977","NA","NA","360612","2971","NA","481296","481405","481883","481292","481405","Flanker Task","75","37896","76","yes","1024"
"98.7012987013","98.7012987013","498.285714286","498.285714286","black","legacy","legacy","legacy","0","congruent","uniform","1","undefined","1","h","0","0","0","0","76","0","0","0","76","0","76","76","76","76","76","76","09/23/21 14:56:38","1500","The main experiment item","yes","FlankerTask.osexp","C:\Users\bryan\OneDrive\Documents\School\PSYC 5316  (Quant Methods)\Lab 2","no","mono","no","18","no","white","no","yes","768","legacy","76","76","C:/Users/bryan/OneDrive/Documents/School/PSYC 5316  (Quant Methods)/Lab 2/BS-subject-3.csv","legacy","Lentiform Loewenfeld","3.3.9","0","h","NA","s","NA","NA","h","472","NA","347878","NA","NA","472","2","legacy","1024","2","48000","-16","experiment","HHHHH","3","odd","350856","NA","NA","NA","481890","2977","NA","NA","360612","2971","NA","483008","483116","483590","483004","483116","Flanker Task","76","38368","77","yes","1024"
"98.7179487179","98.7179487179","497.897435897","497.897435897","black","legacy","legacy","legacy","0","congruent","uniform","1","undefined","1","s","0","0","0","0","77","0","0","0","77","0","77","77","77","77","77","77","09/23/21 14:56:38","1500","The main experiment item","yes","FlankerTask.osexp","C:\Users\bryan\OneDrive\Documents\School\PSYC 5316  (Quant Methods)\Lab 2","no","mono","no","18","no","white","no","yes","768","legacy","77","77","C:/Users/bryan/OneDrive/Documents/School/PSYC 5316  (Quant Methods)/Lab 2/BS-subject-3.csv","legacy","Lentiform Loewenfeld","3.3.9","0","s","NA","s","NA","NA","s","468","NA","347878","NA","NA","468","2","legacy","1024","2","48000","-16","experiment","SSSSS","3","odd","350856","NA","NA","NA","483598","2977","NA","NA","360612","2971","NA","484711","484820","485290","484707","484819","Flanker Task","77","38836","78","yes","1024"
"98.7341772152","98.7341772152","498.493670886","498.493670886","black","legacy","legacy","legacy","0","incongruent","uniform","1","undefined","1","s","0","0","0","0","78","0","0","0","78","0","78","78","78","78","78","78","09/23/21 14:56:38","1500","The main experiment item","yes","FlankerTask.osexp","C:\Users\bryan\OneDrive\Documents\School\PSYC 5316  (Quant Methods)\Lab 2","no","mono","no","18","no","white","no","yes","768","legacy","78","78","C:/Users/bryan/OneDrive/Documents/School/PSYC 5316  (Quant Methods)/Lab 2/BS-subject-3.csv","legacy","Lentiform Loewenfeld","3.3.9","0","s","NA","s","NA","NA","s","545","NA","347878","NA","NA","545","2","legacy","1024","2","48000","-16","experiment","HHSHH","3","odd","350856","NA","NA","NA","485301","2977","NA","NA","360612","2971","NA","486426","486534","487080","486421","486534","Flanker Task","78","39381","79","yes","1024"
"98.75","98.75","499.8875","499.8875","black","legacy","legacy","legacy","0","incongruent","uniform","1","undefined","1","h","0","0","0","0","79","0","0","0","79","0","79","79","79","79","79","79","09/23/21 14:56:38","1500","The main experiment item","yes","FlankerTask.osexp","C:\Users\bryan\OneDrive\Documents\School\PSYC 5316  (Quant Methods)\Lab 2","no","mono","no","18","no","white","no","yes","768","legacy","79","79","C:/Users/bryan/OneDrive/Documents/School/PSYC 5316  (Quant Methods)/Lab 2/BS-subject-3.csv","legacy","Lentiform Loewenfeld","3.3.9","0","h","NA","s","NA","NA","h","610","NA","347878","NA","NA","610","2","legacy","1024","2","48000","-16","experiment","SSHSS","3","odd","350856","NA","NA","NA","487087","2977","NA","NA","360612","2971","NA","488195","488299","488910","488191","488299","Flanker Task","79","39991","80","yes","1024"
"98.7654320988","98.7654320988","500.962962963","500.962962963","black","legacy","legacy","legacy","0","incongruent","uniform","1","undefined","1","s","0","0","0","0","80","0","0","0","80","0","80","80","80","80","80","80","09/23/21 14:56:38","600","The main experiment item","yes","FlankerTask.osexp","C:\Users\bryan\OneDrive\Documents\School\PSYC 5316  (Quant Methods)\Lab 2","no","mono","no","18","no","white","no","yes","768","legacy","0","79","C:/Users/bryan/OneDrive/Documents/School/PSYC 5316  (Quant Methods)/Lab 2/BS-subject-3.csv","legacy","Lentiform Loewenfeld","3.3.9","0","s","NA","s","h","NA","s","587","NA","347878","29654","NA","587","2","legacy","1024","2","48000","-16","experiment","HHSHH","3","odd","350856","519603","NA","NA","488917","2977","489947","NA","360612","2971","NA","519709","519818","520406","519706","519817","Flanker Task","80","40578","81","yes","1024"
"98.7804878049","98.7804878049","500.231707317","500.231707317","black","legacy","legacy","legacy","0","incongruent","uniform","1","undefined","1","s","0","0","0","0","81","0","0","0","81","0","81","81","81","81","81","81","09/23/21 14:56:38","600","The main experiment item","yes","FlankerTask.osexp","C:\Users\bryan\OneDrive\Documents\School\PSYC 5316  (Quant Methods)\Lab 2","no","mono","no","18","no","white","no","yes","768","legacy","1","79","C:/Users/bryan/OneDrive/Documents/School/PSYC 5316  (Quant Methods)/Lab 2/BS-subject-3.csv","legacy","Lentiform Loewenfeld","3.3.9","0","s","NA","s","h","NA","s","441","NA","347878","29654","NA","441","2","legacy","1024","2","48000","-16","experiment","HHSHH","3","odd","350856","519603","NA","NA","520416","2977","489947","NA","360612","2971","NA","521534","521640","522082","521529","521640","Flanker Task","81","41019","82","yes","1024"
"98.7951807229","98.7951807229","498.771084337","498.771084337","black","legacy","legacy","legacy","0","incongruent","uniform","1","undefined","1","s","0","0","0","0","82","0","0","0","82","0","82","82","82","82","82","82","09/23/21 14:56:38","600","The main experiment item","yes","FlankerTask.osexp","C:\Users\bryan\OneDrive\Documents\School\PSYC 5316  (Quant Methods)\Lab 2","no","mono","no","18","no","white","no","yes","768","legacy","2","79","C:/Users/bryan/OneDrive/Documents/School/PSYC 5316  (Quant Methods)/Lab 2/BS-subject-3.csv","legacy","Lentiform Loewenfeld","3.3.9","0","s","NA","s","h","NA","s","379","NA","347878","29654","NA","379","2","legacy","1024","2","48000","-16","experiment","HHSHH","3","odd","350856","519603","NA","NA","522091","2977","489947","NA","360612","2971","NA","523209","523316","523697","523204","523316","Flanker Task","82","41398","83","yes","1024"
"98.8095238095","98.8095238095","497.488095238","497.488095238","black","legacy","legacy","legacy","0","congruent","uniform","1","undefined","1","s","0","0","0","0","83","0","0","0","83","0","83","83","83","83","83","83","09/23/21 14:56:38","600","The main experiment item","yes","FlankerTask.osexp","C:\Users\bryan\OneDrive\Documents\School\PSYC 5316  (Quant Methods)\Lab 2","no","mono","no","18","no","white","no","yes","768","legacy","3","79","C:/Users/bryan/OneDrive/Documents/School/PSYC 5316  (Quant Methods)/Lab 2/BS-subject-3.csv","legacy","Lentiform Loewenfeld","3.3.9","0","s","NA","s","h","NA","s","391","NA","347878","29654","NA","391","2","legacy","1024","2","48000","-16","experiment","SSSSS","3","odd","350856","519603","NA","NA","523706","2977","489947","NA","360612","2971","NA","524823","524932","525324","524819","524931","Flanker Task","83","41789","84","yes","1024"
"98.8235294118","98.8235294118","496.988235294","496.988235294","black","legacy","legacy","legacy","0","incongruent","uniform","1","undefined","1","s","0","0","0","0","84","0","0","0","84","0","84","84","84","84","84","84","09/23/21 14:56:38","600","The main experiment item","yes","FlankerTask.osexp","C:\Users\bryan\OneDrive\Documents\School\PSYC 5316  (Quant Methods)\Lab 2","no","mono","no","18","no","white","no","yes","768","legacy","4","79","C:/Users/bryan/OneDrive/Documents/School/PSYC 5316  (Quant Methods)/Lab 2/BS-subject-3.csv","legacy","Lentiform Loewenfeld","3.3.9","0","s","NA","s","h","NA","s","455","NA","347878","29654","NA","455","2","legacy","1024","2","48000","-16","experiment","HHSHH","3","odd","350856","519603","NA","NA","525333","2977","489947","NA","360612","2971","NA","526448","526557","527014","526444","526556","Flanker Task","84","42244","85","yes","1024"
"98.8372093023","98.8372093023","497.5","497.5","black","legacy","legacy","legacy","0","incongruent","uniform","1","undefined","1","h","0","0","0","0","85","0","0","0","85","0","85","85","85","85","85","85","09/23/21 14:56:38","600","The main experiment item","yes","FlankerTask.osexp","C:\Users\bryan\OneDrive\Documents\School\PSYC 5316  (Quant Methods)\Lab 2","no","mono","no","18","no","white","no","yes","768","legacy","5","79","C:/Users/bryan/OneDrive/Documents/School/PSYC 5316  (Quant Methods)/Lab 2/BS-subject-3.csv","legacy","Lentiform Loewenfeld","3.3.9","0","h","NA","s","h","NA","h","541","NA","347878","29654","NA","541","2","legacy","1024","2","48000","-16","experiment","SSHSS","3","odd","350856","519603","NA","NA","527021","2977","489947","NA","360612","2971","NA","528163","528271","528814","528159","528271","Flanker Task","85","42785","86","yes","1024"
"98.8505747126","98.8505747126","496.862068966","496.862068966","black","legacy","legacy","legacy","0","congruent","uniform","1","undefined","1","s","0","0","0","0","86","0","0","0","86","0","86","86","86","86","86","86","09/23/21 14:56:38","600","The main experiment item","yes","FlankerTask.osexp","C:\Users\bryan\OneDrive\Documents\School\PSYC 5316  (Quant Methods)\Lab 2","no","mono","no","18","no","white","no","yes","768","legacy","6","79","C:/Users/bryan/OneDrive/Documents/School/PSYC 5316  (Quant Methods)/Lab 2/BS-subject-3.csv","legacy","Lentiform Loewenfeld","3.3.9","0","s","NA","s","h","NA","s","442","NA","347878","29654","NA","442","2","legacy","1024","2","48000","-16","experiment","SSSSS","3","odd","350856","519603","NA","NA","528824","2977","489947","NA","360612","2971","NA","529953","530062","530506","529949","530062","Flanker Task","86","43227","87","yes","1024"
"98.8636363636","98.8636363636","495.704545455","495.704545455","black","legacy","legacy","legacy","0","incongruent","uniform","1","undefined","1","s","0","0","0","0","87","0","0","0","87","0","87","87","87","87","87","87","09/23/21 14:56:38","600","The main experiment item","yes","FlankerTask.osexp","C:\Users\bryan\OneDrive\Documents\School\PSYC 5316  (Quant Methods)\Lab 2","no","mono","no","18","no","white","no","yes","768","legacy","7","79","C:/Users/bryan/OneDrive/Documents/School/PSYC 5316  (Quant Methods)/Lab 2/BS-subject-3.csv","legacy","Lentiform Loewenfeld","3.3.9","0","s","NA","s","h","NA","s","395","NA","347878","29654","NA","395","2","legacy","1024","2","48000","-16","experiment","HHSHH","3","odd","350856","519603","NA","NA","530516","2977","489947","NA","360612","2971","NA","531623","531731","532128","531619","531731","Flanker Task","87","43622","88","yes","1024"
"97.7528089888","97.7528089888","495.235955056","495.235955056","black","legacy","legacy","legacy","0","incongruent","uniform","0","undefined","0","h","0","0","0","0","88","0","0","0","88","0","88","88","88","88","88","88","09/23/21 14:56:38","600","The main experiment item","yes","FlankerTask.osexp","C:\Users\bryan\OneDrive\Documents\School\PSYC 5316  (Quant Methods)\Lab 2","no","mono","no","18","no","white","no","yes","768","legacy","8","79","C:/Users/bryan/OneDrive/Documents/School/PSYC 5316  (Quant Methods)/Lab 2/BS-subject-3.csv","legacy","Lentiform Loewenfeld","3.3.9","0","s","NA","s","h","NA","s","454","NA","347878","29654","NA","454","2","legacy","1024","2","48000","-16","experiment","SSHSS","3","odd","350856","519603","NA","NA","532139","2977","489947","NA","360612","2971","NA","533259","533362","533818","533254","533362","Flanker Task","87","44076","89","yes","1024"
"97.7777777778","97.7777777778","496.011111111","496.011111111","black","legacy","legacy","legacy","0","congruent","uniform","1","undefined","1","h","0","0","0","0","89","0","0","0","89","0","89","89","89","89","89","89","09/23/21 14:56:38","600","The main experiment item","yes","FlankerTask.osexp","C:\Users\bryan\OneDrive\Documents\School\PSYC 5316  (Quant Methods)\Lab 2","no","mono","no","18","no","white","no","yes","768","legacy","9","79","C:/Users/bryan/OneDrive/Documents/School/PSYC 5316  (Quant Methods)/Lab 2/BS-subject-3.csv","legacy","Lentiform Loewenfeld","3.3.9","0","h","NA","s","h","NA","h","565","NA","347878","29654","NA","565","2","legacy","1024","2","48000","-16","experiment","HHHHH","3","odd","350856","519603","NA","NA","534334","2977","489947","NA","533824","2971","NA","535446","535554","536121","535441","535554","Flanker Task","88","44641","90","yes","1024"
"97.8021978022","97.8021978022","494.692307692","494.692307692","black","legacy","legacy","legacy","0","congruent","uniform","1","undefined","1","h","0","0","0","0","90","0","0","0","90","0","90","90","90","90","90","90","09/23/21 14:56:38","600","The main experiment item","yes","FlankerTask.osexp","C:\Users\bryan\OneDrive\Documents\School\PSYC 5316  (Quant Methods)\Lab 2","no","mono","no","18","no","white","no","yes","768","legacy","10","79","C:/Users/bryan/OneDrive/Documents/School/PSYC 5316  (Quant Methods)/Lab 2/BS-subject-3.csv","legacy","Lentiform Loewenfeld","3.3.9","0","h","NA","s","h","NA","h","376","NA","347878","29654","NA","376","2","legacy","1024","2","48000","-16","experiment","HHHHH","3","odd","350856","519603","NA","NA","536128","2977","489947","NA","533824","2971","NA","537243","537346","537724","537239","537346","Flanker Task","89","45017","91","yes","1024"
"97.8260869565","97.8260869565","494.130434783","494.130434783","black","legacy","legacy","legacy","0","incongruent","uniform","1","undefined","1","h","0","0","0","0","91","0","0","0","91","0","91","91","91","91","91","91","09/23/21 14:56:38","600","The main experiment item","yes","FlankerTask.osexp","C:\Users\bryan\OneDrive\Documents\School\PSYC 5316  (Quant Methods)\Lab 2","no","mono","no","18","no","white","no","yes","768","legacy","11","79","C:/Users/bryan/OneDrive/Documents/School/PSYC 5316  (Quant Methods)/Lab 2/BS-subject-3.csv","legacy","Lentiform Loewenfeld","3.3.9","0","h","NA","s","h","NA","h","443","NA","347878","29654","NA","443","2","legacy","1024","2","48000","-16","experiment","SSHSS","3","odd","350856","519603","NA","NA","537734","2977","489947","NA","533824","2971","NA","538864","538973","539418","538859","538973","Flanker Task","90","45460","92","yes","1024"
"97.8494623656","97.8494623656","494.548387097","494.548387097","black","legacy","legacy","legacy","0","incongruent","uniform","1","undefined","1","s","0","0","0","0","92","0","0","0","92","0","92","92","92","92","92","92","09/23/21 14:56:38","600","The main experiment item","yes","FlankerTask.osexp","C:\Users\bryan\OneDrive\Documents\School\PSYC 5316  (Quant Methods)\Lab 2","no","mono","no","18","no","white","no","yes","768","legacy","12","79","C:/Users/bryan/OneDrive/Documents/School/PSYC 5316  (Quant Methods)/Lab 2/BS-subject-3.csv","legacy","Lentiform Loewenfeld","3.3.9","0","s","NA","s","h","NA","s","533","NA","347878","29654","NA","533","2","legacy","1024","2","48000","-16","experiment","HHSHH","3","odd","350856","519603","NA","NA","539428","2977","489947","NA","533824","2971","NA","540548","540658","541193","540544","540657","Flanker Task","91","45993","93","yes","1024"
"97.8723404255","97.8723404255","493.574468085","493.574468085","black","legacy","legacy","legacy","0","incongruent","uniform","1","undefined","1","h","0","0","0","0","93","0","0","0","93","0","93","93","93","93","93","93","09/23/21 14:56:38","600","The main experiment item","yes","FlankerTask.osexp","C:\Users\bryan\OneDrive\Documents\School\PSYC 5316  (Quant Methods)\Lab 2","no","mono","no","18","no","white","no","yes","768","legacy","13","79","C:/Users/bryan/OneDrive/Documents/School/PSYC 5316  (Quant Methods)/Lab 2/BS-subject-3.csv","legacy","Lentiform Loewenfeld","3.3.9","0","h","NA","s","h","NA","h","403","NA","347878","29654","NA","403","2","legacy","1024","2","48000","-16","experiment","SSHSS","3","odd","350856","519603","NA","NA","541199","2977","489947","NA","533824","2971","NA","542306","542414","542818","542302","542414","Flanker Task","92","46396","94","yes","1024"
"97.8947368421","97.8947368421","493.105263158","493.105263158","black","legacy","legacy","legacy","0","incongruent","uniform","1","undefined","1","h","0","0","0","0","94","0","0","0","94","0","94","94","94","94","94","94","09/23/21 14:56:38","600","The main experiment item","yes","FlankerTask.osexp","C:\Users\bryan\OneDrive\Documents\School\PSYC 5316  (Quant Methods)\Lab 2","no","mono","no","18","no","white","no","yes","768","legacy","14","79","C:/Users/bryan/OneDrive/Documents/School/PSYC 5316  (Quant Methods)/Lab 2/BS-subject-3.csv","legacy","Lentiform Loewenfeld","3.3.9","0","h","NA","s","h","NA","h","449","NA","347878","29654","NA","449","2","legacy","1024","2","48000","-16","experiment","SSHSS","3","odd","350856","519603","NA","NA","542827","2977","489947","NA","533824","2971","NA","543953","544062","544513","543949","544062","Flanker Task","93","46845","95","yes","1024"
"97.9166666667","97.9166666667","492.416666667","492.416666667","black","legacy","legacy","legacy","0","incongruent","uniform","1","undefined","1","h","0","0","0","0","95","0","0","0","95","0","95","95","95","95","95","95","09/23/21 14:56:38","600","The main experiment item","yes","FlankerTask.osexp","C:\Users\bryan\OneDrive\Documents\School\PSYC 5316  (Quant Methods)\Lab 2","no","mono","no","18","no","white","no","yes","768","legacy","15","79","C:/Users/bryan/OneDrive/Documents/School/PSYC 5316  (Quant Methods)/Lab 2/BS-subject-3.csv","legacy","Lentiform Loewenfeld","3.3.9","0","h","NA","s","h","NA","h","427","NA","347878","29654","NA","427","2","legacy","1024","2","48000","-16","experiment","SSHSS","3","odd","350856","519603","NA","NA","544519","2977","489947","NA","533824","2971","NA","545645","545753","546182","545640","545752","Flanker Task","94","47272","96","yes","1024"
"97.9381443299","97.9381443299","491.773195876","491.773195876","black","legacy","legacy","legacy","0","congruent","uniform","1","undefined","1","h","0","0","0","0","96","0","0","0","96","0","96","96","96","96","96","96","09/23/21 14:56:38","600","The main experiment item","yes","FlankerTask.osexp","C:\Users\bryan\OneDrive\Documents\School\PSYC 5316  (Quant Methods)\Lab 2","no","mono","no","18","no","white","no","yes","768","legacy","16","79","C:/Users/bryan/OneDrive/Documents/School/PSYC 5316  (Quant Methods)/Lab 2/BS-subject-3.csv","legacy","Lentiform Loewenfeld","3.3.9","0","h","NA","s","h","NA","h","430","NA","347878","29654","NA","430","2","legacy","1024","2","48000","-16","experiment","HHHHH","3","odd","350856","519603","NA","NA","546192","2977","489947","NA","533824","2971","NA","547315","547423","547855","547311","547423","Flanker Task","95","47702","97","yes","1024"
"97.9591836735","97.9591836735","492.142857143","492.142857143","black","legacy","legacy","legacy","0","congruent","uniform","1","undefined","1","s","0","0","0","0","97","0","0","0","97","0","97","97","97","97","97","97","09/23/21 14:56:38","600","The main experiment item","yes","FlankerTask.osexp","C:\Users\bryan\OneDrive\Documents\School\PSYC 5316  (Quant Methods)\Lab 2","no","mono","no","18","no","white","no","yes","768","legacy","17","79","C:/Users/bryan/OneDrive/Documents/School/PSYC 5316  (Quant Methods)/Lab 2/BS-subject-3.csv","legacy","Lentiform Loewenfeld","3.3.9","0","s","NA","s","h","NA","s","528","NA","347878","29654","NA","528","2","legacy","1024","2","48000","-16","experiment","SSSSS","3","odd","350856","519603","NA","NA","547866","2977","489947","NA","533824","2971","NA","548983","549091","549621","548978","549091","Flanker Task","96","48230","98","yes","1024"
"97.9797979798","97.9797979798","491.131313131","491.131313131","black","legacy","legacy","legacy","0","incongruent","uniform","1","undefined","1","s","0","0","0","0","98","0","0","0","98","0","98","98","98","98","98","98","09/23/21 14:56:38","600","The main experiment item","yes","FlankerTask.osexp","C:\Users\bryan\OneDrive\Documents\School\PSYC 5316  (Quant Methods)\Lab 2","no","mono","no","18","no","white","no","yes","768","legacy","18","79","C:/Users/bryan/OneDrive/Documents/School/PSYC 5316  (Quant Methods)/Lab 2/BS-subject-3.csv","legacy","Lentiform Loewenfeld","3.3.9","0","s","NA","s","h","NA","s","392","NA","347878","29654","NA","392","2","legacy","1024","2","48000","-16","experiment","HHSHH","3","odd","350856","519603","NA","NA","549632","2977","489947","NA","533824","2971","NA","550746","550854","551248","550741","550854","Flanker Task","97","48622","99","yes","1024"
"98","98","491.38","491.38","black","legacy","legacy","legacy","0","incongruent","uniform","1","undefined","1","h","0","0","0","0","99","0","0","0","99","0","99","99","99","99","99","99","09/23/21 14:56:38","600","The main experiment item","yes","FlankerTask.osexp","C:\Users\bryan\OneDrive\Documents\School\PSYC 5316  (Quant Methods)\Lab 2","no","mono","no","18","no","white","no","yes","768","legacy","19","79","C:/Users/bryan/OneDrive/Documents/School/PSYC 5316  (Quant Methods)/Lab 2/BS-subject-3.csv","legacy","Lentiform Loewenfeld","3.3.9","0","h","NA","s","h","NA","h","516","NA","347878","29654","NA","516","2","legacy","1024","2","48000","-16","experiment","SSHSS","3","odd","350856","519603","NA","NA","551255","2977","489947","NA","533824","2971","NA","552364","552473","552991","552360","552473","Flanker Task","98","49138","100","yes","1024"
"98.0198019802","98.0198019802","491.336633663","491.336633663","black","legacy","legacy","legacy","0","congruent","uniform","1","undefined","1","h","0","0","0","0","100","0","0","0","100","0","100","100","100","100","100","100","09/23/21 14:56:38","600","The main experiment item","yes","FlankerTask.osexp","C:\Users\bryan\OneDrive\Documents\School\PSYC 5316  (Quant Methods)\Lab 2","no","mono","no","18","no","white","no","yes","768","legacy","20","79","C:/Users/bryan/OneDrive/Documents/School/PSYC 5316  (Quant Methods)/Lab 2/BS-subject-3.csv","legacy","Lentiform Loewenfeld","3.3.9","0","h","NA","s","h","NA","h","487","NA","347878","29654","NA","487","2","legacy","1024","2","48000","-16","experiment","HHHHH","3","odd","350856","519603","NA","NA","553001","2977","489947","NA","533824","2971","NA","554125","554235","554724","554121","554234","Flanker Task","99","49625","101","yes","1024"
"98.0392156863","98.0392156863","492.696078431","492.696078431","black","legacy","legacy","legacy","0","congruent","uniform","1","undefined","1","h","0","0","0","0","101","0","0","0","101","0","101","101","101","101","101","101","09/23/21 14:56:38","600","The main experiment item","yes","FlankerTask.osexp","C:\Users\bryan\OneDrive\Documents\School\PSYC 5316  (Quant Methods)\Lab 2","no","mono","no","18","no","white","no","yes","768","legacy","21","79","C:/Users/bryan/OneDrive/Documents/School/PSYC 5316  (Quant Methods)/Lab 2/BS-subject-3.csv","legacy","Lentiform Loewenfeld","3.3.9","0","h","NA","s","h","NA","h","630","NA","347878","29654","NA","630","2","legacy","1024","2","48000","-16","experiment","HHHHH","3","odd","350856","519603","NA","NA","554731","2977","489947","NA","533824","2971","NA","555847","555957","556588","555843","555956","Flanker Task","100","50255","102","yes","1024"
"98.0582524272","98.0582524272","491.67961165","491.67961165","black","legacy","legacy","legacy","0","congruent","uniform","1","undefined","1","h","0","0","0","0","102","0","0","0","102","0","102","102","102","102","102","102","09/23/21 14:56:38","600","The main experiment item","yes","FlankerTask.osexp","C:\Users\bryan\OneDrive\Documents\School\PSYC 5316  (Quant Methods)\Lab 2","no","mono","no","18","no","white","no","yes","768","legacy","22","79","C:/Users/bryan/OneDrive/Documents/School/PSYC 5316  (Quant Methods)/Lab 2/BS-subject-3.csv","legacy","Lentiform Loewenfeld","3.3.9","0","h","NA","s","h","NA","h","388","NA","347878","29654","NA","388","2","legacy","1024","2","48000","-16","experiment","HHHHH","3","odd","350856","519603","NA","NA","557106","2977","489947","NA","533824","2971","556598","558231","558339","558728","558227","558339","Flanker Task","101","50643","103","yes","1024"
"98.0769230769","98.0769230769","490.028846154","490.028846154","black","legacy","legacy","legacy","0","congruent","uniform","1","undefined","1","h","0","0","0","0","103","0","0","0","103","0","103","103","103","103","103","103","09/23/21 14:56:38","600","The main experiment item","yes","FlankerTask.osexp","C:\Users\bryan\OneDrive\Documents\School\PSYC 5316  (Quant Methods)\Lab 2","no","mono","no","18","no","white","no","yes","768","legacy","23","79","C:/Users/bryan/OneDrive/Documents/School/PSYC 5316  (Quant Methods)/Lab 2/BS-subject-3.csv","legacy","Lentiform Loewenfeld","3.3.9","0","h","NA","s","h","NA","h","320","NA","347878","29654","NA","320","2","legacy","1024","2","48000","-16","experiment","HHHHH","3","odd","350856","519603","NA","NA","558737","2977","489947","NA","533824","2971","556598","559842","559951","560273","559837","559950","Flanker Task","102","50963","104","yes","1024"
"98.0952380952","98.0952380952","489.828571429","489.828571429","black","legacy","legacy","legacy","0","incongruent","uniform","1","undefined","1","s","0","0","0","0","104","0","0","0","104","0","104","104","104","104","104","104","09/23/21 14:56:38","600","The main experiment item","yes","FlankerTask.osexp","C:\Users\bryan\OneDrive\Documents\School\PSYC 5316  (Quant Methods)\Lab 2","no","mono","no","18","no","white","no","yes","768","legacy","24","79","C:/Users/bryan/OneDrive/Documents/School/PSYC 5316  (Quant Methods)/Lab 2/BS-subject-3.csv","legacy","Lentiform Loewenfeld","3.3.9","0","s","NA","s","h","NA","s","469","NA","347878","29654","NA","469","2","legacy","1024","2","48000","-16","experiment","HHSHH","3","odd","350856","519603","NA","NA","560279","2977","489947","NA","533824","2971","556598","561393","561501","561972","561388","561501","Flanker Task","103","51432","105","yes","1024"
"98.1132075472","98.1132075472","488.566037736","488.566037736","black","legacy","legacy","legacy","0","congruent","uniform","1","undefined","1","h","0","0","0","0","105","0","0","0","105","0","105","105","105","105","105","105","09/23/21 14:56:38","600","The main experiment item","yes","FlankerTask.osexp","C:\Users\bryan\OneDrive\Documents\School\PSYC 5316  (Quant Methods)\Lab 2","no","mono","no","18","no","white","no","yes","768","legacy","25","79","C:/Users/bryan/OneDrive/Documents/School/PSYC 5316  (Quant Methods)/Lab 2/BS-subject-3.csv","legacy","Lentiform Loewenfeld","3.3.9","0","h","NA","s","h","NA","h","356","NA","347878","29654","NA","356","2","legacy","1024","2","48000","-16","experiment","HHHHH","3","odd","350856","519603","NA","NA","561980","2977","489947","NA","533824","2971","556598","563099","563208","563565","563096","563208","Flanker Task","104","51788","106","yes","1024"
"98.1308411215","98.1308411215","487.869158879","487.869158879","black","legacy","legacy","legacy","0","congruent","uniform","1","undefined","1","s","0","0","0","0","106","0","0","0","106","0","106","106","106","106","106","106","09/23/21 14:56:38","600","The main experiment item","yes","FlankerTask.osexp","C:\Users\bryan\OneDrive\Documents\School\PSYC 5316  (Quant Methods)\Lab 2","no","mono","no","18","no","white","no","yes","768","legacy","26","79","C:/Users/bryan/OneDrive/Documents/School/PSYC 5316  (Quant Methods)/Lab 2/BS-subject-3.csv","legacy","Lentiform Loewenfeld","3.3.9","0","s","NA","s","h","NA","s","414","NA","347878","29654","NA","414","2","legacy","1024","2","48000","-16","experiment","SSSSS","3","odd","350856","519603","NA","NA","563575","2977","489947","NA","533824","2971","556598","564693","564801","565217","564689","564801","Flanker Task","105","52202","107","yes","1024"
"98.1481481481","98.1481481481","488.666666667","488.666666667","black","legacy","legacy","legacy","0","incongruent","uniform","1","undefined","1","s","0","0","0","0","107","0","0","0","107","0","107","107","107","107","107","107","09/23/21 14:56:38","600","The main experiment item","yes","FlankerTask.osexp","C:\Users\bryan\OneDrive\Documents\School\PSYC 5316  (Quant Methods)\Lab 2","no","mono","no","18","no","white","no","yes","768","legacy","27","79","C:/Users/bryan/OneDrive/Documents/School/PSYC 5316  (Quant Methods)/Lab 2/BS-subject-3.csv","legacy","Lentiform Loewenfeld","3.3.9","0","s","NA","s","h","NA","s","574","NA","347878","29654","NA","574","2","legacy","1024","2","48000","-16","experiment","HHSHH","3","odd","350856","519603","NA","NA","565224","2977","489947","NA","533824","2971","556598","566343","566446","567021","566339","566446","Flanker Task","106","52776","108","yes","1024"
"98.1651376147","98.1651376147","488.467889908","488.467889908","black","legacy","legacy","legacy","0","congruent","uniform","1","undefined","1","s","0","0","0","0","108","0","0","0","108","0","108","108","108","108","108","108","09/23/21 14:56:38","600","The main experiment item","yes","FlankerTask.osexp","C:\Users\bryan\OneDrive\Documents\School\PSYC 5316  (Quant Methods)\Lab 2","no","mono","no","18","no","white","no","yes","768","legacy","28","79","C:/Users/bryan/OneDrive/Documents/School/PSYC 5316  (Quant Methods)/Lab 2/BS-subject-3.csv","legacy","Lentiform Loewenfeld","3.3.9","0","s","NA","s","h","NA","s","467","NA","347878","29654","NA","467","2","legacy","1024","2","48000","-16","experiment","SSSSS","3","odd","350856","519603","NA","NA","567030","2977","489947","NA","533824","2971","556598","568145","568252","568722","568141","568252","Flanker Task","107","53243","109","yes","1024"
"98.1818181818","98.1818181818","488.981818182","488.981818182","black","legacy","legacy","legacy","0","incongruent","uniform","1","undefined","1","h","0","0","0","0","109","0","0","0","109","0","109","109","109","109","109","109","09/23/21 14:56:38","600","The main experiment item","yes","FlankerTask.osexp","C:\Users\bryan\OneDrive\Documents\School\PSYC 5316  (Quant Methods)\Lab 2","no","mono","no","18","no","white","no","yes","768","legacy","29","79","C:/Users/bryan/OneDrive/Documents/School/PSYC 5316  (Quant Methods)/Lab 2/BS-subject-3.csv","legacy","Lentiform Loewenfeld","3.3.9","0","h","NA","s","h","NA","h","545","NA","347878","29654","NA","545","2","legacy","1024","2","48000","-16","experiment","SSHSS","3","odd","350856","519603","NA","NA","568731","2977","489947","NA","533824","2971","556598","569849","569957","570504","569844","569957","Flanker Task","108","53788","110","yes","1024"
"98.1981981982","98.1981981982","489.432432432","489.432432432","black","legacy","legacy","legacy","0","congruent","uniform","1","undefined","1","s","0","0","0","0","110","0","0","0","110","0","110","110","110","110","110","110","09/23/21 14:56:38","600","The main experiment item","yes","FlankerTask.osexp","C:\Users\bryan\OneDrive\Documents\School\PSYC 5316  (Quant Methods)\Lab 2","no","mono","no","18","no","white","no","yes","768","legacy","30","79","C:/Users/bryan/OneDrive/Documents/School/PSYC 5316  (Quant Methods)/Lab 2/BS-subject-3.csv","legacy","Lentiform Loewenfeld","3.3.9","0","s","NA","s","h","NA","s","539","NA","347878","29654","NA","539","2","legacy","1024","2","48000","-16","experiment","SSSSS","3","odd","350856","519603","NA","NA","570511","2977","489947","NA","533824","2971","556598","571617","571726","572267","571612","571725","Flanker Task","109","54327","111","yes","1024"
