"acc","accuracy","average_response_time","avg_rt","background","canvas_backend","clock_backend","color_backend","compensation","condition","coordinates","correct","correct_instructions","correct_keyboard_response","correct_response","count_ISI","count_block1","count_block2","count_block3","count_errorFeedback","count_experiment","count_faster","count_finish","count_fixation","count_instructions","count_instructions2","count_instructions3","count_keyboard_response","count_logger","count_sequence","count_stimulus","datetime","deadline","description","disable_garbage_collection","experiment_file","experiment_path","font_bold","font_family","font_italic","font_size","font_underline","foreground","form_clicks","fullscreen","height","keyboard_backend","live_row","live_row_block1","logfile","mouse_backend","opensesame_codename","opensesame_version","repeat_cycle","response","response_finish","response_instructions","response_instructions2","response_instructions3","response_keyboard_response","response_time","response_time_finish","response_time_instructions","response_time_instructions2","response_time_instructions3","response_time_keyboard_response","round_decimals","sampler_backend","sound_buf_size","sound_channels","sound_freq","sound_sample_size","start","stimulus","subject_nr","subject_parity","time_ISI","time_block1","time_block2","time_block3","time_errorFeedback","time_experiment","time_faster","time_finish","time_fixation","time_instructions","time_instructions2","time_instructions3","time_keyboard_response","time_logger","time_sequence","time_stimulus","title","total_correct","total_response_time","total_responses","uniform_coordinates","width"
"0","0","1500","1500","black","legacy","legacy","legacy","0","incongruent","uniform","0","undefined","0","s","0","0","0","0","0","0","0","0","0","0","0","0","0","0","0","0","Sat Sep 26 14:36:14 2020","1500","The main experiment item","yes","FlankerTask.osexp","/Users/suzannejosey","no","mono","no","18","no","white","no","yes","768","legacy","0","0","/Users/suzannejosey/subject-4.csv","legacy","Lentiform Loewenfeld","3.3.3","0","None","NA","s","NA","NA","None","1500","NA","30281","NA","NA","1500","2","legacy","1024","2","48000","-16","experiment","HHSHH","4","even","NA","32950","NA","NA","NA","2638","NA","NA","33009","2649","NA","NA","33123","34623","33000","33123","Flanker Task","0","1500","1","yes","1024"
"50","50","1309.5","1309.5","black","legacy","legacy","legacy","0","congruent","uniform","1","undefined","1","h","1","0","0","0","1","0","1","0","1","0","0","0","1","1","1","1","Sat Sep 26 14:36:14 2020","1500","The main experiment item","yes","FlankerTask.osexp","/Users/suzannejosey","no","mono","no","18","no","white","no","yes","768","legacy","1","1","/Users/suzannejosey/subject-4.csv","legacy","Lentiform Loewenfeld","3.3.3","0","h","NA","s","NA","NA","h","1119","NA","30281","NA","NA","1119","2","legacy","1024","2","48000","-16","experiment","HHHHH","4","even","35152","32950","NA","NA","34638","2638","NA","NA","36220","2649","NA","NA","36334","37454","36211","36334","Flanker Task","1","2619","2","yes","1024"
"66.66666666666667","66.66666666666667","1037.3333333333333","1037.3333333333333","black","legacy","legacy","legacy","0","congruent","uniform","1","undefined","1","s","2","0","0","0","2","0","2","0","2","0","0","0","2","2","2","2","Sat Sep 26 14:36:14 2020","1500","The main experiment item","yes","FlankerTask.osexp","/Users/suzannejosey","no","mono","no","18","no","white","no","yes","768","legacy","2","2","/Users/suzannejosey/subject-4.csv","legacy","Lentiform Loewenfeld","3.3.3","0","s","NA","s","NA","NA","s","493","NA","30281","NA","NA","493","2","legacy","1024","2","48000","-16","experiment","SSSSS","4","even","37467","32950","NA","NA","34638","2638","NA","NA","38524","2649","NA","NA","38638","39131","38515","38638","Flanker Task","2","3112","3","yes","1024"
"75","75","917.5","917.5","black","legacy","legacy","legacy","0","congruent","uniform","1","undefined","1","h","3","0","0","0","3","0","3","0","3","0","0","0","3","3","3","3","Sat Sep 26 14:36:14 2020","1500","The main experiment item","yes","FlankerTask.osexp","/Users/suzannejosey","no","mono","no","18","no","white","no","yes","768","legacy","3","3","/Users/suzannejosey/subject-4.csv","legacy","Lentiform Loewenfeld","3.3.3","0","h","NA","s","NA","NA","h","558","NA","30281","NA","NA","558","2","legacy","1024","2","48000","-16","experiment","HHHHH","4","even","39144","32950","NA","NA","34638","2638","NA","NA","40222","2649","NA","NA","40336","40895","40209","40336","Flanker Task","3","3670","4","yes","1024"
"80","80","835.4","835.4","black","legacy","legacy","legacy","0","congruent","uniform","1","undefined","1","s","4","0","0","0","4","0","4","0","4","0","0","0","4","4","4","4","Sat Sep 26 14:36:14 2020","1500","The main experiment item","yes","FlankerTask.osexp","/Users/suzannejosey","no","mono","no","18","no","white","no","yes","768","legacy","4","4","/Users/suzannejosey/subject-4.csv","legacy","Lentiform Loewenfeld","3.3.3","0","s","NA","s","NA","NA","s","507","NA","30281","NA","NA","507","2","legacy","1024","2","48000","-16","experiment","SSSSS","4","even","40909","32950","NA","NA","34638","2638","NA","NA","41985","2649","NA","NA","42099","42606","41973","42099","Flanker Task","4","4177","5","yes","1024"
"83.33333333333333","83.33333333333333","773.8333333333334","773.8333333333334","black","legacy","legacy","legacy","0","congruent","uniform","1","undefined","1","s","5","0","0","0","5","0","5","0","5","0","0","0","5","5","5","5","Sat Sep 26 14:36:14 2020","1500","The main experiment item","yes","FlankerTask.osexp","/Users/suzannejosey","no","mono","no","18","no","white","no","yes","768","legacy","5","5","/Users/suzannejosey/subject-4.csv","legacy","Lentiform Loewenfeld","3.3.3","0","s","NA","s","NA","NA","s","466","NA","30281","NA","NA","466","2","legacy","1024","2","48000","-16","experiment","SSSSS","4","even","42620","32950","NA","NA","34638","2638","NA","NA","43695","2649","NA","NA","43809","44276","43683","43809","Flanker Task","5","4643","6","yes","1024"
"71.42857142857143","71.42857142857143","729.1428571428571","729.1428571428571","black","legacy","legacy","legacy","0","incongruent","uniform","0","undefined","0","h","6","0","0","0","6","0","6","0","6","0","0","0","6","6","6","6","Sat Sep 26 14:36:14 2020","1500","The main experiment item","yes","FlankerTask.osexp","/Users/suzannejosey","no","mono","no","18","no","white","no","yes","768","legacy","6","6","/Users/suzannejosey/subject-4.csv","legacy","Lentiform Loewenfeld","3.3.3","0","s","NA","s","NA","NA","s","461","NA","30281","NA","NA","461","2","legacy","1024","2","48000","-16","experiment","SSHSS","4","even","44290","32950","NA","NA","34638","2638","NA","NA","45364","2649","NA","NA","45478","45940","45351","45478","Flanker Task","5","5104","7","yes","1024"
"75","75","690.625","690.625","black","legacy","legacy","legacy","0","incongruent","uniform","1","undefined","1","h","7","0","0","0","7","0","7","0","7","0","0","0","7","7","7","7","Sat Sep 26 14:36:14 2020","1500","The main experiment item","yes","FlankerTask.osexp","/Users/suzannejosey","no","mono","no","18","no","white","no","yes","768","legacy","7","7","/Users/suzannejosey/subject-4.csv","legacy","Lentiform Loewenfeld","3.3.3","0","h","NA","s","NA","NA","h","421","NA","30281","NA","NA","421","2","legacy","1024","2","48000","-16","experiment","SSHSS","4","even","46466","32950","NA","NA","45953","2638","NA","NA","47542","2649","NA","NA","47656","48078","47530","47656","Flanker Task","6","5525","8","yes","1024"
"77.77777777777777","77.77777777777777","672.3333333333334","672.3333333333334","black","legacy","legacy","legacy","0","congruent","uniform","1","undefined","1","s","8","0","0","0","8","0","8","0","8","0","0","0","8","8","8","8","Sat Sep 26 14:36:14 2020","1500","The main experiment item","yes","FlankerTask.osexp","/Users/suzannejosey","no","mono","no","18","no","white","no","yes","768","legacy","8","8","/Users/suzannejosey/subject-4.csv","legacy","Lentiform Loewenfeld","3.3.3","0","s","NA","s","NA","NA","s","526","NA","30281","NA","NA","526","2","legacy","1024","2","48000","-16","experiment","SSSSS","4","even","48092","32950","NA","NA","45953","2638","NA","NA","49172","2649","NA","NA","49286","49813","49159","49286","Flanker Task","7","6051","9","yes","1024"
"80","80","644.5","644.5","black","legacy","legacy","legacy","0","congruent","uniform","1","undefined","1","h","9","0","0","0","9","0","9","0","9","0","0","0","9","9","9","9","Sat Sep 26 14:36:14 2020","1500","The main experiment item","yes","FlankerTask.osexp","/Users/suzannejosey","no","mono","no","18","no","white","no","yes","768","legacy","9","9","/Users/suzannejosey/subject-4.csv","legacy","Lentiform Loewenfeld","3.3.3","0","h","NA","s","NA","NA","h","394","NA","30281","NA","NA","394","2","legacy","1024","2","48000","-16","experiment","HHHHH","4","even","49827","32950","NA","NA","45953","2638","NA","NA","50901","2649","NA","NA","51014","51409","50889","51014","Flanker Task","8","6445","10","yes","1024"
"81.81818181818181","81.81818181818181","624.9090909090909","624.9090909090909","black","legacy","legacy","legacy","0","incongruent","uniform","1","undefined","1","h","10","0","0","0","10","0","10","0","10","0","0","0","10","10","10","10","Sat Sep 26 14:36:14 2020","1500","The main experiment item","yes","FlankerTask.osexp","/Users/suzannejosey","no","mono","no","18","no","white","no","yes","768","legacy","10","10","/Users/suzannejosey/subject-4.csv","legacy","Lentiform Loewenfeld","3.3.3","0","h","NA","s","NA","NA","h","429","NA","30281","NA","NA","429","2","legacy","1024","2","48000","-16","experiment","SSHSS","4","even","51423","32950","NA","NA","45953","2638","NA","NA","52497","2649","NA","NA","52609","53039","52485","52609","Flanker Task","9","6874","11","yes","1024"
"75","75","618.25","618.25","black","legacy","legacy","legacy","0","incongruent","uniform","0","undefined","0","s","11","0","0","0","11","0","11","0","11","0","0","0","11","11","11","11","Sat Sep 26 14:36:14 2020","1500","The main experiment item","yes","FlankerTask.osexp","/Users/suzannejosey","no","mono","no","18","no","white","no","yes","768","legacy","11","11","/Users/suzannejosey/subject-4.csv","legacy","Lentiform Loewenfeld","3.3.3","0","h","NA","s","NA","NA","h","545","NA","30281","NA","NA","545","2","legacy","1024","2","48000","-16","experiment","HHSHH","4","even","53053","32950","NA","NA","45953","2638","NA","NA","54127","2649","NA","NA","54241","54787","54115","54241","Flanker Task","9","7419","12","yes","1024"
"76.92307692307692","76.92307692307692","603.3846153846154","603.3846153846154","black","legacy","legacy","legacy","0","incongruent","uniform","1","undefined","1","h","12","0","0","0","12","0","12","0","12","0","0","0","12","12","12","12","Sat Sep 26 14:36:14 2020","1500","The main experiment item","yes","FlankerTask.osexp","/Users/suzannejosey","no","mono","no","18","no","white","no","yes","768","legacy","12","12","/Users/suzannejosey/subject-4.csv","legacy","Lentiform Loewenfeld","3.3.3","0","h","NA","s","NA","NA","h","425","NA","30281","NA","NA","425","2","legacy","1024","2","48000","-16","experiment","SSHSS","4","even","55314","32950","NA","NA","54801","2638","NA","NA","56389","2649","NA","NA","56504","56930","56377","56504","Flanker Task","10","7844","13","yes","1024"
"78.57142857142857","78.57142857142857","591.6428571428571","591.6428571428571","black","legacy","legacy","legacy","0","incongruent","uniform","1","undefined","1","h","13","0","0","0","13","0","13","0","13","0","0","0","13","13","13","13","Sat Sep 26 14:36:14 2020","1500","The main experiment item","yes","FlankerTask.osexp","/Users/suzannejosey","no","mono","no","18","no","white","no","yes","768","legacy","13","13","/Users/suzannejosey/subject-4.csv","legacy","Lentiform Loewenfeld","3.3.3","0","h","NA","s","NA","NA","h","439","NA","30281","NA","NA","439","2","legacy","1024","2","48000","-16","experiment","SSHSS","4","even","56944","32950","NA","NA","54801","2638","NA","NA","58017","2649","NA","NA","58129","58569","58005","58129","Flanker Task","11","8283","14","yes","1024"
"73.33333333333333","73.33333333333333","582.2","582.2","black","legacy","legacy","legacy","0","incongruent","uniform","0","undefined","0","s","14","0","0","0","14","0","14","0","14","0","0","0","14","14","14","14","Sat Sep 26 14:36:14 2020","1500","The main experiment item","yes","FlankerTask.osexp","/Users/suzannejosey","no","mono","no","18","no","white","no","yes","768","legacy","14","14","/Users/suzannejosey/subject-4.csv","legacy","Lentiform Loewenfeld","3.3.3","0","h","NA","s","NA","NA","h","450","NA","30281","NA","NA","450","2","legacy","1024","2","48000","-16","experiment","HHSHH","4","even","58583","32950","NA","NA","54801","2638","NA","NA","59656","2649","NA","NA","59770","60221","59644","59770","Flanker Task","11","8733","15","yes","1024"
"75","75","576.9375","576.9375","black","legacy","legacy","legacy","0","congruent","uniform","1","undefined","1","s","15","0","0","0","15","0","15","0","15","0","0","0","15","15","15","15","Sat Sep 26 14:36:14 2020","1500","The main experiment item","yes","FlankerTask.osexp","/Users/suzannejosey","no","mono","no","18","no","white","no","yes","768","legacy","15","15","/Users/suzannejosey/subject-4.csv","legacy","Lentiform Loewenfeld","3.3.3","0","s","NA","s","NA","NA","s","498","NA","30281","NA","NA","498","2","legacy","1024","2","48000","-16","experiment","SSSSS","4","even","60748","32950","NA","NA","60234","2638","NA","NA","61824","2649","NA","NA","61938","62437","61812","61938","Flanker Task","12","9231","16","yes","1024"
"76.47058823529412","76.47058823529412","567.6470588235294","567.6470588235294","black","legacy","legacy","legacy","0","congruent","uniform","1","undefined","1","h","16","0","0","0","16","0","16","0","16","0","0","0","16","16","16","16","Sat Sep 26 14:36:14 2020","1500","The main experiment item","yes","FlankerTask.osexp","/Users/suzannejosey","no","mono","no","18","no","white","no","yes","768","legacy","16","16","/Users/suzannejosey/subject-4.csv","legacy","Lentiform Loewenfeld","3.3.3","0","h","NA","s","NA","NA","h","419","NA","30281","NA","NA","419","2","legacy","1024","2","48000","-16","experiment","HHHHH","4","even","62451","32950","NA","NA","60234","2638","NA","NA","63525","2649","NA","NA","63639","64059","63513","63639","Flanker Task","13","9650","17","yes","1024"
"77.77777777777777","77.77777777777777","571.8333333333334","571.8333333333334","black","legacy","legacy","legacy","0","incongruent","uniform","1","undefined","1","h","17","0","0","0","17","0","17","0","17","0","0","0","17","17","17","17","Sat Sep 26 14:36:14 2020","1500","The main experiment item","yes","FlankerTask.osexp","/Users/suzannejosey","no","mono","no","18","no","white","no","yes","768","legacy","17","17","/Users/suzannejosey/subject-4.csv","legacy","Lentiform Loewenfeld","3.3.3","0","h","NA","s","NA","NA","h","643","NA","30281","NA","NA","643","2","legacy","1024","2","48000","-16","experiment","SSHSS","4","even","64072","32950","NA","NA","60234","2638","NA","NA","65146","2649","NA","NA","65260","65904","65134","65260","Flanker Task","14","10293","18","yes","1024"
"78.94736842105263","78.94736842105263","564.1052631578947","564.1052631578947","black","legacy","legacy","legacy","0","congruent","uniform","1","undefined","1","s","18","0","0","0","18","0","18","0","18","0","0","0","18","18","18","18","Sat Sep 26 14:36:14 2020","1500","The main experiment item","yes","FlankerTask.osexp","/Users/suzannejosey","no","mono","no","18","no","white","no","yes","768","legacy","18","18","/Users/suzannejosey/subject-4.csv","legacy","Lentiform Loewenfeld","3.3.3","0","s","NA","s","NA","NA","s","425","NA","30281","NA","NA","425","2","legacy","1024","2","48000","-16","experiment","SSSSS","4","even","65918","32950","NA","NA","60234","2638","NA","NA","66995","2649","NA","NA","67109","67535","66982","67109","Flanker Task","15","10718","19","yes","1024"
"80","80","562.2","562.2","black","legacy","legacy","legacy","0","incongruent","uniform","1","undefined","1","h","19","0","0","0","19","0","19","0","19","0","0","0","19","19","19","19","Sat Sep 26 14:36:14 2020","1500","The main experiment item","yes","FlankerTask.osexp","/Users/suzannejosey","no","mono","no","18","no","white","no","yes","768","legacy","19","19","/Users/suzannejosey/subject-4.csv","legacy","Lentiform Loewenfeld","3.3.3","0","h","NA","s","NA","NA","h","526","NA","30281","NA","NA","526","2","legacy","1024","2","48000","-16","experiment","SSHSS","4","even","67548","32950","NA","NA","60234","2638","NA","NA","68623","2649","NA","NA","68742","69269","68611","68742","Flanker Task","16","11244","20","yes","1024"
"80.95238095238095","80.95238095238095","557","557","black","legacy","legacy","legacy","0","incongruent","uniform","1","undefined","1","h","20","0","0","0","20","0","20","0","20","0","0","0","20","20","20","20","Sat Sep 26 14:36:14 2020","1500","The main experiment item","yes","FlankerTask.osexp","/Users/suzannejosey","no","mono","no","18","no","white","no","yes","768","legacy","20","20","/Users/suzannejosey/subject-4.csv","legacy","Lentiform Loewenfeld","3.3.3","0","h","NA","s","NA","NA","h","453","NA","30281","NA","NA","453","2","legacy","1024","2","48000","-16","experiment","SSHSS","4","even","69284","32950","NA","NA","60234","2638","NA","NA","70357","2649","NA","NA","70471","70925","70345","70471","Flanker Task","17","11697","21","yes","1024"
"81.81818181818181","81.81818181818181","552.8181818181819","552.8181818181819","black","legacy","legacy","legacy","0","incongruent","uniform","1","undefined","1","h","21","0","0","0","21","0","21","0","21","0","0","0","21","21","21","21","Sat Sep 26 14:36:14 2020","1500","The main experiment item","yes","FlankerTask.osexp","/Users/suzannejosey","no","mono","no","18","no","white","no","yes","768","legacy","21","21","/Users/suzannejosey/subject-4.csv","legacy","Lentiform Loewenfeld","3.3.3","0","h","NA","s","NA","NA","h","465","NA","30281","NA","NA","465","2","legacy","1024","2","48000","-16","experiment","SSHSS","4","even","70939","32950","NA","NA","60234","2638","NA","NA","72015","2649","NA","NA","72129","72595","72003","72129","Flanker Task","18","12162","22","yes","1024"
"82.6086956521739","82.6086956521739","549.8260869565217","549.8260869565217","black","legacy","legacy","legacy","0","congruent","uniform","1","undefined","1","h","22","0","0","0","22","0","22","0","22","0","0","0","22","22","22","22","Sat Sep 26 14:36:14 2020","1500","The main experiment item","yes","FlankerTask.osexp","/Users/suzannejosey","no","mono","no","18","no","white","no","yes","768","legacy","22","22","/Users/suzannejosey/subject-4.csv","legacy","Lentiform Loewenfeld","3.3.3","0","h","NA","s","NA","NA","h","484","NA","30281","NA","NA","484","2","legacy","1024","2","48000","-16","experiment","HHHHH","4","even","72608","32950","NA","NA","60234","2638","NA","NA","73681","2649","NA","NA","73795","74280","73669","73795","Flanker Task","19","12646","23","yes","1024"
"83.33333333333333","83.33333333333333","551.375","551.375","black","legacy","legacy","legacy","0","incongruent","uniform","1","undefined","1","s","23","0","0","0","23","0","23","0","23","0","0","0","23","23","23","23","Sat Sep 26 14:36:14 2020","1500","The main experiment item","yes","FlankerTask.osexp","/Users/suzannejosey","no","mono","no","18","no","white","no","yes","768","legacy","23","23","/Users/suzannejosey/subject-4.csv","legacy","Lentiform Loewenfeld","3.3.3","0","s","NA","s","NA","NA","s","587","NA","30281","NA","NA","587","2","legacy","1024","2","48000","-16","experiment","HHSHH","4","even","74294","32950","NA","NA","60234","2638","NA","NA","75368","2649","NA","NA","75482","76070","75356","75482","Flanker Task","20","13233","24","yes","1024"
"84","84","547.96","547.96","black","legacy","legacy","legacy","0","congruent","uniform","1","undefined","1","h","24","0","0","0","24","0","24","0","24","0","0","0","24","24","24","24","Sat Sep 26 14:36:14 2020","1500","The main experiment item","yes","FlankerTask.osexp","/Users/suzannejosey","no","mono","no","18","no","white","no","yes","768","legacy","24","24","/Users/suzannejosey/subject-4.csv","legacy","Lentiform Loewenfeld","3.3.3","0","h","NA","s","NA","NA","h","466","NA","30281","NA","NA","466","2","legacy","1024","2","48000","-16","experiment","HHHHH","4","even","76083","32950","NA","NA","60234","2638","NA","NA","77160","2649","NA","NA","77273","77740","77146","77273","Flanker Task","21","13699","25","yes","1024"
"84.61538461538461","84.61538461538461","545","545","black","legacy","legacy","legacy","0","congruent","uniform","1","undefined","1","h","25","0","0","0","25","0","25","0","25","0","0","0","25","25","25","25","Sat Sep 26 14:36:14 2020","1500","The main experiment item","yes","FlankerTask.osexp","/Users/suzannejosey","no","mono","no","18","no","white","no","yes","768","legacy","25","25","/Users/suzannejosey/subject-4.csv","legacy","Lentiform Loewenfeld","3.3.3","0","h","NA","s","NA","NA","h","471","NA","30281","NA","NA","471","2","legacy","1024","2","48000","-16","experiment","HHHHH","4","even","77756","32950","NA","NA","60234","2638","NA","NA","78838","2649","NA","NA","78955","79427","78824","78955","Flanker Task","22","14170","26","yes","1024"
"85.18518518518519","85.18518518518519","540.2962962962963","540.2962962962963","black","legacy","legacy","legacy","0","incongruent","uniform","1","undefined","1","h","26","0","0","0","26","0","26","0","26","0","0","0","26","26","26","26","Sat Sep 26 14:36:14 2020","1500","The main experiment item","yes","FlankerTask.osexp","/Users/suzannejosey","no","mono","no","18","no","white","no","yes","768","legacy","26","26","/Users/suzannejosey/subject-4.csv","legacy","Lentiform Loewenfeld","3.3.3","0","h","NA","s","NA","NA","h","418","NA","30281","NA","NA","418","2","legacy","1024","2","48000","-16","experiment","SSHSS","4","even","79447","32950","NA","NA","60234","2638","NA","NA","80535","2649","NA","NA","80653","81073","80519","80653","Flanker Task","23","14588","27","yes","1024"
"85.71428571428571","85.71428571428571","537.8928571428571","537.8928571428571","black","legacy","legacy","legacy","0","congruent","uniform","1","undefined","1","h","27","0","0","0","27","0","27","0","27","0","0","0","27","27","27","27","Sat Sep 26 14:36:14 2020","1500","The main experiment item","yes","FlankerTask.osexp","/Users/suzannejosey","no","mono","no","18","no","white","no","yes","768","legacy","27","27","/Users/suzannejosey/subject-4.csv","legacy","Lentiform Loewenfeld","3.3.3","0","h","NA","s","NA","NA","h","473","NA","30281","NA","NA","473","2","legacy","1024","2","48000","-16","experiment","HHHHH","4","even","81095","32950","NA","NA","60234","2638","NA","NA","82193","2649","NA","NA","82313","82788","82175","82313","Flanker Task","24","15061","28","yes","1024"
"86.20689655172414","86.20689655172414","533.3103448275862","533.3103448275862","black","legacy","legacy","legacy","0","congruent","uniform","1","undefined","1","s","28","0","0","0","28","0","28","0","28","0","0","0","28","28","28","28","Sat Sep 26 14:36:14 2020","1500","The main experiment item","yes","FlankerTask.osexp","/Users/suzannejosey","no","mono","no","18","no","white","no","yes","768","legacy","28","28","/Users/suzannejosey/subject-4.csv","legacy","Lentiform Loewenfeld","3.3.3","0","s","NA","s","NA","NA","s","405","NA","30281","NA","NA","405","2","legacy","1024","2","48000","-16","experiment","SSSSS","4","even","82811","32950","NA","NA","60234","2638","NA","NA","83915","2649","NA","NA","84034","84441","83895","84034","Flanker Task","25","15466","29","yes","1024"
"86.66666666666667","86.66666666666667","533.7333333333333","533.7333333333333","black","legacy","legacy","legacy","0","congruent","uniform","1","undefined","1","s","29","0","0","0","29","0","29","0","29","0","0","0","29","29","29","29","Sat Sep 26 14:36:14 2020","1500","The main experiment item","yes","FlankerTask.osexp","/Users/suzannejosey","no","mono","no","18","no","white","no","yes","768","legacy","29","29","/Users/suzannejosey/subject-4.csv","legacy","Lentiform Loewenfeld","3.3.3","0","s","NA","s","NA","NA","s","546","NA","30281","NA","NA","546","2","legacy","1024","2","48000","-16","experiment","SSSSS","4","even","84465","32950","NA","NA","60234","2638","NA","NA","85575","2649","NA","NA","85696","86244","85555","85696","Flanker Task","26","16012","30","yes","1024"
"83.87096774193549","83.87096774193549","536.0322580645161","536.0322580645161","black","legacy","legacy","legacy","0","incongruent","uniform","0","undefined","0","s","30","0","0","0","30","0","30","0","30","0","0","0","30","30","30","30","Sat Sep 26 14:36:14 2020","1500","The main experiment item","yes","FlankerTask.osexp","/Users/suzannejosey","no","mono","no","18","no","white","no","yes","768","legacy","30","30","/Users/suzannejosey/subject-4.csv","legacy","Lentiform Loewenfeld","3.3.3","0","h","NA","s","NA","NA","h","605","NA","30281","NA","NA","605","2","legacy","1024","2","48000","-16","experiment","HHSHH","4","even","86269","32950","NA","NA","60234","2638","NA","NA","87344","2649","NA","NA","87459","88065","87332","87459","Flanker Task","26","16617","31","yes","1024"
"84.375","84.375","537.40625","537.40625","black","legacy","legacy","legacy","0","incongruent","uniform","1","undefined","1","h","31","0","0","0","31","0","31","0","31","0","0","0","31","31","31","31","Sat Sep 26 14:36:14 2020","1500","The main experiment item","yes","FlankerTask.osexp","/Users/suzannejosey","no","mono","no","18","no","white","no","yes","768","legacy","31","31","/Users/suzannejosey/subject-4.csv","legacy","Lentiform Loewenfeld","3.3.3","0","h","NA","s","NA","NA","h","580","NA","30281","NA","NA","580","2","legacy","1024","2","48000","-16","experiment","SSHSS","4","even","88592","32950","NA","NA","88078","2638","NA","NA","89666","2649","NA","NA","89780","90361","89654","89780","Flanker Task","27","17197","32","yes","1024"
"84.84848484848484","84.84848484848484","535.6060606060606","535.6060606060606","black","legacy","legacy","legacy","0","incongruent","uniform","1","undefined","1","s","32","0","0","0","32","0","32","0","32","0","0","0","32","32","32","32","Sat Sep 26 14:36:14 2020","1500","The main experiment item","yes","FlankerTask.osexp","/Users/suzannejosey","no","mono","no","18","no","white","no","yes","768","legacy","32","32","/Users/suzannejosey/subject-4.csv","legacy","Lentiform Loewenfeld","3.3.3","0","s","NA","s","NA","NA","s","478","NA","30281","NA","NA","478","2","legacy","1024","2","48000","-16","experiment","HHSHH","4","even","90374","32950","NA","NA","88078","2638","NA","NA","91448","2649","NA","NA","91560","92039","91436","91560","Flanker Task","28","17675","33","yes","1024"
"85.29411764705883","85.29411764705883","532.2941176470588","532.2941176470588","black","legacy","legacy","legacy","0","congruent","uniform","1","undefined","1","h","33","0","0","0","33","0","33","0","33","0","0","0","33","33","33","33","Sat Sep 26 14:36:14 2020","1500","The main experiment item","yes","FlankerTask.osexp","/Users/suzannejosey","no","mono","no","18","no","white","no","yes","768","legacy","33","33","/Users/suzannejosey/subject-4.csv","legacy","Lentiform Loewenfeld","3.3.3","0","h","NA","s","NA","NA","h","423","NA","30281","NA","NA","423","2","legacy","1024","2","48000","-16","experiment","HHHHH","4","even","92052","32950","NA","NA","88078","2638","NA","NA","93126","2649","NA","NA","93240","93664","93114","93240","Flanker Task","29","18098","34","yes","1024"
"85.71428571428571","85.71428571428571","530","530","black","legacy","legacy","legacy","0","congruent","uniform","1","undefined","1","h","34","0","0","0","34","0","34","0","34","0","0","0","34","34","34","34","Sat Sep 26 14:36:14 2020","1500","The main experiment item","yes","FlankerTask.osexp","/Users/suzannejosey","no","mono","no","18","no","white","no","yes","768","legacy","34","34","/Users/suzannejosey/subject-4.csv","legacy","Lentiform Loewenfeld","3.3.3","0","h","NA","s","NA","NA","h","452","NA","30281","NA","NA","452","2","legacy","1024","2","48000","-16","experiment","HHHHH","4","even","93677","32950","NA","NA","88078","2638","NA","NA","94751","2649","NA","NA","94865","95318","94739","94865","Flanker Task","30","18550","35","yes","1024"
"86.11111111111111","86.11111111111111","529.6111111111111","529.6111111111111","black","legacy","legacy","legacy","0","incongruent","uniform","1","undefined","1","s","35","0","0","0","35","0","35","0","35","0","0","0","35","35","35","35","Sat Sep 26 14:36:14 2020","1500","The main experiment item","yes","FlankerTask.osexp","/Users/suzannejosey","no","mono","no","18","no","white","no","yes","768","legacy","35","35","/Users/suzannejosey/subject-4.csv","legacy","Lentiform Loewenfeld","3.3.3","0","s","NA","s","NA","NA","s","516","NA","30281","NA","NA","516","2","legacy","1024","2","48000","-16","experiment","HHSHH","4","even","95332","32950","NA","NA","88078","2638","NA","NA","96406","2649","NA","NA","96520","97037","96394","96520","Flanker Task","31","19066","36","yes","1024"
"86.48648648648648","86.48648648648648","526.8648648648649","526.8648648648649","black","legacy","legacy","legacy","0","incongruent","uniform","1","undefined","1","h","36","0","0","0","36","0","36","0","36","0","0","0","36","36","36","36","Sat Sep 26 14:36:14 2020","1500","The main experiment item","yes","FlankerTask.osexp","/Users/suzannejosey","no","mono","no","18","no","white","no","yes","768","legacy","36","36","/Users/suzannejosey/subject-4.csv","legacy","Lentiform Loewenfeld","3.3.3","0","h","NA","s","NA","NA","h","428","NA","30281","NA","NA","428","2","legacy","1024","2","48000","-16","experiment","SSHSS","4","even","97050","32950","NA","NA","88078","2638","NA","NA","98123","2649","NA","NA","98236","98665","98111","98236","Flanker Task","32","19494","37","yes","1024"
"86.84210526315789","86.84210526315789","528.2105263157895","528.2105263157895","black","legacy","legacy","legacy","0","incongruent","uniform","1","undefined","1","s","37","0","0","0","37","0","37","0","37","0","0","0","37","37","37","37","Sat Sep 26 14:36:14 2020","1500","The main experiment item","yes","FlankerTask.osexp","/Users/suzannejosey","no","mono","no","18","no","white","no","yes","768","legacy","37","37","/Users/suzannejosey/subject-4.csv","legacy","Lentiform Loewenfeld","3.3.3","0","s","NA","s","NA","NA","s","578","NA","30281","NA","NA","578","2","legacy","1024","2","48000","-16","experiment","HHSHH","4","even","98678","32950","NA","NA","88078","2638","NA","NA","99752","2649","NA","NA","99866","100445","99740","99866","Flanker Task","33","20072","38","yes","1024"
"87.17948717948718","87.17948717948718","525.1025641025641","525.1025641025641","black","legacy","legacy","legacy","0","congruent","uniform","1","undefined","1","h","38","0","0","0","38","0","38","0","38","0","0","0","38","38","38","38","Sat Sep 26 14:36:14 2020","1500","The main experiment item","yes","FlankerTask.osexp","/Users/suzannejosey","no","mono","no","18","no","white","no","yes","768","legacy","38","38","/Users/suzannejosey/subject-4.csv","legacy","Lentiform Loewenfeld","3.3.3","0","h","NA","s","NA","NA","h","407","NA","30281","NA","NA","407","2","legacy","1024","2","48000","-16","experiment","HHHHH","4","even","100459","32950","NA","NA","88078","2638","NA","NA","101532","2649","NA","NA","101645","102053","101520","101645","Flanker Task","34","20479","39","yes","1024"
"85","85","522.3","522.3","black","legacy","legacy","legacy","0","congruent","uniform","0","undefined","0","s","39","0","0","0","39","0","39","0","39","0","0","0","39","39","39","39","Sat Sep 26 14:36:14 2020","1500","The main experiment item","yes","FlankerTask.osexp","/Users/suzannejosey","no","mono","no","18","no","white","no","yes","768","legacy","39","39","/Users/suzannejosey/subject-4.csv","legacy","Lentiform Loewenfeld","3.3.3","0","h","NA","s","NA","NA","h","413","NA","30281","NA","NA","413","2","legacy","1024","2","48000","-16","experiment","SSSSS","4","even","102066","32950","NA","NA","88078","2638","NA","NA","103140","2649","NA","NA","103255","103669","103128","103255","Flanker Task","34","20892","40","yes","1024"
"85.36585365853658","85.36585365853658","521.8536585365854","521.8536585365854","black","legacy","legacy","legacy","0","congruent","uniform","1","undefined","1","s","40","0","0","0","40","0","40","0","40","0","0","0","40","40","40","40","Sat Sep 26 14:36:14 2020","1500","The main experiment item","yes","FlankerTask.osexp","/Users/suzannejosey","no","mono","no","18","no","white","no","yes","768","legacy","40","40","/Users/suzannejosey/subject-4.csv","legacy","Lentiform Loewenfeld","3.3.3","0","s","NA","s","NA","NA","s","504","NA","30281","NA","NA","504","2","legacy","1024","2","48000","-16","experiment","SSSSS","4","even","104196","32950","NA","NA","103682","2638","NA","NA","105269","2649","NA","NA","105383","105888","105257","105383","Flanker Task","35","21396","41","yes","1024"
"85.71428571428571","85.71428571428571","520.7619047619048","520.7619047619048","black","legacy","legacy","legacy","0","congruent","uniform","1","undefined","1","s","41","0","0","0","41","0","41","0","41","0","0","0","41","41","41","41","Sat Sep 26 14:36:14 2020","1500","The main experiment item","yes","FlankerTask.osexp","/Users/suzannejosey","no","mono","no","18","no","white","no","yes","768","legacy","41","41","/Users/suzannejosey/subject-4.csv","legacy","Lentiform Loewenfeld","3.3.3","0","s","NA","s","NA","NA","s","476","NA","30281","NA","NA","476","2","legacy","1024","2","48000","-16","experiment","SSSSS","4","even","105902","32950","NA","NA","103682","2638","NA","NA","106976","2649","NA","NA","107089","107566","106964","107089","Flanker Task","36","21872","42","yes","1024"
"86.04651162790698","86.04651162790698","519.1860465116279","519.1860465116279","black","legacy","legacy","legacy","0","congruent","uniform","1","undefined","1","h","42","0","0","0","42","0","42","0","42","0","0","0","42","42","42","42","Sat Sep 26 14:36:14 2020","1500","The main experiment item","yes","FlankerTask.osexp","/Users/suzannejosey","no","mono","no","18","no","white","no","yes","768","legacy","42","42","/Users/suzannejosey/subject-4.csv","legacy","Lentiform Loewenfeld","3.3.3","0","h","NA","s","NA","NA","h","453","NA","30281","NA","NA","453","2","legacy","1024","2","48000","-16","experiment","HHHHH","4","even","107580","32950","NA","NA","103682","2638","NA","NA","108658","2649","NA","NA","108772","109226","108646","108772","Flanker Task","37","22325","43","yes","1024"
"86.36363636363636","86.36363636363636","520.4318181818181","520.4318181818181","black","legacy","legacy","legacy","0","incongruent","uniform","1","undefined","1","s","43","0","0","0","43","0","43","0","43","0","0","0","43","43","43","43","Sat Sep 26 14:36:14 2020","1500","The main experiment item","yes","FlankerTask.osexp","/Users/suzannejosey","no","mono","no","18","no","white","no","yes","768","legacy","43","43","/Users/suzannejosey/subject-4.csv","legacy","Lentiform Loewenfeld","3.3.3","0","s","NA","s","NA","NA","s","574","NA","30281","NA","NA","574","2","legacy","1024","2","48000","-16","experiment","HHSHH","4","even","109239","32950","NA","NA","103682","2638","NA","NA","110315","2649","NA","NA","110429","111004","110303","110429","Flanker Task","38","22899","44","yes","1024"
"86.66666666666667","86.66666666666667","518.6888888888889","518.6888888888889","black","legacy","legacy","legacy","0","congruent","uniform","1","undefined","1","h","44","0","0","0","44","0","44","0","44","0","0","0","44","44","44","44","Sat Sep 26 14:36:14 2020","1500","The main experiment item","yes","FlankerTask.osexp","/Users/suzannejosey","no","mono","no","18","no","white","no","yes","768","legacy","44","44","/Users/suzannejosey/subject-4.csv","legacy","Lentiform Loewenfeld","3.3.3","0","h","NA","s","NA","NA","h","442","NA","30281","NA","NA","442","2","legacy","1024","2","48000","-16","experiment","HHHHH","4","even","111017","32950","NA","NA","103682","2638","NA","NA","112090","2649","NA","NA","112205","112648","112078","112205","Flanker Task","39","23341","45","yes","1024"
"86.95652173913044","86.95652173913044","518.9130434782609","518.9130434782609","black","legacy","legacy","legacy","0","incongruent","uniform","1","undefined","1","s","45","0","0","0","45","0","45","0","45","0","0","0","45","45","45","45","Sat Sep 26 14:36:14 2020","1500","The main experiment item","yes","FlankerTask.osexp","/Users/suzannejosey","no","mono","no","18","no","white","no","yes","768","legacy","45","45","/Users/suzannejosey/subject-4.csv","legacy","Lentiform Loewenfeld","3.3.3","0","s","NA","s","NA","NA","s","529","NA","30281","NA","NA","529","2","legacy","1024","2","48000","-16","experiment","HHSHH","4","even","112661","32950","NA","NA","103682","2638","NA","NA","113735","2649","NA","NA","113850","114381","113723","113849","Flanker Task","40","23870","46","yes","1024"
"87.23404255319149","87.23404255319149","518.0425531914893","518.0425531914893","black","legacy","legacy","legacy","0","incongruent","uniform","1","undefined","1","h","46","0","0","0","46","0","46","0","46","0","0","0","46","46","46","46","Sat Sep 26 14:36:14 2020","1500","The main experiment item","yes","FlankerTask.osexp","/Users/suzannejosey","no","mono","no","18","no","white","no","yes","768","legacy","46","46","/Users/suzannejosey/subject-4.csv","legacy","Lentiform Loewenfeld","3.3.3","0","h","NA","s","NA","NA","h","478","NA","30281","NA","NA","478","2","legacy","1024","2","48000","-16","experiment","SSHSS","4","even","114394","32950","NA","NA","103682","2638","NA","NA","115467","2649","NA","NA","115579","116058","115455","115579","Flanker Task","41","24348","47","yes","1024"
"87.5","87.5","520.5","520.5","black","legacy","legacy","legacy","0","incongruent","uniform","1","undefined","1","h","47","0","0","0","47","0","47","0","47","0","0","0","47","47","47","47","Sat Sep 26 14:36:14 2020","1500","The main experiment item","yes","FlankerTask.osexp","/Users/suzannejosey","no","mono","no","18","no","white","no","yes","768","legacy","47","47","/Users/suzannejosey/subject-4.csv","legacy","Lentiform Loewenfeld","3.3.3","0","h","NA","s","NA","NA","h","636","NA","30281","NA","NA","636","2","legacy","1024","2","48000","-16","experiment","SSHSS","4","even","116072","32950","NA","NA","103682","2638","NA","NA","117146","2649","NA","NA","117260","117897","117134","117260","Flanker Task","42","24984","48","yes","1024"
"87.75510204081633","87.75510204081633","518.6530612244898","518.6530612244898","black","legacy","legacy","legacy","0","congruent","uniform","1","undefined","1","s","48","0","0","0","48","0","48","0","48","0","0","0","48","48","48","48","Sat Sep 26 14:36:14 2020","1500","The main experiment item","yes","FlankerTask.osexp","/Users/suzannejosey","no","mono","no","18","no","white","no","yes","768","legacy","48","48","/Users/suzannejosey/subject-4.csv","legacy","Lentiform Loewenfeld","3.3.3","0","s","NA","s","NA","NA","s","430","NA","30281","NA","NA","430","2","legacy","1024","2","48000","-16","experiment","SSSSS","4","even","117909","32950","NA","NA","103682","2638","NA","NA","118983","2649","NA","NA","119098","119529","118970","119098","Flanker Task","43","25414","49","yes","1024"
"88","88","521.38","521.38","black","legacy","legacy","legacy","0","incongruent","uniform","1","undefined","1","s","49","0","0","0","49","0","49","0","49","0","0","0","49","49","49","49","Sat Sep 26 14:36:14 2020","1500","The main experiment item","yes","FlankerTask.osexp","/Users/suzannejosey","no","mono","no","18","no","white","no","yes","768","legacy","49","49","/Users/suzannejosey/subject-4.csv","legacy","Lentiform Loewenfeld","3.3.3","0","s","NA","s","NA","NA","s","655","NA","30281","NA","NA","655","2","legacy","1024","2","48000","-16","experiment","HHSHH","4","even","119543","32950","NA","NA","103682","2638","NA","NA","120616","2649","NA","NA","120731","121388","120604","120730","Flanker Task","44","26069","50","yes","1024"
"88.23529411764706","88.23529411764706","522.1372549019608","522.1372549019608","black","legacy","legacy","legacy","0","incongruent","uniform","1","undefined","1","s","50","0","0","0","50","0","50","0","50","0","0","0","50","50","50","50","Sat Sep 26 14:36:14 2020","1500","The main experiment item","yes","FlankerTask.osexp","/Users/suzannejosey","no","mono","no","18","no","white","no","yes","768","legacy","50","50","/Users/suzannejosey/subject-4.csv","legacy","Lentiform Loewenfeld","3.3.3","0","s","NA","s","NA","NA","s","560","NA","30281","NA","NA","560","2","legacy","1024","2","48000","-16","experiment","HHSHH","4","even","121401","32950","NA","NA","103682","2638","NA","NA","122474","2649","NA","NA","122589","123150","122462","122588","Flanker Task","45","26629","51","yes","1024"
"88.46153846153847","88.46153846153847","523.0769230769231","523.0769230769231","black","legacy","legacy","legacy","0","incongruent","uniform","1","undefined","1","h","51","0","0","0","51","0","51","0","51","0","0","0","51","51","51","51","Sat Sep 26 14:36:14 2020","1500","The main experiment item","yes","FlankerTask.osexp","/Users/suzannejosey","no","mono","no","18","no","white","no","yes","768","legacy","51","51","/Users/suzannejosey/subject-4.csv","legacy","Lentiform Loewenfeld","3.3.3","0","h","NA","s","NA","NA","h","571","NA","30281","NA","NA","571","2","legacy","1024","2","48000","-16","experiment","SSHSS","4","even","123163","32950","NA","NA","103682","2638","NA","NA","124237","2649","NA","NA","124351","124924","124225","124351","Flanker Task","46","27200","52","yes","1024"
"88.67924528301887","88.67924528301887","523.377358490566","523.377358490566","black","legacy","legacy","legacy","0","incongruent","uniform","1","undefined","1","s","52","0","0","0","52","0","52","0","52","0","0","0","52","52","52","52","Sat Sep 26 14:36:14 2020","1500","The main experiment item","yes","FlankerTask.osexp","/Users/suzannejosey","no","mono","no","18","no","white","no","yes","768","legacy","52","52","/Users/suzannejosey/subject-4.csv","legacy","Lentiform Loewenfeld","3.3.3","0","s","NA","s","NA","NA","s","539","NA","30281","NA","NA","539","2","legacy","1024","2","48000","-16","experiment","HHSHH","4","even","124937","32950","NA","NA","103682","2638","NA","NA","126010","2649","NA","NA","126125","126666","125999","126125","Flanker Task","47","27739","53","yes","1024"
"88.88888888888889","88.88888888888889","520.9444444444445","520.9444444444445","black","legacy","legacy","legacy","0","congruent","uniform","1","undefined","1","s","53","0","0","0","53","0","53","0","53","0","0","0","53","53","53","53","Sat Sep 26 14:36:14 2020","1500","The main experiment item","yes","FlankerTask.osexp","/Users/suzannejosey","no","mono","no","18","no","white","no","yes","768","legacy","53","53","/Users/suzannejosey/subject-4.csv","legacy","Lentiform Loewenfeld","3.3.3","0","s","NA","s","NA","NA","s","392","NA","30281","NA","NA","392","2","legacy","1024","2","48000","-16","experiment","SSSSS","4","even","126679","32950","NA","NA","103682","2638","NA","NA","127755","2649","NA","NA","127867","128260","127743","127867","Flanker Task","48","28131","54","yes","1024"
"89.0909090909091","89.0909090909091","521.4181818181818","521.4181818181818","black","legacy","legacy","legacy","0","incongruent","uniform","1","undefined","1","h","54","0","0","0","54","0","54","0","54","0","0","0","54","54","54","54","Sat Sep 26 14:36:14 2020","1500","The main experiment item","yes","FlankerTask.osexp","/Users/suzannejosey","no","mono","no","18","no","white","no","yes","768","legacy","54","54","/Users/suzannejosey/subject-4.csv","legacy","Lentiform Loewenfeld","3.3.3","0","h","NA","s","NA","NA","h","547","NA","30281","NA","NA","547","2","legacy","1024","2","48000","-16","experiment","SSHSS","4","even","128275","32950","NA","NA","103682","2638","NA","NA","129350","2649","NA","NA","129464","130012","129337","129464","Flanker Task","49","28678","55","yes","1024"
"89.28571428571429","89.28571428571429","520.4464285714286","520.4464285714286","black","legacy","legacy","legacy","0","congruent","uniform","1","undefined","1","s","55","0","0","0","55","0","55","0","55","0","0","0","55","55","55","55","Sat Sep 26 14:36:14 2020","1500","The main experiment item","yes","FlankerTask.osexp","/Users/suzannejosey","no","mono","no","18","no","white","no","yes","768","legacy","55","55","/Users/suzannejosey/subject-4.csv","legacy","Lentiform Loewenfeld","3.3.3","0","s","NA","s","NA","NA","s","467","NA","30281","NA","NA","467","2","legacy","1024","2","48000","-16","experiment","SSSSS","4","even","130026","32950","NA","NA","103682","2638","NA","NA","131101","2649","NA","NA","131215","131683","131087","131215","Flanker Task","50","29145","56","yes","1024"
"89.47368421052632","89.47368421052632","519.8947368421053","519.8947368421053","black","legacy","legacy","legacy","0","incongruent","uniform","1","undefined","1","h","56","0","0","0","56","0","56","0","56","0","0","0","56","56","56","56","Sat Sep 26 14:36:14 2020","1500","The main experiment item","yes","FlankerTask.osexp","/Users/suzannejosey","no","mono","no","18","no","white","no","yes","768","legacy","56","56","/Users/suzannejosey/subject-4.csv","legacy","Lentiform Loewenfeld","3.3.3","0","h","NA","s","NA","NA","h","489","NA","30281","NA","NA","489","2","legacy","1024","2","48000","-16","experiment","SSHSS","4","even","131697","32950","NA","NA","103682","2638","NA","NA","132770","2649","NA","NA","132883","133373","132758","132883","Flanker Task","51","29634","57","yes","1024"
"87.93103448275862","87.93103448275862","525.7931034482758","525.7931034482758","black","legacy","legacy","legacy","0","incongruent","uniform","0","undefined","0","h","57","0","0","0","57","0","57","0","57","0","0","0","57","57","57","57","Sat Sep 26 14:36:14 2020","1500","The main experiment item","yes","FlankerTask.osexp","/Users/suzannejosey","no","mono","no","18","no","white","no","yes","768","legacy","57","57","/Users/suzannejosey/subject-4.csv","legacy","Lentiform Loewenfeld","3.3.3","0","s","NA","s","NA","NA","s","862","NA","30281","NA","NA","862","2","legacy","1024","2","48000","-16","experiment","SSHSS","4","even","133386","32950","NA","NA","103682","2638","NA","NA","134460","2649","NA","NA","134574","135437","134448","134574","Flanker Task","51","30496","58","yes","1024"
"88.13559322033899","88.13559322033899","523.3728813559322","523.3728813559322","black","legacy","legacy","legacy","0","incongruent","uniform","1","undefined","1","s","58","0","0","0","58","0","58","0","58","0","0","0","58","58","58","58","Sat Sep 26 14:36:14 2020","1500","The main experiment item","yes","FlankerTask.osexp","/Users/suzannejosey","no","mono","no","18","no","white","no","yes","768","legacy","58","58","/Users/suzannejosey/subject-4.csv","legacy","Lentiform Loewenfeld","3.3.3","0","s","NA","s","NA","NA","s","383","NA","30281","NA","NA","383","2","legacy","1024","2","48000","-16","experiment","HHSHH","4","even","135964","32950","NA","NA","135451","2638","NA","NA","137036","2649","NA","NA","137151","137535","137024","137150","Flanker Task","52","30879","59","yes","1024"
"88.33333333333333","88.33333333333333","523.6833333333333","523.6833333333333","black","legacy","legacy","legacy","0","congruent","uniform","1","undefined","1","s","59","0","0","0","59","0","59","0","59","0","0","0","59","59","59","59","Sat Sep 26 14:36:14 2020","1500","The main experiment item","yes","FlankerTask.osexp","/Users/suzannejosey","no","mono","no","18","no","white","no","yes","768","legacy","59","59","/Users/suzannejosey/subject-4.csv","legacy","Lentiform Loewenfeld","3.3.3","0","s","NA","s","NA","NA","s","542","NA","30281","NA","NA","542","2","legacy","1024","2","48000","-16","experiment","SSSSS","4","even","137548","32950","NA","NA","135451","2638","NA","NA","138621","2649","NA","NA","138735","139278","138609","138735","Flanker Task","53","31421","60","yes","1024"
"88.52459016393442","88.52459016393442","523.311475409836","523.311475409836","black","legacy","legacy","legacy","0","congruent","uniform","1","undefined","1","s","60","0","0","0","60","0","60","0","60","0","0","0","60","60","60","60","Sat Sep 26 14:36:14 2020","1500","The main experiment item","yes","FlankerTask.osexp","/Users/suzannejosey","no","mono","no","18","no","white","no","yes","768","legacy","60","60","/Users/suzannejosey/subject-4.csv","legacy","Lentiform Loewenfeld","3.3.3","0","s","NA","s","NA","NA","s","501","NA","30281","NA","NA","501","2","legacy","1024","2","48000","-16","experiment","SSSSS","4","even","139292","32950","NA","NA","135451","2638","NA","NA","140366","2649","NA","NA","140480","140982","140354","140480","Flanker Task","54","31922","61","yes","1024"
"88.70967741935483","88.70967741935483","522.4677419354839","522.4677419354839","black","legacy","legacy","legacy","0","congruent","uniform","1","undefined","1","h","61","0","0","0","61","0","61","0","61","0","0","0","61","61","61","61","Sat Sep 26 14:36:14 2020","1500","The main experiment item","yes","FlankerTask.osexp","/Users/suzannejosey","no","mono","no","18","no","white","no","yes","768","legacy","61","61","/Users/suzannejosey/subject-4.csv","legacy","Lentiform Loewenfeld","3.3.3","0","h","NA","s","NA","NA","h","471","NA","30281","NA","NA","471","2","legacy","1024","2","48000","-16","experiment","HHHHH","4","even","140996","32950","NA","NA","135451","2638","NA","NA","142071","2649","NA","NA","142186","142658","142059","142186","Flanker Task","55","32393","62","yes","1024"
"88.88888888888889","88.88888888888889","522.6825396825396","522.6825396825396","black","legacy","legacy","legacy","0","incongruent","uniform","1","undefined","1","h","62","0","0","0","62","0","62","0","62","0","0","0","62","62","62","62","Sat Sep 26 14:36:14 2020","1500","The main experiment item","yes","FlankerTask.osexp","/Users/suzannejosey","no","mono","no","18","no","white","no","yes","768","legacy","62","62","/Users/suzannejosey/subject-4.csv","legacy","Lentiform Loewenfeld","3.3.3","0","h","NA","s","NA","NA","h","536","NA","30281","NA","NA","536","2","legacy","1024","2","48000","-16","experiment","SSHSS","4","even","142671","32950","NA","NA","135451","2638","NA","NA","143744","2649","NA","NA","143859","144396","143732","143858","Flanker Task","56","32929","63","yes","1024"
"89.0625","89.0625","522.9375","522.9375","black","legacy","legacy","legacy","0","incongruent","uniform","1","undefined","1","s","63","0","0","0","63","0","63","0","63","0","0","0","63","63","63","63","Sat Sep 26 14:36:14 2020","1500","The main experiment item","yes","FlankerTask.osexp","/Users/suzannejosey","no","mono","no","18","no","white","no","yes","768","legacy","63","63","/Users/suzannejosey/subject-4.csv","legacy","Lentiform Loewenfeld","3.3.3","0","s","NA","s","NA","NA","s","539","NA","30281","NA","NA","539","2","legacy","1024","2","48000","-16","experiment","HHSHH","4","even","144410","32950","NA","NA","135451","2638","NA","NA","145486","2649","NA","NA","145600","146140","145474","145600","Flanker Task","57","33468","64","yes","1024"
"89.23076923076923","89.23076923076923","524.6153846153846","524.6153846153846","black","legacy","legacy","legacy","0","congruent","uniform","1","undefined","1","h","64","0","0","0","64","0","64","0","64","0","0","0","64","64","64","64","Sat Sep 26 14:36:14 2020","1500","The main experiment item","yes","FlankerTask.osexp","/Users/suzannejosey","no","mono","no","18","no","white","no","yes","768","legacy","64","64","/Users/suzannejosey/subject-4.csv","legacy","Lentiform Loewenfeld","3.3.3","0","h","NA","s","NA","NA","h","632","NA","30281","NA","NA","632","2","legacy","1024","2","48000","-16","experiment","HHHHH","4","even","146153","32950","NA","NA","135451","2638","NA","NA","147227","2649","NA","NA","147341","147974","147215","147341","Flanker Task","58","34100","65","yes","1024"
"89.39393939393939","89.39393939393939","524.5909090909091","524.5909090909091","black","legacy","legacy","legacy","0","congruent","uniform","1","undefined","1","h","65","0","0","0","65","0","65","0","65","0","0","0","65","65","65","65","Sat Sep 26 14:36:14 2020","1500","The main experiment item","yes","FlankerTask.osexp","/Users/suzannejosey","no","mono","no","18","no","white","no","yes","768","legacy","65","65","/Users/suzannejosey/subject-4.csv","legacy","Lentiform Loewenfeld","3.3.3","0","h","NA","s","NA","NA","h","523","NA","30281","NA","NA","523","2","legacy","1024","2","48000","-16","experiment","HHHHH","4","even","147988","32950","NA","NA","135451","2638","NA","NA","149060","2649","NA","NA","149175","149699","149048","149175","Flanker Task","59","34623","66","yes","1024"
"89.55223880597015","89.55223880597015","524.0597014925373","524.0597014925373","black","legacy","legacy","legacy","0","congruent","uniform","1","undefined","1","h","66","0","0","0","66","0","66","0","66","0","0","0","66","66","66","66","Sat Sep 26 14:36:14 2020","1500","The main experiment item","yes","FlankerTask.osexp","/Users/suzannejosey","no","mono","no","18","no","white","no","yes","768","legacy","66","66","/Users/suzannejosey/subject-4.csv","legacy","Lentiform Loewenfeld","3.3.3","0","h","NA","s","NA","NA","h","489","NA","30281","NA","NA","489","2","legacy","1024","2","48000","-16","experiment","HHHHH","4","even","149713","32950","NA","NA","135451","2638","NA","NA","150789","2649","NA","NA","150904","151394","150776","150904","Flanker Task","60","35112","67","yes","1024"
"89.70588235294117","89.70588235294117","526.6764705882352","526.6764705882352","black","legacy","legacy","legacy","0","congruent","uniform","1","undefined","1","s","67","0","0","0","67","0","67","0","67","0","0","0","67","67","67","67","Sat Sep 26 14:36:14 2020","1500","The main experiment item","yes","FlankerTask.osexp","/Users/suzannejosey","no","mono","no","18","no","white","no","yes","768","legacy","67","67","/Users/suzannejosey/subject-4.csv","legacy","Lentiform Loewenfeld","3.3.3","0","s","NA","s","NA","NA","s","702","NA","30281","NA","NA","702","2","legacy","1024","2","48000","-16","experiment","SSSSS","4","even","151412","32950","NA","NA","135451","2638","NA","NA","152494","2649","NA","NA","152610","153314","152479","152610","Flanker Task","61","35814","68","yes","1024"
"89.85507246376811","89.85507246376811","528.1739130434783","528.1739130434783","black","legacy","legacy","legacy","0","congruent","uniform","1","undefined","1","s","68","0","0","0","68","0","68","0","68","0","0","0","68","68","68","68","Sat Sep 26 14:36:14 2020","1500","The main experiment item","yes","FlankerTask.osexp","/Users/suzannejosey","no","mono","no","18","no","white","no","yes","768","legacy","68","68","/Users/suzannejosey/subject-4.csv","legacy","Lentiform Loewenfeld","3.3.3","0","s","NA","s","NA","NA","s","630","NA","30281","NA","NA","630","2","legacy","1024","2","48000","-16","experiment","SSSSS","4","even","153333","32950","NA","NA","135451","2638","NA","NA","154426","2649","NA","NA","154545","155178","154409","154545","Flanker Task","62","36444","69","yes","1024"
"90","90","527.2142857142857","527.2142857142857","black","legacy","legacy","legacy","0","congruent","uniform","1","undefined","1","s","69","0","0","0","69","0","69","0","69","0","0","0","69","69","69","69","Sat Sep 26 14:36:14 2020","1500","The main experiment item","yes","FlankerTask.osexp","/Users/suzannejosey","no","mono","no","18","no","white","no","yes","768","legacy","69","69","/Users/suzannejosey/subject-4.csv","legacy","Lentiform Loewenfeld","3.3.3","0","s","NA","s","NA","NA","s","461","NA","30281","NA","NA","461","2","legacy","1024","2","48000","-16","experiment","SSSSS","4","even","155202","32950","NA","NA","135451","2638","NA","NA","156307","2649","NA","NA","156427","156891","156288","156426","Flanker Task","63","36905","70","yes","1024"
"90.14084507042253","90.14084507042253","526.2253521126761","526.2253521126761","black","legacy","legacy","legacy","0","congruent","uniform","1","undefined","1","h","70","0","0","0","70","0","70","0","70","0","0","0","70","70","70","70","Sat Sep 26 14:36:14 2020","1500","The main experiment item","yes","FlankerTask.osexp","/Users/suzannejosey","no","mono","no","18","no","white","no","yes","768","legacy","70","70","/Users/suzannejosey/subject-4.csv","legacy","Lentiform Loewenfeld","3.3.3","0","h","NA","s","NA","NA","h","457","NA","30281","NA","NA","457","2","legacy","1024","2","48000","-16","experiment","HHHHH","4","even","156913","32950","NA","NA","135451","2638","NA","NA","158023","2649","NA","NA","158144","158604","158002","158143","Flanker Task","64","37362","71","yes","1024"
"90.27777777777777","90.27777777777777","526.4027777777778","526.4027777777778","black","legacy","legacy","legacy","0","incongruent","uniform","1","undefined","1","s","71","0","0","0","71","0","71","0","71","0","0","0","71","71","71","71","Sat Sep 26 14:36:14 2020","1500","The main experiment item","yes","FlankerTask.osexp","/Users/suzannejosey","no","mono","no","18","no","white","no","yes","768","legacy","71","71","/Users/suzannejosey/subject-4.csv","legacy","Lentiform Loewenfeld","3.3.3","0","s","NA","s","NA","NA","s","539","NA","30281","NA","NA","539","2","legacy","1024","2","48000","-16","experiment","HHSHH","4","even","158628","32950","NA","NA","135451","2638","NA","NA","159748","2649","NA","NA","159870","160410","159726","159870","Flanker Task","65","37901","72","yes","1024"
"90.41095890410959","90.41095890410959","526.8767123287671","526.8767123287671","black","legacy","legacy","legacy","0","congruent","uniform","1","undefined","1","s","72","0","0","0","72","0","72","0","72","0","0","0","72","72","72","72","Sat Sep 26 14:36:14 2020","1500","The main experiment item","yes","FlankerTask.osexp","/Users/suzannejosey","no","mono","no","18","no","white","no","yes","768","legacy","72","72","/Users/suzannejosey/subject-4.csv","legacy","Lentiform Loewenfeld","3.3.3","0","s","NA","s","NA","NA","s","561","NA","30281","NA","NA","561","2","legacy","1024","2","48000","-16","experiment","SSSSS","4","even","160424","32950","NA","NA","135451","2638","NA","NA","161496","2649","NA","NA","161611","162173","161484","161611","Flanker Task","66","38462","73","yes","1024"
"89.1891891891892","89.1891891891892","524.418918918919","524.418918918919","black","legacy","legacy","legacy","0","incongruent","uniform","0","undefined","0","h","73","0","0","0","73","0","73","0","73","0","0","0","73","73","73","73","Sat Sep 26 14:36:14 2020","1500","The main experiment item","yes","FlankerTask.osexp","/Users/suzannejosey","no","mono","no","18","no","white","no","yes","768","legacy","73","73","/Users/suzannejosey/subject-4.csv","legacy","Lentiform Loewenfeld","3.3.3","0","s","NA","s","NA","NA","s","345","NA","30281","NA","NA","345","2","legacy","1024","2","48000","-16","experiment","SSHSS","4","even","162186","32950","NA","NA","135451","2638","NA","NA","163262","2649","NA","NA","163376","163722","163250","163376","Flanker Task","66","38807","74","yes","1024"
"89.33333333333333","89.33333333333333","525.76","525.76","black","legacy","legacy","legacy","0","incongruent","uniform","1","undefined","1","s","74","0","0","0","74","0","74","0","74","0","0","0","74","74","74","74","Sat Sep 26 14:36:14 2020","1500","The main experiment item","yes","FlankerTask.osexp","/Users/suzannejosey","no","mono","no","18","no","white","no","yes","768","legacy","74","74","/Users/suzannejosey/subject-4.csv","legacy","Lentiform Loewenfeld","3.3.3","0","s","NA","s","NA","NA","s","625","NA","30281","NA","NA","625","2","legacy","1024","2","48000","-16","experiment","HHSHH","4","even","164248","32950","NA","NA","163735","2638","NA","NA","165322","2649","NA","NA","165436","166062","165310","165436","Flanker Task","67","39432","75","yes","1024"
"89.47368421052632","89.47368421052632","533.1447368421053","533.1447368421053","black","legacy","legacy","legacy","0","incongruent","uniform","1","undefined","1","s","75","0","0","0","75","0","75","0","75","0","0","0","75","75","75","75","Sat Sep 26 14:36:14 2020","1500","The main experiment item","yes","FlankerTask.osexp","/Users/suzannejosey","no","mono","no","18","no","white","no","yes","768","legacy","75","75","/Users/suzannejosey/subject-4.csv","legacy","Lentiform Loewenfeld","3.3.3","0","s","NA","s","NA","NA","s","1087","NA","30281","NA","NA","1087","2","legacy","1024","2","48000","-16","experiment","HHSHH","4","even","166076","32950","NA","NA","163735","2638","NA","NA","167150","2649","NA","NA","167265","168353","167138","167264","Flanker Task","68","40519","76","yes","1024"
"89.6103896103896","89.6103896103896","535.987012987013","535.987012987013","black","legacy","legacy","legacy","0","congruent","uniform","1","undefined","1","h","76","0","0","0","76","0","76","0","76","0","0","0","76","76","76","76","Sat Sep 26 14:36:14 2020","1500","The main experiment item","yes","FlankerTask.osexp","/Users/suzannejosey","no","mono","no","18","no","white","no","yes","768","legacy","76","76","/Users/suzannejosey/subject-4.csv","legacy","Lentiform Loewenfeld","3.3.3","0","h","NA","s","NA","NA","h","752","NA","30281","NA","NA","752","2","legacy","1024","2","48000","-16","experiment","HHHHH","4","even","168366","32950","NA","NA","163735","2638","NA","NA","169439","2649","NA","NA","169553","170306","169427","169553","Flanker Task","69","41271","77","yes","1024"
"89.74358974358974","89.74358974358974","536.5128205128206","536.5128205128206","black","legacy","legacy","legacy","0","congruent","uniform","1","undefined","1","h","77","0","0","0","77","0","77","0","77","0","0","0","77","77","77","77","Sat Sep 26 14:36:14 2020","1500","The main experiment item","yes","FlankerTask.osexp","/Users/suzannejosey","no","mono","no","18","no","white","no","yes","768","legacy","77","77","/Users/suzannejosey/subject-4.csv","legacy","Lentiform Loewenfeld","3.3.3","0","h","NA","s","NA","NA","h","577","NA","30281","NA","NA","577","2","legacy","1024","2","48000","-16","experiment","HHHHH","4","even","170319","32950","NA","NA","163735","2638","NA","NA","171392","2649","NA","NA","171506","172084","171380","171506","Flanker Task","70","41848","78","yes","1024"
"89.87341772151899","89.87341772151899","535.7594936708861","535.7594936708861","black","legacy","legacy","legacy","0","incongruent","uniform","1","undefined","1","s","78","0","0","0","78","0","78","0","78","0","0","0","78","78","78","78","Sat Sep 26 14:36:14 2020","1500","The main experiment item","yes","FlankerTask.osexp","/Users/suzannejosey","no","mono","no","18","no","white","no","yes","768","legacy","78","78","/Users/suzannejosey/subject-4.csv","legacy","Lentiform Loewenfeld","3.3.3","0","s","NA","s","NA","NA","s","477","NA","30281","NA","NA","477","2","legacy","1024","2","48000","-16","experiment","HHSHH","4","even","172100","32950","NA","NA","163735","2638","NA","NA","173175","2649","NA","NA","173290","173768","173163","173290","Flanker Task","71","42325","79","yes","1024"
"90","90","536.125","536.125","black","legacy","legacy","legacy","0","incongruent","uniform","1","undefined","1","s","79","0","0","0","79","0","79","0","79","0","0","0","79","79","79","79","Sat Sep 26 14:36:14 2020","1500","The main experiment item","yes","FlankerTask.osexp","/Users/suzannejosey","no","mono","no","18","no","white","no","yes","768","legacy","79","79","/Users/suzannejosey/subject-4.csv","legacy","Lentiform Loewenfeld","3.3.3","0","s","NA","s","NA","NA","s","565","NA","30281","NA","NA","565","2","legacy","1024","2","48000","-16","experiment","HHSHH","4","even","173781","32950","NA","NA","163735","2638","NA","NA","174855","2649","NA","NA","174969","175535","174843","174969","Flanker Task","72","42890","80","yes","1024"
"88.88888888888889","88.88888888888889","530.5555555555555","530.5555555555555","black","legacy","legacy","legacy","0","incongruent","uniform","0","undefined","0","s","80","0","0","0","80","0","80","0","80","0","0","0","80","80","80","80","Sat Sep 26 14:36:14 2020","600","The main experiment item","yes","FlankerTask.osexp","/Users/suzannejosey","no","mono","no","18","no","white","no","yes","768","legacy","0","79","/Users/suzannejosey/subject-4.csv","legacy","Lentiform Loewenfeld","3.3.3","0","h","NA","s","h","NA","h","85","NA","30281","40168","NA","85","2","legacy","1024","2","48000","-16","experiment","HHSHH","4","even","175548","32950","216758","NA","163735","2638","NA","NA","216801","2649","176589","NA","216916","217003","216791","216916","Flanker Task","72","42975","81","yes","1024"
"89.02439024390245","89.02439024390245","529.9268292682926","529.9268292682926","black","legacy","legacy","legacy","0","incongruent","uniform","1","undefined","1","h","81","0","0","0","81","0","81","0","81","0","0","0","81","81","81","81","Sat Sep 26 14:36:14 2020","600","The main experiment item","yes","FlankerTask.osexp","/Users/suzannejosey","no","mono","no","18","no","white","no","yes","768","legacy","1","79","/Users/suzannejosey/subject-4.csv","legacy","Lentiform Loewenfeld","3.3.3","0","h","NA","s","h","NA","h","479","NA","30281","40168","NA","479","2","legacy","1024","2","48000","-16","experiment","SSHSS","4","even","217530","32950","216758","NA","217016","2638","NA","NA","218603","2649","176589","NA","218720","219201","218591","218720","Flanker Task","73","43454","82","yes","1024"
"89.1566265060241","89.1566265060241","528.710843373494","528.710843373494","black","legacy","legacy","legacy","0","congruent","uniform","1","undefined","1","s","82","0","0","0","82","0","82","0","82","0","0","0","82","82","82","82","Sat Sep 26 14:36:14 2020","600","The main experiment item","yes","FlankerTask.osexp","/Users/suzannejosey","no","mono","no","18","no","white","no","yes","768","legacy","2","79","/Users/suzannejosey/subject-4.csv","legacy","Lentiform Loewenfeld","3.3.3","0","s","NA","s","h","NA","s","429","NA","30281","40168","NA","429","2","legacy","1024","2","48000","-16","experiment","SSSSS","4","even","219214","32950","216758","NA","217016","2638","NA","NA","220270","2649","176589","NA","220384","220815","220261","220384","Flanker Task","74","43883","83","yes","1024"
"89.28571428571429","89.28571428571429","527.3928571428571","527.3928571428571","black","legacy","legacy","legacy","0","congruent","uniform","1","undefined","1","h","83","0","0","0","83","0","83","0","83","0","0","0","83","83","83","83","Sat Sep 26 14:36:14 2020","600","The main experiment item","yes","FlankerTask.osexp","/Users/suzannejosey","no","mono","no","18","no","white","no","yes","768","legacy","3","79","/Users/suzannejosey/subject-4.csv","legacy","Lentiform Loewenfeld","3.3.3","0","h","NA","s","h","NA","h","418","NA","30281","40168","NA","418","2","legacy","1024","2","48000","-16","experiment","HHHHH","4","even","220827","32950","216758","NA","217016","2638","NA","NA","221900","2649","176589","NA","222014","222434","221888","222014","Flanker Task","75","44301","84","yes","1024"
"89.41176470588235","89.41176470588235","526.1411764705882","526.1411764705882","black","legacy","legacy","legacy","0","congruent","uniform","1","undefined","1","h","84","0","0","0","84","0","84","0","84","0","0","0","84","84","84","84","Sat Sep 26 14:36:14 2020","600","The main experiment item","yes","FlankerTask.osexp","/Users/suzannejosey","no","mono","no","18","no","white","no","yes","768","legacy","4","79","/Users/suzannejosey/subject-4.csv","legacy","Lentiform Loewenfeld","3.3.3","0","h","NA","s","h","NA","h","421","NA","30281","40168","NA","421","2","legacy","1024","2","48000","-16","experiment","HHHHH","4","even","222447","32950","216758","NA","217016","2638","NA","NA","223520","2649","176589","NA","223634","224056","223508","223634","Flanker Task","76","44722","85","yes","1024"
"89.53488372093024","89.53488372093024","525.8720930232558","525.8720930232558","black","legacy","legacy","legacy","0","incongruent","uniform","1","undefined","1","s","85","0","0","0","85","0","85","0","85","0","0","0","85","85","85","85","Sat Sep 26 14:36:14 2020","600","The main experiment item","yes","FlankerTask.osexp","/Users/suzannejosey","no","mono","no","18","no","white","no","yes","768","legacy","5","79","/Users/suzannejosey/subject-4.csv","legacy","Lentiform Loewenfeld","3.3.3","0","s","NA","s","h","NA","s","503","NA","30281","40168","NA","503","2","legacy","1024","2","48000","-16","experiment","HHSHH","4","even","224070","32950","216758","NA","217016","2638","NA","NA","225149","2649","176589","NA","225263","225768","225137","225263","Flanker Task","77","45225","86","yes","1024"
"89.65517241379311","89.65517241379311","525.0919540229885","525.0919540229885","black","legacy","legacy","legacy","0","congruent","uniform","1","undefined","1","h","86","0","0","0","86","0","86","0","86","0","0","0","86","86","86","86","Sat Sep 26 14:36:14 2020","600","The main experiment item","yes","FlankerTask.osexp","/Users/suzannejosey","no","mono","no","18","no","white","no","yes","768","legacy","6","79","/Users/suzannejosey/subject-4.csv","legacy","Lentiform Loewenfeld","3.3.3","0","h","NA","s","h","NA","h","458","NA","30281","40168","NA","458","2","legacy","1024","2","48000","-16","experiment","HHHHH","4","even","225781","32950","216758","NA","217016","2638","NA","NA","226856","2649","176589","NA","226970","227430","226843","226970","Flanker Task","78","45683","87","yes","1024"
"89.77272727272727","89.77272727272727","523.3522727272727","523.3522727272727","black","legacy","legacy","legacy","0","congruent","uniform","1","undefined","1","s","87","0","0","0","87","0","87","0","87","0","0","0","87","87","87","87","Sat Sep 26 14:36:14 2020","600","The main experiment item","yes","FlankerTask.osexp","/Users/suzannejosey","no","mono","no","18","no","white","no","yes","768","legacy","7","79","/Users/suzannejosey/subject-4.csv","legacy","Lentiform Loewenfeld","3.3.3","0","s","NA","s","h","NA","s","372","NA","30281","40168","NA","372","2","legacy","1024","2","48000","-16","experiment","SSSSS","4","even","227443","32950","216758","NA","217016","2638","NA","NA","228517","2649","176589","NA","228631","229005","228504","228631","Flanker Task","79","46055","88","yes","1024"
"89.88764044943821","89.88764044943821","522.2921348314607","522.2921348314607","black","legacy","legacy","legacy","0","congruent","uniform","1","undefined","1","s","88","0","0","0","88","0","88","0","88","0","0","0","88","88","88","88","Sat Sep 26 14:36:14 2020","600","The main experiment item","yes","FlankerTask.osexp","/Users/suzannejosey","no","mono","no","18","no","white","no","yes","768","legacy","8","79","/Users/suzannejosey/subject-4.csv","legacy","Lentiform Loewenfeld","3.3.3","0","s","NA","s","h","NA","s","429","NA","30281","40168","NA","429","2","legacy","1024","2","48000","-16","experiment","SSSSS","4","even","229018","32950","216758","NA","217016","2638","NA","NA","230092","2649","176589","NA","230206","230636","230079","230206","Flanker Task","80","46484","89","yes","1024"
"90","90","521.3555555555556","521.3555555555556","black","legacy","legacy","legacy","0","congruent","uniform","1","undefined","1","s","89","0","0","0","89","0","89","0","89","0","0","0","89","89","89","89","Sat Sep 26 14:36:14 2020","600","The main experiment item","yes","FlankerTask.osexp","/Users/suzannejosey","no","mono","no","18","no","white","no","yes","768","legacy","9","79","/Users/suzannejosey/subject-4.csv","legacy","Lentiform Loewenfeld","3.3.3","0","s","NA","s","h","NA","s","438","NA","30281","40168","NA","438","2","legacy","1024","2","48000","-16","experiment","SSSSS","4","even","230648","32950","216758","NA","217016","2638","NA","NA","231723","2649","176589","NA","231838","232278","231711","231838","Flanker Task","81","46922","90","yes","1024"
"90.10989010989012","90.10989010989012","521.4505494505495","521.4505494505495","black","legacy","legacy","legacy","0","incongruent","uniform","1","undefined","1","s","90","0","0","0","90","0","90","0","90","0","0","0","90","90","90","90","Sat Sep 26 14:36:14 2020","600","The main experiment item","yes","FlankerTask.osexp","/Users/suzannejosey","no","mono","no","18","no","white","no","yes","768","legacy","10","79","/Users/suzannejosey/subject-4.csv","legacy","Lentiform Loewenfeld","3.3.3","0","s","NA","s","h","NA","s","530","NA","30281","40168","NA","530","2","legacy","1024","2","48000","-16","experiment","HHSHH","4","even","232291","32950","216758","NA","217016","2638","NA","NA","233365","2649","176589","NA","233479","234011","233353","233479","Flanker Task","82","47452","91","yes","1024"
"89.1304347826087","89.1304347826087","519.7065217391304","519.7065217391304","black","legacy","legacy","legacy","0","incongruent","uniform","0","undefined","0","s","91","0","0","0","91","0","91","0","91","0","0","0","91","91","91","91","Sat Sep 26 14:36:14 2020","600","The main experiment item","yes","FlankerTask.osexp","/Users/suzannejosey","no","mono","no","18","no","white","no","yes","768","legacy","11","79","/Users/suzannejosey/subject-4.csv","legacy","Lentiform Loewenfeld","3.3.3","0","h","NA","s","h","NA","h","361","NA","30281","40168","NA","361","2","legacy","1024","2","48000","-16","experiment","HHSHH","4","even","234025","32950","216758","NA","217016","2638","NA","NA","235102","2649","176589","NA","235216","235578","235089","235216","Flanker Task","82","47813","92","yes","1024"
"89.24731182795699","89.24731182795699","518.4301075268817","518.4301075268817","black","legacy","legacy","legacy","0","congruent","uniform","1","undefined","1","h","92","0","0","0","92","0","92","0","92","0","0","0","92","92","92","92","Sat Sep 26 14:36:14 2020","600","The main experiment item","yes","FlankerTask.osexp","/Users/suzannejosey","no","mono","no","18","no","white","no","yes","768","legacy","12","79","/Users/suzannejosey/subject-4.csv","legacy","Lentiform Loewenfeld","3.3.3","0","h","NA","s","h","NA","h","401","NA","30281","40168","NA","401","2","legacy","1024","2","48000","-16","experiment","HHHHH","4","even","236105","32950","216758","NA","235592","2638","NA","NA","237181","2649","176589","NA","237296","237698","237169","237295","Flanker Task","83","48214","93","yes","1024"
"89.36170212765957","89.36170212765957","518.7765957446809","518.7765957446809","black","legacy","legacy","legacy","0","congruent","uniform","1","undefined","1","h","93","0","0","0","93","0","93","0","93","0","0","0","93","93","93","93","Sat Sep 26 14:36:14 2020","600","The main experiment item","yes","FlankerTask.osexp","/Users/suzannejosey","no","mono","no","18","no","white","no","yes","768","legacy","13","79","/Users/suzannejosey/subject-4.csv","legacy","Lentiform Loewenfeld","3.3.3","0","h","NA","s","h","NA","h","551","NA","30281","40168","NA","551","2","legacy","1024","2","48000","-16","experiment","HHHHH","4","even","237711","32950","216758","NA","235592","2638","NA","NA","238786","2649","176589","NA","238900","239452","238774","238900","Flanker Task","84","48765","94","yes","1024"
"89.47368421052632","89.47368421052632","518.5052631578948","518.5052631578948","black","legacy","legacy","legacy","0","incongruent","uniform","1","undefined","1","s","94","0","0","0","94","0","94","0","94","0","0","0","94","94","94","94","Sat Sep 26 14:36:14 2020","600","The main experiment item","yes","FlankerTask.osexp","/Users/suzannejosey","no","mono","no","18","no","white","no","yes","768","legacy","14","79","/Users/suzannejosey/subject-4.csv","legacy","Lentiform Loewenfeld","3.3.3","0","s","NA","s","h","NA","s","493","NA","30281","40168","NA","493","2","legacy","1024","2","48000","-16","experiment","HHSHH","4","even","239464","32950","216758","NA","235592","2638","NA","NA","240539","2649","176589","NA","240653","241147","240527","240653","Flanker Task","85","49258","95","yes","1024"
"89.58333333333333","89.58333333333333","517.5208333333334","517.5208333333334","black","legacy","legacy","legacy","0","congruent","uniform","1","undefined","1","s","95","0","0","0","95","0","95","0","95","0","0","0","95","95","95","95","Sat Sep 26 14:36:14 2020","600","The main experiment item","yes","FlankerTask.osexp","/Users/suzannejosey","no","mono","no","18","no","white","no","yes","768","legacy","15","79","/Users/suzannejosey/subject-4.csv","legacy","Lentiform Loewenfeld","3.3.3","0","s","NA","s","h","NA","s","424","NA","30281","40168","NA","424","2","legacy","1024","2","48000","-16","experiment","SSSSS","4","even","241161","32950","216758","NA","235592","2638","NA","NA","242233","2649","176589","NA","242347","242772","242221","242347","Flanker Task","86","49682","96","yes","1024"
"89.69072164948453","89.69072164948453","517.5051546391752","517.5051546391752","black","legacy","legacy","legacy","0","incongruent","uniform","1","undefined","1","h","96","0","0","0","96","0","96","0","96","0","0","0","96","96","96","96","Sat Sep 26 14:36:14 2020","600","The main experiment item","yes","FlankerTask.osexp","/Users/suzannejosey","no","mono","no","18","no","white","no","yes","768","legacy","16","79","/Users/suzannejosey/subject-4.csv","legacy","Lentiform Loewenfeld","3.3.3","0","h","NA","s","h","NA","h","516","NA","30281","40168","NA","516","2","legacy","1024","2","48000","-16","experiment","SSHSS","4","even","242786","32950","216758","NA","235592","2638","NA","NA","243860","2649","176589","NA","243973","244491","243848","243973","Flanker Task","87","50198","97","yes","1024"
"89.79591836734694","89.79591836734694","515.969387755102","515.969387755102","black","legacy","legacy","legacy","0","congruent","uniform","1","undefined","1","s","97","0","0","0","97","0","97","0","97","0","0","0","97","97","97","97","Sat Sep 26 14:36:14 2020","600","The main experiment item","yes","FlankerTask.osexp","/Users/suzannejosey","no","mono","no","18","no","white","no","yes","768","legacy","17","79","/Users/suzannejosey/subject-4.csv","legacy","Lentiform Loewenfeld","3.3.3","0","s","NA","s","h","NA","s","367","NA","30281","40168","NA","367","2","legacy","1024","2","48000","-16","experiment","SSSSS","4","even","244503","32950","216758","NA","235592","2638","NA","NA","245575","2649","176589","NA","245689","246058","245563","245689","Flanker Task","88","50565","98","yes","1024"
"89.8989898989899","89.8989898989899","514.7979797979798","514.7979797979798","black","legacy","legacy","legacy","0","congruent","uniform","1","undefined","1","s","98","0","0","0","98","0","98","0","98","0","0","0","98","98","98","98","Sat Sep 26 14:36:14 2020","600","The main experiment item","yes","FlankerTask.osexp","/Users/suzannejosey","no","mono","no","18","no","white","no","yes","768","legacy","18","79","/Users/suzannejosey/subject-4.csv","legacy","Lentiform Loewenfeld","3.3.3","0","s","NA","s","h","NA","s","400","NA","30281","40168","NA","400","2","legacy","1024","2","48000","-16","experiment","SSSSS","4","even","246068","32950","216758","NA","235592","2638","NA","NA","247144","2649","176589","NA","247259","247661","247132","247258","Flanker Task","89","50965","99","yes","1024"
"90","90","513.44","513.44","black","legacy","legacy","legacy","0","congruent","uniform","1","undefined","1","h","99","0","0","0","99","0","99","0","99","0","0","0","99","99","99","99","Sat Sep 26 14:36:14 2020","600","The main experiment item","yes","FlankerTask.osexp","/Users/suzannejosey","no","mono","no","18","no","white","no","yes","768","legacy","19","79","/Users/suzannejosey/subject-4.csv","legacy","Lentiform Loewenfeld","3.3.3","0","h","NA","s","h","NA","h","379","NA","30281","40168","NA","379","2","legacy","1024","2","48000","-16","experiment","HHHHH","4","even","247672","32950","216758","NA","235592","2638","NA","NA","248753","2649","176589","NA","248868","249248","248737","248868","Flanker Task","90","51344","100","yes","1024"
"90.0990099009901","90.0990099009901","513.049504950495","513.049504950495","black","legacy","legacy","legacy","0","incongruent","uniform","1","undefined","1","s","100","0","0","0","100","0","100","0","100","0","0","0","100","100","100","100","Sat Sep 26 14:36:14 2020","600","The main experiment item","yes","FlankerTask.osexp","/Users/suzannejosey","no","mono","no","18","no","white","no","yes","768","legacy","20","79","/Users/suzannejosey/subject-4.csv","legacy","Lentiform Loewenfeld","3.3.3","0","s","NA","s","h","NA","s","474","NA","30281","40168","NA","474","2","legacy","1024","2","48000","-16","experiment","HHSHH","4","even","249261","32950","216758","NA","235592","2638","NA","NA","250333","2649","176589","NA","250447","250922","250321","250447","Flanker Task","91","51818","101","yes","1024"
"90.19607843137256","90.19607843137256","512.6862745098039","512.6862745098039","black","legacy","legacy","legacy","0","incongruent","uniform","1","undefined","1","h","101","0","0","0","101","0","101","0","101","0","0","0","101","101","101","101","Sat Sep 26 14:36:14 2020","600","The main experiment item","yes","FlankerTask.osexp","/Users/suzannejosey","no","mono","no","18","no","white","no","yes","768","legacy","21","79","/Users/suzannejosey/subject-4.csv","legacy","Lentiform Loewenfeld","3.3.3","0","h","NA","s","h","NA","h","476","NA","30281","40168","NA","476","2","legacy","1024","2","48000","-16","experiment","SSHSS","4","even","250937","32950","216758","NA","235592","2638","NA","NA","252007","2649","176589","NA","252123","252600","251997","252123","Flanker Task","92","52294","102","yes","1024"
"90.29126213592232","90.29126213592232","511.3495145631068","511.3495145631068","black","legacy","legacy","legacy","0","incongruent","uniform","1","undefined","1","s","102","0","0","0","102","0","102","0","102","0","0","0","102","102","102","102","Sat Sep 26 14:36:14 2020","600","The main experiment item","yes","FlankerTask.osexp","/Users/suzannejosey","no","mono","no","18","no","white","no","yes","768","legacy","22","79","/Users/suzannejosey/subject-4.csv","legacy","Lentiform Loewenfeld","3.3.3","0","s","NA","s","h","NA","s","375","NA","30281","40168","NA","375","2","legacy","1024","2","48000","-16","experiment","HHSHH","4","even","252614","32950","216758","NA","235592","2638","NA","NA","253688","2649","176589","NA","253802","254178","253676","253802","Flanker Task","93","52669","103","yes","1024"
"90.38461538461539","90.38461538461539","510.0769230769231","510.0769230769231","black","legacy","legacy","legacy","0","incongruent","uniform","1","undefined","1","h","103","0","0","0","103","0","103","0","103","0","0","0","103","103","103","103","Sat Sep 26 14:36:14 2020","600","The main experiment item","yes","FlankerTask.osexp","/Users/suzannejosey","no","mono","no","18","no","white","no","yes","768","legacy","23","79","/Users/suzannejosey/subject-4.csv","legacy","Lentiform Loewenfeld","3.3.3","0","h","NA","s","h","NA","h","379","NA","30281","40168","NA","379","2","legacy","1024","2","48000","-16","experiment","SSHSS","4","even","254192","32950","216758","NA","235592","2638","NA","NA","255267","2649","176589","NA","255381","255761","255255","255381","Flanker Task","94","53048","104","yes","1024"
"90.47619047619048","90.47619047619048","510.9142857142857","510.9142857142857","black","legacy","legacy","legacy","0","incongruent","uniform","1","undefined","1","s","104","0","0","0","104","0","104","0","104","0","0","0","104","104","104","104","Sat Sep 26 14:36:14 2020","600","The main experiment item","yes","FlankerTask.osexp","/Users/suzannejosey","no","mono","no","18","no","white","no","yes","768","legacy","24","79","/Users/suzannejosey/subject-4.csv","legacy","Lentiform Loewenfeld","3.3.3","0","s","NA","s","h","NA","s","598","NA","30281","40168","NA","598","2","legacy","1024","2","48000","-16","experiment","HHSHH","4","even","255775","32950","216758","NA","235592","2638","NA","NA","256853","2649","176589","NA","256967","257566","256840","256967","Flanker Task","95","53646","105","yes","1024"
"90.56603773584905","90.56603773584905","509.70754716981133","509.70754716981133","black","legacy","legacy","legacy","0","congruent","uniform","1","undefined","1","s","105","0","0","0","105","0","105","0","105","0","0","0","105","105","105","105","Sat Sep 26 14:36:14 2020","600","The main experiment item","yes","FlankerTask.osexp","/Users/suzannejosey","no","mono","no","18","no","white","no","yes","768","legacy","25","79","/Users/suzannejosey/subject-4.csv","legacy","Lentiform Loewenfeld","3.3.3","0","s","NA","s","h","NA","s","383","NA","30281","40168","NA","383","2","legacy","1024","2","48000","-16","experiment","SSSSS","4","even","257580","32950","216758","NA","235592","2638","NA","NA","258656","2649","176589","NA","258770","259155","258644","258770","Flanker Task","96","54029","106","yes","1024"
"90.65420560747664","90.65420560747664","509.0934579439252","509.0934579439252","black","legacy","legacy","legacy","0","congruent","uniform","1","undefined","1","s","106","0","0","0","106","0","106","0","106","0","0","0","106","106","106","106","Sat Sep 26 14:36:14 2020","600","The main experiment item","yes","FlankerTask.osexp","/Users/suzannejosey","no","mono","no","18","no","white","no","yes","768","legacy","26","79","/Users/suzannejosey/subject-4.csv","legacy","Lentiform Loewenfeld","3.3.3","0","s","NA","s","h","NA","s","444","NA","30281","40168","NA","444","2","legacy","1024","2","48000","-16","experiment","SSSSS","4","even","259167","32950","216758","NA","235592","2638","NA","NA","260241","2649","176589","NA","260356","260801","260229","260356","Flanker Task","97","54473","107","yes","1024"
"90.74074074074075","90.74074074074075","508.18518518518516","508.18518518518516","black","legacy","legacy","legacy","0","congruent","uniform","1","undefined","1","s","107","0","0","0","107","0","107","0","107","0","0","0","107","107","107","107","Sat Sep 26 14:36:14 2020","600","The main experiment item","yes","FlankerTask.osexp","/Users/suzannejosey","no","mono","no","18","no","white","no","yes","768","legacy","27","79","/Users/suzannejosey/subject-4.csv","legacy","Lentiform Loewenfeld","3.3.3","0","s","NA","s","h","NA","s","411","NA","30281","40168","NA","411","2","legacy","1024","2","48000","-16","experiment","SSSSS","4","even","260815","32950","216758","NA","235592","2638","NA","NA","261888","2649","176589","NA","262002","262414","261876","262002","Flanker Task","98","54884","108","yes","1024"
"90.8256880733945","90.8256880733945","507.27522935779814","507.27522935779814","black","legacy","legacy","legacy","0","incongruent","uniform","1","undefined","1","h","108","0","0","0","108","0","108","0","108","0","0","0","108","108","108","108","Sat Sep 26 14:36:14 2020","600","The main experiment item","yes","FlankerTask.osexp","/Users/suzannejosey","no","mono","no","18","no","white","no","yes","768","legacy","28","79","/Users/suzannejosey/subject-4.csv","legacy","Lentiform Loewenfeld","3.3.3","0","h","NA","s","h","NA","h","409","NA","30281","40168","NA","409","2","legacy","1024","2","48000","-16","experiment","SSHSS","4","even","262428","32950","216758","NA","235592","2638","NA","NA","263502","2649","176589","NA","263616","264026","263490","263616","Flanker Task","99","55293","109","yes","1024"
"90","90","505.41818181818184","505.41818181818184","black","legacy","legacy","legacy","0","congruent","uniform","0","undefined","0","h","109","0","0","0","109","0","109","0","109","0","0","0","109","109","109","109","Sat Sep 26 14:36:14 2020","600","The main experiment item","yes","FlankerTask.osexp","/Users/suzannejosey","no","mono","no","18","no","white","no","yes","768","legacy","29","79","/Users/suzannejosey/subject-4.csv","legacy","Lentiform Loewenfeld","3.3.3","0","s","NA","s","h","NA","s","303","NA","30281","40168","NA","303","2","legacy","1024","2","48000","-16","experiment","HHHHH","4","even","264040","32950","216758","NA","235592","2638","NA","NA","265116","2649","176589","NA","265229","265533","265104","265229","Flanker Task","99","55596","110","yes","1024"
"90.09009009009009","90.09009009009009","505.1171171171171","505.1171171171171","black","legacy","legacy","legacy","0","incongruent","uniform","1","undefined","1","s","110","0","0","0","110","0","110","0","110","0","0","0","110","110","110","110","Sat Sep 26 14:36:14 2020","600","The main experiment item","yes","FlankerTask.osexp","/Users/suzannejosey","no","mono","no","18","no","white","no","yes","768","legacy","30","79","/Users/suzannejosey/subject-4.csv","legacy","Lentiform Loewenfeld","3.3.3","0","s","NA","s","h","NA","s","472","NA","30281","40168","NA","472","2","legacy","1024","2","48000","-16","experiment","HHSHH","4","even","266059","32950","216758","NA","265547","2638","NA","NA","267136","2649","176589","NA","267250","267723","267124","267250","Flanker Task","100","56068","111","yes","1024"
"90.17857142857143","90.17857142857143","505.42857142857144","505.42857142857144","black","legacy","legacy","legacy","0","congruent","uniform","1","undefined","1","h","111","0","0","0","111","0","111","0","111","0","0","0","111","111","111","111","Sat Sep 26 14:36:14 2020","600","The main experiment item","yes","FlankerTask.osexp","/Users/suzannejosey","no","mono","no","18","no","white","no","yes","768","legacy","31","79","/Users/suzannejosey/subject-4.csv","legacy","Lentiform Loewenfeld","3.3.3","0","h","NA","s","h","NA","h","540","NA","30281","40168","NA","540","2","legacy","1024","2","48000","-16","experiment","HHHHH","4","even","267737","32950","216758","NA","265547","2638","NA","NA","268809","2649","176589","NA","268923","269464","268797","268923","Flanker Task","101","56608","112","yes","1024"
"90.26548672566372","90.26548672566372","505.1858407079646","505.1858407079646","black","legacy","legacy","legacy","0","congruent","uniform","1","undefined","1","s","112","0","0","0","112","0","112","0","112","0","0","0","112","112","112","112","Sat Sep 26 14:36:14 2020","600","The main experiment item","yes","FlankerTask.osexp","/Users/suzannejosey","no","mono","no","18","no","white","no","yes","768","legacy","32","79","/Users/suzannejosey/subject-4.csv","legacy","Lentiform Loewenfeld","3.3.3","0","s","NA","s","h","NA","s","478","NA","30281","40168","NA","478","2","legacy","1024","2","48000","-16","experiment","SSSSS","4","even","269477","32950","216758","NA","265547","2638","NA","NA","270551","2649","176589","NA","270665","271144","270539","270665","Flanker Task","102","57086","113","yes","1024"
"90.35087719298245","90.35087719298245","504.0263157894737","504.0263157894737","black","legacy","legacy","legacy","0","incongruent","uniform","1","undefined","1","s","113","0","0","0","113","0","113","0","113","0","0","0","113","113","113","113","Sat Sep 26 14:36:14 2020","600","The main experiment item","yes","FlankerTask.osexp","/Users/suzannejosey","no","mono","no","18","no","white","no","yes","768","legacy","33","79","/Users/suzannejosey/subject-4.csv","legacy","Lentiform Loewenfeld","3.3.3","0","s","NA","s","h","NA","s","373","NA","30281","40168","NA","373","2","legacy","1024","2","48000","-16","experiment","HHSHH","4","even","271158","32950","216758","NA","265547","2638","NA","NA","272232","2649","176589","NA","272346","272720","272220","272346","Flanker Task","103","57459","114","yes","1024"
"90.43478260869566","90.43478260869566","504.03478260869565","504.03478260869565","black","legacy","legacy","legacy","0","congruent","uniform","1","undefined","1","h","114","0","0","0","114","0","114","0","114","0","0","0","114","114","114","114","Sat Sep 26 14:36:14 2020","600","The main experiment item","yes","FlankerTask.osexp","/Users/suzannejosey","no","mono","no","18","no","white","no","yes","768","legacy","34","79","/Users/suzannejosey/subject-4.csv","legacy","Lentiform Loewenfeld","3.3.3","0","h","NA","s","h","NA","h","505","NA","30281","40168","NA","505","2","legacy","1024","2","48000","-16","experiment","HHHHH","4","even","272733","32950","216758","NA","265547","2638","NA","NA","273807","2649","176589","NA","273921","274427","273795","273921","Flanker Task","104","57964","115","yes","1024"
"90.51724137931035","90.51724137931035","503.3103448275862","503.3103448275862","black","legacy","legacy","legacy","0","congruent","uniform","1","undefined","1","s","115","0","0","0","115","0","115","0","115","0","0","0","115","115","115","115","Sat Sep 26 14:36:14 2020","600","The main experiment item","yes","FlankerTask.osexp","/Users/suzannejosey","no","mono","no","18","no","white","no","yes","768","legacy","35","79","/Users/suzannejosey/subject-4.csv","legacy","Lentiform Loewenfeld","3.3.3","0","s","NA","s","h","NA","s","420","NA","30281","40168","NA","420","2","legacy","1024","2","48000","-16","experiment","SSSSS","4","even","274440","32950","216758","NA","265547","2638","NA","NA","275515","2649","176589","NA","275630","276051","275503","275630","Flanker Task","105","58384","116","yes","1024"
"90.5982905982906","90.5982905982906","502.94017094017096","502.94017094017096","black","legacy","legacy","legacy","0","congruent","uniform","1","undefined","1","h","116","0","0","0","116","0","116","0","116","0","0","0","116","116","116","116","Sat Sep 26 14:36:14 2020","600","The main experiment item","yes","FlankerTask.osexp","/Users/suzannejosey","no","mono","no","18","no","white","no","yes","768","legacy","36","79","/Users/suzannejosey/subject-4.csv","legacy","Lentiform Loewenfeld","3.3.3","0","h","NA","s","h","NA","h","460","NA","30281","40168","NA","460","2","legacy","1024","2","48000","-16","experiment","HHHHH","4","even","276064","32950","216758","NA","265547","2638","NA","NA","277138","2649","176589","NA","277253","277714","277126","277252","Flanker Task","106","58844","117","yes","1024"
"90.67796610169492","90.67796610169492","501.5762711864407","501.5762711864407","black","legacy","legacy","legacy","0","congruent","uniform","1","undefined","1","h","117","0","0","0","117","0","117","0","117","0","0","0","117","117","117","117","Sat Sep 26 14:36:14 2020","600","The main experiment item","yes","FlankerTask.osexp","/Users/suzannejosey","no","mono","no","18","no","white","no","yes","768","legacy","37","79","/Users/suzannejosey/subject-4.csv","legacy","Lentiform Loewenfeld","3.3.3","0","h","NA","s","h","NA","h","342","NA","30281","40168","NA","342","2","legacy","1024","2","48000","-16","experiment","HHHHH","4","even","277727","32950","216758","NA","265547","2638","NA","NA","278800","2649","176589","NA","278914","279257","278787","278914","Flanker Task","107","59186","118","yes","1024"
"90.75630252100841","90.75630252100841","500.92436974789916","500.92436974789916","black","legacy","legacy","legacy","0","congruent","uniform","1","undefined","1","s","118","0","0","0","118","0","118","0","118","0","0","0","118","118","118","118","Sat Sep 26 14:36:14 2020","600","The main experiment item","yes","FlankerTask.osexp","/Users/suzannejosey","no","mono","no","18","no","white","no","yes","768","legacy","38","79","/Users/suzannejosey/subject-4.csv","legacy","Lentiform Loewenfeld","3.3.3","0","s","NA","s","h","NA","s","424","NA","30281","40168","NA","424","2","legacy","1024","2","48000","-16","experiment","SSSSS","4","even","279270","32950","216758","NA","265547","2638","NA","NA","280344","2649","176589","NA","280457","280882","280332","280456","Flanker Task","108","59610","119","yes","1024"
"90","90","500.89166666666665","500.89166666666665","black","legacy","legacy","legacy","0","incongruent","uniform","0","undefined","0","s","119","0","0","0","119","0","119","0","119","0","0","0","119","119","119","119","Sat Sep 26 14:36:14 2020","600","The main experiment item","yes","FlankerTask.osexp","/Users/suzannejosey","no","mono","no","18","no","white","no","yes","768","legacy","39","79","/Users/suzannejosey/subject-4.csv","legacy","Lentiform Loewenfeld","3.3.3","0","h","NA","s","h","NA","h","497","NA","30281","40168","NA","497","2","legacy","1024","2","48000","-16","experiment","HHSHH","4","even","280895","32950","216758","NA","265547","2638","NA","NA","281971","2649","176589","NA","282085","282583","281959","282085","Flanker Task","108","60107","120","yes","1024"
"89.25619834710744","89.25619834710744","499.1570247933884","499.1570247933884","black","legacy","legacy","legacy","0","incongruent","uniform","0","undefined","0","h","120","0","0","0","120","0","120","0","120","0","0","0","120","120","120","120","Sat Sep 26 14:36:14 2020","600","The main experiment item","yes","FlankerTask.osexp","/Users/suzannejosey","no","mono","no","18","no","white","no","yes","768","legacy","40","79","/Users/suzannejosey/subject-4.csv","legacy","Lentiform Loewenfeld","3.3.3","0","s","NA","s","h","NA","s","291","NA","30281","40168","NA","291","2","legacy","1024","2","48000","-16","experiment","SSHSS","4","even","283110","32950","216758","NA","282597","2638","NA","NA","284187","2649","176589","NA","284301","284593","284175","284301","Flanker Task","108","60398","121","yes","1024"
"89.34426229508196","89.34426229508196","499.11475409836066","499.11475409836066","black","legacy","legacy","legacy","0","incongruent","uniform","1","undefined","1","s","121","0","0","0","121","0","121","0","121","0","0","0","121","121","121","121","Sat Sep 26 14:36:14 2020","600","The main experiment item","yes","FlankerTask.osexp","/Users/suzannejosey","no","mono","no","18","no","white","no","yes","768","legacy","41","79","/Users/suzannejosey/subject-4.csv","legacy","Lentiform Loewenfeld","3.3.3","0","s","NA","s","h","NA","s","494","NA","30281","40168","NA","494","2","legacy","1024","2","48000","-16","experiment","HHSHH","4","even","285119","32950","216758","NA","284606","2638","NA","NA","286192","2649","176589","NA","286307","286802","286180","286306","Flanker Task","109","60892","122","yes","1024"
"89.4308943089431","89.4308943089431","498.0894308943089","498.0894308943089","black","legacy","legacy","legacy","0","congruent","uniform","1","undefined","1","h","122","0","0","0","122","0","122","0","122","0","0","0","122","122","122","122","Sat Sep 26 14:36:14 2020","600","The main experiment item","yes","FlankerTask.osexp","/Users/suzannejosey","no","mono","no","18","no","white","no","yes","768","legacy","42","79","/Users/suzannejosey/subject-4.csv","legacy","Lentiform Loewenfeld","3.3.3","0","h","NA","s","h","NA","h","373","NA","30281","40168","NA","373","2","legacy","1024","2","48000","-16","experiment","HHHHH","4","even","286815","32950","216758","NA","284606","2638","NA","NA","287888","2649","176589","NA","288001","288375","287876","288001","Flanker Task","110","61265","123","yes","1024"
"89.51612903225806","89.51612903225806","496.43548387096774","496.43548387096774","black","legacy","legacy","legacy","0","incongruent","uniform","1","undefined","1","h","123","0","0","0","123","0","123","0","123","0","0","0","123","123","123","123","Sat Sep 26 14:36:14 2020","600","The main experiment item","yes","FlankerTask.osexp","/Users/suzannejosey","no","mono","no","18","no","white","no","yes","768","legacy","43","79","/Users/suzannejosey/subject-4.csv","legacy","Lentiform Loewenfeld","3.3.3","0","h","NA","s","h","NA","h","293","NA","30281","40168","NA","293","2","legacy","1024","2","48000","-16","experiment","SSHSS","4","even","288388","32950","216758","NA","284606","2638","NA","NA","289462","2649","176589","NA","289576","289870","289450","289576","Flanker Task","111","61558","124","yes","1024"
"89.6","89.6","495.768","495.768","black","legacy","legacy","legacy","0","congruent","uniform","1","undefined","1","h","124","0","0","0","124","0","124","0","124","0","0","0","124","124","124","124","Sat Sep 26 14:36:14 2020","600","The main experiment item","yes","FlankerTask.osexp","/Users/suzannejosey","no","mono","no","18","no","white","no","yes","768","legacy","44","79","/Users/suzannejosey/subject-4.csv","legacy","Lentiform Loewenfeld","3.3.3","0","h","NA","s","h","NA","h","413","NA","30281","40168","NA","413","2","legacy","1024","2","48000","-16","experiment","HHHHH","4","even","289883","32950","216758","NA","284606","2638","NA","NA","290958","2649","176589","NA","291070","291484","290946","291070","Flanker Task","112","61971","125","yes","1024"
